#time,accel_x,accel_y,accel_z
1471.015393,-8438.347739,-229.828649,666.185348
1471.015704,-8956.491898,0.000000,666.185348
1471.016015,-9178.553681,0.000000,444.123565
1471.016327,-9030.512492,0.000000,444.123565
1471.016638,-9030.512492,0.000000,444.123565
1471.016949,-9030.512492,0.000000,444.123565
1471.017260,-9030.512492,-306.438199,444.123565
1471.017571,-8956.491898,-153.219100,518.144159
1471.017882,-8660.409521,76.609550,370.102971
1471.018194,-9030.512492,76.609550,296.082377
1471.018505,-8956.491898,229.828649,444.123565
1471.018816,-8734.430116,76.609550,444.123565
1471.019127,-8956.491898,0.000000,518.144159
1471.019438,-9104.533087,229.828649,370.102971
1471.019749,-9030.512492,76.609550,444.123565
1471.020061,-8586.388927,76.609550,666.185348
1471.020372,-8956.491898,0.000000,222.061783
1471.020683,-9030.512492,612.876398,222.061783
1471.020994,-9030.512492,-153.219100,592.164754
1471.021305,-9178.553681,0.000000,296.082377
1471.021616,-8956.491898,-306.438199,518.144159
1471.021928,-8882.471304,-153.219100,370.102971
1471.022239,-9178.553681,-153.219100,444.123565
1471.022550,-9030.512492,0.000000,666.185348
1471.022861,-8808.450710,-229.828649,518.144159
1471.023172,-9104.533087,0.000000,296.082377
1471.023483,-9252.574275,229.828649,148.041188
1471.023794,-8882.471304,76.609550,444.123565
1471.024106,-8808.450710,153.219100,518.144159
1471.024417,-8956.491898,0.000000,518.144159
1471.024728,-8882.471304,0.000000,444.123565
1471.025039,-8882.471304,-306.438199,518.144159
1471.025350,-8660.409521,0.000000,444.123565
1471.025661,-9104.533087,0.000000,444.123565
1471.025973,-8660.409521,459.657299,444.123565
1471.026284,-8882.471304,-229.828649,518.144159
1471.026595,-8882.471304,-306.438199,444.123565
1471.026906,-9104.533087,0.000000,518.144159
1471.027217,-8882.471304,-306.438199,370.102971
1471.027528,-9178.553681,-383.047749,148.041188
1471.027840,-8882.471304,-229.828649,296.082377
1471.028151,-8808.450710,-306.438199,-0.000000
1471.028462,-8882.471304,153.219100,592.164754
1471.028773,-9030.512492,0.000000,444.123565
1471.029084,-9030.512492,0.000000,592.164754
1471.029395,-8956.491898,0.000000,444.123565
1471.029707,-8956.491898,76.609550,518.144159
1471.030018,-8586.388927,229.828649,666.185348
1471.030329,-8956.491898,-383.047749,296.082377
1471.030640,-8882.471304,76.609550,370.102971
1471.030951,-9178.553681,0.000000,740.205942
1471.031262,-8882.471304,-306.438199,518.144159
1471.031573,-8660.409521,0.000000,592.164754
1471.031885,-8808.450710,-153.219100,518.144159
1471.032196,-8808.450710,76.609550,592.164754
1471.032507,-8734.430116,383.047749,666.185348
1471.032818,-9326.594869,153.219100,-0.000000
1471.033129,-9030.512492,383.047749,592.164754
1471.033440,-9104.533087,229.828649,444.123565
1471.033752,-9030.512492,76.609550,444.123565
1471.034063,-8882.471304,0.000000,814.226536
1471.034374,-9104.533087,0.000000,518.144159
1471.034685,-8808.450710,0.000000,666.185348
1471.034996,-9252.574275,0.000000,370.102971
1471.035307,-8956.491898,536.266849,444.123565
1471.035619,-8734.430116,0.000000,814.226536
1471.035930,-8882.471304,-383.047749,518.144159
1471.036241,-8956.491898,0.000000,444.123565
1471.036552,-8808.450710,-153.219100,666.185348
1471.036863,-8882.471304,0.000000,444.123565
1471.037174,-8734.430116,-612.876398,518.144159
1471.037486,-8660.409521,0.000000,296.082377
1471.037797,-9252.574275,0.000000,-148.041188
1471.038108,-9104.533087,229.828649,666.185348
1471.038419,-9030.512492,153.219100,518.144159
1471.038730,-8956.491898,0.000000,518.144159
1471.039041,-9104.533087,0.000000,444.123565
1471.039352,-9104.533087,0.000000,518.144159
1471.039664,-8882.471304,-383.047749,518.144159
1471.039975,-8660.409521,-153.219100,444.123565
1471.040286,-8660.409521,153.219100,444.123565
1471.040597,-8660.409521,-153.219100,518.144159
1471.040908,-8882.471304,-153.219100,592.164754
1471.041219,-8882.471304,-153.219100,370.102971
1471.041531,-8882.471304,0.000000,592.164754
1471.041842,-9104.533087,0.000000,370.102971
1471.042153,-9030.512492,-229.828649,444.123565
1471.042464,-8734.430116,-229.828649,-0.000000
1471.042775,-8956.491898,-383.047749,888.247130
1471.043086,-8586.388927,0.000000,888.247130
1471.043398,-9548.656652,153.219100,518.144159
1471.043709,-11769.274478,1072.533697,148.041188
1471.044020,-10658.965565,3753.867940,518.144159
1471.044331,-8364.327145,4826.401637,518.144159
1471.044642,-7105.977043,3217.601092,1184.329507
1471.044953,-6587.832884,76.609550,1036.288319
1471.045265,-6957.935855,-1302.362347,-0.000000
1471.045576,-7476.080014,-919.314598,-0.000000
1471.045887,-8660.409521,-766.095498,-592.164754
1471.046198,-12805.562797,-1225.752797,-1184.329507
1471.046509,-11991.336260,306.438199,-0.000000
1471.046820,-10066.800811,766.095498,518.144159
1471.047131,-8734.430116,0.000000,2146.597232
1471.047443,-10066.800811,-919.314598,2516.700203
1471.047754,-11621.233289,1762.019645,1554.432478
1471.048065,-6439.791695,5209.449386,2590.720797
1471.048376,-5107.421000,4749.792088,1628.453072
1471.048687,-7846.182985,2834.553343,370.102971
1471.048998,-7105.977043,2757.943793,-1036.288319
1471.049310,-7550.100608,2834.553343,-2220.617826
1471.049621,-9104.533087,3830.477490,-888.247130
1471.049932,-9622.677246,4290.134789,-666.185348
1471.050243,-14656.077652,536.266849,-888.247130
1471.050554,-12287.418637,-1225.752797,2146.597232
1471.050865,-8290.306550,-919.314598,1998.556043
1471.051177,-10140.821405,1685.410096,1184.329507
1471.051488,-7624.121203,6435.202183,2516.700203
1471.051799,-7624.121203,4596.572988,1184.329507
1471.052110,-6587.832884,3830.477490,2738.761985
1471.052421,-6587.832884,4903.011187,2368.659014
1471.052732,-8142.265362,6741.640382,-0.000000
1471.053044,-8438.347739,5975.544884,-1036.288319
1471.053355,-9622.677246,4673.182538,-962.267725
1471.053666,-9548.656652,5056.230287,-1554.432478
1471.053977,-11621.233289,6128.763984,-592.164754
1471.054288,-12287.418637,5822.325785,-0.000000
1471.054599,-10510.924376,4903.011187,1776.494261
1471.054910,-10214.842000,4213.525239,1776.494261
1471.055222,-8438.347739,5975.544884,2960.823768
1471.055533,-5921.647536,5439.278036,370.102971
1471.055844,-5477.523971,5822.325785,444.123565
1471.056155,-4885.359217,5286.058936,592.164754
1471.056466,-5625.565159,5515.887586,-296.082377
1471.056777,-7105.977043,4749.792088,-1110.308913
1471.057089,-8364.327145,3753.867940,-592.164754
1471.057400,-9474.636058,2604.724693,-0.000000
1471.057711,-10732.986159,919.314598,740.205942
1471.058022,-10955.047942,459.657299,1406.391290
1471.058333,-11769.274478,-229.828649,1702.473667
1471.058644,-10807.006753,1532.190996,2368.659014
1471.058956,-9030.512492,2911.162892,2072.576638
1471.059267,-6957.935855,3830.477490,740.205942
1471.059578,-6291.750507,3217.601092,-0.000000
1471.059889,-6513.812290,4060.306139,-1110.308913
1471.060200,-6735.874072,4290.134789,-814.226536
1471.060511,-6661.853478,3677.258390,-1110.308913
1471.060823,-7994.224174,842.705048,-888.247130
1471.061134,-10881.027347,-2451.505594,-296.082377
1471.061445,-11177.109724,-1762.019645,962.267725
1471.061756,-12657.521608,-1762.019645,1258.350101
1471.062067,-14063.912898,-1072.533697,1554.432478
1471.062378,-12435.459826,-612.876398,1406.391290
1471.062689,-11769.274478,842.705048,370.102971
1471.063001,-9696.697840,3217.601092,296.082377
1471.063312,-7179.997637,4290.134789,-148.041188
1471.063623,-6661.853478,4903.011187,-444.123565
1471.063934,-5995.668130,4749.792088,814.226536
1471.064245,-6513.812290,3983.696590,518.144159
1471.064556,-9104.533087,1991.848295,-0.000000
1471.064868,-10955.047942,1455.581446,444.123565
1471.065179,-12509.480420,689.485948,-296.082377
1471.065490,-13323.706956,-306.438199,-0.000000
1471.065801,-14137.933492,-383.047749,370.102971
1471.066112,-13027.624579,1302.362347,592.164754
1471.066423,-10955.047942,3064.381992,962.267725
1471.066735,-8586.388927,4213.525239,2072.576638
1471.067046,-5847.626942,4290.134789,1998.556043
1471.067357,-4071.132681,5439.278036,666.185348
1471.067668,-2368.659014,6128.763984,-0.000000
1471.067979,-2368.659014,5515.887586,-1110.308913
1471.068290,-4293.194464,3753.867940,-1258.350101
1471.068602,-8142.265362,2451.505594,-1480.411884
1471.068913,-11695.253884,2298.286494,-444.123565
1471.069224,-14804.118840,3294.210641,370.102971
1471.069535,-15544.324782,3907.087040,2960.823768
1471.069846,-14211.954086,2987.772442,3404.947333
1471.070157,-10362.883188,2834.553343,3701.029710
1471.070468,-5921.647536,3370.820191,2664.741391
1471.070780,-3034.844362,4136.915689,1036.288319
1471.071091,-1850.514855,6358.592633,-1184.329507
1471.071402,-2812.782580,8580.269578,-2590.720797
1471.071713,-4219.173869,7507.735880,-2368.659014
1471.072024,-7254.018232,4903.011187,-1850.514855
1471.072335,-9178.553681,2911.162892,370.102971
1471.072647,-10510.924376,76.609550,592.164754
1471.072958,-11695.253884,-2757.943793,1702.473667
1471.073269,-12213.398043,-3294.210641,1702.473667
1471.073580,-12509.480420,-1455.581446,1628.453072
1471.073891,-12583.501014,1455.581446,1332.370696
1471.074202,-11843.295072,3524.039291,1332.370696
1471.074514,-10288.862594,4826.401637,1850.514855
1471.074825,-7772.162391,5898.935335,1702.473667
1471.075136,-6365.771101,5822.325785,1110.308913
1471.075447,-6143.709319,3983.696590,-74.020594
1471.075758,-6439.791695,2834.553343,-740.205942
1471.076069,-7846.182985,2604.724693,-2664.741391
1471.076381,-9474.636058,3524.039291,-2738.761985
1471.076692,-11325.150913,3064.381992,-2590.720797
1471.077003,-11843.295072,2681.334243,-518.144159
1471.077314,-12065.356855,919.314598,1850.514855
1471.077625,-12953.603985,-229.828649,3034.844362
1471.077936,-13027.624579,1608.800546,2590.720797
1471.078247,-11769.274478,4519.963438,2146.597232
1471.078559,-9326.594869,7277.907231,222.061783
1471.078870,-6587.832884,6818.249932,-0.000000
1471.079181,-5773.606348,4903.011187,-1406.391290
1471.079492,-5477.523971,3064.381992,-962.267725
1471.079803,-7402.059420,2374.896044,-962.267725
1471.080114,-9104.533087,2604.724693,-0.000000
1471.080426,-9622.677246,2145.067394,222.061783
1471.080737,-9104.533087,-842.705048,1332.370696
1471.081048,-6661.853478,-3294.210641,2442.679609
1471.081359,-7328.038826,-3447.429741,1332.370696
1471.081670,-8512.368333,1072.533697,888.247130
1471.081981,-9844.739029,5439.278036,-148.041188
1471.082293,-11399.171507,9422.974625,-740.205942
1471.082604,-11399.171507,10265.679673,444.123565
1471.082915,-10510.924376,7354.516781,888.247130
1471.083226,-8586.388927,3830.477490,1184.329507
1471.083537,-8216.285956,2451.505594,666.185348
1471.083848,-7105.977043,3907.087040,666.185348
1471.084160,-5995.668130,3907.087040,444.123565
1471.084471,-5255.462188,1915.238745,666.185348
1471.084782,-5107.421000,-459.657299,592.164754
1471.085093,-6957.935855,-689.485948,-0.000000
1471.085404,-8956.491898,2298.286494,-666.185348
1471.085715,-11103.089130,6205.373534,-1332.370696
1471.086026,-11843.295072,8273.831378,-0.000000
1471.086338,-13027.624579,6665.030833,1998.556043
1471.086649,-14211.954086,2298.286494,2812.782580
1471.086960,-12805.562797,1532.190996,3108.864956
1471.087271,-9030.512492,3677.258390,2812.782580
1471.087582,-5255.462188,3524.039291,1850.514855
1471.087893,-4071.132681,-689.485948,1184.329507
1471.088205,-3997.112087,-5209.449386,-296.082377
1471.088516,-4663.297435,-5745.716235,-814.226536
1471.088827,-5403.503377,0.000000,-296.082377
1471.089138,-8734.430116,4826.401637,-592.164754
1471.089449,-12805.562797,4749.792088,-592.164754
1471.089760,-15840.407159,1991.848295,962.267725
1471.090072,-17468.860231,1991.848295,2368.659014
1471.090383,-14730.098246,5592.497135,3034.844362
1471.090694,-11103.089130,9116.536426,1554.432478
1471.091006,-6883.915261,5286.058936,518.144159
1471.091317,-3034.844362,0.000000,370.102971
1471.091629,-814.226536,-2145.067394,-1184.329507
1471.091940,0.000000,1072.533697,-1036.288319
1471.092251,-3330.926739,4290.134789,-814.226536
1471.092563,-10214.842000,2834.553343,-592.164754
1471.092874,-15470.304188,1225.752797,296.082377
1471.093186,-16358.551318,3217.601092,518.144159
1471.093497,-14582.057057,5898.935335,-74.020594
1471.093808,-12361.439231,4826.401637,-74.020594
1471.094120,-11621.233289,1991.848295,-1406.391290
1471.094431,-9178.553681,1072.533697,-1258.350101
1471.094743,-5033.400406,2604.724693,-518.144159
1471.095054,-4811.338623,2681.334243,1258.350101
1471.095366,-6513.812290,1915.238745,2368.659014
1471.095677,-8734.430116,-842.705048,2738.761985
1471.095988,-9548.656652,-459.657299,2738.761985
1471.096300,-9030.512492,3907.087040,1850.514855
1471.096611,-9696.697840,8656.879127,-666.185348
1471.096923,-10214.842000,8427.050478,-3256.906145
1471.097234,-8808.450710,6052.154434,-4293.194464
1471.097545,-6661.853478,5898.935335,-3997.112087
1471.097857,-9770.718434,9116.536426,-2442.679609
1471.098168,-13397.727550,9039.926876,-370.102971
1471.098480,-13915.871710,4673.182538,2738.761985
1471.098791,-11991.336260,-689.485948,4441.235652
1471.099102,-7328.038826,-1225.752797,4811.338623
1471.099414,-4737.318029,995.924147,2294.638420
1471.099725,-3404.947333,1838.629195,-222.061783
1471.100037,-1258.350101,1838.629195,-1184.329507
1471.100348,-3849.070898,3140.991542,-1850.514855
1471.100659,-9770.718434,5209.449386,-0.000000
1471.100971,-14582.057057,6741.640382,1554.432478
1471.101282,-16654.633695,6128.763984,3034.844362
1471.101594,-13545.768739,4673.182538,3627.009116
1471.101905,-9770.718434,3217.601092,1332.370696
1471.102217,-5699.585753,1915.238745,-222.061783
1471.102528,-2294.638420,689.485948,-666.185348
1471.102839,-3701.029710,-1762.019645,-0.000000
1471.103151,-5477.523971,-1915.238745,1110.308913
1471.103462,-8290.306550,-1072.533697,2664.741391
1471.103774,-10436.903782,-3064.381992,3627.009116
1471.104085,-10807.006753,-4519.963438,3256.906145
1471.104396,-8808.450710,-2068.457845,1480.411884
1471.104708,-5699.585753,1608.800546,-1406.391290
1471.105019,-6587.832884,1838.629195,-1554.432478
1471.105331,-9992.780217,612.876398,-1554.432478
1471.105642,-11695.253884,459.657299,-0.000000
1471.105953,-11769.274478,689.485948,2590.720797
1471.106265,-12139.377449,-1838.629195,3701.029710
1471.106576,-12139.377449,-1378.971896,2812.782580
1471.106888,-8734.430116,1532.190996,1184.329507
1471.107199,-5921.647536,1378.971896,-444.123565
1471.107510,-5995.668130,76.609550,-1480.411884
1471.107822,-7846.182985,1685.410096,-1776.494261
1471.108133,-11399.171507,4136.915689,-2738.761985
1471.108445,-13323.706956,3983.696590,-2368.659014
1471.108756,-14063.912898,3907.087040,-2812.782580
1471.109068,-12139.377449,5515.887586,-2516.700203
1471.109379,-9992.780217,4903.011187,-740.205942
1471.109690,-9104.533087,1072.533697,1776.494261
1471.110002,-9178.553681,-2451.505594,2368.659014
1471.110313,-9696.697840,-1838.629195,3552.988522
1471.110625,-9030.512492,-1378.971896,3627.009116
1471.110936,-8512.368333,-2145.067394,370.102971
1471.111247,-6587.832884,-536.266849,-2368.659014
1471.111559,-5033.400406,1532.190996,-3701.029710
1471.111870,-6735.874072,1838.629195,-3552.988522
1471.112182,-8808.450710,2451.505594,-2368.659014
1471.112493,-11177.109724,1685.410096,518.144159
1471.112804,-13175.665768,-153.219100,2886.803174
1471.113116,-11695.253884,-3294.210641,3701.029710
1471.113427,-8660.409521,-3447.429741,2886.803174
1471.113739,-5403.503377,-766.095498,1332.370696
1471.114050,-3627.009116,612.876398,1110.308913
1471.114361,-4219.173869,-383.047749,1184.329507
1471.114673,-7031.956449,-1455.581446,1554.432478
1471.114984,-9030.512492,-1149.143247,3330.926739
1471.115296,-8068.244768,-612.876398,2442.679609
1471.115607,-7550.100608,536.266849,-148.041188
1471.115919,-5847.626942,1762.019645,-2146.597232
1471.116230,-4219.173869,1915.238745,-3182.885551
1471.116541,-6735.874072,1532.190996,-2960.823768
1471.116853,-9770.718434,1608.800546,740.205942
1471.117164,-13249.686362,919.314598,2442.679609
1471.117476,-14952.160028,-1149.143247,3256.906145
1471.117787,-11917.315666,-2221.676944,4589.276840
1471.118098,-10362.883188,-2451.505594,3330.926739
1471.118410,-7624.121203,-2451.505594,2072.576638
1471.118721,-6365.771101,-1685.410096,-0.000000
1471.119033,-7698.141797,-1378.971896,-296.082377
1471.119344,-8956.491898,0.000000,-148.041188
1471.119655,-10658.965565,766.095498,-1850.514855
1471.119967,-10066.800811,1915.238745,-2590.720797
1471.120278,-9844.739029,612.876398,-1554.432478
1471.120590,-11029.068536,153.219100,-148.041188
1471.120901,-10955.047942,612.876398,592.164754
1471.121212,-12805.562797,0.000000,2368.659014
1471.121524,-14211.954086,-1991.848295,4737.318029
1471.121835,-12213.398043,-2834.553343,4219.173869
1471.122147,-10066.800811,-1915.238745,1850.514855
1471.122458,-7328.038826,-766.095498,592.164754
1471.122770,-5773.606348,1225.752797,-1554.432478
1471.123081,-6439.791695,3140.991542,-3256.906145
1471.123392,-7254.018232,3983.696590,-1998.556043
1471.123704,-8142.265362,3064.381992,-74.020594
1471.124015,-8882.471304,1302.362347,-296.082377
1471.124327,-7772.162391,2451.505594,-296.082377
1471.124638,-6661.853478,2528.115143,592.164754
1471.124949,-6587.832884,1915.238745,888.247130
1471.125261,-6439.791695,842.705048,962.267725
1471.125572,-8512.368333,-229.828649,2146.597232
1471.125884,-9474.636058,-2221.676944,2516.700203
1471.126195,-8512.368333,-3064.381992,1924.535449
1471.126506,-7772.162391,-2451.505594,-148.041188
1471.126818,-6143.709319,-1762.019645,-0.000000
1471.127129,-6809.894666,-2681.334243,-1480.411884
1471.127441,-7698.141797,-766.095498,-1184.329507
1471.127752,-8956.491898,76.609550,-296.082377
1471.128063,-10658.965565,459.657299,1036.288319
1471.128375,-10288.862594,383.047749,1184.329507
1471.128686,-8142.265362,842.705048,1258.350101
1471.128998,-6587.832884,842.705048,592.164754
1471.129309,-5847.626942,0.000000,1554.432478
1471.129621,-7105.977043,-612.876398,-148.041188
1471.129932,-9696.697840,0.000000,-0.000000
1471.130243,-11695.253884,-536.266849,518.144159
1471.130555,-12953.603985,-1685.410096,-666.185348
1471.130866,-12213.398043,-766.095498,-1702.473667
1471.131178,-11029.068536,76.609550,-1850.514855
1471.131489,-10214.842000,-153.219100,-1850.514855
1471.131800,-10288.862594,0.000000,-2294.638420
1471.132112,-11621.233289,2528.115143,370.102971
1471.132423,-12065.356855,1762.019645,2146.597232
1471.132735,-9918.759623,536.266849,2960.823768
1471.133046,-7772.162391,536.266849,3478.967927
1471.133357,-6143.709319,459.657299,3034.844362
1471.133669,-6217.729913,0.000000,1554.432478
1471.133980,-7994.224174,-229.828649,-666.185348
1471.134292,-9548.656652,919.314598,-1110.308913
1471.134603,-13027.624579,459.657299,-1110.308913
1471.134914,-14137.933492,-689.485948,-1554.432478
1471.135226,-11843.295072,-1302.362347,-740.205942
1471.135537,-10436.903782,-1532.190996,148.041188
1471.135849,-9474.636058,-1762.019645,888.247130
1471.136160,-7105.977043,-2221.676944,2146.597232
1471.136472,-5551.544565,-2374.896044,3034.844362
1471.136783,-5699.585753,-1608.800546,4811.338623
1471.137094,-4071.132681,-2451.505594,4515.256246
1471.137406,-1850.514855,-919.314598,1184.329507
1471.137717,-3108.864956,-689.485948,1184.329507
1471.138029,-4737.318029,-2451.505594,296.082377
1471.138340,-7328.038826,-1991.848295,-962.267725
1471.138651,-11621.233289,-153.219100,-0.000000
1471.138963,-12953.603985,-995.924147,1184.329507
1471.139274,-12139.377449,-1685.410096,740.205942
1471.139586,-12213.398043,-1302.362347,-592.164754
1471.139897,-12139.377449,1608.800546,-444.123565
1471.140208,-9252.574275,3447.429741,-518.144159
1471.140520,-7920.203579,4519.963438,444.123565
1471.140831,-7179.997637,4749.792088,2590.720797
1471.141143,-4589.276840,1838.629195,3256.906145
1471.141454,-3404.947333,0.000000,1110.308913
1471.141765,-2442.679609,1149.143247,444.123565
1471.142077,-3775.050304,2298.286494,-1924.535449
1471.142388,-9178.553681,1915.238745,-3775.050304
1471.142700,-13471.748144,2374.896044,-4441.235652
1471.143011,-15692.365970,3140.991542,-2664.741391
1471.143323,-17616.901420,1532.190996,-888.247130
1471.143634,-17320.819043,-689.485948,148.041188
1471.143945,-14730.098246,-995.924147,1480.411884
1471.144257,-11177.109724,-1608.800546,2368.659014
1471.144568,-7920.203579,-383.047749,3478.967927
1471.144880,-6587.832884,-153.219100,2960.823768
1471.145191,-6513.812290,-1302.362347,2812.782580
1471.145502,-6883.915261,-2528.115143,2146.597232
1471.145814,-5847.626942,-1915.238745,-0.000000
1471.146125,-5995.668130,0.000000,-2146.597232
1471.146437,-7328.038826,-995.924147,-1036.288319
1471.146748,-8808.450710,-2604.724693,-814.226536
1471.147059,-10066.800811,-3294.210641,444.123565
1471.147371,-11325.150913,-1915.238745,2146.597232
1471.147682,-12287.418637,-459.657299,3034.844362
1471.147994,-11769.274478,0.000000,2146.597232
1471.148305,-8586.388927,919.314598,1110.308913
1471.148616,-6217.729913,2451.505594,1036.288319
1471.148928,-5699.585753,1915.238745,-814.226536
1471.149239,-3108.864956,1762.019645,740.205942
1471.149551,-3552.988522,0.000000,1332.370696
1471.149862,-4737.318029,-2528.115143,2516.700203
1471.150174,-5181.441594,-3064.381992,962.267725
1471.150485,-7624.121203,-2068.457845,-74.020594
1471.150796,-10066.800811,-919.314598,-222.061783
1471.151108,-11843.295072,0.000000,-740.205942
1471.151419,-12361.439231,766.095498,-740.205942
1471.151731,-14211.954086,1455.581446,-74.020594
1471.152042,-14804.118840,689.485948,1628.453072
1471.152353,-11917.315666,-383.047749,1850.514855
1471.152665,-9770.718434,-459.657299,1184.329507
1471.152976,-7328.038826,383.047749,1406.391290
1471.153288,-5403.503377,-229.828649,-222.061783
1471.153599,-5255.462188,1149.143247,-740.205942
1471.153910,-6587.832884,919.314598,-1110.308913
1471.154222,-9400.615463,229.828649,-1480.411884
1471.154533,-11473.192101,-153.219100,-1628.453072
1471.154845,-11621.233289,1378.971896,-444.123565
1471.155156,-11547.212695,2221.676944,1036.288319
1471.155467,-11029.068536,919.314598,1406.391290
1471.155779,-10732.986159,-383.047749,1184.329507
1471.156090,-9770.718434,-919.314598,2590.720797
1471.156402,-8808.450710,-766.095498,1332.370696
1471.156713,-7624.121203,-229.828649,-222.061783
1471.157025,-6883.915261,1302.362347,-1184.329507
1471.157336,-6217.729913,1149.143247,-1110.308913
1471.157647,-6069.688724,0.000000,-444.123565
1471.157959,-7624.121203,-459.657299,-0.000000
1471.158270,-9770.718434,-1225.752797,2146.597232
1471.158582,-10288.862594,-1762.019645,3330.926739
1471.158893,-9474.636058,-1608.800546,2146.597232
1471.159204,-7920.203579,-459.657299,148.041188
1471.159516,-7624.121203,153.219100,-444.123565
1471.159827,-5033.400406,1532.190996,-296.082377
1471.160139,-4663.297435,2528.115143,-962.267725
1471.160450,-7476.080014,1225.752797,370.102971
1471.160761,-10881.027347,-1072.533697,444.123565
1471.161073,-10732.986159,-2221.676944,666.185348
1471.161384,-9696.697840,-1302.362347,-222.061783
1471.161696,-9548.656652,0.000000,518.144159
1471.162007,-8956.491898,306.438199,148.041188
1471.162318,-10510.924376,-306.438199,370.102971
1471.162630,-10658.965565,-766.095498,2368.659014
1471.162941,-9474.636058,0.000000,1998.556043
1471.163253,-9696.697840,689.485948,1406.391290
1471.163564,-7254.018232,1532.190996,666.185348
1471.163876,-7031.956449,-383.047749,-296.082377
1471.164187,-7550.100608,-1378.971896,-74.020594
1471.164498,-8364.327145,-306.438199,148.041188
1471.164810,-11177.109724,459.657299,518.144159
1471.165121,-13101.645173,-536.266849,1332.370696
1471.165433,-14211.954086,-1532.190996,444.123565
1471.165744,-11769.274478,-1225.752797,962.267725
1471.166055,-9178.553681,1915.238745,888.247130
1471.166367,-9104.533087,1532.190996,592.164754
1471.166678,-8586.388927,1455.581446,1406.391290
1471.166990,-9252.574275,1072.533697,1998.556043
1471.167301,-8586.388927,1532.190996,3034.844362
1471.167612,-5033.400406,1991.848295,1480.411884
1471.167924,-3997.112087,1838.629195,-1036.288319
1471.168235,-3108.864956,0.000000,-1110.308913
1471.168547,-4145.153275,-2757.943793,-1776.494261
1471.168858,-7328.038826,-2681.334243,-1332.370696
1471.169169,-10510.924376,-2528.115143,666.185348
1471.169481,-13545.768739,-4290.134789,2368.659014
1471.169792,-14137.933492,-5515.887586,1776.494261
1471.170104,-13027.624579,-4290.134789,1332.370696
1471.170415,-10658.965565,-1072.533697,1258.350101
1471.170727,-9030.512492,-229.828649,444.123565
1471.171038,-7846.182985,1225.752797,-222.061783
1471.171349,-7550.100608,1685.410096,1036.288319
1471.171661,-6069.688724,1072.533697,814.226536
1471.171972,-3034.844362,1532.190996,148.041188
1471.172284,-3775.050304,1302.362347,-740.205942
1471.172595,-5255.462188,689.485948,-1628.453072
1471.172906,-6661.853478,76.609550,-2442.679609
1471.173218,-11399.171507,536.266849,-2442.679609
1471.173529,-13841.851115,1762.019645,-296.082377
1471.173841,-15618.345376,76.609550,-296.082377
1471.174152,-16136.489536,0.000000,-222.061783
1471.174463,-13545.768739,842.705048,-0.000000
1471.174775,-10658.965565,2374.896044,148.041188
1471.175086,-9622.677246,3294.210641,-0.000000
1471.175398,-7105.977043,4213.525239,1036.288319
1471.175709,-5995.668130,2451.505594,1850.514855
1471.176021,-5625.565159,995.924147,3108.864956
1471.176332,-5255.462188,995.924147,1924.535449
1471.176643,-5107.421000,306.438199,-148.041188
1471.176955,-6069.688724,-153.219100,-74.020594
1471.177266,-9474.636058,-536.266849,-222.061783
1471.177578,-11843.295072,-919.314598,296.082377
1471.177889,-12953.603985,-766.095498,2368.659014
1471.178200,-14285.974681,-2068.457845,2664.741391
1471.178512,-11621.233289,-2298.286494,1924.535449
1471.178823,-8882.471304,-842.705048,1036.288319
1471.179135,-7105.977043,229.828649,2146.597232
1471.179446,-3997.112087,766.095498,1702.473667
1471.179757,-4885.359217,76.609550,2146.597232
1471.180069,-3478.967927,-536.266849,3701.029710
1471.180380,-3627.009116,-1455.581446,2516.700203
1471.180692,-4589.276840,-2451.505594,1110.308913
1471.181003,-3849.070898,-1838.629195,888.247130
1471.181314,-5995.668130,-2145.067394,444.123565
1471.181626,-8956.491898,-2757.943793,-222.061783
1471.181937,-11769.274478,-1762.019645,296.082377
1471.182249,-14508.036463,-1225.752797,740.205942
1471.182560,-14952.160028,-612.876398,888.247130
1471.182872,-13767.830521,-766.095498,-0.000000
1471.183183,-11399.171507,153.219100,-814.226536
1471.183494,-9474.636058,1225.752797,-370.102971
1471.183806,-8586.388927,1991.848295,-1110.308913
1471.184117,-6513.812290,1915.238745,444.123565
1471.184429,-6365.771101,229.828649,1480.411884
1471.184740,-8216.285956,-1915.238745,1036.288319
1471.185051,-9030.512492,-1455.581446,-1776.494261
1471.185363,-9622.677246,1762.019645,-2368.659014
1471.185674,-11399.171507,3370.820191,-2442.679609
1471.185986,-12657.521608,2298.286494,-2294.638420
1471.186297,-14285.974681,383.047749,-1924.535449
1471.186608,-14582.057057,-229.828649,148.041188
1471.186920,-13471.748144,-612.876398,1184.329507
1471.187231,-11843.295072,-995.924147,-0.000000
1471.187542,-8882.471304,0.000000,296.082377
1471.187854,-6587.832884,536.266849,1184.329507
1471.188165,-4663.297435,-383.047749,-0.000000
1471.188476,-5107.421000,-459.657299,592.164754
1471.188788,-7698.141797,-383.047749,2294.638420
1471.189099,-8142.265362,-1532.190996,1998.556043
1471.189410,-7402.059420,-383.047749,1258.350101
1471.189722,-7624.121203,919.314598,-0.000000
1471.190033,-7402.059420,1072.533697,-592.164754
1471.190344,-6587.832884,229.828649,-74.020594
1471.190656,-5995.668130,-536.266849,222.061783
1471.190967,-8808.450710,-1378.971896,740.205942
1471.191278,-9030.512492,-1302.362347,1036.288319
1471.191590,-8438.347739,-689.485948,296.082377
1471.191901,-7179.997637,0.000000,666.185348
1471.192212,-5551.544565,-1378.971896,1776.494261
1471.192524,-6661.853478,-2068.457845,1184.329507
1471.192835,-7105.977043,-2145.067394,2368.659014
1471.193146,-9030.512492,-1302.362347,3404.947333
1471.193458,-10584.944971,-536.266849,2516.700203
1471.193769,-9992.780217,1762.019645,1184.329507
1471.194081,-9252.574275,2298.286494,-222.061783
1471.194392,-8512.368333,1838.629195,-444.123565
1471.194703,-8438.347739,2145.067394,-962.267725
1471.195015,-9400.615463,2068.457845,-740.205942
1471.195326,-11177.109724,383.047749,1850.514855
1471.195637,-13027.624579,-2145.067394,888.247130
1471.195949,-11917.315666,-1838.629195,814.226536
1471.196260,-10362.883188,-153.219100,444.123565
1471.196571,-9326.594869,-153.219100,222.061783
1471.196883,-8290.306550,-383.047749,-222.061783
1471.197194,-9844.739029,-153.219100,518.144159
1471.197505,-11473.192101,306.438199,1776.494261
1471.197817,-11399.171507,842.705048,1406.391290
1471.198128,-10436.903782,2451.505594,444.123565
1471.198439,-8734.430116,3140.991542,-0.000000
1471.198751,-6735.874072,1915.238745,-222.061783
1471.199062,-5921.647536,612.876398,-1406.391290
1471.199373,-6883.915261,842.705048,-666.185348
1471.199685,-8512.368333,0.000000,666.185348
1471.199996,-10584.944971,-2834.553343,1258.350101
1471.200307,-9918.759623,-2834.553343,444.123565
1471.200619,-8216.285956,-1685.410096,148.041188
1471.200930,-8660.409521,-842.705048,-0.000000
1471.201241,-8068.244768,-842.705048,666.185348
1471.201553,-8216.285956,-306.438199,814.226536
1471.201864,-10214.842000,0.000000,2664.741391
1471.202175,-8216.285956,842.705048,4219.173869
1471.202487,-4959.379811,1072.533697,1776.494261
1471.202798,-2812.782580,995.924147,962.267725
1471.203109,-1258.350101,-536.266849,-0.000000
1471.203421,-2368.659014,-1532.190996,-2368.659014
1471.203732,-6587.832884,-306.438199,-1480.411884
1471.204043,-9918.759623,-536.266849,444.123565
1471.204355,-13397.727550,-2451.505594,370.102971
1471.204666,-13323.706956,-3294.210641,740.205942
1471.204977,-13471.748144,-1378.971896,-74.020594
1471.205289,-13323.706956,-459.657299,-666.185348
1471.205600,-11399.171507,612.876398,-222.061783
1471.205911,-11325.150913,919.314598,518.144159
1471.206223,-10807.006753,842.705048,2368.659014
1471.206534,-8438.347739,0.000000,2368.659014
1471.206845,-5699.585753,766.095498,888.247130
1471.207157,-4589.276840,2145.067394,-814.226536
1471.207468,-6069.688724,1915.238745,-1554.432478
1471.207779,-8586.388927,919.314598,-3034.844362
1471.208091,-11769.274478,995.924147,-2072.576638
1471.208402,-15692.365970,306.438199,-296.082377
1471.208713,-16580.613101,-1378.971896,148.041188
1471.209025,-14211.954086,-1762.019645,222.061783
1471.209336,-12065.356855,-383.047749,222.061783
1471.209647,-9844.739029,1225.752797,370.102971
1471.209959,-7402.059420,1532.190996,592.164754
1471.210270,-5847.626942,995.924147,1924.535449
1471.210581,-4959.379811,766.095498,4515.256246
1471.210893,-5033.400406,-1455.581446,4589.276840
1471.211204,-2442.679609,-1991.848295,1628.453072
1471.211515,-1480.411884,0.000000,888.247130
1471.211827,-4589.276840,-2604.724693,-962.267725
1471.212138,-7105.977043,-2528.115143,-222.061783
1471.212449,-10807.006753,-2068.457845,592.164754
1471.212761,-12953.603985,-2911.162892,962.267725
1471.213072,-13471.748144,-2987.772442,2738.761985
1471.213383,-12435.459826,-3294.210641,1184.329507
1471.213695,-10510.924376,459.657299,666.185348
1471.214006,-8364.327145,459.657299,814.226536
1471.214317,-5625.565159,1149.143247,740.205942
1471.214629,-4737.318029,1072.533697,962.267725
1471.214940,-3256.906145,689.485948,2812.782580
1471.215251,-2368.659014,-766.095498,2590.720797
1471.215563,-3923.091493,-1762.019645,1258.350101
1471.215874,-5625.565159,0.000000,296.082377
1471.216185,-9474.636058,383.047749,-1110.308913
1471.216497,-13101.645173,1685.410096,-2442.679609
1471.216808,-15396.283594,3140.991542,-1554.432478
1471.217119,-17838.963202,2528.115143,-518.144159
1471.217431,-15840.407159,689.485948,-370.102971
1471.217742,-12657.521608,459.657299,-222.061783
1471.218053,-9844.739029,766.095498,444.123565
1471.218365,-8068.244768,1302.362347,1036.288319
1471.218676,-7031.956449,1915.238745,1258.350101
1471.218987,-5995.668130,1302.362347,1258.350101
1471.219299,-7031.956449,0.000000,1702.473667
1471.219610,-7772.162391,-229.828649,740.205942
1471.219921,-8438.347739,1072.533697,-1776.494261
1471.220233,-9770.718434,2834.553343,-1776.494261
1471.220544,-9548.656652,2528.115143,-1110.308913
1471.220855,-10732.986159,612.876398,-148.041188
1471.221167,-12805.562797,-153.219100,296.082377
1471.221478,-12139.377449,0.000000,1628.453072
1471.221790,-11325.150913,-612.876398,444.123565
1471.222101,-7994.224174,306.438199,-0.000000
1471.222412,-4441.235652,1302.362347,-444.123565
1471.222724,-3701.029710,-1072.533697,-0.000000
1471.223035,-2886.803174,-3294.210641,814.226536
1471.223346,-5773.606348,-3370.820191,1110.308913
1471.223658,-8068.244768,-4136.915689,3552.988522
1471.223969,-9178.553681,-4213.525239,3701.029710
1471.224280,-10362.883188,-3294.210641,2442.679609
1471.224592,-10362.883188,-2987.772442,1702.473667
1471.224903,-8290.306550,-1302.362347,962.267725
1471.225214,-6883.915261,0.000000,-370.102971
1471.225526,-9104.533087,1378.971896,-888.247130
1471.225837,-11103.089130,1302.362347,296.082377
1471.226148,-9474.636058,919.314598,-0.000000
1471.226460,-8142.265362,842.705048,-296.082377
1471.226771,-8216.285956,1532.190996,-0.000000
1471.227082,-6513.812290,995.924147,-0.000000
1471.227394,-6809.894666,689.485948,-518.144159
1471.227705,-7994.224174,612.876398,1702.473667
1471.228016,-9474.636058,459.657299,1924.535449
1471.228328,-11325.150913,-306.438199,148.041188
1471.228639,-11547.212695,1072.533697,-740.205942
1471.228950,-11843.295072,1838.629195,-666.185348
1471.229262,-10881.027347,2068.457845,-814.226536
1471.229573,-10807.006753,2604.724693,-888.247130
1471.229884,-11843.295072,1608.800546,444.123565
1471.230196,-11917.315666,-995.924147,1406.391290
1471.230507,-11621.233289,-2221.676944,1110.308913
1471.230818,-8956.491898,-383.047749,370.102971
1471.231130,-8068.244768,229.828649,-740.205942
1471.231441,-6883.915261,-766.095498,-148.041188
1471.231752,-5773.606348,-1915.238745,1110.308913
1471.232064,-8808.450710,-3140.991542,2294.638420
1471.232375,-11177.109724,-2757.943793,3923.091493
1471.232686,-11769.274478,-153.219100,2442.679609
1471.232998,-9178.553681,3140.991542,1406.391290
1471.233309,-7105.977043,3294.210641,-370.102971
1471.233620,-3552.988522,1762.019645,-1258.350101
1471.233932,-2960.823768,612.876398,-2220.617826
1471.234243,-4589.276840,-153.219100,-296.082377
1471.234554,-7624.121203,-1225.752797,1406.391290
1471.234866,-10658.965565,-2374.896044,1036.288319
1471.235177,-10807.006753,-2221.676944,1480.411884
1471.235488,-9326.594869,-2681.334243,1998.556043
1471.235800,-8068.244768,-3064.381992,1702.473667
1471.236111,-8216.285956,-2374.896044,296.082377
1471.236422,-8290.306550,-1149.143247,592.164754
1471.236734,-9400.615463,-766.095498,1924.535449
1471.237045,-9104.533087,-383.047749,1332.370696
1471.237356,-7031.956449,1685.410096,592.164754
1471.237668,-5847.626942,1455.581446,-74.020594
1471.237979,-5699.585753,536.266849,-0.000000
1471.238290,-7476.080014,842.705048,-888.247130
1471.238602,-10584.944971,1072.533697,-814.226536
1471.238913,-13693.809927,612.876398,-0.000000
1471.239224,-14211.954086,-612.876398,-0.000000
1471.239536,-13101.645173,-229.828649,-296.082377
1471.239847,-11325.150913,536.266849,-0.000000
1471.240158,-10140.821405,612.876398,-370.102971
1471.240470,-9992.780217,536.266849,370.102971
1471.240781,-10732.986159,1685.410096,666.185348
1471.241092,-10140.821405,2757.943793,2590.720797
1471.241404,-8512.368333,2374.896044,1332.370696
1471.241715,-6883.915261,2145.067394,-370.102971
1471.242026,-6143.709319,1072.533697,-370.102971
1471.242338,-5033.400406,383.047749,-888.247130
1471.242649,-7254.018232,153.219100,-814.226536
1471.242960,-11843.295072,-919.314598,-592.164754
1471.243272,-12953.603985,-1149.143247,1776.494261
1471.243583,-12953.603985,-1149.143247,1628.453072
1471.243894,-11103.089130,-1608.800546,1554.432478
1471.244206,-7920.203579,-842.705048,370.102971
1471.244517,-6217.729913,0.000000,-518.144159
1471.244828,-5625.565159,689.485948,444.123565
1471.245140,-6143.709319,689.485948,2368.659014
1471.245451,-5403.503377,-1685.410096,2960.823768
1471.245762,-4293.194464,-2451.505594,2812.782580
1471.246074,-3330.926739,-2221.676944,1850.514855
1471.246385,-3478.967927,-3140.991542,296.082377
1471.246696,-5847.626942,-2145.067394,-962.267725
1471.247008,-8142.265362,-995.924147,-518.144159
1471.247319,-11621.233289,-1149.143247,518.144159
1471.247630,-15026.180623,-1608.800546,1702.473667
1471.247942,-15174.221811,-459.657299,1036.288319
1471.248253,-12731.542202,-306.438199,-0.000000
1471.248564,-9474.636058,612.876398,518.144159
1471.248876,-6957.935855,1072.533697,518.144159
1471.249187,-6143.709319,1915.238745,-0.000000
1471.249499,-5847.626942,1225.752797,1110.308913
1471.249810,-7179.997637,-383.047749,1998.556043
1471.250121,-8142.265362,-383.047749,-222.061783
1471.250433,-7920.203579,1455.581446,-1998.556043
1471.250744,-9622.677246,1608.800546,-2442.679609
1471.251055,-11399.171507,229.828649,-2146.597232
1471.251367,-12805.562797,459.657299,-1406.391290
1471.251678,-14804.118840,459.657299,444.123565
1471.251989,-15396.283594,0.000000,1776.494261
1471.252301,-13693.809927,153.219100,1776.494261
1471.252612,-10436.903782,995.924147,1258.350101
1471.252923,-8364.327145,1838.629195,1110.308913
1471.253235,-6291.750507,1225.752797,370.102971
1471.253546,-5033.400406,1762.019645,370.102971
1471.253857,-6069.688724,1378.971896,1036.288319
1471.254169,-7698.141797,-612.876398,1702.473667
1471.254480,-8364.327145,-2528.115143,222.061783
1471.254791,-7328.038826,-1838.629195,-592.164754
1471.255103,-6587.832884,-1915.238745,-592.164754
1471.255414,-6883.915261,-1991.848295,148.041188
1471.255725,-9030.512492,-1838.629195,-0.000000
1471.256037,-11029.068536,-766.095498,1036.288319
1471.256348,-12583.501014,-842.705048,1998.556043
1471.256659,-11103.089130,-306.438199,1480.411884
1471.256971,-8216.285956,1838.629195,592.164754
1471.257282,-5847.626942,1149.143247,1110.308913
1471.257593,-3478.967927,-1302.362347,-0.000000
1471.257905,-3552.988522,-2451.505594,1332.370696
1471.258216,-5255.462188,-2451.505594,962.267725
1471.258527,-7920.203579,-2451.505594,1480.411884
1471.258839,-9548.656652,-1838.629195,592.164754
1471.259150,-11029.068536,-229.828649,-740.205942
1471.259461,-10807.006753,1225.752797,-518.144159
1471.259773,-9696.697840,1072.533697,-1332.370696
1471.260084,-10140.821405,1838.629195,-74.020594
1471.260395,-11399.171507,2221.676944,888.247130
1471.260707,-11991.336260,766.095498,888.247130
1471.261018,-11621.233289,995.924147,666.185348
1471.261329,-8364.327145,2298.286494,370.102971
1471.261641,-6587.832884,2604.724693,-296.082377
1471.261952,-6809.894666,1608.800546,-1702.473667
1471.262263,-7179.997637,1915.238745,-1554.432478
1471.262575,-9696.697840,459.657299,-0.000000
1471.262886,-13101.645173,-153.219100,1850.514855
1471.263197,-13101.645173,-383.047749,1184.329507
1471.263509,-11473.192101,459.657299,370.102971
1471.263820,-9326.594869,383.047749,592.164754
1471.264131,-7031.956449,-536.266849,148.041188
1471.264443,-7550.100608,-306.438199,-518.144159
1471.264754,-8956.491898,459.657299,370.102971
1471.265065,-10584.944971,-383.047749,1406.391290
1471.265377,-10955.047942,-1608.800546,1184.329507
1471.265688,-9326.594869,-842.705048,1332.370696
1471.265999,-7698.141797,-1838.629195,1554.432478
1471.266311,-6069.688724,-3753.867940,2220.617826
1471.266622,-6217.729913,-2987.772442,1332.370696
1471.266933,-7994.224174,-766.095498,1554.432478
1471.267245,-8438.347739,-1072.533697,2516.700203
1471.267556,-8290.306550,-383.047749,1258.350101
1471.267867,-5477.523971,0.000000,814.226536
1471.268179,-5625.565159,-153.219100,-148.041188
1471.268490,-4737.318029,-459.657299,-444.123565
1471.268801,-5921.647536,-229.828649,-814.226536
1471.269113,-9474.636058,-459.657299,370.102971
1471.269424,-10140.821405,-1378.971896,1480.411884
1471.269735,-11029.068536,-2528.115143,444.123565
1471.270047,-10510.924376,-1378.971896,370.102971
1471.270358,-9030.512492,0.000000,148.041188
1471.270669,-9030.512492,0.000000,-0.000000
1471.270981,-9252.574275,153.219100,1258.350101
1471.271292,-10732.986159,0.000000,2072.576638
1471.271603,-10955.047942,229.828649,1258.350101
1471.271915,-9326.594869,1685.410096,-444.123565
1471.272226,-7031.956449,2681.334243,-1702.473667
1471.272537,-7550.100608,1915.238745,-2294.638420
1471.272849,-7698.141797,1455.581446,-2516.700203
1471.273160,-9918.759623,1608.800546,-2072.576638
1471.273471,-12805.562797,383.047749,148.041188
1471.273783,-14804.118840,-1532.190996,1702.473667
1471.274094,-14730.098246,-2145.067394,814.226536
1471.274405,-11473.192101,536.266849,518.144159
1471.274717,-9104.533087,1149.143247,592.164754
1471.275028,-8808.450710,1072.533697,370.102971
1471.275339,-7772.162391,1378.971896,666.185348
1471.275651,-8438.347739,1072.533697,1110.308913
1471.275962,-8882.471304,1072.533697,1258.350101
1471.276273,-7105.977043,1455.581446,74.020594
1471.276585,-5181.441594,2068.457845,-1554.432478
1471.276896,-3997.112087,995.924147,-1332.370696
1471.277208,-4811.338623,-1608.800546,-1258.350101
1471.277519,-6069.688724,-1149.143247,888.247130
1471.277830,-9770.718434,-1762.019645,2738.761985
1471.278142,-12435.459826,-4366.744339,2886.803174
1471.278453,-11547.212695,-4826.401637,2738.761985
1471.278764,-9844.739029,-2145.067394,592.164754
1471.279076,-8660.409521,1149.143247,444.123565
1471.279387,-7920.203579,1532.190996,-518.144159
1471.279698,-7105.977043,1608.800546,370.102971
1471.280010,-7179.997637,2145.067394,1776.494261
1471.280321,-7402.059420,1302.362347,1850.514855
1471.280632,-5107.421000,842.705048,1110.308913
1471.280944,-4515.256246,536.266849,666.185348
1471.281255,-5181.441594,-1225.752797,222.061783
1471.281566,-6587.832884,-2068.457845,-888.247130
1471.281878,-9474.636058,306.438199,-2220.617826
1471.282189,-13027.624579,1302.362347,-148.041188
1471.282500,-15174.221811,-1378.971896,74.020594
1471.282812,-15544.324782,-2298.286494,-0.000000
1471.283123,-13841.851115,0.000000,666.185348
1471.283434,-11251.130318,1608.800546,740.205942
1471.283746,-9400.615463,1378.971896,1036.288319
1471.284057,-7105.977043,1455.581446,1924.535449
1471.284368,-6069.688724,1149.143247,3330.926739
1471.284680,-6809.894666,-383.047749,1850.514855
1471.284991,-6735.874072,0.000000,888.247130
1471.285302,-7105.977043,1072.533697,-962.267725
1471.285614,-8142.265362,383.047749,-888.247130
1471.285925,-8956.491898,-1455.581446,-1332.370696
1471.286236,-11177.109724,-1532.190996,-962.267725
1471.286548,-12509.480420,-612.876398,740.205942
1471.286859,-13767.830521,0.000000,1628.453072
1471.287170,-13619.789333,-1302.362347,1998.556043
1471.287482,-10658.965565,-153.219100,592.164754
1471.287793,-8068.244768,1838.629195,962.267725
1471.288104,-4737.318029,1991.848295,-296.082377
1471.288416,-3182.885551,1991.848295,740.205942
1471.288727,-4959.379811,-383.047749,2960.823768
1471.289038,-4441.235652,-3140.991542,2886.803174
1471.289350,-5403.503377,-2451.505594,888.247130
1471.289661,-6587.832884,-995.924147,-444.123565
1471.289972,-7179.997637,-229.828649,-592.164754
1471.290284,-9104.533087,-459.657299,-1332.370696
1471.290595,-9474.636058,0.000000,-1628.453072
1471.290906,-13027.624579,-383.047749,-296.082377
1471.291218,-14137.933492,-1149.143247,1258.350101
1471.291529,-12361.439231,0.000000,888.247130
1471.291840,-10140.821405,1378.971896,962.267725
1471.292151,-7624.121203,766.095498,740.205942
1471.292463,-7179.997637,229.828649,1554.432478
1471.292774,-4885.359217,1072.533697,1110.308913
1471.293085,-5995.668130,995.924147,1258.350101
1471.293397,-7105.977043,0.000000,592.164754
1471.293708,-9030.512492,842.705048,-2146.597232
1471.294019,-10955.047942,2528.115143,-2738.761985
1471.294331,-10140.821405,3064.381992,-1406.391290
1471.294642,-11177.109724,1378.971896,-1332.370696
1471.294953,-12287.418637,536.266849,-296.082377
1471.295265,-13323.706956,536.266849,1110.308913
1471.295576,-13915.871710,-689.485948,1184.329507
1471.295887,-10362.883188,76.609550,1924.535449
1471.296199,-8734.430116,536.266849,370.102971
1471.296510,-6809.894666,1378.971896,1184.329507
1471.296821,-6661.853478,-153.219100,666.185348
1471.297133,-7254.018232,-459.657299,1702.473667
1471.297444,-8660.409521,-383.047749,2294.638420
1471.297755,-9178.553681,-459.657299,2886.803174
1471.298066,-8956.491898,-842.705048,1480.411884
1471.298378,-8216.285956,-1072.533697,666.185348
1471.298689,-6661.853478,-1149.143247,-888.247130
1471.299000,-6439.791695,-536.266849,-1332.370696
1471.299312,-6809.894666,689.485948,-444.123565
1471.299623,-9548.656652,76.609550,592.164754
1471.299934,-11547.212695,-1915.238745,1924.535449
1471.300246,-9992.780217,-3294.210641,2294.638420
1471.300557,-7550.100608,-2374.896044,2220.617826
1471.300868,-5995.668130,-1072.533697,2442.679609
1471.301180,-6661.853478,-1225.752797,1036.288319
1471.301491,-6735.874072,-1685.410096,444.123565
1471.301802,-7698.141797,-842.705048,2146.597232
1471.302114,-7920.203579,-1302.362347,1776.494261
1471.302425,-9178.553681,-306.438199,-222.061783
1471.302736,-9918.759623,1608.800546,-0.000000
1471.303048,-9178.553681,1915.238745,-888.247130
1471.303359,-8364.327145,2604.724693,-222.061783
1471.303670,-10140.821405,2834.553343,-518.144159
1471.303981,-12213.398043,1455.581446,518.144159
1471.304293,-11547.212695,-459.657299,370.102971
1471.304604,-9622.677246,-766.095498,-74.020594
1471.304915,-7994.224174,842.705048,-296.082377
1471.305227,-7846.182985,995.924147,-666.185348
1471.305538,-9918.759623,-383.047749,-296.082377
1471.305849,-10066.800811,459.657299,740.205942
1471.306161,-10955.047942,1608.800546,1406.391290
1471.306472,-11251.130318,1838.629195,1258.350101
1471.306783,-10732.986159,995.924147,-74.020594
1471.307095,-8660.409521,1225.752797,-1184.329507
1471.307406,-5995.668130,2374.896044,-1184.329507
1471.307717,-5033.400406,2987.772442,-1850.514855
1471.308029,-7105.977043,2298.286494,-0.000000
1471.308340,-10436.903782,-1532.190996,1924.535449
1471.308651,-12139.377449,-5132.839837,2516.700203
1471.308962,-10362.883188,-3524.039291,1406.391290
1471.309274,-8290.306550,-383.047749,518.144159
1471.309585,-7550.100608,459.657299,296.082377
1471.309896,-7550.100608,-1378.971896,-148.041188
1471.310208,-8364.327145,-2298.286494,666.185348
1471.310519,-8290.306550,-1225.752797,2664.741391
1471.310830,-9030.512492,0.000000,2812.782580
1471.311142,-8216.285956,919.314598,2516.700203
1471.311453,-6439.791695,229.828649,592.164754
1471.311764,-4293.194464,-1225.752797,296.082377
1471.312076,-3182.885551,-842.705048,-0.000000
1471.312387,-4441.235652,-842.705048,148.041188
1471.312698,-8956.491898,-1915.238745,444.123565
1471.313010,-11917.315666,-3370.820191,1332.370696
1471.313321,-12287.418637,-3524.039291,296.082377
1471.313632,-11843.295072,-229.828649,-0.000000
1471.313944,-11991.336260,689.485948,-444.123565
1471.314255,-12953.603985,1225.752797,-1480.411884
1471.314566,-11695.253884,1608.800546,-370.102971
1471.314877,-10807.006753,2298.286494,1406.391290
1471.315189,-8882.471304,2451.505594,2368.659014
1471.315500,-5699.585753,1762.019645,888.247130
1471.315811,-3923.091493,1455.581446,666.185348
1471.316123,-4293.194464,-459.657299,222.061783
1471.316434,-7105.977043,-1532.190996,-1480.411884
1471.316745,-11177.109724,1225.752797,-1184.329507
1471.317057,-13915.871710,1378.971896,-222.061783
1471.317368,-16284.530724,-1225.752797,-0.000000
1471.317679,-15322.262999,-2221.676944,-74.020594
1471.317991,-11843.295072,306.438199,-444.123565
1471.318302,-10658.965565,1378.971896,666.185348
1471.318613,-8364.327145,1378.971896,1184.329507
1471.318925,-6439.791695,1225.752797,1184.329507
1471.319236,-5329.482782,919.314598,3627.009116
1471.319547,-5107.421000,153.219100,3478.967927
1471.319858,-5107.421000,306.438199,1258.350101
1471.320170,-4737.318029,1455.581446,-740.205942
1471.320481,-4663.297435,766.095498,-1184.329507
1471.320792,-5107.421000,459.657299,-1554.432478
1471.321104,-7920.203579,-612.876398,-1332.370696
1471.321415,-11251.130318,-1991.848295,1628.453072
1471.321726,-12435.459826,-4749.792088,2368.659014
1471.322038,-11769.274478,-3907.087040,1332.370696
1471.322349,-11177.109724,383.047749,-148.041188
1471.322660,-9400.615463,2911.162892,-518.144159
1471.322972,-7624.121203,2528.115143,-444.123565
1471.323283,-7105.977043,76.609550,592.164754
1471.323594,-5625.565159,0.000000,2812.782580
1471.323906,-4589.276840,-1455.581446,2812.782580
1471.324217,-4515.256246,-1762.019645,2886.803174
1471.324528,-4959.379811,-1762.019645,1332.370696
1471.324840,-6661.853478,-2298.286494,-0.000000
1471.325151,-8808.450710,-612.876398,-1776.494261
1471.325462,-12879.583391,1455.581446,-1924.535449
1471.325773,-16506.592507,1991.848295,-1036.288319
1471.326085,-17838.963202,76.609550,-1036.288319
1471.326396,-15100.201217,0.000000,-666.185348
1471.326707,-12509.480420,-229.828649,296.082377
1471.327019,-9992.780217,229.828649,370.102971
1471.327330,-8216.285956,-536.266849,-222.061783
1471.327641,-7476.080014,-612.876398,666.185348
1471.327953,-5181.441594,-842.705048,3330.926739
1471.328264,-5107.421000,-536.266849,1406.391290
1471.328575,-6439.791695,612.876398,666.185348
1471.328887,-7550.100608,1762.019645,-1702.473667
1471.329198,-8290.306550,1532.190996,-1036.288319
1471.329509,-11325.150913,1302.362347,-1776.494261
1471.329821,-13323.706956,1455.581446,-296.082377
1471.330132,-14804.118840,1072.533697,1110.308913
1471.330443,-13989.892304,-459.657299,1480.411884
1471.330755,-10288.862594,-1072.533697,1036.288319
1471.331066,-7402.059420,-1149.143247,-0.000000
1471.331377,-5477.523971,-306.438199,-0.000000
1471.331688,-3404.947333,-689.485948,-1184.329507
1471.332000,-3034.844362,-612.876398,888.247130
1471.332311,-4737.318029,-1608.800546,3552.988522
1471.332622,-5551.544565,-2987.772442,4441.235652
1471.332934,-6291.750507,-4213.525239,3923.091493
1471.333245,-6217.729913,-2451.505594,2738.761985
1471.333556,-6217.729913,-229.828649,1850.514855
1471.333868,-7550.100608,459.657299,-666.185348
1471.334179,-9992.780217,1072.533697,-370.102971
1471.334490,-11843.295072,995.924147,-370.102971
1471.334802,-12583.501014,153.219100,-1110.308913
1471.335113,-10510.924376,1608.800546,-666.185348
1471.335424,-8808.450710,1915.238745,-0.000000
1471.335736,-8882.471304,-689.485948,444.123565
1471.336047,-7698.141797,-1455.581446,1036.288319
1471.336358,-7698.141797,-766.095498,1110.308913
1471.336669,-7550.100608,459.657299,2294.638420
1471.336981,-7624.121203,76.609550,888.247130
1471.337292,-7031.956449,0.000000,-370.102971
1471.337603,-8956.491898,536.266849,-74.020594
1471.337915,-9992.780217,1302.362347,-518.144159
1471.338226,-10584.944971,2987.772442,-1036.288319
1471.338537,-14656.077652,2834.553343,-1332.370696
1471.338849,-15396.283594,1378.971896,1110.308913
1471.339160,-13619.789333,-919.314598,296.082377
1471.339471,-11621.233289,-1225.752797,-370.102971
1471.339783,-8956.491898,0.000000,-0.000000
1471.340094,-7920.203579,76.609550,-370.102971
1471.340405,-8882.471304,-306.438199,-296.082377
1471.340717,-7994.224174,689.485948,1036.288319
1471.341028,-8956.491898,766.095498,2368.659014
1471.341339,-8734.430116,-153.219100,2886.803174
1471.341651,-7254.018232,-536.266849,1702.473667
1471.341962,-6957.935855,0.000000,962.267725
1471.342273,-4737.318029,1532.190996,222.061783
1471.342584,-6069.688724,1838.629195,-370.102971
1471.342896,-7402.059420,76.609550,-148.041188
1471.343207,-8438.347739,-383.047749,592.164754
1471.343518,-9178.553681,-1608.800546,888.247130
1471.343830,-7994.224174,-2145.067394,222.061783
1471.344141,-8586.388927,-1915.238745,296.082377
1471.344452,-8364.327145,-1378.971896,222.061783
1471.344764,-6735.874072,-919.314598,814.226536
1471.345075,-7550.100608,-1455.581446,444.123565
1471.345386,-9548.656652,-842.705048,1850.514855
1471.345698,-10955.047942,766.095498,518.144159
1471.346009,-7476.080014,2068.457845,-0.000000
1471.346320,-6661.853478,1685.410096,-0.000000
1471.346632,-6365.771101,76.609550,1332.370696
1471.346943,-5921.647536,-536.266849,-0.000000
1471.347254,-9030.512492,0.000000,518.144159
1471.347565,-10362.883188,-689.485948,2368.659014
1471.347877,-11547.212695,-1302.362347,296.082377
1471.348188,-11843.295072,-306.438199,-1110.308913
1471.348499,-12139.377449,536.266849,-1184.329507
1471.348811,-11473.192101,76.609550,-1110.308913
1471.349122,-10955.047942,689.485948,-1332.370696
1471.349433,-11621.233289,1685.410096,592.164754
1471.349745,-10955.047942,612.876398,1628.453072
1471.350056,-10510.924376,-842.705048,962.267725
1471.350367,-7550.100608,383.047749,1110.308913
1471.350679,-5403.503377,0.000000,740.205942
1471.350990,-6513.812290,-1072.533697,-0.000000
1471.351301,-8290.306550,-766.095498,-74.020594
1471.351613,-11103.089130,153.219100,-296.082377
1471.351924,-12583.501014,842.705048,1258.350101
1471.352235,-12805.562797,-842.705048,740.205942
1471.352547,-11177.109724,-1532.190996,518.144159
1471.352858,-9474.636058,-1762.019645,-296.082377
1471.353169,-8142.265362,-612.876398,-148.041188
1471.353480,-7550.100608,1455.581446,-592.164754
1471.353792,-8512.368333,1608.800546,518.144159
1471.354103,-7031.956449,76.609550,3182.885551
1471.354414,-4811.338623,-1762.019645,2516.700203
1471.354726,-3108.864956,-2374.896044,1924.535449
1471.355037,-2146.597232,-1915.238745,2442.679609
1471.355348,-4367.215058,-2834.553343,1406.391290
1471.355660,-6587.832884,-2145.067394,888.247130
1471.355971,-9326.594869,-612.876398,740.205942
1471.356282,-12139.377449,153.219100,1554.432478
1471.356594,-13323.706956,689.485948,1406.391290
1471.356905,-12805.562797,689.485948,-888.247130
1471.357216,-10288.862594,1838.629195,222.061783
1471.357528,-7402.059420,2221.676944,-74.020594
1471.357839,-7105.977043,2451.505594,-222.061783
1471.358150,-7031.956449,2221.676944,2072.576638
1471.358462,-6957.935855,1149.143247,2146.597232
1471.358773,-5921.647536,-229.828649,1110.308913
1471.359084,-5403.503377,153.219100,-518.144159
1471.359395,-6809.894666,459.657299,-962.267725
1471.359707,-8808.450710,766.095498,-2664.741391
1471.360018,-11843.295072,229.828649,-2368.659014
1471.360329,-14878.139434,-536.266849,-518.144159
1471.360641,-17172.777854,-306.438199,1332.370696
1471.360952,-15544.324782,383.047749,1998.556043
1471.361263,-12953.603985,383.047749,-0.000000
1471.361575,-11103.089130,612.876398,518.144159
1471.361886,-7994.224174,1991.848295,814.226536
1471.362197,-6143.709319,2987.772442,-222.061783
1471.362509,-6513.812290,1685.410096,222.061783
1471.362820,-7328.038826,229.828649,1480.411884
1471.363131,-7328.038826,-1532.190996,592.164754
1471.363443,-5403.503377,-1378.971896,296.082377
1471.363754,-6513.812290,-1685.410096,444.123565
1471.364065,-8660.409521,-3064.381992,222.061783
1471.364376,-10066.800811,-1302.362347,296.082377
1471.364688,-11399.171507,-1685.410096,962.267725
1471.364999,-12879.583391,-1685.410096,1998.556043
1471.365310,-11695.253884,-995.924147,740.205942
1471.365622,-8290.306550,0.000000,222.061783
1471.365933,-5847.626942,1072.533697,296.082377
1471.366244,-5403.503377,536.266849,148.041188
1471.366556,-4885.359217,-153.219100,-0.000000
1471.366867,-5625.565159,-536.266849,1998.556043
1471.367178,-5329.482782,-1762.019645,3108.864956
1471.367490,-6365.771101,-2834.553343,666.185348
1471.367801,-6957.935855,-612.876398,-0.000000
1471.368112,-8068.244768,842.705048,518.144159
1471.368424,-8734.430116,-766.095498,518.144159
1471.368735,-11547.212695,-1225.752797,518.144159
1471.369046,-12805.562797,229.828649,1406.391290
1471.369358,-11917.315666,0.000000,1628.453072
1471.369669,-11769.274478,-4060.306139,1628.453072
1471.369980,-9548.656652,-4290.134789,1036.288319
1471.370291,-7402.059420,-2911.162892,-222.061783
1471.370603,-6735.874072,-3064.381992,-518.144159
1471.370914,-8512.368333,-2911.162892,-370.102971
1471.371225,-10807.006753,-1762.019645,962.267725
1471.371537,-10658.965565,-1455.581446,1406.391290
1471.371848,-9844.739029,-1991.848295,666.185348
1471.372159,-7994.224174,-1225.752797,1110.308913
1471.372471,-8142.265362,0.000000,148.041188
1471.372782,-8364.327145,919.314598,-0.000000
1471.373093,-8734.430116,536.266849,-1110.308913
1471.373405,-10658.965565,0.000000,592.164754
1471.373716,-11547.212695,-689.485948,1850.514855
1471.374027,-11917.315666,-2451.505594,-370.102971
1471.374339,-9252.574275,-2681.334243,-1776.494261
1471.374650,-7402.059420,-2528.115143,-1702.473667
1471.374961,-7476.080014,-3217.601092,-1036.288319
1471.375273,-8660.409521,-3294.210641,-296.082377
1471.375584,-9696.697840,-2681.334243,592.164754
1471.375895,-9252.574275,-2911.162892,3849.070898
1471.376206,-8364.327145,-6818.249932,3552.988522
1471.376518,-7254.018232,-6894.859482,2146.597232
1471.376829,-5033.400406,-5515.887586,814.226536
1471.377140,-3256.906145,-4136.915689,-0.000000
1471.377452,-6291.750507,-4749.792088,-296.082377
1471.377763,-9770.718434,-4366.744339,296.082377
1471.378074,-11621.233289,-4060.306139,518.144159
1471.378386,-11621.233289,-4903.011187,1628.453072
1471.378697,-9770.718434,-5286.058936,1924.535449
1471.379008,-8808.450710,-2757.943793,-444.123565
1471.379320,-6735.874072,-1378.971896,-1554.432478
1471.379631,-5403.503377,-1532.190996,-518.144159
1471.379942,-7772.162391,-1915.238745,518.144159
1471.380254,-10955.047942,-536.266849,1850.514855
1471.380565,-10955.047942,306.438199,2220.617826
1471.380876,-10288.862594,-1378.971896,2146.597232
1471.381187,-8882.471304,-3064.381992,1332.370696
1471.381499,-7031.956449,-2068.457845,-1036.288319
1471.381810,-5995.668130,-842.705048,-3256.906145
1471.382121,-7105.977043,-1762.019645,-1332.370696
1471.382433,-11029.068536,-2834.553343,592.164754
1471.382744,-15026.180623,-1915.238745,1184.329507
1471.383055,-14730.098246,-229.828649,1776.494261
1471.383367,-11769.274478,-1685.410096,2516.700203
1471.383678,-8216.285956,-3830.477490,1924.535449
1471.383989,-7105.977043,-3600.648841,-814.226536
1471.384301,-5181.441594,-3830.477490,-1702.473667
1471.384612,-4885.359217,-4290.134789,-1184.329507
1471.384923,-8660.409521,-3753.867940,1628.453072
1471.385235,-13397.727550,-4136.915689,2812.782580
1471.385546,-13471.748144,-4826.401637,2590.720797
1471.385857,-10510.924376,-4136.915689,4145.153275
1471.386169,-6439.791695,-4213.525239,3108.864956
1471.386480,-3923.091493,-3140.991542,740.205942
1471.386791,-3182.885551,-2911.162892,-1332.370696
1471.387102,-3034.844362,-4060.306139,-1406.391290
1471.387414,-3849.070898,-3217.601092,222.061783
1471.387725,-5995.668130,-1455.581446,888.247130
1471.388036,-10658.965565,-2374.896044,1554.432478
1471.388348,-13101.645173,-5669.106685,2220.617826
1471.388659,-11325.150913,-5592.497135,2516.700203
1471.388970,-9326.594869,-4749.792088,1480.411884
1471.389282,-8734.430116,-4366.744339,-296.082377
1471.389593,-8808.450710,-7048.078582,-1184.329507
1471.389905,-8364.327145,-6894.859482,-1406.391290
1471.390216,-6883.915261,-3294.210641,-148.041188
1471.390528,-6439.791695,0.000000,222.061783
1471.390839,-9696.697840,-1072.533697,1036.288319
1471.391151,-11251.130318,-3140.991542,2294.638420
1471.391462,-11029.068536,-2145.067394,2146.597232
1471.391774,-9770.718434,612.876398,1258.350101
1471.392085,-10362.883188,1762.019645,-222.061783
1471.392397,-8956.491898,-383.047749,-1184.329507
1471.392708,-7624.121203,-2451.505594,-2812.782580
1471.393019,-6957.935855,-2681.334243,-2664.741391
1471.393331,-7254.018232,-1532.190996,-1850.514855
1471.393642,-11029.068536,-1225.752797,-370.102971
1471.393954,-13471.748144,-2911.162892,1628.453072
1471.394265,-13101.645173,-4213.525239,2664.741391
1471.394577,-12879.583391,-5439.278036,2368.659014
1471.394888,-11547.212695,-4213.525239,1628.453072
1471.395200,-9030.512492,-2068.457845,296.082377
1471.395511,-7624.121203,-1302.362347,-1184.329507
1471.395822,-4589.276840,-3600.648841,-1110.308913
1471.396134,-3182.885551,-4443.353888,-814.226536
1471.396445,-5181.441594,-6128.763984,-370.102971
1471.396757,-8364.327145,-5286.058936,962.267725
1471.397068,-10881.027347,-3217.601092,2368.659014
1471.397380,-11843.295072,-1149.143247,1332.370696
1471.397691,-12287.418637,459.657299,1998.556043
1471.398003,-11029.068536,153.219100,1110.308913
1471.398314,-11547.212695,153.219100,444.123565
1471.398626,-8660.409521,1608.800546,740.205942
1471.398937,-6809.894666,2145.067394,-222.061783
1471.399248,-5995.668130,1455.581446,-0.000000
1471.399560,-3404.947333,-919.314598,-592.164754
1471.399871,-2294.638420,-3140.991542,-444.123565
1471.400183,-2960.823768,-6052.154434,-296.082377
1471.400494,-5107.421000,-5132.839837,-222.061783
1471.400806,-9548.656652,-3830.477490,592.164754
1471.401117,-12435.459826,-3524.039291,1184.329507
1471.401429,-14137.933492,-4443.353888,3330.926739
1471.401740,-14285.974681,-5898.935335,4367.215058
1471.402052,-12731.542202,-6358.592633,4293.194464
1471.402363,-10066.800811,-6128.763984,3478.967927
1471.402674,-7105.977043,-5592.497135,1850.514855
1471.402986,-4219.173869,-4826.401637,-296.082377
1471.403297,-2738.761985,-5286.058936,-1480.411884
1471.403609,-2886.803174,-6435.202183,-962.267725
1471.403920,-3997.112087,-6511.811733,-296.082377
1471.404232,-6217.729913,-6205.373534,-666.185348
1471.404543,-9326.594869,-5822.325785,-0.000000
1471.404855,-12953.603985,-5362.668486,1110.308913
1471.405166,-14434.015869,-3600.648841,1924.535449
1471.405477,-16654.633695,-2298.286494,1776.494261
1471.405789,-16580.613101,-2221.676944,2146.597232
1471.406100,-15396.283594,-766.095498,1258.350101
1471.406412,-11843.295072,-306.438199,444.123565
1471.406723,-7920.203579,-1532.190996,-296.082377
1471.407035,-4515.256246,-3677.258390,-1110.308913
1471.407346,-2886.803174,-4673.182538,-2072.576638
1471.407658,-2664.741391,-3524.039291,-2368.659014
1471.407969,-5107.421000,-3370.820191,-2220.617826
1471.408281,-8734.430116,-3370.820191,-1850.514855
1471.408592,-11473.192101,-2145.067394,-740.205942
1471.408903,-14063.912898,-2145.067394,222.061783
1471.409215,-15322.262999,-2145.067394,1036.288319
1471.409526,-15100.201217,-1915.238745,1110.308913
1471.409838,-12731.542202,-2298.286494,444.123565
1471.410149,-8216.285956,-2911.162892,-148.041188
1471.410461,-6735.874072,-3064.381992,-74.020594
1471.410772,-6883.915261,-2987.772442,-296.082377
1471.411084,-4663.297435,-1685.410096,-740.205942
1471.411395,-4145.153275,-1378.971896,-0.000000
1471.411706,-3997.112087,-2681.334243,1554.432478
1471.412018,-3775.050304,-3140.991542,1480.411884
1471.412329,-6291.750507,-3217.601092,1406.391290
1471.412641,-7698.141797,-2757.943793,296.082377
1471.412952,-9104.533087,-1532.190996,814.226536
1471.413264,-11177.109724,-1685.410096,888.247130
1471.413575,-13101.645173,-1072.533697,1110.308913
1471.413887,-12583.501014,-2604.724693,1480.411884
1471.414198,-10288.862594,-3294.210641,1776.494261
1471.414510,-7402.059420,-3677.258390,2072.576638
1471.414821,-5255.462188,-3907.087040,1184.329507
1471.415132,-5181.441594,-4979.620737,518.144159
1471.415444,-4663.297435,-3753.867940,518.144159
1471.415755,-4367.215058,-2298.286494,-0.000000
1471.416067,-5181.441594,-2451.505594,296.082377
1471.416378,-7772.162391,-2604.724693,-0.000000
1471.416690,-9696.697840,-2911.162892,814.226536
1471.417001,-11325.150913,-3217.601092,1332.370696
1471.417313,-12287.418637,-4443.353888,2220.617826
1471.417624,-13175.665768,-3907.087040,2590.720797
1471.417935,-13767.830521,-3524.039291,1628.453072
1471.418247,-13101.645173,-2911.162892,888.247130
1471.418558,-10955.047942,-1532.190996,444.123565
1471.418870,-8364.327145,229.828649,148.041188
1471.419181,-7105.977043,0.000000,-0.000000
1471.419493,-5699.585753,-1072.533697,-0.000000
1471.419804,-5995.668130,-1225.752797,592.164754
1471.420116,-6883.915261,-2451.505594,370.102971
1471.420427,-7476.080014,-4443.353888,1110.308913
1471.420739,-9474.636058,-5056.230287,518.144159
1471.421050,-10658.965565,-5669.106685,518.144159
1471.421361,-12509.480420,-5975.544884,962.267725
1471.421673,-13767.830521,-6818.249932,1554.432478
1471.421984,-12879.583391,-5209.449386,592.164754
1471.422296,-11029.068536,-4903.011187,1480.411884
1471.422607,-8438.347739,-4136.915689,1776.494261
1471.422919,-6291.750507,-3294.210641,814.226536
1471.423230,-4959.379811,-2451.505594,592.164754
1471.423542,-3997.112087,-1915.238745,-74.020594
1471.423853,-4663.297435,-1225.752797,-0.000000
1471.424164,-5773.606348,-229.828649,-1110.308913
1471.424476,-8364.327145,383.047749,-888.247130
1471.424787,-10658.965565,-1532.190996,-888.247130
1471.425099,-11547.212695,-2604.724693,518.144159
1471.425410,-10362.883188,-3064.381992,666.185348
1471.425722,-10510.924376,-2987.772442,-0.000000
1471.426033,-8808.450710,-2987.772442,962.267725
1471.426345,-7402.059420,-2911.162892,518.144159
1471.426656,-7476.080014,-2834.553343,-0.000000
1471.426968,-4441.235652,-1378.971896,370.102971
1471.427279,-5107.421000,-1608.800546,-1406.391290
1471.427590,-6661.853478,-3064.381992,740.205942
1471.427902,-10362.883188,-3907.087040,-0.000000
1471.428213,-11621.233289,-3294.210641,1110.308913
1471.428525,-12139.377449,-2145.067394,1110.308913
1471.428836,-12361.439231,-2451.505594,2220.617826
1471.429148,-12287.418637,-3677.258390,1554.432478
1471.429459,-10881.027347,-4290.134789,1628.453072
1471.429771,-9474.636058,-3140.991542,1776.494261
1471.430082,-8142.265362,-1225.752797,1776.494261
1471.430393,-9992.780217,-306.438199,1480.411884
1471.430705,-10214.842000,459.657299,1258.350101
1471.431016,-8956.491898,459.657299,2294.638420
1471.431328,-8068.244768,-306.438199,1406.391290
1471.431639,-6365.771101,229.828649,2220.617826
1471.431951,-8216.285956,-1225.752797,1036.288319
1471.432262,-8068.244768,-3217.601092,3108.864956
1471.432574,-10510.924376,-3677.258390,3404.947333
1471.432885,-10362.883188,-2221.676944,4885.359217
1471.433197,-11843.295072,-842.705048,5255.462188
1471.433508,-13249.686362,-1685.410096,5477.523971
1471.433819,-9844.739029,-612.876398,5181.441594
1471.434131,-7328.038826,2528.115143,3256.906145
1471.434442,-6069.688724,2451.505594,3478.967927
1471.434754,-5033.400406,766.095498,2738.761985
1471.435065,-6143.709319,-612.876398,2368.659014
1471.435377,-6069.688724,76.609550,4219.173869
1471.435688,-7105.977043,-383.047749,4071.132681
1471.436000,-11325.150913,-1149.143247,4219.173869
1471.436311,-11473.192101,-536.266849,7031.956449
1471.436622,-10732.986159,-2451.505594,5995.668130
1471.436934,-7550.100608,-2145.067394,7402.059420
1471.437245,-8586.388927,-919.314598,5033.400406
1471.437557,-7624.121203,459.657299,5329.482782
1471.437868,-5625.565159,1149.143247,4071.132681
1471.438180,-5329.482782,1608.800546,3627.009116
1471.438491,-5699.585753,3064.381992,3627.009116
1471.438803,-8068.244768,2911.162892,3404.947333
1471.439114,-8956.491898,1915.238745,3923.091493
1471.439426,-8068.244768,153.219100,4663.297435
1471.439737,-7254.018232,-995.924147,4885.359217
1471.440048,-8512.368333,-1685.410096,5033.400406
1471.440360,-9326.594869,-2757.943793,5477.523971
1471.440671,-8586.388927,-2221.676944,5107.421000
1471.440983,-8068.244768,76.609550,5773.606348
1471.441294,-8734.430116,1685.410096,3478.967927
1471.441606,-10140.821405,2604.724693,4219.173869
1471.441917,-10214.842000,2221.676944,3330.926739
1471.442229,-8586.388927,2834.553343,3849.070898
1471.442540,-8364.327145,2145.067394,2368.659014
1471.442851,-7698.141797,0.000000,2516.700203
1471.443163,-7846.182985,-919.314598,2516.700203
1471.443474,-6809.894666,-1455.581446,2664.741391
1471.443786,-7105.977043,-2374.896044,3108.864956
1471.444097,-9844.739029,-2834.553343,3627.009116
1471.444409,-11103.089130,-2451.505594,4589.276840
1471.444720,-12139.377449,-919.314598,4737.318029
1471.445032,-11547.212695,-229.828649,4293.194464
1471.445343,-11177.109724,995.924147,3330.926739
1471.445655,-10510.924376,1072.533697,2368.659014
1471.445966,-9104.533087,1762.019645,1406.391290
1471.446277,-7846.182985,995.924147,370.102971
1471.446589,-7402.059420,1762.019645,962.267725
1471.446900,-8808.450710,0.000000,1776.494261
1471.447212,-10066.800811,-2145.067394,3256.906145
1471.447523,-10066.800811,-2757.943793,3923.091493
1471.447835,-10066.800811,-2451.505594,4589.276840
1471.448146,-9178.553681,-2145.067394,4663.297435
1471.448458,-8660.409521,-1532.190996,3627.009116
1471.448769,-7328.038826,0.000000,2442.679609
1471.449081,-5995.668130,1915.238745,962.267725
1471.449392,-6513.812290,2911.162892,-0.000000
1471.449703,-7772.162391,2221.676944,-74.020594
1471.450015,-9400.615463,2374.896044,518.144159
1471.450326,-11029.068536,1762.019645,1776.494261
1471.450638,-11917.315666,612.876398,3627.009116
1471.450949,-12213.398043,-842.705048,4589.276840
1471.451261,-11917.315666,-2145.067394,5033.400406
1471.451572,-9252.574275,-2528.115143,4737.318029
1471.451884,-6143.709319,-2374.896044,3256.906145
1471.452195,-3701.029710,-2145.067394,2294.638420
1471.452506,-3849.070898,-1762.019645,1184.329507
1471.452818,-6069.688724,-229.828649,1036.288319
1471.453129,-8660.409521,1455.581446,2442.679609
1471.453441,-11843.295072,2374.896044,4071.132681
1471.453752,-14656.077652,2374.896044,5255.462188
1471.454064,-14508.036463,612.876398,5551.544565
1471.454375,-10807.006753,229.828649,5329.482782
1471.454687,-6439.791695,-459.657299,3775.050304
1471.454998,-3997.112087,-383.047749,1850.514855
1471.455310,-2960.823768,-536.266849,1036.288319
1471.455621,-3923.091493,306.438199,1480.411884
1471.455932,-7476.080014,0.000000,2664.741391
1471.456244,-10658.965565,689.485948,4959.379811
1471.456555,-13767.830521,1072.533697,6069.688724
1471.456867,-14730.098246,995.924147,6439.791695
1471.457178,-11325.150913,536.266849,5403.503377
1471.457490,-7920.203579,-536.266849,4145.153275
1471.457801,-5551.544565,-1149.143247,3404.947333
1471.458113,-5625.565159,-1225.752797,2812.782580
1471.458424,-6661.853478,-612.876398,4737.318029
1471.458735,-9252.574275,0.000000,5995.668130
1471.459047,-11917.315666,689.485948,7254.018232
1471.459358,-12731.542202,0.000000,8364.327145
1471.459670,-11177.109724,229.828649,6883.915261
1471.459981,-7476.080014,1455.581446,4441.235652
1471.460293,-4737.318029,3294.210641,2294.638420
1471.460604,-3849.070898,3524.039291,-0.000000
1471.460916,-5107.421000,3217.601092,296.082377
1471.461227,-7179.997637,2298.286494,1184.329507
1471.461539,-9104.533087,459.657299,3108.864956
1471.461850,-11251.130318,-766.095498,5625.565159
1471.462161,-13027.624579,-2451.505594,7179.997637
1471.462473,-13101.645173,-3294.210641,8438.347739
1471.462784,-11695.253884,-2987.772442,8882.471304
1471.463096,-9770.718434,-2451.505594,8586.388927
1471.463407,-7624.121203,-842.705048,6365.771101
1471.463719,-6217.729913,229.828649,3478.967927
1471.464030,-4219.173869,1915.238745,1332.370696
1471.464342,-1480.411884,3677.258390,-222.061783
1471.464653,-2664.741391,4136.915689,-592.164754
1471.464964,-5551.544565,3140.991542,1184.329507
1471.465276,-8956.491898,459.657299,2072.576638
1471.465587,-11695.253884,-1608.800546,4811.338623
1471.465899,-14211.954086,-1915.238745,6143.709319
1471.466210,-15840.407159,-1685.410096,6735.874072
1471.466522,-15026.180623,-1532.190996,6513.812290
1471.466833,-11917.315666,-919.314598,6069.688724
1471.467145,-9474.636058,-612.876398,5329.482782
1471.467456,-6957.935855,-689.485948,4293.194464
1471.467768,-4293.194464,-459.657299,3034.844362
1471.468079,-1924.535449,612.876398,1406.391290
1471.468390,-1776.494261,1225.752797,-0.000000
1471.468702,-2664.741391,995.924147,-1406.391290
1471.469013,-4885.359217,-153.219100,-962.267725
1471.469325,-9622.677246,-689.485948,-148.041188
1471.469636,-15174.221811,-1225.752797,2960.823768
1471.469948,-19245.354492,-1455.581446,5995.668130
1471.470259,-21539.992912,-1378.971896,7550.100608
1471.470571,-19615.457463,-383.047749,7846.182985
1471.470882,-13989.892304,0.000000,6957.935855
1471.471193,-7698.141797,0.000000,4219.173869
1471.471505,-518.144159,0.000000,1110.308913
1471.471816,4367.215058,536.266849,-3330.926739
1471.472128,5477.523971,2528.115143,-5403.503377
1471.472439,1702.473667,2987.772442,-3775.050304
1471.472751,-6513.812290,1455.581446,-2294.638420
1471.473062,-14285.974681,-76.609550,2146.597232
1471.473374,-21243.910535,-1225.752797,6143.709319
1471.473685,-23316.487173,-1378.971896,9104.533087
1471.473997,-20725.766376,-1149.143247,9622.677246
1471.474308,-15692.365970,-2528.115143,7994.224174
1471.474619,-8882.471304,-3064.381992,5995.668130
1471.474931,-3034.844362,-1915.238745,2590.720797
1471.475242,1406.391290,-766.095498,-592.164754
1471.475554,2590.720797,1378.971896,-2590.720797
1471.475865,444.123565,1838.629195,-2146.597232
1471.476177,-4737.318029,1608.800546,-814.226536
1471.476488,-10288.862594,842.705048,1184.329507
1471.476800,-14582.057057,1072.533697,4293.194464
1471.477111,-16802.674883,689.485948,6217.729913
1471.477422,-16580.613101,0.000000,7105.977043
1471.477734,-12731.542202,-1455.581446,7402.059420
1471.478045,-10584.944971,-2451.505594,5773.606348
1471.478357,-6439.791695,-1685.410096,3997.112087
1471.478668,-3256.906145,383.047749,3256.906145
1471.478980,-2368.659014,689.485948,1702.473667
1471.479291,-3034.844362,1072.533697,1776.494261
1471.479603,-6513.812290,919.314598,2072.576638
1471.479914,-9030.512492,1762.019645,2146.597232
1471.480226,-9918.759623,2987.772442,3108.864956
1471.480537,-10732.986159,2221.676944,2886.803174
1471.480848,-11695.253884,-153.219100,4367.215058
1471.481160,-12509.480420,-2757.943793,4737.318029
1471.481471,-10955.047942,-2145.067394,5995.668130
1471.481783,-10140.821405,-306.438199,6957.935855
1471.482094,-10584.944971,153.219100,7105.977043
1471.482406,-10510.924376,-766.095498,7624.121203
1471.482717,-9178.553681,-1302.362347,6365.771101
1471.483029,-6365.771101,0.000000,5477.523971
1471.483340,-3775.050304,1225.752797,2442.679609
1471.483651,-3256.906145,2068.457845,-0.000000
1471.483963,-3627.009116,2681.334243,-1036.288319
1471.484274,-4959.379811,1838.629195,-222.061783
1471.484586,-7994.224174,306.438199,2738.761985
1471.484897,-12213.398043,-612.876398,6587.832884
1471.485209,-16284.530724,-2451.505594,9252.574275
1471.485520,-16358.551318,-3524.039291,11029.068536
1471.485832,-12583.501014,-4903.011187,9918.759623
1471.486143,-9104.533087,-3600.648841,7105.977043
1471.486455,-4737.318029,-1302.362347,4145.153275
1471.486766,-1184.329507,1149.143247,148.041188
1471.487077,0.000000,4366.744339,-1850.514855
1471.487389,-2738.761985,4519.963438,-888.247130
1471.487700,-6291.750507,3064.381992,-0.000000
1471.488012,-8512.368333,2068.457845,1850.514855
1471.488323,-9252.574275,689.485948,2886.803174
1471.488635,-9252.574275,-383.047749,3552.988522
1471.488946,-10510.924376,-1225.752797,3701.029710
1471.489258,-12139.377449,-2068.457845,3478.967927
1471.489569,-11103.089130,-1149.143247,2960.823768
1471.489881,-11769.274478,-1302.362347,2738.761985
1471.490192,-12805.562797,842.705048,2368.659014
1471.490504,-12509.480420,1608.800546,1258.350101
1471.490815,-9770.718434,536.266849,-296.082377
1471.491127,-6069.688724,1225.752797,-1480.411884
1471.491438,-4071.132681,2451.505594,-2294.638420
1471.491750,-2368.659014,842.705048,-3034.844362
1471.492061,-2812.782580,-1762.019645,-4145.153275
1471.492373,-5107.421000,-1532.190996,-3330.926739
1471.492685,-9474.636058,919.314598,-666.185348
1471.492996,-16284.530724,76.609550,2072.576638
1471.493308,-20133.601622,-1532.190996,4145.153275
1471.493619,-21317.931130,-2298.286494,4737.318029
1471.493931,-17246.798449,-2374.896044,2812.782580
1471.494242,-10066.800811,306.438199,1036.288319
1471.494554,-4071.132681,1225.752797,-2886.803174
1471.494865,888.247130,-153.219100,-5847.626942
1471.495177,1998.556043,-383.047749,-8068.244768
1471.495488,0.000000,-383.047749,-7920.203579
1471.495800,-3997.112087,1608.800546,-4367.215058
1471.496111,-11769.274478,612.876398,-1702.473667
1471.496423,-16950.716072,-766.095498,3330.926739
1471.496734,-19097.313304,-2451.505594,5181.441594
1471.497046,-17764.942608,-3830.477490,4959.379811
1471.497357,-14730.098246,-2681.334243,3552.988522
1471.497669,-10955.047942,-919.314598,296.082377
1471.497980,-5847.626942,306.438199,-2738.761985
1471.498292,-3701.029710,612.876398,-4885.359217
1471.498604,-2960.823768,229.828649,-4589.276840
1471.498915,-3849.070898,1225.752797,-2738.761985
1471.499227,-6291.750507,766.095498,-1036.288319
1471.499538,-10362.883188,-919.314598,444.123565
1471.499850,-13471.748144,-1072.533697,2220.617826
1471.500161,-14508.036463,0.000000,3182.885551
1471.500473,-13249.686362,1608.800546,3182.885551
1471.500784,-10732.986159,766.095498,2812.782580
1471.501096,-9326.594869,-1149.143247,1554.432478
1471.501407,-7105.977043,0.000000,666.185348
1471.501719,-4737.318029,2068.457845,1184.329507
1471.502030,-5625.565159,2528.115143,592.164754
1471.502342,-8216.285956,1378.971896,1110.308913
1471.502653,-9326.594869,1072.533697,1036.288319
1471.502965,-8438.347739,1225.752797,2294.638420
1471.503276,-6957.935855,612.876398,1110.308913
1471.503588,-6439.791695,0.000000,1258.350101
1471.503900,-6143.709319,-766.095498,1406.391290
1471.504211,-6883.915261,-1838.629195,1702.473667
1471.504523,-8660.409521,306.438199,3701.029710
1471.504834,-11029.068536,1302.362347,5181.441594
1471.505146,-11251.130318,612.876398,5921.647536
1471.505457,-10658.965565,-1225.752797,4515.256246
1471.505769,-8290.306550,-229.828649,2368.659014
1471.506080,-5255.462188,2145.067394,-370.102971
1471.506392,-4663.297435,2681.334243,-1184.329507
1471.506703,-5773.606348,1532.190996,-1110.308913
1471.507015,-6883.915261,-612.876398,-2368.659014
1471.507326,-6587.832884,-689.485948,-2368.659014
1471.507638,-7994.224174,383.047749,444.123565
1471.507949,-12657.521608,-153.219100,4885.359217
1471.508261,-16580.613101,-3907.087040,6217.729913
1471.508572,-17320.819043,-5286.058936,6661.853478
1471.508884,-13767.830521,-3217.601092,6143.709319
1471.509195,-7624.121203,-995.924147,3478.967927
1471.509507,-3330.926739,459.657299,-1110.308913
1471.509819,-1110.308913,1532.190996,-4663.297435
1471.510130,-1406.391290,0.000000,-4737.318029
1471.510442,-4219.173869,153.219100,-3701.029710
1471.510753,-9104.533087,2068.457845,-1036.288319
1471.511065,-14878.139434,1762.019645,296.082377
1471.511376,-16432.571912,0.000000,2072.576638
1471.511688,-15544.324782,-995.924147,2294.638420
1471.511999,-12213.398043,-383.047749,1406.391290
1471.512311,-7772.162391,-306.438199,-74.020594
1471.512622,-6365.771101,-1838.629195,-1036.288319
1471.512934,-6513.812290,-1149.143247,-2072.576638
1471.513245,-6661.853478,-229.828649,-2146.597232
1471.513557,-7550.100608,995.924147,-2294.638420
1471.513868,-8956.491898,2451.505594,-1554.432478
1471.514180,-8512.368333,1991.848295,-2146.597232
1471.514491,-7105.977043,1225.752797,-2960.823768
1471.514803,-7994.224174,0.000000,-4071.132681
1471.515114,-8734.430116,1302.362347,-2368.659014
1471.515426,-10732.986159,689.485948,-1480.411884
1471.515738,-12657.521608,153.219100,-222.061783
1471.516049,-12879.583391,76.609550,444.123565
1471.516361,-12879.583391,-766.095498,1628.453072
1471.516672,-11029.068536,-995.924147,1776.494261
1471.516984,-9104.533087,-1378.971896,1406.391290
1471.517295,-6513.812290,-919.314598,370.102971
1471.517607,-6365.771101,-612.876398,-1332.370696
1471.517918,-6957.935855,76.609550,-1924.535449
1471.518230,-5699.585753,766.095498,-2368.659014
1471.518541,-5329.482782,153.219100,-1776.494261
1471.518853,-6069.688724,-1149.143247,-1258.350101
1471.519164,-8734.430116,-1455.581446,814.226536
1471.519476,-11399.171507,-1608.800546,2886.803174
1471.519787,-13545.768739,-1838.629195,4293.194464
1471.520099,-15396.283594,-1915.238745,4441.235652
1471.520410,-14063.912898,-1072.533697,4071.132681
1471.520722,-11843.295072,-459.657299,2886.803174
1471.521033,-8956.491898,-153.219100,740.205942
1471.521345,-4441.235652,842.705048,-1332.370696
1471.521657,-1850.514855,229.828649,-2516.700203
1471.521968,-2294.638420,766.095498,-2516.700203
1471.522280,-5551.544565,919.314598,-740.205942
1471.522591,-9474.636058,1455.581446,1480.411884
1471.522903,-13397.727550,842.705048,4145.153275
1471.523214,-15692.365970,383.047749,5403.503377
1471.523526,-13323.706956,-919.314598,4811.338623
1471.523837,-8512.368333,-919.314598,1702.473667
1471.524149,-5477.523971,842.705048,-148.041188
1471.524460,-5329.482782,2221.676944,-444.123565
1471.524772,-7402.059420,2834.553343,370.102971
1471.525083,-10732.986159,2068.457845,1184.329507
1471.525395,-11473.192101,0.000000,1776.494261
1471.525706,-9104.533087,-1762.019645,2294.638420
1471.526018,-5403.503377,-919.314598,1258.350101
1471.526329,-2886.803174,919.314598,-1628.453072
1471.526641,-3478.967927,383.047749,-2664.741391
1471.526952,-3849.070898,0.000000,-962.267725
1471.527264,-7476.080014,-1302.362347,814.226536
1471.527576,-12657.521608,-612.876398,2738.761985
1471.527887,-15396.283594,-919.314598,3552.988522
1471.528199,-16062.468941,0.000000,3552.988522
1471.528510,-13027.624579,1225.752797,2368.659014
1471.528822,-7772.162391,919.314598,444.123565
1471.529133,-4663.297435,-459.657299,-1332.370696
1471.529445,-4441.235652,-842.705048,-2368.659014
1471.529756,-5551.544565,-1149.143247,-2442.679609
1471.530068,-6587.832884,-1302.362347,-1776.494261
1471.530379,-7994.224174,-1302.362347,222.061783
1471.530691,-9622.677246,-1608.800546,1554.432478
1471.531002,-11251.130318,-2221.676944,1850.514855
1471.531314,-12213.398043,-2528.115143,2516.700203
1471.531625,-11399.171507,-1225.752797,2590.720797
1471.531937,-11547.212695,306.438199,1332.370696
1471.532248,-11769.274478,536.266849,888.247130
1471.532560,-10362.883188,766.095498,-666.185348
1471.532871,-8586.388927,689.485948,-1924.535449
1471.533183,-7328.038826,2911.162892,-1628.453072
1471.533495,-5773.606348,3830.477490,-1406.391290
1471.533806,-7105.977043,842.705048,-1332.370696
1471.534118,-8586.388927,-995.924147,-0.000000
1471.534429,-9326.594869,-1302.362347,962.267725
1471.534741,-9770.718434,0.000000,2072.576638
1471.535052,-9622.677246,306.438199,1258.350101
1471.535364,-9400.615463,76.609550,666.185348
1471.535675,-8364.327145,-689.485948,370.102971
1471.535987,-6661.853478,0.000000,518.144159
1471.536298,-6957.935855,1225.752797,518.144159
1471.536610,-8512.368333,383.047749,-1554.432478
1471.536921,-8438.347739,689.485948,-1036.288319
1471.537233,-7994.224174,689.485948,-814.226536
1471.537544,-9622.677246,1072.533697,814.226536
1471.537856,-12213.398043,383.047749,370.102971
1471.538167,-12509.480420,-689.485948,740.205942
1471.538479,-11251.130318,-766.095498,888.247130
1471.538790,-7624.121203,-1532.190996,1554.432478
1471.539102,-5847.626942,-1149.143247,-148.041188
1471.539414,-6883.915261,-1532.190996,-0.000000
1471.539725,-8882.471304,-1302.362347,2294.638420
1471.540037,-10214.842000,-1915.238745,2368.659014
1471.540348,-10288.862594,-1532.190996,2960.823768
1471.540660,-9992.780217,-766.095498,1480.411884
1471.540971,-8512.368333,-1149.143247,148.041188
1471.541283,-7105.977043,-1532.190996,-1480.411884
1471.541594,-6883.915261,612.876398,-1554.432478
1471.541906,-9252.574275,2068.457845,-740.205942
1471.542217,-11177.109724,1378.971896,1406.391290
1471.542529,-12953.603985,-536.266849,2738.761985
1471.542840,-11843.295072,-2068.457845,1998.556043
1471.543152,-8734.430116,-842.705048,740.205942
1471.543463,-5773.606348,1762.019645,148.041188
1471.543775,-5921.647536,3064.381992,666.185348
1471.544086,-8660.409521,1455.581446,-444.123565
1471.544398,-9178.553681,-766.095498,370.102971
1471.544709,-9252.574275,-689.485948,1036.288319
1471.545021,-7328.038826,153.219100,-0.000000
1471.545333,-5773.606348,1532.190996,-1184.329507
1471.545644,-5477.523971,689.485948,-1776.494261
1471.545956,-7328.038826,-229.828649,-222.061783
1471.546267,-11695.253884,-306.438199,370.102971
1471.546579,-13471.748144,1072.533697,2442.679609
1471.546890,-13619.789333,1608.800546,3034.844362
1471.547202,-11843.295072,306.438199,1036.288319
1471.547513,-8512.368333,-459.657299,-0.000000
1471.547825,-5329.482782,-306.438199,-1554.432478
1471.548136,-3330.926739,1532.190996,-888.247130
1471.548448,-5033.400406,919.314598,-888.247130
1471.548759,-7179.997637,-842.705048,1184.329507
1471.549071,-9622.677246,-2374.896044,2146.597232
1471.549382,-10658.965565,-2145.067394,2516.700203
1471.549694,-10288.862594,-842.705048,2368.659014
1471.550005,-9400.615463,459.657299,1776.494261
1471.550317,-10066.800811,612.876398,592.164754
1471.550628,-9918.759623,-229.828649,1406.391290
1471.550940,-9474.636058,76.609550,2368.659014
1471.551252,-9474.636058,0.000000,2294.638420
1471.551563,-8438.347739,-995.924147,1702.473667
1471.551875,-7920.203579,-1608.800546,222.061783
1471.552186,-6661.853478,-153.219100,148.041188
1471.552498,-8882.471304,153.219100,444.123565
1471.552809,-9992.780217,-383.047749,1184.329507
1471.553121,-9844.739029,-1302.362347,2072.576638
1471.553432,-9992.780217,-1302.362347,1036.288319
1471.553744,-7772.162391,-842.705048,2146.597232
1471.554055,-7994.224174,-1302.362347,1110.308913
1471.554367,-8068.244768,-919.314598,740.205942
1471.554678,-9548.656652,842.705048,1036.288319
1471.554990,-10584.944971,1991.848295,1850.514855
1471.555301,-10510.924376,2298.286494,2738.761985
1471.555613,-10584.944971,459.657299,1850.514855
1471.555924,-7772.162391,0.000000,-74.020594
1471.556236,-5847.626942,229.828649,-1480.411884
1471.556548,-4663.297435,842.705048,-1480.411884
1471.556859,-5995.668130,153.219100,-1924.535449
1471.557171,-7550.100608,-766.095498,-1480.411884
1471.557482,-8512.368333,-842.705048,-740.205942
1471.557794,-9622.677246,-383.047749,-444.123565
1471.558105,-10658.965565,842.705048,370.102971
1471.558417,-11843.295072,842.705048,222.061783
1471.558728,-10732.986159,612.876398,222.061783
1471.559040,-11103.089130,536.266849,-222.061783
1471.559351,-10732.986159,2221.676944,-0.000000
1471.559663,-9696.697840,2604.724693,-148.041188
1471.559974,-8956.491898,919.314598,-1332.370696
1471.560286,-8216.285956,-459.657299,-1776.494261
1471.560597,-7550.100608,-1378.971896,-1036.288319
1471.560909,-6661.853478,-1302.362347,-888.247130
1471.561220,-8734.430116,-689.485948,-0.000000
1471.561532,-11029.068536,-995.924147,1184.329507
1471.561843,-11695.253884,-3140.991542,1554.432478
1471.562155,-9992.780217,-4519.963438,888.247130
1471.562467,-7179.997637,-1915.238745,592.164754
1471.562778,-7846.182985,689.485948,1258.350101
1471.563090,-8882.471304,459.657299,814.226536
1471.563401,-10510.924376,-229.828649,1332.370696
1471.563713,-11325.150913,-842.705048,1406.391290
1471.564024,-9770.718434,0.000000,2516.700203
1471.564336,-8364.327145,919.314598,2294.638420
1471.564647,-7698.141797,306.438199,296.082377
1471.564959,-6587.832884,-229.828649,-592.164754
1471.565270,-4589.276840,-459.657299,-1036.288319
1471.565582,-4441.235652,919.314598,-148.041188
1471.565893,-6439.791695,2451.505594,1036.288319
1471.566205,-9178.553681,76.609550,2516.700203
1471.566516,-10362.883188,-1455.581446,1850.514855
1471.566828,-8956.491898,229.828649,1184.329507
1471.567139,-8438.347739,2681.334243,814.226536
1471.567451,-8660.409521,2528.115143,1110.308913
1471.567762,-10214.842000,995.924147,518.144159
1471.568074,-9474.636058,1149.143247,-740.205942
1471.568386,-8734.430116,1225.752797,-518.144159
1471.568697,-7994.224174,766.095498,-370.102971
1471.569009,-7624.121203,306.438199,-592.164754
1471.569320,-8216.285956,-995.924147,-888.247130
1471.569632,-9918.759623,-1225.752797,-148.041188
1471.569943,-10807.006753,0.000000,1850.514855
1471.570255,-10140.821405,-306.438199,3034.844362
1471.570566,-10807.006753,-995.924147,2960.823768
1471.570878,-9696.697840,-2757.943793,2220.617826
1471.571189,-8068.244768,-3217.601092,444.123565
1471.571501,-7179.997637,-536.266849,-148.041188
1471.571812,-6735.874072,306.438199,-370.102971
1471.572124,-7772.162391,0.000000,-444.123565
1471.572435,-9400.615463,-689.485948,-0.000000
1471.572747,-11547.212695,612.876398,814.226536
1471.573058,-12583.501014,153.219100,1406.391290
1471.573370,-12065.356855,306.438199,1258.350101
1471.573681,-10066.800811,536.266849,444.123565
1471.573993,-8364.327145,0.000000,-888.247130
1471.574305,-7476.080014,229.828649,-148.041188
1471.574616,-6439.791695,995.924147,-0.000000
1471.574928,-6661.853478,-153.219100,-296.082377
1471.575239,-8068.244768,-1378.971896,370.102971
1471.575551,-9178.553681,-2374.896044,1702.473667
1471.575862,-9622.677246,-1915.238745,1924.535449
1471.576174,-9474.636058,-1455.581446,1998.556043
1471.576485,-11399.171507,-1225.752797,1406.391290
1471.576797,-11843.295072,229.828649,1406.391290
1471.577108,-10584.944971,2068.457845,1776.494261
1471.577420,-8660.409521,1762.019645,740.205942
1471.577731,-6217.729913,0.000000,-962.267725
1471.578043,-3330.926739,-536.266849,-2664.741391
1471.578354,-1702.473667,2451.505594,-1702.473667
1471.578666,-5181.441594,3600.648841,-222.061783
1471.578977,-9918.759623,2068.457845,1924.535449
1471.579289,-13471.748144,-919.314598,3182.885551
1471.579600,-12583.501014,-1532.190996,2442.679609
1471.579912,-8956.491898,-459.657299,888.247130
1471.580224,-3923.091493,153.219100,-1258.350101
1471.580535,-2442.679609,536.266849,-3182.885551
1471.580847,-4441.235652,-766.095498,-3775.050304
1471.581158,-6735.874072,-1532.190996,-1480.411884
1471.581470,-10881.027347,0.000000,962.267725
1471.581781,-14508.036463,1838.629195,2294.638420
1471.582093,-14582.057057,689.485948,2664.741391
1471.582404,-13545.768739,459.657299,1998.556043
1471.582716,-10066.800811,766.095498,740.205942
1471.583027,-7105.977043,842.705048,-1554.432478
1471.583339,-4885.359217,0.000000,-2368.659014
1471.583650,-4959.379811,-1149.143247,-2886.803174
1471.583962,-8068.244768,-2757.943793,-2072.576638
1471.584273,-11177.109724,-2911.162892,-1628.453072
1471.584585,-13471.748144,-1685.410096,370.102971
1471.584896,-14434.015869,-689.485948,2294.638420
1471.585208,-15544.324782,-1532.190996,2294.638420
1471.585519,-13545.768739,-2298.286494,2738.761985
1471.585831,-10732.986159,-1072.533697,1184.329507
1471.586143,-9326.594869,612.876398,962.267725
1471.586454,-8216.285956,919.314598,592.164754
1471.586766,-6883.915261,-306.438199,-1110.308913
1471.587077,-5921.647536,383.047749,-148.041188
1471.587389,-5921.647536,-383.047749,-592.164754
1471.587700,-6883.915261,1532.190996,-0.000000
1471.588012,-9252.574275,919.314598,444.123565
1471.588323,-10807.006753,-766.095498,740.205942
1471.588635,-10436.903782,-995.924147,444.123565
1471.588946,-9770.718434,689.485948,370.102971
1471.589258,-9696.697840,2374.896044,888.247130
1471.589569,-8660.409521,1302.362347,592.164754
1471.589881,-7105.977043,1762.019645,1406.391290
1471.590192,-6291.750507,1455.581446,1332.370696
1471.590504,-6883.915261,919.314598,2072.576638
1471.590815,-7031.956449,-612.876398,1998.556043
1471.591127,-6513.812290,-612.876398,1406.391290
1471.591438,-6957.935855,459.657299,592.164754
1471.591750,-6883.915261,995.924147,370.102971
1471.592061,-7698.141797,1072.533697,148.041188
1471.592373,-9696.697840,842.705048,1554.432478
1471.592684,-10140.821405,-1072.533697,2960.823768
1471.592995,-6883.915261,-3064.381992,1110.308913
1471.593307,-4885.359217,-1378.971896,-0.000000
1471.593618,-4811.338623,1149.143247,888.247130
1471.593930,-8586.388927,1532.190996,1554.432478
1471.594241,-11991.336260,612.876398,3627.009116
1471.594552,-14211.954086,306.438199,3923.091493
1471.594864,-13693.809927,-536.266849,4589.276840
1471.595175,-9696.697840,-1532.190996,2220.617826
1471.595486,-4811.338623,-766.095498,-0.000000
1471.595798,-2220.617826,-842.705048,-2146.597232
1471.596109,-2960.823768,-2374.896044,-2368.659014
1471.596421,-5255.462188,-3140.991542,-1998.556043
1471.596732,-9104.533087,0.000000,-148.041188
1471.597043,-13989.892304,842.705048,2442.679609
1471.597355,-17246.798449,-383.047749,4293.194464
1471.597666,-17987.004391,-536.266849,3182.885551
1471.597978,-14211.954086,1225.752797,888.247130
1471.598289,-8956.491898,2451.505594,-222.061783
1471.598600,-4737.318029,1149.143247,-2220.617826
1471.598912,-4293.194464,0.000000,-4219.173869
1471.599223,-7031.956449,-919.314598,-3404.947333
1471.599534,-9992.780217,-1762.019645,-1998.556043
1471.599846,-11843.295072,-383.047749,-370.102971
1471.600157,-11177.109724,2068.457845,740.205942
1471.600469,-11473.192101,919.314598,-0.000000
1471.600780,-11029.068536,-1608.800546,370.102971
1471.601091,-8734.430116,-919.314598,518.144159
1471.601403,-6513.812290,1608.800546,-666.185348
1471.601714,-5403.503377,1915.238745,-1776.494261
1471.602026,-6809.894666,766.095498,-1628.453072
1471.602337,-8068.244768,-689.485948,-1554.432478
1471.602648,-9474.636058,-153.219100,-518.144159
1471.602960,-9548.656652,766.095498,-0.000000
1471.603271,-10140.821405,1072.533697,1480.411884
1471.603582,-11325.150913,-842.705048,740.205942
1471.603894,-10881.027347,-2068.457845,-296.082377
1471.604205,-9104.533087,-306.438199,-74.020594
1471.604517,-6143.709319,842.705048,370.102971
1471.604828,-5107.421000,2221.676944,-444.123565
1471.605139,-5403.503377,612.876398,-222.061783
1471.605451,-7105.977043,-612.876398,1110.308913
1471.605762,-9474.636058,-1608.800546,2368.659014
1471.606074,-10955.047942,-1302.362347,2738.761985
1471.606385,-11917.315666,-1455.581446,2294.638420
1471.606696,-11399.171507,-1225.752797,2072.576638
1471.607008,-10584.944971,-1991.848295,962.267725
1471.607319,-8216.285956,-2298.286494,518.144159
1471.607630,-7031.956449,-1225.752797,1554.432478
1471.607942,-9326.594869,-995.924147,2368.659014
1471.608253,-10214.842000,-689.485948,4219.173869
1471.608565,-9770.718434,-459.657299,4071.132681
1471.608876,-7994.224174,612.876398,2664.741391
1471.609187,-6143.709319,2451.505594,2146.597232
1471.609499,-4589.276840,3294.210641,1258.350101
1471.609810,-6291.750507,2911.162892,1036.288319
1471.610122,-8290.306550,1072.533697,888.247130
1471.610433,-9326.594869,-229.828649,1184.329507
1471.610744,-9178.553681,229.828649,1110.308913
1471.611056,-7846.182985,0.000000,888.247130
1471.611367,-7772.162391,-2298.286494,-370.102971
1471.611678,-7179.997637,-1838.629195,-814.226536
1471.611990,-8512.368333,383.047749,-0.000000
1471.612301,-11325.150913,1072.533697,1036.288319
1471.612613,-13101.645173,306.438199,2220.617826
1471.612924,-12065.356855,689.485948,2294.638420
1471.613235,-8734.430116,1838.629195,444.123565
1471.613547,-4959.379811,2528.115143,-1406.391290
1471.613858,-4737.318029,1915.238745,-2072.576638
1471.614170,-6143.709319,1072.533697,-1850.514855
1471.614481,-6513.812290,-1072.533697,-592.164754
1471.614792,-8660.409521,-1532.190996,-0.000000
1471.615104,-11917.315666,-2068.457845,444.123565
1471.615415,-14137.933492,-2451.505594,444.123565
1471.615726,-12879.583391,-2221.676944,740.205942
1471.616038,-11103.089130,-1455.581446,-0.000000
1471.616349,-10362.883188,-689.485948,370.102971
1471.616661,-9992.780217,-995.924147,518.144159
1471.616972,-9030.512492,-1378.971896,370.102971
1471.617283,-6883.915261,-612.876398,-222.061783
1471.617595,-6143.709319,-229.828649,222.061783
1471.617906,-6809.894666,76.609550,-222.061783
1471.618218,-9030.512492,842.705048,296.082377
1471.618529,-9104.533087,-842.705048,222.061783
1471.618840,-10362.883188,-1378.971896,222.061783
1471.619152,-11399.171507,0.000000,814.226536
1471.619463,-10214.842000,0.000000,-296.082377
1471.619774,-9548.656652,0.000000,-1036.288319
1471.620086,-9178.553681,459.657299,-148.041188
1471.620397,-8882.471304,1455.581446,222.061783
1471.620709,-8882.471304,1149.143247,592.164754
1471.621020,-10140.821405,0.000000,1850.514855
1471.621331,-10066.800811,153.219100,2294.638420
1471.621643,-7920.203579,536.266849,814.226536
1471.621954,-5921.647536,1455.581446,-0.000000
1471.622266,-5403.503377,1378.971896,-1332.370696
1471.622577,-5773.606348,306.438199,-222.061783
1471.622888,-6661.853478,-306.438199,-0.000000
1471.623200,-7772.162391,-612.876398,-0.000000
1471.623511,-9992.780217,-612.876398,296.082377
1471.623822,-10658.965565,229.828649,1258.350101
1471.624134,-11029.068536,919.314598,1628.453072
1471.624445,-10436.903782,1149.143247,1258.350101
1471.624757,-10140.821405,1378.971896,1332.370696
1471.625068,-10955.047942,2068.457845,2590.720797
1471.625379,-10584.944971,1225.752797,3330.926739
1471.625691,-5699.585753,-2451.505594,2072.576638
1471.626002,-1924.535449,-4290.134789,-1332.370696
1471.626314,0.000000,-1608.800546,-1406.391290
1471.626625,-3182.885551,842.705048,-1036.288319
1471.626936,-10362.883188,536.266849,740.205942
1471.627248,-15692.365970,-1685.410096,3108.864956
1471.627559,-18283.086767,-3217.601092,3627.009116
1471.627870,-15322.262999,-1608.800546,3552.988522
1471.628182,-10436.903782,919.314598,666.185348
1471.628493,-7698.141797,-459.657299,-2220.617826
1471.628805,-5847.626942,-689.485948,-2294.638420
1471.629116,-6513.812290,-1225.752797,-814.226536
1471.629427,-9696.697840,0.000000,1036.288319
1471.629739,-12583.501014,0.000000,3997.112087
1471.630050,-13619.789333,-2145.067394,4071.132681
1471.630362,-10436.903782,-2298.286494,2072.576638
1471.630673,-6513.812290,-76.609550,-888.247130
1471.630984,-2886.803174,1915.238745,-2072.576638
1471.631296,-3478.967927,1302.362347,-2590.720797
1471.631607,-5551.544565,766.095498,-2590.720797
1471.631918,-8586.388927,1455.581446,-2072.576638
1471.632230,-11843.295072,1915.238745,-222.061783
1471.632541,-12953.603985,1762.019645,1850.514855
1471.632853,-11917.315666,2757.943793,888.247130
1471.633164,-9770.718434,2757.943793,-814.226536
1471.633475,-7846.182985,2298.286494,-444.123565
1471.633787,-7994.224174,919.314598,-0.000000
1471.634098,-7920.203579,-919.314598,-148.041188
1471.634410,-6883.915261,-766.095498,-1480.411884
1471.634721,-5921.647536,-689.485948,-1776.494261
1471.635032,-5699.585753,-842.705048,-0.000000
1471.635344,-7698.141797,-1685.410096,-148.041188
1471.635655,-9474.636058,-1225.752797,666.185348
1471.635966,-10066.800811,-1072.533697,1406.391290
1471.636278,-11177.109724,-383.047749,2590.720797
1471.636589,-12361.439231,0.000000,2664.741391
1471.636901,-11843.295072,-153.219100,1776.494261
1471.637212,-9770.718434,-689.485948,666.185348
1471.637523,-6957.935855,-383.047749,1258.350101
1471.637835,-5847.626942,-612.876398,444.123565
1471.638146,-7031.956449,-1302.362347,740.205942
1471.638458,-9622.677246,-2528.115143,1480.411884
1471.638769,-11251.130318,-3064.381992,1554.432478
1471.639080,-10732.986159,-1838.629195,1702.473667
1471.639392,-9548.656652,76.609550,1554.432478
1471.639703,-9400.615463,766.095498,1702.473667
1471.640014,-9474.636058,-842.705048,2220.617826
1471.640326,-7031.956449,-1225.752797,2516.700203
1471.640637,-4885.359217,-995.924147,962.267725
1471.640949,-5551.544565,306.438199,1036.288319
1471.641260,-7772.162391,1302.362347,1406.391290
1471.641571,-10140.821405,1608.800546,666.185348
1471.641883,-13693.809927,2068.457845,1110.308913
1471.642194,-14582.057057,2298.286494,1332.370696
1471.642506,-10584.944971,1532.190996,296.082377
1471.642817,-7254.018232,229.828649,-1998.556043
1471.643128,-4145.153275,536.266849,-3256.906145
1471.643440,-3182.885551,306.438199,-3849.070898
1471.643751,-5921.647536,612.876398,-2368.659014
1471.644062,-9030.512492,1915.238745,444.123565
1471.644374,-12583.501014,1225.752797,2590.720797
1471.644685,-14211.954086,-995.924147,4293.194464
1471.644997,-12509.480420,-536.266849,2664.741391
1471.645308,-8660.409521,306.438199,-222.061783
1471.645619,-4663.297435,612.876398,-1850.514855
1471.645931,-2886.803174,-612.876398,-2886.803174
1471.646242,-4293.194464,-995.924147,-4293.194464
1471.646554,-8142.265362,0.000000,-2146.597232
1471.646865,-11621.233289,-306.438199,222.061783
1471.647176,-13989.892304,-1991.848295,1480.411884
1471.647488,-13323.706956,-1532.190996,2146.597232
1471.647799,-10436.903782,-842.705048,1628.453072
1471.648110,-8586.388927,-919.314598,666.185348
1471.648422,-7698.141797,-1072.533697,-0.000000
1471.648733,-7179.997637,-612.876398,-296.082377
1471.649045,-7254.018232,-689.485948,-0.000000
1471.649356,-8364.327145,-1302.362347,-0.000000
1471.649667,-9030.512492,-995.924147,370.102971
1471.649979,-9474.636058,-919.314598,222.061783
1471.650290,-9178.553681,-612.876398,1628.453072
1471.650601,-10066.800811,-919.314598,1332.370696
1471.650913,-10881.027347,-1072.533697,1628.453072
1471.651224,-11843.295072,-689.485948,1628.453072
1471.651536,-10658.965565,-383.047749,1332.370696
1471.651847,-8290.306550,612.876398,444.123565
1471.652158,-6439.791695,1302.362347,592.164754
1471.652470,-6291.750507,1915.238745,-74.020594
1471.652781,-7105.977043,1685.410096,888.247130
1471.653093,-7624.121203,1149.143247,2220.617826
1471.653404,-8734.430116,76.609550,2220.617826
1471.653715,-9696.697840,0.000000,1036.288319
1471.654027,-9696.697840,1762.019645,666.185348
1471.654338,-9548.656652,2757.943793,-222.061783
1471.654649,-9326.594869,2681.334243,666.185348
1471.654961,-7846.182985,842.705048,962.267725
1471.655272,-6661.853478,-995.924147,296.082377
1471.655584,-7476.080014,-536.266849,1036.288319
1471.655895,-8068.244768,76.609550,2368.659014
1471.656206,-9178.553681,-612.876398,1998.556043
1471.656518,-9622.677246,-1149.143247,1850.514855
1471.656829,-9474.636058,-1608.800546,444.123565
1471.657141,-7624.121203,-536.266849,740.205942
1471.657452,-6217.729913,0.000000,592.164754
1471.657763,-6883.915261,-153.219100,-222.061783
1471.658075,-8216.285956,-1762.019645,-1776.494261
1471.658386,-8734.430116,-1302.362347,-1406.391290
1471.658697,-9326.594869,229.828649,222.061783
1471.659009,-11473.192101,612.876398,888.247130
1471.659320,-13989.892304,-612.876398,1258.350101
1471.659632,-14434.015869,-306.438199,1184.329507
1471.659943,-11547.212695,0.000000,1184.329507
1471.660254,-8216.285956,-229.828649,1036.288319
1471.660566,-6661.853478,-1378.971896,-740.205942
1471.660877,-5773.606348,-2068.457845,-1184.329507
1471.661189,-5921.647536,-2221.676944,-1406.391290
1471.661500,-7105.977043,-1225.752797,-1184.329507
1471.661811,-8512.368333,-1149.143247,-0.000000
1471.662123,-9548.656652,-1072.533697,666.185348
1471.662434,-10658.965565,-1225.752797,370.102971
1471.662745,-12065.356855,-229.828649,-222.061783
1471.663057,-12435.459826,1685.410096,148.041188
1471.663368,-11325.150913,2604.724693,-0.000000
1471.663680,-10214.842000,2374.896044,-962.267725
1471.663991,-8438.347739,2528.115143,-1036.288319
1471.664302,-7550.100608,2374.896044,-666.185348
1471.664614,-7550.100608,1302.362347,-888.247130
1471.664925,-7254.018232,1532.190996,-592.164754
1471.665237,-7031.956449,153.219100,-370.102971
1471.665548,-7031.956449,-1072.533697,-0.000000
1471.665859,-8660.409521,-689.485948,296.082377
1471.666171,-9178.553681,-306.438199,518.144159
1471.666482,-8438.347739,-842.705048,592.164754
1471.666793,-7994.224174,-1072.533697,740.205942
1471.667105,-7031.956449,-766.095498,888.247130
1471.667416,-7994.224174,612.876398,1036.288319
1471.667728,-9474.636058,1072.533697,2146.597232
1471.668039,-11029.068536,919.314598,2664.741391
1471.668350,-11103.089130,306.438199,2368.659014
1471.668662,-9918.759623,306.438199,1702.473667
1471.668973,-8216.285956,536.266849,740.205942
1471.669285,-8586.388927,612.876398,1184.329507
1471.669596,-8216.285956,-612.876398,1406.391290
1471.669907,-7550.100608,-2298.286494,-0.000000
1471.670219,-5921.647536,-2757.943793,-0.000000
1471.670530,-4737.318029,-2451.505594,1406.391290
1471.670841,-7402.059420,-2145.067394,2738.761985
1471.671153,-11473.192101,-1915.238745,3627.009116
1471.671464,-13397.727550,-2604.724693,4145.153275
1471.671776,-12583.501014,-2298.286494,3108.864956
1471.672087,-9400.615463,-306.438199,1480.411884
1471.672398,-8216.285956,2298.286494,518.144159
1471.672710,-8956.491898,1608.800546,-666.185348
1471.673021,-9326.594869,383.047749,-1332.370696
1471.673333,-8808.450710,76.609550,-1850.514855
1471.673644,-8956.491898,919.314598,-1406.391290
1471.673955,-8882.471304,1762.019645,370.102971
1471.674267,-10140.821405,766.095498,-222.061783
1471.674578,-9992.780217,-153.219100,-444.123565
1471.674889,-8586.388927,766.095498,222.061783
1471.675201,-8808.450710,1225.752797,592.164754
1471.675512,-8808.450710,459.657299,1406.391290
1471.675824,-9400.615463,-229.828649,1036.288319
1471.676135,-8512.368333,229.828649,-74.020594
1471.676446,-8956.491898,1302.362347,-296.082377
1471.676758,-6957.935855,1072.533697,592.164754
1471.677069,-5403.503377,383.047749,-222.061783
1471.677381,-6587.832884,-919.314598,-1554.432478
1471.677692,-8068.244768,-842.705048,-1406.391290
1471.678003,-8734.430116,0.000000,-444.123565
1471.678315,-9252.574275,383.047749,-0.000000
1471.678626,-9918.759623,383.047749,-148.041188
1471.678937,-9844.739029,229.828649,518.144159
1471.679249,-9400.615463,0.000000,592.164754
1471.679560,-9474.636058,0.000000,1184.329507
1471.679872,-8438.347739,-689.485948,962.267725
1471.680183,-7920.203579,-1225.752797,-370.102971
1471.680494,-8364.327145,-689.485948,-0.000000
1471.680806,-9178.553681,-689.485948,296.082377
1471.681117,-9770.718434,-919.314598,740.205942
1471.681429,-10658.965565,-689.485948,1110.308913
1471.681740,-9474.636058,-995.924147,1110.308913
1471.682051,-8364.327145,-2298.286494,518.144159
1471.682363,-8068.244768,-766.095498,518.144159
1471.682674,-7920.203579,-153.219100,814.226536
1471.682985,-8512.368333,-766.095498,518.144159
1471.683297,-9548.656652,-1149.143247,1332.370696
1471.683608,-10807.006753,0.000000,1998.556043
1471.683920,-11991.336260,689.485948,2294.638420
1471.684231,-12287.418637,1225.752797,2442.679609
1471.684542,-10732.986159,76.609550,1998.556043
1471.684854,-7105.977043,-1608.800546,-0.000000
1471.685165,-5033.400406,-1378.971896,-518.144159
1471.685477,-5329.482782,766.095498,-518.144159
1471.685788,-7550.100608,2145.067394,370.102971
1471.686099,-11029.068536,919.314598,1850.514855
1471.686411,-13545.768739,-306.438199,2664.741391
1471.686722,-13323.706956,383.047749,2738.761985
1471.687033,-8290.306550,1455.581446,2368.659014
1471.687345,-5107.421000,2451.505594,296.082377
1471.687656,-4811.338623,1302.362347,-1480.411884
1471.687968,-4071.132681,-306.438199,-1628.453072
1471.688279,-4441.235652,-536.266849,-1554.432478
1471.688590,-6513.812290,0.000000,296.082377
1471.688902,-8882.471304,-153.219100,-0.000000
1471.689213,-10658.965565,-1225.752797,-1554.432478
1471.689525,-11325.150913,536.266849,-814.226536
1471.689836,-10955.047942,1838.629195,444.123565
1471.690147,-12213.398043,1378.971896,1406.391290
1471.690459,-13323.706956,229.828649,2146.597232
1471.690770,-11695.253884,-766.095498,666.185348
1471.691081,-7846.182985,-689.485948,222.061783
1471.691393,-4071.132681,229.828649,-740.205942
1471.691704,-2590.720797,1302.362347,-962.267725
1471.692016,-4589.276840,0.000000,-1480.411884
1471.692327,-8068.244768,-2068.457845,222.061783
1471.692639,-12213.398043,-2604.724693,1628.453072
1471.692950,-14211.954086,-1838.629195,2590.720797
1471.693262,-12657.521608,-1072.533697,2146.597232
1471.693573,-10362.883188,-1225.752797,518.144159
1471.693884,-8660.409521,-1685.410096,-0.000000
1471.694196,-7105.977043,0.000000,-444.123565
1471.694507,-7031.956449,919.314598,-0.000000
1471.694819,-9474.636058,842.705048,1776.494261
1471.695130,-11547.212695,0.000000,1850.514855
1471.695442,-11325.150913,0.000000,2368.659014
1471.695753,-9104.533087,536.266849,2294.638420
1471.696064,-7179.997637,612.876398,-148.041188
1471.696376,-6217.729913,689.485948,-814.226536
1471.696687,-6291.750507,229.828649,-74.020594
1471.696999,-7402.059420,-1225.752797,-222.061783
1471.697310,-8956.491898,-1838.629195,148.041188
1471.697622,-10214.842000,-689.485948,740.205942
1471.697933,-10510.924376,459.657299,1924.535449
1471.698244,-10510.924376,1149.143247,2368.659014
1471.698556,-10955.047942,766.095498,1850.514855
1471.698867,-11917.315666,2451.505594,2220.617826
1471.699179,-11103.089130,2757.943793,3552.988522
1471.699490,-9252.574275,1225.752797,2294.638420
1471.699802,-5403.503377,-766.095498,-222.061783
1471.700113,-1406.391290,-459.657299,-2368.659014
1471.700425,-1258.350101,1302.362347,-2812.782580
1471.700736,-4145.153275,995.924147,-1332.370696
1471.701047,-8364.327145,383.047749,-370.102971
1471.701359,-12953.603985,-1991.848295,2072.576638
1471.701670,-15026.180623,-2221.676944,4071.132681
1471.701982,-14063.912898,-1915.238745,3108.864956
1471.702293,-11103.089130,-459.657299,1480.411884
1471.702605,-8956.491898,-383.047749,-444.123565
1471.702916,-5921.647536,0.000000,-1036.288319
1471.703227,-5033.400406,-536.266849,-1480.411884
1471.703539,-6957.935855,-995.924147,-370.102971
1471.703850,-9104.533087,-1149.143247,814.226536
1471.704162,-9400.615463,-2145.067394,888.247130
1471.704473,-7624.121203,-1378.971896,-1332.370696
1471.704785,-6587.832884,383.047749,-2590.720797
1471.705096,-7920.203579,842.705048,-1850.514855
1471.705407,-9844.739029,0.000000,-1184.329507
1471.705719,-11695.253884,0.000000,-592.164754
1471.706030,-12287.418637,306.438199,-518.144159
1471.706342,-12213.398043,1302.362347,592.164754
1471.706653,-9622.677246,1608.800546,1258.350101
1471.706965,-9030.512492,689.485948,-814.226536
1471.707276,-9844.739029,153.219100,-444.123565
1471.707588,-10214.842000,229.828649,296.082377
1471.707899,-10881.027347,229.828649,592.164754
1471.708210,-9844.739029,689.485948,740.205942
1471.708522,-8734.430116,-1072.533697,-444.123565
1471.708833,-7550.100608,-995.924147,-1184.329507
1471.709145,-4737.318029,459.657299,-148.041188
1471.709456,-5255.462188,842.705048,-518.144159
1471.709768,-7476.080014,383.047749,740.205942
1471.710079,-10732.986159,0.000000,2368.659014
1471.710390,-13101.645173,-459.657299,2368.659014
1471.710702,-12435.459826,0.000000,2294.638420
1471.711013,-12361.439231,383.047749,1628.453072
1471.711325,-9770.718434,536.266849,592.164754
1471.711636,-7105.977043,-306.438199,-296.082377
1471.711948,-5921.647536,-1532.190996,-296.082377
1471.712259,-6217.729913,-1915.238745,370.102971
1471.712571,-7328.038826,-1915.238745,1258.350101
1471.712882,-7328.038826,-1762.019645,1702.473667
1471.713193,-8142.265362,-229.828649,1850.514855
1471.713505,-9326.594869,1685.410096,2886.803174
1471.713816,-10362.883188,1762.019645,3330.926739
1471.714128,-8734.430116,689.485948,3182.885551
1471.714439,-6661.853478,-766.095498,1406.391290
1471.714751,-4811.338623,-229.828649,148.041188
1471.715062,-5329.482782,1455.581446,296.082377
1471.715373,-7550.100608,842.705048,-0.000000
1471.715685,-10288.862594,-1149.143247,1110.308913
1471.715996,-11843.295072,-2451.505594,2146.597232
1471.716308,-11251.130318,-1685.410096,3108.864956
1471.716619,-10362.883188,-1072.533697,2146.597232
1471.716931,-9770.718434,-536.266849,888.247130
1471.717242,-7179.997637,0.000000,222.061783
1471.717553,-6143.709319,383.047749,-1332.370696
1471.717865,-4737.318029,3217.601092,-518.144159
1471.718176,-6735.874072,2834.553343,-222.061783
1471.718488,-9474.636058,689.485948,666.185348
1471.718799,-10881.027347,536.266849,888.247130
1471.719111,-10658.965565,76.609550,-0.000000
1471.719422,-8586.388927,0.000000,-1036.288319
1471.719734,-7402.059420,-76.609550,-2738.761985
1471.720045,-8512.368333,153.219100,-3034.844362
1471.720356,-10288.862594,0.000000,-2072.576638
1471.720668,-13767.830521,-766.095498,-1184.329507
1471.720979,-15692.365970,-689.485948,1184.329507
1471.721291,-14359.995275,-842.705048,2072.576638
1471.721602,-9326.594869,-383.047749,296.082377
1471.721914,-5329.482782,919.314598,-1036.288319
1471.722225,-5477.523971,1378.971896,-2294.638420
1471.722536,-6439.791695,1149.143247,-1850.514855
1471.722848,-7476.080014,-383.047749,-740.205942
1471.723159,-9770.718434,-842.705048,-444.123565
1471.723471,-12435.459826,-1378.971896,1110.308913
1471.723782,-12139.377449,-1378.971896,814.226536
1471.724094,-10955.047942,-1072.533697,-0.000000
1471.724405,-9252.574275,-612.876398,666.185348
1471.724717,-8290.306550,-1378.971896,1406.391290
1471.725028,-8882.471304,-1685.410096,1924.535449
1471.725339,-9548.656652,-1608.800546,1184.329507
1471.725651,-8882.471304,-306.438199,2368.659014
1471.725962,-8364.327145,-383.047749,1998.556043
1471.726274,-4663.297435,459.657299,1628.453072
1471.726585,-3478.967927,919.314598,370.102971
1471.726897,-4737.318029,76.609550,-222.061783
1471.727208,-6217.729913,229.828649,1332.370696
1471.727519,-7920.203579,229.828649,1554.432478
1471.727831,-9474.636058,-306.438199,1554.432478
1471.728142,-11769.274478,383.047749,1702.473667
1471.728454,-12139.377449,1378.971896,2442.679609
1471.728765,-11695.253884,1149.143247,2368.659014
1471.729077,-8808.450710,76.609550,1258.350101
1471.729388,-6661.853478,-459.657299,-0.000000
1471.729699,-6735.874072,76.609550,-0.000000
1471.730011,-6661.853478,1532.190996,2368.659014
1471.730322,-9030.512492,383.047749,666.185348
1471.730634,-9770.718434,-76.609550,1850.514855
1471.730945,-9918.759623,459.657299,962.267725
1471.731257,-8512.368333,536.266849,1258.350101
1471.731568,-7031.956449,459.657299,1110.308913
1471.731880,-7920.203579,-1149.143247,-592.164754
1471.732191,-8586.388927,0.000000,-1924.535449
1471.732502,-10066.800811,383.047749,-2368.659014
1471.732814,-10584.944971,919.314598,-814.226536
1471.733125,-13101.645173,1149.143247,222.061783
1471.733437,-14211.954086,1072.533697,888.247130
1471.733748,-12213.398043,0.000000,740.205942
1471.734060,-9918.759623,0.000000,1184.329507
1471.734371,-7698.141797,-536.266849,962.267725
1471.734682,-5107.421000,-1378.971896,-74.020594
1471.734994,-3182.885551,-2834.553343,-2072.576638
1471.735305,-3478.967927,-1455.581446,-2960.823768
1471.735617,-6661.853478,-153.219100,-1406.391290
1471.735928,-9992.780217,229.828649,-148.041188
1471.736240,-13101.645173,-766.095498,1480.411884
1471.736551,-15396.283594,-2298.286494,1184.329507
1471.736862,-15026.180623,-1302.362347,1110.308913
1471.737174,-11991.336260,689.485948,148.041188
1471.737485,-7624.121203,1608.800546,-1110.308913
1471.737797,-5773.606348,459.657299,-1110.308913
1471.738108,-7179.997637,-383.047749,-444.123565
1471.738420,-9400.615463,-995.924147,1110.308913
1471.738731,-8290.306550,-153.219100,2960.823768
1471.739043,-7920.203579,-459.657299,3034.844362
1471.739354,-7994.224174,-1225.752797,1702.473667
1471.739665,-6587.832884,-766.095498,296.082377
1471.739977,-6735.874072,-153.219100,-148.041188
1471.740288,-5403.503377,459.657299,296.082377
1471.740600,-7698.141797,995.924147,518.144159
1471.740911,-10140.821405,1149.143247,962.267725
1471.741223,-11325.150913,1072.533697,2146.597232
1471.741534,-11103.089130,383.047749,2960.823768
1471.741845,-8586.388927,383.047749,2072.576638
1471.742157,-8364.327145,1762.019645,444.123565
1471.742468,-7550.100608,1225.752797,148.041188
1471.742780,-6883.915261,-919.314598,740.205942
1471.743091,-7920.203579,-1608.800546,296.082377
1471.743403,-9326.594869,306.438199,1332.370696
1471.743714,-10807.006753,1149.143247,1480.411884
1471.744026,-10066.800811,0.000000,1998.556043
1471.744337,-8290.306550,-1838.629195,222.061783
1471.744648,-5329.482782,-1072.533697,-444.123565
1471.744960,-4441.235652,919.314598,444.123565
1471.745271,-8290.306550,1532.190996,740.205942
1471.745583,-12583.501014,766.095498,1702.473667
1471.745894,-14508.036463,459.657299,2368.659014
1471.746206,-13545.768739,689.485948,2368.659014
1471.746517,-10066.800811,1149.143247,1924.535449
1471.746828,-8808.450710,0.000000,-444.123565
1471.747140,-6439.791695,-2145.067394,-1406.391290
1471.747451,-4663.297435,-3217.601092,-1924.535449
1471.747763,-5403.503377,-3064.381992,-1480.411884
1471.748074,-8808.450710,-1838.629195,370.102971
1471.748386,-11547.212695,-1532.190996,1628.453072
1471.748697,-11695.253884,-1915.238745,1776.494261
1471.749008,-10362.883188,-459.657299,1628.453072
1471.749320,-8586.388927,995.924147,740.205942
1471.749631,-7624.121203,1838.629195,518.144159
1471.749943,-7031.956449,153.219100,-518.144159
1471.750254,-6957.935855,0.000000,-2368.659014
1471.750566,-8734.430116,1532.190996,-1554.432478
1471.750877,-10807.006753,3064.381992,-666.185348
1471.751189,-11843.295072,1685.410096,-370.102971
1471.751500,-11621.233289,-1378.971896,-1332.370696
1471.751811,-9844.739029,-2221.676944,-1332.370696
1471.752123,-6883.915261,0.000000,-1554.432478
1471.752434,-6513.812290,1685.410096,-1406.391290
1471.752746,-8142.265362,1302.362347,-1110.308913
1471.753057,-10066.800811,-153.219100,592.164754
1471.753369,-11103.089130,-306.438199,1258.350101
1471.753680,-8586.388927,766.095498,1628.453072
1471.753991,-7179.997637,1685.410096,-0.000000
1471.754303,-6069.688724,0.000000,-1554.432478
1471.754614,-5033.400406,0.000000,-2368.659014
1471.754926,-6809.894666,-306.438199,-2738.761985
1471.755237,-7994.224174,1302.362347,-1332.370696
1471.755549,-11103.089130,919.314598,-666.185348
1471.755860,-12805.562797,-1455.581446,148.041188
1471.756171,-11325.150913,-2681.334243,592.164754
1471.756483,-9400.615463,-1225.752797,-0.000000
1471.756794,-7402.059420,459.657299,370.102971
1471.757106,-5847.626942,612.876398,-518.144159
1471.757417,-5403.503377,-1378.971896,-1776.494261
1471.757729,-6365.771101,-1378.971896,-1924.535449
1471.758040,-7624.121203,689.485948,-1184.329507
1471.758352,-8216.285956,1685.410096,-1332.370696
1471.758663,-9252.574275,306.438199,-2146.597232
1471.758974,-9178.553681,-2145.067394,-2368.659014
1471.759286,-8808.450710,-2451.505594,-2812.782580
1471.759597,-9844.739029,-689.485948,-2886.803174
1471.759909,-12731.542202,1072.533697,-1184.329507
1471.760220,-16358.551318,-459.657299,-592.164754
1471.760532,-15840.407159,-1838.629195,-148.041188
1471.760843,-12583.501014,-995.924147,-592.164754
1471.761154,-8290.306550,0.000000,-1406.391290
1471.761466,-6143.709319,229.828649,-2886.803174
1471.761777,-4959.379811,0.000000,-3775.050304
1471.762089,-4811.338623,-76.609550,-3775.050304
1471.762400,-7402.059420,0.000000,-2960.823768
1471.762712,-10214.842000,76.609550,-2368.659014
1471.763023,-11843.295072,842.705048,-2516.700203
1471.763335,-12287.418637,459.657299,-2738.761985
1471.763646,-11325.150913,383.047749,-3108.864956
1471.763957,-10881.027347,2451.505594,-3108.864956
1471.764269,-10362.883188,3753.867940,-2886.803174
1471.764580,-8734.430116,2068.457845,-2664.741391
1471.764892,-7105.977043,-383.047749,-3182.885551
1471.765203,-5403.503377,-459.657299,-2960.823768
1471.765515,-4145.153275,0.000000,-3849.070898
1471.765826,-3182.885551,-919.314598,-3182.885551
1471.766137,-4959.379811,-2374.896044,-3330.926739
1471.766449,-9104.533087,-2068.457845,-3552.988522
1471.766760,-11029.068536,-1378.971896,-2812.782580
1471.767072,-14137.933492,-153.219100,-1258.350101
1471.767383,-14137.933492,-153.219100,-222.061783
1471.767695,-10658.965565,-1149.143247,-1480.411884
1471.768006,-7105.977043,-1608.800546,-4071.132681
1471.768317,-3478.967927,0.000000,-5033.400406
1471.768629,-2664.741391,842.705048,-6217.729913
1471.768940,-4589.276840,1991.848295,-4737.318029
1471.769252,-9400.615463,1838.629195,-2886.803174
1471.769563,-14211.954086,689.485948,-666.185348
1471.769875,-17098.757260,-383.047749,1036.288319
1471.770186,-15766.386565,-612.876398,962.267725
1471.770498,-11325.150913,-1072.533697,-1110.308913
1471.770809,-6513.812290,-2451.505594,-2886.803174
1471.771120,-3997.112087,-5209.449386,-3701.029710
1471.771432,-3701.029710,-4519.963438,-4367.215058
1471.771743,-6587.832884,-2374.896044,-2664.741391
1471.772055,-10510.924376,-1225.752797,-592.164754
1471.772366,-14804.118840,-766.095498,962.267725
1471.772678,-16728.654289,995.924147,1480.411884
1471.772989,-13915.871710,2068.457845,222.061783
1471.773300,-8808.450710,2298.286494,-2072.576638
1471.773612,-4441.235652,1838.629195,-5107.421000
1471.773923,-2294.638420,1455.581446,-7105.977043
1471.774235,-3108.864956,995.924147,-7476.080014
1471.774546,-6069.688724,689.485948,-5329.482782
1471.774858,-11029.068536,612.876398,-2442.679609
1471.775169,-15988.448347,766.095498,-0.000000
1471.775481,-17542.880825,612.876398,1924.535449
1471.775792,-15544.324782,1225.752797,2220.617826
1471.776103,-10732.986159,1302.362347,148.041188
1471.776415,-5329.482782,383.047749,-2294.638420
1471.776726,-592.164754,612.876398,-4515.256246
1471.777038,2664.741391,766.095498,-7920.203579
1471.777349,1850.514855,919.314598,-7994.224174
1471.777661,-2294.638420,306.438199,-5995.668130
