#time,accel_x,accel_y,accel_z
1266.094792,-9030.512492,76.609550,296.082377
1266.095103,-8808.450710,-229.828649,592.164754
1266.095415,-8882.471304,-306.438199,592.164754
1266.095726,-8882.471304,-153.219100,444.123565
1266.096037,-8660.409521,0.000000,666.185348
1266.096349,-9030.512492,-306.438199,592.164754
1266.096660,-8808.450710,153.219100,-0.000000
1266.096971,-8956.491898,229.828649,666.185348
1266.097283,-8882.471304,306.438199,370.102971
1266.097594,-8882.471304,-153.219100,370.102971
1266.097905,-8956.491898,-306.438199,444.123565
1266.098217,-9104.533087,0.000000,592.164754
1266.098528,-9178.553681,-229.828649,370.102971
1266.098839,-9030.512492,153.219100,-0.000000
1266.099151,-8882.471304,-383.047749,518.144159
1266.099462,-8882.471304,306.438199,592.164754
1266.099773,-8882.471304,0.000000,370.102971
1266.100085,-8882.471304,-229.828649,518.144159
1266.100396,-8808.450710,0.000000,666.185348
1266.100707,-8882.471304,-153.219100,444.123565
1266.101019,-8882.471304,0.000000,592.164754
1266.101330,-8956.491898,0.000000,222.061783
1266.101642,-8808.450710,306.438199,592.164754
1266.101953,-8956.491898,0.000000,518.144159
1266.102264,-8734.430116,0.000000,592.164754
1266.102576,-9030.512492,-229.828649,296.082377
1266.102887,-9178.553681,-306.438199,444.123565
1266.103198,-9104.533087,-229.828649,592.164754
1266.103510,-8956.491898,-229.828649,666.185348
1266.103821,-8956.491898,0.000000,-0.000000
1266.104132,-8808.450710,0.000000,296.082377
1266.104444,-8660.409521,-153.219100,296.082377
1266.104755,-8808.450710,0.000000,518.144159
1266.105066,-9030.512492,76.609550,592.164754
1266.105378,-9030.512492,0.000000,444.123565
1266.105689,-9104.533087,0.000000,592.164754
1266.106000,-8808.450710,0.000000,518.144159
1266.106312,-8660.409521,-306.438199,296.082377
1266.106623,-8808.450710,229.828649,222.061783
1266.106934,-8808.450710,0.000000,518.144159
1266.107246,-8808.450710,-306.438199,444.123565
1266.107557,-9030.512492,-153.219100,444.123565
1266.107868,-8956.491898,76.609550,592.164754
1266.108180,-8882.471304,0.000000,518.144159
1266.108491,-9030.512492,0.000000,666.185348
1266.108803,-8956.491898,0.000000,592.164754
1266.109114,-9326.594869,153.219100,296.082377
1266.109425,-8882.471304,536.266849,740.205942
1266.109737,-9178.553681,0.000000,592.164754
1266.110048,-8882.471304,0.000000,370.102971
1266.110359,-8808.450710,0.000000,592.164754
1266.110671,-8882.471304,0.000000,592.164754
1266.110982,-8808.450710,0.000000,518.144159
1266.111293,-8586.388927,-306.438199,592.164754
1266.111605,-8808.450710,0.000000,592.164754
1266.111916,-8586.388927,306.438199,296.082377
1266.112227,-8956.491898,-153.219100,666.185348
1266.112539,-9030.512492,0.000000,444.123565
1266.112850,-8956.491898,-306.438199,444.123565
1266.113161,-9030.512492,0.000000,370.102971
1266.113473,-9104.533087,-383.047749,370.102971
1266.113784,-8660.409521,-306.438199,444.123565
1266.114095,-8808.450710,-306.438199,-0.000000
1266.114407,-9104.533087,383.047749,-0.000000
1266.114718,-9104.533087,76.609550,518.144159
1266.115029,-9030.512492,-306.438199,296.082377
1266.115341,-8808.450710,0.000000,444.123565
1266.115652,-8956.491898,0.000000,666.185348
1266.115964,-8734.430116,-153.219100,296.082377
1266.116275,-8808.450710,-76.609550,592.164754
1266.116586,-8956.491898,-306.438199,518.144159
1266.116898,-8808.450710,-536.266849,518.144159
1266.117209,-9030.512492,-153.219100,666.185348
1266.117520,-8956.491898,0.000000,740.205942
1266.117832,-8956.491898,-229.828649,444.123565
1266.118143,-8956.491898,612.876398,592.164754
1266.118454,-8808.450710,-689.485948,592.164754
1266.118766,-8586.388927,76.609550,666.185348
1266.119077,-8956.491898,-153.219100,222.061783
1266.119388,-9030.512492,0.000000,444.123565
1266.119700,-9104.533087,0.000000,444.123565
1266.120011,-8734.430116,0.000000,592.164754
1266.120322,-8808.450710,0.000000,370.102971
1266.120634,-8586.388927,536.266849,370.102971
1266.120945,-8586.388927,0.000000,444.123565
1266.121256,-8882.471304,0.000000,148.041188
1266.121568,-8808.450710,306.438199,370.102971
1266.121879,-8882.471304,0.000000,370.102971
1266.122190,-8956.491898,-153.219100,370.102971
1266.122502,-9030.512492,0.000000,592.164754
1266.122813,-8956.491898,0.000000,592.164754
1266.123125,-8808.450710,153.219100,518.144159
1266.123436,-9030.512492,0.000000,444.123565
1266.123747,-8882.471304,306.438199,962.267725
1266.124059,-10658.965565,306.438199,148.041188
1266.124370,-11547.212695,2374.896044,296.082377
1266.124681,-9104.533087,4749.792088,740.205942
1266.124993,-7846.182985,3907.087040,592.164754
1266.125304,-6809.894666,1378.971896,1258.350101
1266.125615,-6587.832884,-766.095498,222.061783
1266.125927,-7846.182985,-1072.533697,-148.041188
1266.126238,-7254.018232,-536.266849,370.102971
1266.126549,-11547.212695,-1378.971896,-1258.350101
1266.126861,-12879.583391,-536.266849,-592.164754
1266.127172,-10510.924376,766.095498,518.144159
1266.127483,-9326.594869,76.609550,1406.391290
1266.127795,-9030.512492,-306.438199,2960.823768
1266.128106,-11621.233289,153.219100,1554.432478
1266.128417,-8364.327145,4673.182538,2368.659014
1266.128729,-5329.482782,5515.887586,1776.494261
1266.129040,-7254.018232,3294.210641,1406.391290
1266.129351,-7698.141797,2604.724693,-444.123565
1266.129663,-7031.956449,3140.991542,-1850.514855
1266.129974,-8734.430116,3370.820191,-1480.411884
1266.130285,-8956.491898,4060.306139,-74.020594
1266.130597,-11695.253884,2528.115143,-1480.411884
1266.130908,-14508.036463,-1378.971896,370.102971
1266.131220,-8438.347739,-995.924147,3330.926739
1266.131531,-9622.677246,153.219100,888.247130
1266.131842,-8808.450710,5362.668486,2590.720797
1266.132154,-8142.265362,6052.154434,1628.453072
1266.132465,-8142.265362,3064.381992,2220.617826
1266.132776,-5773.606348,4673.182538,2072.576638
1266.133088,-7031.956449,6818.249932,370.102971
1266.133399,-7994.224174,7277.907231,-444.123565
1266.133710,-9918.759623,5975.544884,-1258.350101
1266.134022,-9548.656652,5056.230287,-1628.453072
1266.134333,-9770.718434,5745.716235,-1332.370696
1266.134644,-11621.233289,5286.058936,-0.000000
1266.134956,-11177.109724,4673.182538,1036.288319
1266.135267,-10807.006753,3907.087040,1924.535449
1266.135578,-9400.615463,4290.134789,2738.761985
1266.135890,-6735.874072,4749.792088,2146.597232
1266.136201,-6069.688724,4826.401637,370.102971
1266.136512,-5551.544565,4749.792088,814.226536
1266.136824,-4737.318029,4596.572988,222.061783
1266.137135,-6365.771101,3600.648841,-1332.370696
1266.137446,-7920.203579,4213.525239,-444.123565
1266.137758,-9178.553681,2834.553343,-370.102971
1266.138069,-10288.862594,1608.800546,-0.000000
1266.138381,-10288.862594,1378.971896,740.205942
1266.138692,-11103.089130,383.047749,1702.473667
1266.139003,-11399.171507,536.266849,1998.556043
1266.139315,-9622.677246,2987.772442,2516.700203
1266.139626,-8586.388927,4060.306139,1554.432478
1266.139937,-6809.894666,4443.353888,370.102971
1266.140249,-5477.523971,3064.381992,-0.000000
1266.140560,-6439.791695,3064.381992,-1406.391290
1266.140871,-6069.688724,3983.696590,-1258.350101
1266.141183,-7254.018232,2145.067394,-1702.473667
1266.141494,-9400.615463,-612.876398,-814.226536
1266.141805,-10881.027347,-2221.676944,444.123565
1266.142117,-12139.377449,-2757.943793,962.267725
1266.142428,-13027.624579,-3140.991542,1702.473667
1266.142739,-13175.665768,-2374.896044,1776.494261
1266.143051,-12287.418637,-306.438199,1332.370696
1266.143362,-11103.089130,1225.752797,148.041188
1266.143673,-8438.347739,3217.601092,-370.102971
1266.143985,-6661.853478,2911.162892,-74.020594
1266.144296,-6735.874072,2911.162892,592.164754
1266.144607,-7105.977043,3370.820191,1110.308913
1266.144919,-7698.141797,2298.286494,814.226536
1266.145230,-8882.471304,383.047749,518.144159
1266.145542,-10732.986159,-1608.800546,370.102971
1266.145853,-11547.212695,-2221.676944,-0.000000
1266.146164,-11991.336260,-2068.457845,-370.102971
1266.146476,-12879.583391,-1838.629195,222.061783
1266.146787,-12139.377449,-153.219100,814.226536
1266.147098,-11325.150913,842.705048,962.267725
1266.147410,-8808.450710,2757.943793,1628.453072
1266.147721,-5921.647536,2451.505594,1258.350101
1266.148032,-3849.070898,3677.258390,888.247130
1266.148344,-1924.535449,3524.039291,814.226536
1266.148655,-1110.308913,2528.115143,-888.247130
1266.148966,-3330.926739,766.095498,-370.102971
1266.149278,-7179.997637,-612.876398,-592.164754
1266.149589,-11473.192101,-1532.190996,-74.020594
1266.149900,-14359.995275,-612.876398,740.205942
1266.150212,-15914.427753,-1149.143247,1924.535449
1266.150523,-14730.098246,-383.047749,1998.556043
1266.150834,-12657.521608,459.657299,1332.370696
1266.151146,-9178.553681,1838.629195,1110.308913
1266.151457,-5403.503377,3600.648841,222.061783
1266.151768,-2590.720797,5132.839837,592.164754
1266.152080,-1480.411884,4596.572988,296.082377
1266.152391,-2220.617826,1532.190996,-444.123565
1266.152703,-4589.276840,-229.828649,-518.144159
1266.153014,-8068.244768,-2068.457845,-740.205942
1266.153325,-12139.377449,-2068.457845,-518.144159
1266.153637,-14508.036463,-1838.629195,444.123565
1266.153948,-15470.304188,-2451.505594,1406.391290
1266.154259,-14359.995275,-3600.648841,1998.556043
1266.154571,-12361.439231,-3140.991542,1924.535449
1266.154882,-10288.862594,-1072.533697,888.247130
1266.155193,-6661.853478,1762.019645,370.102971
1266.155505,-4515.256246,2451.505594,-814.226536
1266.155816,-3997.112087,2298.286494,-1480.411884
1266.156127,-4589.276840,0.000000,-666.185348
1266.156439,-6661.853478,-1991.848295,-888.247130
1266.156750,-9474.636058,-1838.629195,444.123565
1266.157061,-12139.377449,-1225.752797,1110.308913
1266.157373,-15100.201217,-1455.581446,1998.556043
1266.157684,-15544.324782,-2221.676944,1332.370696
1266.157995,-13397.727550,-2221.676944,2220.617826
1266.158307,-10584.944971,-995.924147,1850.514855
1266.158618,-7846.182985,383.047749,1036.288319
1266.158929,-6069.688724,1378.971896,444.123565
1266.159241,-4959.379811,1685.410096,-888.247130
1266.159552,-5107.421000,1149.143247,-1332.370696
1266.159864,-7105.977043,1685.410096,-1998.556043
1266.160175,-8142.265362,1532.190996,-1480.411884
1266.160486,-10140.821405,1225.752797,-1628.453072
1266.160798,-11547.212695,612.876398,-444.123565
1266.161109,-11621.233289,0.000000,518.144159
1266.161420,-11325.150913,-995.924147,2220.617826
1266.161732,-10510.924376,-1378.971896,3701.029710
1266.162043,-8364.327145,-919.314598,3034.844362
1266.162354,-6661.853478,689.485948,2368.659014
1266.162666,-6735.874072,919.314598,888.247130
1266.162977,-6069.688724,1608.800546,-740.205942
1266.163288,-6587.832884,2987.772442,-2812.782580
1266.163600,-8068.244768,3907.087040,-2590.720797
1266.163911,-8882.471304,3753.867940,-2146.597232
1266.164222,-9844.739029,2451.505594,-666.185348
1266.164534,-10288.862594,306.438199,1332.370696
1266.164845,-9178.553681,-1532.190996,3330.926739
1266.165156,-7698.141797,-2987.772442,4219.173869
1266.165468,-7402.059420,-2604.724693,4737.318029
1266.165779,-8216.285956,-919.314598,3478.967927
1266.166090,-9030.512492,0.000000,1184.329507
1266.166402,-9104.533087,1915.238745,-444.123565
1266.166713,-9030.512492,3524.039291,-2664.741391
1266.167024,-7994.224174,4519.963438,-3701.029710
1266.167336,-8586.388927,2451.505594,-3108.864956
1266.167647,-8438.347739,842.705048,-1332.370696
1266.167959,-8068.244768,-1838.629195,296.082377
1266.168270,-8734.430116,-3140.991542,2368.659014
1266.168581,-8290.306550,-3370.820191,3627.009116
1266.168893,-9030.512492,-4213.525239,3552.988522
1266.169204,-9030.512492,-4290.134789,3404.947333
1266.169515,-9474.636058,-2987.772442,1554.432478
1266.169827,-10362.883188,-1302.362347,1924.535449
1266.170138,-11547.212695,-153.219100,-0.000000
1266.170449,-11695.253884,536.266849,-1036.288319
1266.170761,-10732.986159,1838.629195,-1332.370696
1266.171072,-9474.636058,1608.800546,-1406.391290
1266.171383,-7772.162391,1302.362347,-1110.308913
1266.171695,-6143.709319,153.219100,-444.123565
1266.172006,-6587.832884,-612.876398,888.247130
1266.172318,-7254.018232,-2145.067394,2368.659014
1266.172629,-8364.327145,-3907.087040,2664.741391
1266.172941,-10288.862594,-3907.087040,2886.803174
1266.173253,-11621.233289,-1991.848295,2072.576638
1266.173564,-12361.439231,-842.705048,666.185348
1266.173876,-11843.295072,995.924147,-666.185348
1266.174187,-10955.047942,1915.238745,-1480.411884
1266.174499,-9770.718434,2374.896044,-1702.473667
1266.174811,-8290.306550,2298.286494,-1332.370696
1266.175122,-6439.791695,1532.190996,-1184.329507
1266.175434,-4959.379811,536.266849,-0.000000
1266.175745,-4515.256246,-689.485948,1332.370696
1266.176057,-6661.853478,-1532.190996,2294.638420
1266.176369,-9252.574275,-1838.629195,2368.659014
1266.176680,-10807.006753,-766.095498,1332.370696
1266.176992,-12361.439231,1225.752797,814.226536
1266.177303,-11917.315666,3370.820191,-148.041188
1266.177615,-11325.150913,2528.115143,-740.205942
1266.177927,-9474.636058,2221.676944,-0.000000
1266.178238,-6883.915261,1915.238745,-370.102971
1266.178550,-5921.647536,1608.800546,-0.000000
1266.178862,-4663.297435,919.314598,222.061783
1266.179173,-5403.503377,0.000000,592.164754
1266.179485,-6735.874072,-1608.800546,962.267725
1266.179796,-8512.368333,-1302.362347,370.102971
1266.180108,-10066.800811,-536.266849,296.082377
1266.180420,-10955.047942,153.219100,-74.020594
1266.180731,-11103.089130,-229.828649,962.267725
1266.181043,-11029.068536,-919.314598,1480.411884
1266.181354,-10288.862594,-1838.629195,1480.411884
1266.181666,-8660.409521,-459.657299,1036.288319
1266.181978,-6069.688724,0.000000,962.267725
1266.182289,-5403.503377,229.828649,-74.020594
1266.182601,-5699.585753,-536.266849,-518.144159
1266.182913,-6365.771101,-1762.019645,-518.144159
1266.183224,-8586.388927,-1915.238745,-0.000000
1266.183536,-10658.965565,-536.266849,1184.329507
1266.183847,-11917.315666,-1072.533697,1628.453072
1266.184159,-12509.480420,-1762.019645,2220.617826
1266.184471,-11843.295072,-1225.752797,2220.617826
1266.184782,-10362.883188,-306.438199,1628.453072
1266.185094,-8586.388927,383.047749,1406.391290
1266.185405,-7105.977043,0.000000,592.164754
1266.185717,-6883.915261,-1072.533697,148.041188
1266.186029,-6661.853478,-1532.190996,-296.082377
1266.186340,-7402.059420,-2451.505594,-444.123565
1266.186652,-9030.512492,-1762.019645,-1036.288319
1266.186964,-10510.924376,-689.485948,-962.267725
1266.187275,-12213.398043,-842.705048,-370.102971
1266.187587,-12435.459826,-383.047749,592.164754
1266.187898,-11843.295072,306.438199,1332.370696
1266.188210,-10732.986159,153.219100,1258.350101
1266.188522,-8808.450710,0.000000,1110.308913
1266.188833,-6957.935855,536.266849,370.102971
1266.189145,-5773.606348,995.924147,-0.000000
1266.189456,-5477.523971,-229.828649,-296.082377
1266.189768,-6735.874072,-536.266849,-296.082377
1266.190080,-9400.615463,153.219100,-1036.288319
1266.190391,-11473.192101,919.314598,-814.226536
1266.190703,-11325.150913,1532.190996,-1184.329507
1266.191015,-10732.986159,1149.143247,-370.102971
1266.191326,-10066.800811,1149.143247,518.144159
1266.191638,-8068.244768,76.609550,1480.411884
1266.191949,-7328.038826,-612.876398,3034.844362
1266.192261,-6735.874072,-459.657299,3701.029710
1266.192573,-6439.791695,-689.485948,2812.782580
1266.192884,-7031.956449,-1302.362347,1406.391290
1266.193196,-9104.533087,-153.219100,-518.144159
1266.193507,-9104.533087,2451.505594,-1998.556043
1266.193819,-9474.636058,2298.286494,-3108.864956
1266.194131,-9104.533087,1915.238745,-2442.679609
1266.194442,-8882.471304,612.876398,-740.205942
1266.194754,-8956.491898,-919.314598,518.144159
1266.195066,-7920.203579,-1378.971896,2368.659014
1266.195377,-7105.977043,-1378.971896,3182.885551
1266.195689,-7179.997637,-1915.238745,2886.803174
1266.196000,-7031.956449,-1378.971896,2590.720797
1266.196312,-7105.977043,-995.924147,962.267725
1266.196624,-9104.533087,-536.266849,-148.041188
1266.196935,-10881.027347,842.705048,-962.267725
1266.197247,-11991.336260,1991.848295,-962.267725
1266.197558,-11695.253884,1608.800546,-666.185348
1266.197870,-11177.109724,459.657299,296.082377
1266.198182,-9844.739029,-842.705048,740.205942
1266.198493,-7698.141797,-1149.143247,1628.453072
1266.198805,-6291.750507,-1149.143247,2072.576638
1266.199117,-7031.956449,-1608.800546,2220.617826
1266.199428,-8216.285956,-1225.752797,1850.514855
1266.199740,-9104.533087,-995.924147,962.267725
1266.200051,-10066.800811,229.828649,148.041188
1266.200363,-11103.089130,1225.752797,-518.144159
1266.200675,-10510.924376,1838.629195,-1036.288319
1266.200986,-10807.006753,1302.362347,-1036.288319
1266.201298,-9696.697840,536.266849,518.144159
1266.201609,-8734.430116,0.000000,222.061783
1266.201921,-7105.977043,-229.828649,666.185348
1266.202233,-5847.626942,-229.828649,888.247130
1266.202544,-5625.565159,-919.314598,1110.308913
1266.202856,-7179.997637,-1225.752797,1110.308913
1266.203167,-8882.471304,-612.876398,518.144159
1266.203479,-10510.924376,383.047749,518.144159
1266.203791,-12435.459826,1149.143247,444.123565
1266.204102,-12509.480420,1915.238745,222.061783
1266.204414,-11177.109724,1302.362347,-0.000000
1266.204726,-9474.636058,459.657299,-148.041188
1266.205037,-7476.080014,689.485948,518.144159
1266.205349,-6069.688724,459.657299,592.164754
1266.205660,-5551.544565,459.657299,1258.350101
1266.205972,-5921.647536,-1149.143247,888.247130
1266.206284,-6587.832884,-1838.629195,1110.308913
1266.206595,-7846.182985,-1532.190996,-0.000000
1266.206907,-9252.574275,0.000000,-740.205942
1266.207218,-10658.965565,1149.143247,-740.205942
1266.207530,-10732.986159,1072.533697,-666.185348
1266.207842,-10807.006753,-76.609550,-370.102971
1266.208153,-10510.924376,-1072.533697,444.123565
1266.208465,-8068.244768,-612.876398,1184.329507
1266.208777,-7031.956449,-1685.410096,888.247130
1266.209088,-6809.894666,-1915.238745,888.247130
1266.209400,-6883.915261,-1915.238745,1258.350101
1266.209711,-8068.244768,-2451.505594,296.082377
1266.210023,-9252.574275,-1072.533697,592.164754
1266.210335,-10510.924376,689.485948,444.123565
1266.210646,-11547.212695,1072.533697,-0.000000
1266.210958,-11473.192101,612.876398,-148.041188
1266.211269,-11325.150913,153.219100,592.164754
1266.211581,-9696.697840,689.485948,1036.288319
1266.211893,-8068.244768,1072.533697,1406.391290
1266.212204,-7254.018232,76.609550,1258.350101
1266.212516,-7031.956449,-766.095498,666.185348
1266.212828,-7031.956449,-995.924147,518.144159
1266.213139,-7920.203579,-1072.533697,-0.000000
1266.213451,-9178.553681,612.876398,-814.226536
1266.213762,-11399.171507,995.924147,-592.164754
1266.214074,-11843.295072,842.705048,-370.102971
1266.214386,-11991.336260,689.485948,666.185348
1266.214697,-11251.130318,383.047749,1628.453072
1266.215009,-10066.800811,766.095498,1184.329507
1266.215320,-6735.874072,919.314598,1332.370696
1266.215632,-5699.585753,76.609550,1258.350101
1266.215944,-5625.565159,-1072.533697,1258.350101
1266.216255,-6069.688724,-995.924147,370.102971
1266.216567,-8290.306550,0.000000,-0.000000
1266.216879,-9770.718434,842.705048,-148.041188
1266.217190,-11103.089130,1608.800546,-222.061783
1266.217502,-11177.109724,689.485948,-0.000000
1266.217813,-10658.965565,612.876398,888.247130
1266.218125,-8660.409521,842.705048,1184.329507
1266.218437,-7105.977043,1072.533697,1776.494261
1266.218748,-6513.812290,0.000000,1924.535449
1266.219060,-5625.565159,-995.924147,2146.597232
1266.219371,-5995.668130,-1991.848295,1776.494261
1266.219683,-7254.018232,-1608.800546,444.123565
1266.219995,-8734.430116,-995.924147,-962.267725
1266.220306,-9548.656652,612.876398,-888.247130
1266.220618,-9918.759623,229.828649,-1332.370696
1266.220930,-10066.800811,-459.657299,-370.102971
1266.221241,-10288.862594,-536.266849,370.102971
1266.221553,-9548.656652,-612.876398,1332.370696
1266.221864,-8290.306550,-459.657299,1776.494261
1266.222176,-7994.224174,0.000000,1776.494261
1266.222488,-7476.080014,-536.266849,1036.288319
1266.222799,-6365.771101,-383.047749,370.102971
1266.223111,-8512.368333,-919.314598,-0.000000
1266.223422,-9992.780217,0.000000,-74.020594
1266.223734,-11695.253884,1455.581446,-518.144159
1266.224046,-11843.295072,1762.019645,-740.205942
1266.224357,-11621.233289,689.485948,-148.041188
1266.224669,-10510.924376,459.657299,148.041188
1266.224980,-8364.327145,689.485948,222.061783
1266.225292,-7179.997637,536.266849,740.205942
1266.225604,-7105.977043,-459.657299,1110.308913
1266.225915,-7994.224174,-1608.800546,1628.453072
1266.226227,-8290.306550,-1991.848295,1110.308913
1266.226539,-9326.594869,-1225.752797,740.205942
1266.226850,-10732.986159,0.000000,-0.000000
1266.227162,-11473.192101,1685.410096,-666.185348
1266.227473,-11399.171507,1685.410096,-888.247130
1266.227785,-10362.883188,1225.752797,296.082377
1266.228097,-9104.533087,459.657299,518.144159
1266.228408,-7698.141797,536.266849,1480.411884
1266.228720,-6883.915261,536.266849,1036.288319
1266.229031,-5921.647536,229.828649,1406.391290
1266.229343,-6143.709319,-383.047749,1110.308913
1266.229655,-6957.935855,229.828649,222.061783
1266.229966,-8586.388927,229.828649,-74.020594
1266.230278,-10807.006753,383.047749,-370.102971
1266.230590,-11251.130318,919.314598,-0.000000
1266.230901,-11029.068536,766.095498,148.041188
1266.231213,-10732.986159,459.657299,740.205942
1266.231524,-8660.409521,306.438199,1406.391290
1266.231836,-6883.915261,0.000000,1480.411884
1266.232148,-5995.668130,-459.657299,1628.453072
1266.232459,-5773.606348,-766.095498,1702.473667
1266.232771,-6883.915261,-689.485948,888.247130
1266.233082,-8142.265362,-919.314598,814.226536
1266.233394,-9474.636058,-306.438199,-444.123565
1266.233706,-10214.842000,689.485948,-444.123565
1266.234017,-10955.047942,995.924147,-1036.288319
1266.234329,-10807.006753,995.924147,-222.061783
1266.234641,-10140.821405,-1225.752797,-148.041188
1266.234952,-9030.512492,-229.828649,1480.411884
1266.235264,-7328.038826,-1072.533697,1924.535449
1266.235575,-6587.832884,-1378.971896,1702.473667
1266.235887,-6883.915261,-1762.019645,1702.473667
1266.236199,-6513.812290,-1378.971896,1258.350101
1266.236510,-8734.430116,-1455.581446,444.123565
1266.236822,-10510.924376,0.000000,-0.000000
1266.237133,-10658.965565,1225.752797,-0.000000
1266.237445,-11843.295072,1608.800546,-1332.370696
1266.237757,-11177.109724,919.314598,-222.061783
1266.238068,-10510.924376,306.438199,370.102971
1266.238380,-8808.450710,0.000000,1184.329507
1266.238692,-7772.162391,0.000000,1702.473667
1266.239003,-7698.141797,-842.705048,1998.556043
1266.239315,-7920.203579,-1378.971896,1406.391290
1266.239626,-7476.080014,-995.924147,592.164754
1266.239938,-8512.368333,153.219100,-0.000000
1266.240250,-9474.636058,459.657299,-1036.288319
1266.240561,-10881.027347,1608.800546,-962.267725
1266.240873,-11547.212695,1378.971896,-518.144159
1266.241184,-11103.089130,689.485948,740.205942
1266.241496,-10362.883188,612.876398,1406.391290
1266.241808,-8586.388927,0.000000,1702.473667
1266.242119,-6957.935855,-229.828649,1406.391290
1266.242431,-5625.565159,-306.438199,1036.288319
1266.242743,-5625.565159,-459.657299,370.102971
1266.243054,-7105.977043,-229.828649,-74.020594
1266.243366,-9326.594869,0.000000,-296.082377
1266.243677,-10955.047942,842.705048,-222.061783
1266.243989,-11843.295072,1302.362347,-444.123565
1266.244301,-11547.212695,1608.800546,444.123565
1266.244612,-10140.821405,766.095498,1184.329507
1266.244924,-8512.368333,766.095498,1480.411884
1266.245235,-7031.956449,0.000000,962.267725
1266.245547,-5995.668130,76.609550,1480.411884
1266.245859,-6143.709319,-689.485948,1924.535449
1266.246170,-6809.894666,-1685.410096,1258.350101
1266.246482,-7994.224174,-2451.505594,222.061783
1266.246793,-8512.368333,-766.095498,-444.123565
1266.247105,-9622.677246,0.000000,-740.205942
1266.247417,-9400.615463,-383.047749,-1110.308913
1266.247728,-10436.903782,-306.438199,-222.061783
1266.248040,-10510.924376,-1762.019645,592.164754
1266.248352,-9104.533087,-1762.019645,1480.411884
1266.248663,-8512.368333,-1149.143247,1406.391290
1266.248975,-7994.224174,-995.924147,1554.432478
1266.249286,-7254.018232,-1225.752797,1332.370696
1266.249598,-7105.977043,-1225.752797,666.185348
1266.249910,-8364.327145,-1225.752797,370.102971
1266.250221,-9844.739029,459.657299,148.041188
1266.250533,-11103.089130,1149.143247,-370.102971
1266.250844,-10881.027347,919.314598,-592.164754
1266.251156,-10881.027347,459.657299,-222.061783
1266.251468,-9992.780217,-229.828649,296.082377
1266.251779,-8586.388927,459.657299,518.144159
1266.252091,-7254.018232,-306.438199,1184.329507
1266.252403,-7550.100608,-2298.286494,1702.473667
1266.252714,-8290.306550,-1991.848295,1406.391290
1266.253026,-8808.450710,-1762.019645,666.185348
1266.253337,-9474.636058,-612.876398,-148.041188
1266.253649,-10881.027347,842.705048,-518.144159
1266.253961,-11029.068536,1072.533697,-518.144159
1266.254272,-11473.192101,536.266849,-888.247130
1266.254584,-10881.027347,0.000000,518.144159
1266.254895,-9252.574275,153.219100,962.267725
1266.255207,-7772.162391,0.000000,1332.370696
1266.255519,-6217.729913,-536.266849,1406.391290
1266.255830,-5403.503377,-1072.533697,740.205942
1266.256142,-5551.544565,-1225.752797,444.123565
1266.256454,-7254.018232,0.000000,-592.164754
1266.256765,-10214.842000,459.657299,-1036.288319
1266.257077,-11547.212695,1838.629195,-444.123565
1266.257388,-11991.336260,1991.848295,-0.000000
1266.257700,-11177.109724,919.314598,444.123565
1266.258012,-10140.821405,842.705048,444.123565
1266.258323,-7476.080014,919.314598,1184.329507
1266.258635,-6365.771101,0.000000,1036.288319
1266.258946,-5403.503377,-689.485948,2368.659014
1266.259258,-5847.626942,-1072.533697,1628.453072
1266.259570,-6661.853478,-1762.019645,1184.329507
1266.259881,-8512.368333,-1838.629195,444.123565
1266.260193,-10066.800811,0.000000,-1110.308913
1266.260505,-11029.068536,1838.629195,-1628.453072
1266.260816,-11251.130318,1608.800546,-1406.391290
1266.261128,-10214.842000,306.438199,-296.082377
1266.261439,-9992.780217,0.000000,222.061783
1266.261751,-8956.491898,-612.876398,1184.329507
1266.262063,-7031.956449,-919.314598,1628.453072
1266.262374,-6883.915261,-1378.971896,2072.576638
1266.262686,-6661.853478,-1302.362347,1850.514855
1266.262997,-6883.915261,-1225.752797,962.267725
1266.263309,-8660.409521,-1455.581446,518.144159
1266.263621,-10658.965565,229.828649,148.041188
1266.263932,-11621.233289,612.876398,-444.123565
1266.264244,-11843.295072,1225.752797,-814.226536
1266.264556,-11473.192101,919.314598,-0.000000
1266.264867,-10510.924376,229.828649,666.185348
1266.265179,-8364.327145,0.000000,1258.350101
1266.265490,-7105.977043,-306.438199,1776.494261
1266.265802,-6735.874072,-1225.752797,1924.535449
1266.266114,-7254.018232,-1149.143247,1702.473667
1266.266425,-7328.038826,-1378.971896,814.226536
1266.266737,-8882.471304,-842.705048,-0.000000
1266.267048,-9918.759623,306.438199,-0.000000
1266.267360,-10955.047942,1685.410096,-740.205942
1266.267672,-11103.089130,1762.019645,-222.061783
1266.267983,-10584.944971,689.485948,296.082377
1266.268295,-9326.594869,229.828649,962.267725
1266.268606,-7402.059420,0.000000,1110.308913
1266.268918,-6291.750507,76.609550,1554.432478
1266.269230,-5773.606348,-383.047749,1258.350101
1266.269541,-5995.668130,-1225.752797,592.164754
1266.269853,-8068.244768,-612.876398,-296.082377
1266.270165,-10362.883188,536.266849,-666.185348
1266.270476,-12139.377449,1685.410096,-222.061783
1266.270788,-12361.439231,2298.286494,-148.041188
1266.271099,-12509.480420,1685.410096,296.082377
1266.271411,-10584.944971,153.219100,962.267725
1266.271723,-7994.224174,153.219100,1258.350101
1266.272034,-6069.688724,0.000000,1776.494261
1266.272346,-4515.256246,-689.485948,1924.535449
1266.272657,-4811.338623,-1455.581446,962.267725
1266.272969,-6217.729913,-1302.362347,222.061783
1266.273281,-7476.080014,76.609550,-296.082377
1266.273592,-9844.739029,689.485948,-1480.411884
1266.273904,-11621.233289,1072.533697,-1110.308913
1266.274215,-11843.295072,612.876398,-592.164754
1266.274527,-11325.150913,229.828649,-0.000000
1266.274838,-10436.903782,-383.047749,592.164754
1266.275150,-8512.368333,-766.095498,1702.473667
1266.275462,-7031.956449,-995.924147,1480.411884
1266.275773,-5921.647536,-1072.533697,1406.391290
1266.276085,-5699.585753,-1225.752797,1258.350101
1266.276396,-6291.750507,-1072.533697,888.247130
1266.276708,-8882.471304,-612.876398,592.164754
1266.277019,-10658.965565,-689.485948,-0.000000
1266.277331,-11843.295072,153.219100,-444.123565
1266.277643,-11843.295072,842.705048,-444.123565
1266.277954,-11547.212695,383.047749,-0.000000
1266.278266,-10288.862594,153.219100,518.144159
1266.278577,-8586.388927,-612.876398,1036.288319
1266.278889,-7105.977043,-919.314598,1998.556043
1266.279200,-6883.915261,-1378.971896,1702.473667
1266.279512,-7254.018232,-1838.629195,1628.453072
1266.279824,-8216.285956,-1455.581446,814.226536
1266.280135,-9992.780217,-689.485948,-222.061783
1266.280447,-10732.986159,842.705048,-74.020594
1266.280758,-11399.171507,1378.971896,-592.164754
1266.281070,-11251.130318,919.314598,148.041188
1266.281381,-10955.047942,689.485948,814.226536
1266.281693,-9548.656652,229.828649,1332.370696
1266.282005,-7550.100608,-229.828649,1702.473667
1266.282316,-5181.441594,-536.266849,2072.576638
1266.282628,-5107.421000,-383.047749,1258.350101
1266.282939,-5625.565159,-612.876398,370.102971
1266.283251,-8808.450710,0.000000,-444.123565
1266.283562,-10362.883188,1532.190996,-592.164754
1266.283874,-11991.336260,2834.553343,222.061783
1266.284186,-12213.398043,2604.724693,222.061783
1266.284497,-11843.295072,1685.410096,740.205942
1266.284809,-9622.677246,1225.752797,1110.308913
1266.285120,-7105.977043,1149.143247,1480.411884
1266.285432,-5625.565159,76.609550,1554.432478
1266.285744,-4589.276840,-306.438199,2220.617826
1266.286055,-5107.421000,-1915.238745,888.247130
1266.286367,-7105.977043,-1455.581446,148.041188
1266.286678,-8660.409521,-689.485948,-74.020594
1266.286990,-10362.883188,229.828649,-1184.329507
1266.287301,-11547.212695,842.705048,-962.267725
1266.287613,-11399.171507,153.219100,-1036.288319
1266.287925,-10881.027347,0.000000,666.185348
1266.288236,-10066.800811,-229.828649,740.205942
1266.288548,-7550.100608,-459.657299,1924.535449
1266.288859,-6365.771101,-1149.143247,1628.453072
1266.289171,-6143.709319,-1608.800546,1702.473667
1266.289482,-5847.626942,-1532.190996,1480.411884
1266.289794,-7698.141797,-2221.676944,148.041188
1266.290106,-9178.553681,-1072.533697,-444.123565
1266.290417,-10955.047942,153.219100,-1036.288319
1266.290729,-12065.356855,1072.533697,-1258.350101
1266.291040,-12139.377449,0.000000,-814.226536
1266.291352,-11547.212695,0.000000,-148.041188
1266.291663,-10066.800811,0.000000,444.123565
1266.291975,-8142.265362,0.000000,1332.370696
1266.292287,-7179.997637,-383.047749,1924.535449
1266.292598,-7476.080014,-1378.971896,1332.370696
1266.292910,-7105.977043,-1608.800546,1332.370696
1266.293221,-8290.306550,-1838.629195,592.164754
1266.293533,-9992.780217,-153.219100,-814.226536
1266.293844,-11547.212695,1608.800546,-1036.288319
1266.294156,-11843.295072,2145.067394,-1406.391290
1266.294468,-11991.336260,1455.581446,-666.185348
1266.294779,-10807.006753,842.705048,370.102971
1266.295091,-9178.553681,306.438199,518.144159
1266.295402,-6735.874072,1302.362347,740.205942
1266.295714,-5551.544565,-306.438199,1628.453072
1266.296026,-5551.544565,-612.876398,1184.329507
1266.296337,-6587.832884,-689.485948,666.185348
1266.296649,-8734.430116,383.047749,-0.000000
1266.296960,-10881.027347,1685.410096,-74.020594
1266.297272,-11991.336260,2451.505594,-74.020594
1266.297583,-11695.253884,2221.676944,-148.041188
1266.297895,-11473.192101,1685.410096,592.164754
1266.298207,-9178.553681,1838.629195,1036.288319
1266.298518,-6883.915261,995.924147,1850.514855
1266.298830,-5477.523971,306.438199,2072.576638
1266.299141,-4959.379811,-459.657299,2220.617826
1266.299453,-5773.606348,-1532.190996,1628.453072
1266.299764,-6883.915261,-689.485948,518.144159
1266.300076,-9030.512492,-459.657299,-222.061783
1266.300388,-9918.759623,612.876398,-1184.329507
1266.300699,-10881.027347,1225.752797,-962.267725
1266.301011,-11103.089130,995.924147,-222.061783
1266.301322,-9770.718434,229.828649,740.205942
1266.301634,-8734.430116,-612.876398,1554.432478
1266.301945,-6957.935855,-919.314598,2294.638420
1266.302257,-6143.709319,-1302.362347,1480.411884
1266.302569,-5995.668130,-536.266849,1258.350101
1266.302880,-6957.935855,-842.705048,962.267725
1266.303192,-7994.224174,-1225.752797,-74.020594
1266.303503,-10140.821405,-766.095498,-444.123565
1266.303815,-11547.212695,153.219100,-518.144159
1266.304126,-12139.377449,383.047749,-814.226536
1266.304438,-11695.253884,-459.657299,-0.000000
1266.304750,-11251.130318,0.000000,888.247130
1266.305061,-9326.594869,-1608.800546,1184.329507
1266.305373,-7254.018232,-689.485948,1776.494261
1266.305684,-6957.935855,-612.876398,1776.494261
1266.305996,-7550.100608,-1685.410096,1332.370696
1266.306307,-7994.224174,-1532.190996,888.247130
1266.306619,-9326.594869,-1302.362347,-0.000000
1266.306931,-10436.903782,0.000000,-1110.308913
1266.307242,-11399.171507,1685.410096,-888.247130
1266.307554,-11473.192101,1532.190996,-1406.391290
1266.307865,-11029.068536,612.876398,-222.061783
1266.308177,-10362.883188,-612.876398,666.185348
1266.308489,-8808.450710,0.000000,1332.370696
1266.308800,-6661.853478,0.000000,1480.411884
1266.309112,-5773.606348,-612.876398,1554.432478
1266.309423,-6217.729913,-2145.067394,1258.350101
1266.309735,-7031.956449,-842.705048,-0.000000
1266.310046,-8956.491898,153.219100,-222.061783
1266.310358,-11251.130318,1302.362347,-592.164754
1266.310670,-12361.439231,1685.410096,-74.020594
1266.310981,-12065.356855,1532.190996,-0.000000
1266.311293,-11103.089130,1072.533697,592.164754
1266.311604,-8216.285956,1455.581446,1480.411884
1266.311916,-6291.750507,1149.143247,1702.473667
1266.312227,-5181.441594,-689.485948,1998.556043
1266.312539,-4293.194464,-1455.581446,1998.556043
1266.312851,-6069.688724,-1608.800546,740.205942
1266.313162,-7105.977043,-1149.143247,-148.041188
1266.313474,-9030.512492,612.876398,-962.267725
1266.313785,-10732.986159,1225.752797,-1554.432478
1266.314097,-10955.047942,919.314598,-888.247130
1266.314408,-11029.068536,76.609550,-0.000000
1266.314720,-9992.780217,-153.219100,1554.432478
1266.315032,-9252.574275,-919.314598,2368.659014
1266.315343,-7031.956449,-842.705048,2664.741391
1266.315655,-5699.585753,-1072.533697,2442.679609
1266.315966,-5699.585753,-1378.971896,1628.453072
1266.316278,-5921.647536,-1302.362347,592.164754
1266.316589,-8142.265362,-995.924147,-296.082377
1266.316901,-10214.842000,306.438199,-962.267725
1266.317213,-11769.274478,1608.800546,-370.102971
1266.317524,-12435.459826,689.485948,-592.164754
1266.317836,-11917.315666,0.000000,222.061783
1266.318147,-10584.944971,-229.828649,1184.329507
1266.318459,-8068.244768,-612.876398,1628.453072
1266.318770,-7624.121203,-536.266849,1776.494261
1266.319082,-7476.080014,-842.705048,2146.597232
1266.319394,-7105.977043,-1991.848295,1924.535449
1266.319705,-7254.018232,-1991.848295,518.144159
1266.320017,-8068.244768,-1225.752797,-0.000000
1266.320328,-11029.068536,-153.219100,-1850.514855
1266.320640,-11621.233289,919.314598,-1258.350101
1266.320952,-11547.212695,995.924147,-962.267725
1266.321263,-11769.274478,0.000000,296.082377
1266.321575,-10436.903782,-919.314598,444.123565
1266.321886,-8882.471304,-919.314598,1184.329507
1266.322198,-6883.915261,-383.047749,1406.391290
1266.322509,-5699.585753,-1225.752797,962.267725
1266.322821,-6069.688724,-1378.971896,592.164754
1266.323133,-7254.018232,-1225.752797,-370.102971
1266.323444,-9696.697840,153.219100,-592.164754
1266.323756,-11621.233289,2145.067394,-814.226536
1266.324067,-12213.398043,2451.505594,-1184.329507
1266.324379,-11769.274478,2834.553343,-592.164754
1266.324690,-10214.842000,383.047749,370.102971
1266.325002,-7550.100608,1072.533697,962.267725
1266.325314,-5847.626942,153.219100,1332.370696
1266.325625,-5699.585753,-459.657299,1554.432478
1266.325937,-6291.750507,-1302.362347,1406.391290
1266.326248,-7328.038826,-1302.362347,666.185348
1266.326560,-8512.368333,-153.219100,-518.144159
1266.326871,-9474.636058,766.095498,-1406.391290
1266.327183,-10955.047942,1225.752797,-1258.350101
1266.327495,-11621.233289,1685.410096,-1258.350101
1266.327806,-10732.986159,766.095498,-0.000000
1266.328118,-9770.718434,153.219100,962.267725
1266.328429,-8734.430116,0.000000,1998.556043
1266.328741,-6735.874072,536.266849,1924.535449
1266.329052,-5921.647536,-1302.362347,1480.411884
1266.329364,-5255.462188,-1072.533697,1480.411884
1266.329676,-6735.874072,-766.095498,-0.000000
1266.329987,-8734.430116,-1225.752797,-74.020594
1266.330299,-10584.944971,0.000000,-592.164754
1266.330610,-11917.315666,306.438199,-0.000000
1266.330922,-12287.418637,459.657299,-296.082377
1266.331234,-11769.274478,383.047749,592.164754
1266.331545,-10362.883188,383.047749,1036.288319
1266.331857,-7846.182985,612.876398,1998.556043
1266.332168,-6809.894666,-153.219100,2072.576638
1266.332480,-6143.709319,-1149.143247,2220.617826
1266.332791,-6957.935855,-1608.800546,1332.370696
1266.333103,-7994.224174,-1608.800546,666.185348
1266.333415,-9844.739029,-689.485948,-296.082377
1266.333726,-10807.006753,995.924147,-888.247130
1266.334038,-10732.986159,2374.896044,-1110.308913
1266.334349,-10955.047942,1455.581446,-888.247130
1266.334661,-9696.697840,153.219100,296.082377
1266.334972,-9178.553681,-459.657299,1110.308913
1266.335284,-7328.038826,-459.657299,1850.514855
1266.335596,-5995.668130,-383.047749,1924.535449
1266.335907,-6513.812290,-1149.143247,1924.535449
1266.336219,-7031.956449,-1149.143247,1554.432478
1266.336530,-8438.347739,-1762.019645,444.123565
1266.336842,-10214.842000,-229.828649,518.144159
1266.337153,-11991.336260,1302.362347,148.041188
1266.337465,-12287.418637,2068.457845,-296.082377
1266.337777,-11843.295072,995.924147,148.041188
1266.338088,-9770.718434,459.657299,1110.308913
1266.338400,-7105.977043,383.047749,1702.473667
1266.338711,-5773.606348,-919.314598,1850.514855
1266.339023,-5033.400406,-1762.019645,2368.659014
1266.339334,-5847.626942,-2221.676944,1406.391290
1266.339646,-7328.038826,-2221.676944,592.164754
1266.339958,-9252.574275,-153.219100,-740.205942
1266.340269,-10807.006753,1455.581446,-1258.350101
1266.340581,-11769.274478,2068.457845,-1776.494261
1266.340892,-11029.068536,1915.238745,-1036.288319
1266.341204,-9770.718434,1225.752797,-0.000000
1266.341515,-9252.574275,153.219100,592.164754
1266.341827,-7550.100608,76.609550,2294.638420
1266.342139,-5995.668130,-612.876398,2368.659014
1266.342450,-5699.585753,-1072.533697,1924.535449
1266.342762,-6217.729913,-1225.752797,1184.329507
1266.343073,-7920.203579,-1302.362347,-296.082377
1266.343385,-10362.883188,-229.828649,-296.082377
1266.343697,-11473.192101,995.924147,-888.247130
1266.344008,-12435.459826,1378.971896,-592.164754
1266.344320,-12953.603985,229.828649,-296.082377
1266.344631,-11547.212695,0.000000,1110.308913
1266.344943,-9474.636058,-306.438199,1110.308913
1266.345254,-7031.956449,76.609550,2220.617826
1266.345566,-6069.688724,0.000000,1850.514855
1266.345878,-5995.668130,-766.095498,1480.411884
1266.346189,-6661.853478,-1149.143247,740.205942
1266.346501,-7994.224174,-919.314598,-370.102971
1266.346812,-9844.739029,536.266849,-1258.350101
1266.347124,-11029.068536,1762.019645,-1554.432478
1266.347435,-11251.130318,1532.190996,-1628.453072
1266.347747,-11177.109724,306.438199,-370.102971
1266.348059,-10436.903782,-383.047749,740.205942
1266.348370,-9104.533087,-1225.752797,1702.473667
1266.348682,-7254.018232,-1149.143247,1332.370696
1266.348993,-5477.523971,-1225.752797,1406.391290
1266.349305,-5699.585753,-1302.362347,1332.370696
1266.349616,-6661.853478,-1762.019645,740.205942
1266.349928,-9178.553681,-1149.143247,148.041188
1266.350240,-11843.295072,229.828649,-0.000000
1266.350551,-12435.459826,1838.629195,-296.082377
1266.350863,-12213.398043,2757.943793,-740.205942
1266.351174,-11695.253884,1532.190996,-0.000000
1266.351486,-8882.471304,995.924147,518.144159
1266.351797,-6291.750507,229.828649,1406.391290
1266.352109,-5107.421000,-766.095498,1480.411884
1266.352421,-4811.338623,-1378.971896,1628.453072
1266.352732,-5773.606348,-2068.457845,1258.350101
1266.353044,-7476.080014,-2145.067394,888.247130
1266.353355,-9326.594869,-1072.533697,-888.247130
1266.353667,-11473.192101,0.000000,-1480.411884
1266.353978,-12509.480420,2298.286494,-1332.370696
1266.354290,-12435.459826,1608.800546,-666.185348
1266.354602,-11695.253884,612.876398,370.102971
1266.354913,-10066.800811,-459.657299,1258.350101
1266.355225,-7402.059420,-766.095498,1850.514855
1266.355536,-5329.482782,-1072.533697,1776.494261
1266.355848,-5477.523971,-842.705048,1480.411884
1266.356160,-6069.688724,-1915.238745,1554.432478
1266.356471,-7402.059420,-2298.286494,444.123565
1266.356783,-10214.842000,-689.485948,-148.041188
1266.357094,-11695.253884,1455.581446,-444.123565
1266.357406,-12287.418637,2068.457845,-962.267725
1266.357717,-11621.233289,1455.581446,-592.164754
1266.358029,-10436.903782,1072.533697,888.247130
1266.358341,-8216.285956,1302.362347,1406.391290
1266.358652,-6439.791695,689.485948,1998.556043
1266.358964,-4811.338623,-383.047749,2220.617826
1266.359275,-6587.832884,-1532.190996,2072.576638
1266.359587,-7105.977043,-1455.581446,1184.329507
1266.359898,-7846.182985,0.000000,-74.020594
1266.360210,-10436.903782,1302.362347,-1480.411884
1266.360522,-11103.089130,2068.457845,-1776.494261
1266.360833,-11325.150913,1302.362347,-1628.453072
1266.361145,-11325.150913,459.657299,222.061783
1266.361456,-9844.739029,0.000000,1258.350101
1266.361768,-9474.636058,-383.047749,1406.391290
1266.362079,-7254.018232,153.219100,1998.556043
1266.362391,-5329.482782,0.000000,1924.535449
1266.362703,-5329.482782,-842.705048,1184.329507
1266.363014,-5847.626942,-612.876398,370.102971
1266.363326,-9178.553681,0.000000,-296.082377
1266.363637,-11029.068536,1762.019645,-370.102971
1266.363949,-12287.418637,2374.896044,-222.061783
1266.364260,-12435.459826,2145.067394,-296.082377
1266.364572,-11325.150913,1455.581446,-0.000000
1266.364884,-9474.636058,612.876398,296.082377
1266.365195,-5995.668130,0.000000,1258.350101
1266.365507,-4885.359217,0.000000,1332.370696
1266.365818,-5699.585753,-1608.800546,1998.556043
1266.366130,-6735.874072,-2374.896044,1554.432478
1266.366442,-8216.285956,-2451.505594,1110.308913
1266.366753,-9696.697840,-536.266849,-0.000000
1266.367065,-11103.089130,995.924147,-370.102971
1266.367376,-11547.212695,1302.362347,-1480.411884
1266.367688,-11251.130318,1455.581446,-370.102971
1266.367999,-10362.883188,459.657299,-148.041188
1266.368311,-9030.512492,-612.876398,1406.391290
1266.368623,-7698.141797,-842.705048,2368.659014
1266.368934,-6587.832884,-1302.362347,2146.597232
1266.369246,-5773.606348,-1532.190996,1924.535449
1266.369557,-6513.812290,-1685.410096,1332.370696
1266.369869,-7476.080014,-1608.800546,296.082377
1266.370180,-9622.677246,76.609550,-592.164754
1266.370492,-10584.944971,995.924147,-518.144159
1266.370804,-11473.192101,1455.581446,-0.000000
1266.371115,-11103.089130,383.047749,222.061783
1266.371427,-10881.027347,0.000000,814.226536
1266.371738,-8956.491898,0.000000,1628.453072
1266.372050,-6809.894666,0.000000,2220.617826
1266.372361,-6069.688724,-459.657299,2294.638420
1266.372673,-6735.874072,-2145.067394,1776.494261
1266.372985,-7179.997637,-2145.067394,1184.329507
1266.373296,-8734.430116,-1302.362347,148.041188
1266.373608,-10288.862594,919.314598,-1258.350101
1266.373919,-10881.027347,2145.067394,-1628.453072
1266.374231,-11325.150913,1685.410096,-1776.494261
1266.374542,-10881.027347,612.876398,-222.061783
1266.374854,-9548.656652,153.219100,296.082377
1266.375165,-8956.491898,-459.657299,1406.391290
1266.375477,-7846.182985,0.000000,1332.370696
1266.375788,-5847.626942,0.000000,2072.576638
1266.376100,-6365.771101,-919.314598,1406.391290
1266.376411,-7179.997637,-1072.533697,888.247130
1266.376723,-9326.594869,-766.095498,-74.020594
1266.377035,-11917.315666,995.924147,-592.164754
1266.377346,-11843.295072,2987.772442,-518.144159
1266.377658,-11621.233289,2681.334243,-962.267725
1266.377969,-11251.130318,1991.848295,-518.144159
1266.378281,-8438.347739,1072.533697,592.164754
1266.378592,-6217.729913,-229.828649,1628.453072
1266.378904,-5477.523971,-919.314598,2072.576638
1266.379215,-5773.606348,-1149.143247,2220.617826
1266.379527,-7105.977043,-1455.581446,1184.329507
1266.379838,-8216.285956,-1838.629195,592.164754
1266.380150,-9992.780217,-306.438199,-666.185348
1266.380461,-10658.965565,383.047749,-1110.308913
1266.380773,-11843.295072,1072.533697,-1554.432478
1266.381084,-11473.192101,536.266849,148.041188
1266.381396,-10362.883188,153.219100,1036.288319
1266.381707,-9178.553681,-459.657299,2072.576638
1266.382019,-7031.956449,-995.924147,2516.700203
1266.382330,-5255.462188,-1532.190996,2146.597232
1266.382642,-5033.400406,-842.705048,888.247130
1266.382953,-5477.523971,-1149.143247,-0.000000
1266.383265,-8364.327145,-1838.629195,-814.226536
1266.383576,-10584.944971,0.000000,-518.144159
1266.383888,-11843.295072,536.266849,-0.000000
1266.384199,-12287.418637,612.876398,-222.061783
1266.384511,-11843.295072,-153.219100,222.061783
1266.384822,-10881.027347,-995.924147,888.247130
1266.385134,-8586.388927,0.000000,1258.350101
1266.385445,-7105.977043,306.438199,1406.391290
1266.385757,-6513.812290,-766.095498,1702.473667
1266.386068,-6587.832884,-2145.067394,1924.535449
1266.386380,-6513.812290,-2757.943793,1184.329507
1266.386691,-7624.121203,-2298.286494,444.123565
1266.387003,-9770.718434,0.000000,-1258.350101
1266.387314,-10955.047942,1149.143247,-1776.494261
1266.387626,-11843.295072,1762.019645,-1554.432478
1266.387937,-11843.295072,383.047749,-74.020594
1266.388249,-10955.047942,229.828649,592.164754
1266.388560,-9770.718434,0.000000,1036.288319
1266.388872,-7476.080014,0.000000,1628.453072
1266.389183,-5773.606348,0.000000,1702.473667
1266.389495,-5477.523971,-536.266849,962.267725
1266.389806,-6143.709319,-383.047749,222.061783
1266.390118,-8956.491898,689.485948,-518.144159
1266.390429,-11177.109724,1225.752797,-740.205942
1266.390741,-12361.439231,2681.334243,-888.247130
1266.391052,-12213.398043,2604.724693,-666.185348
1266.391364,-11029.068536,1532.190996,-444.123565
1266.391675,-8956.491898,612.876398,518.144159
1266.391987,-6661.853478,-383.047749,1258.350101
1266.392298,-5477.523971,-766.095498,1554.432478
1266.392610,-5847.626942,-1762.019645,1554.432478
1266.392921,-7105.977043,-1608.800546,1110.308913
1266.393233,-9252.574275,-842.705048,-0.000000
1266.393544,-10214.842000,536.266849,-370.102971
1266.393856,-11103.089130,1915.238745,-1184.329507
1266.394167,-11029.068536,2145.067394,-814.226536
1266.394479,-10288.862594,766.095498,-74.020594
1266.394790,-9474.636058,0.000000,740.205942
1266.395102,-7920.203579,-306.438199,1776.494261
1266.395413,-6735.874072,-1225.752797,2294.638420
1266.395725,-5403.503377,-1149.143247,1850.514855
1266.396036,-5773.606348,-1608.800546,1332.370696
1266.396348,-6735.874072,-1455.581446,592.164754
1266.396659,-8364.327145,-995.924147,-444.123565
1266.396971,-9918.759623,536.266849,-296.082377
1266.397282,-11695.253884,1149.143247,-0.000000
1266.397594,-11843.295072,383.047749,-0.000000
1266.397905,-11843.295072,-919.314598,814.226536
1266.398217,-10362.883188,-306.438199,1332.370696
1266.398528,-8216.285956,306.438199,1406.391290
1266.398840,-6365.771101,919.314598,1406.391290
1266.399151,-5995.668130,-1455.581446,1924.535449
1266.399463,-6809.894666,-1838.629195,1702.473667
1266.399774,-7031.956449,-2374.896044,1406.391290
1266.400086,-9326.594869,-995.924147,518.144159
1266.400397,-11177.109724,689.485948,-1258.350101
1266.400709,-11251.130318,1455.581446,-1110.308913
1266.401020,-11029.068536,536.266849,-1036.288319
1266.401332,-10584.944971,0.000000,-74.020594
1266.401643,-9770.718434,-459.657299,370.102971
1266.401955,-8808.450710,-536.266849,1184.329507
1266.402266,-7328.038826,-229.828649,1554.432478
1266.402578,-6069.688724,-919.314598,2072.576638
1266.402889,-6661.853478,-1762.019645,1776.494261
1266.403201,-8290.306550,-1608.800546,518.144159
1266.403512,-10214.842000,0.000000,-0.000000
1266.403824,-11177.109724,2221.676944,-296.082377
1266.404135,-11991.336260,2911.162892,-1332.370696
1266.404447,-11251.130318,2298.286494,-1110.308913
1266.404758,-10807.006753,1225.752797,-222.061783
1266.405070,-8068.244768,995.924147,444.123565
1266.405381,-5699.585753,153.219100,962.267725
1266.405693,-5255.462188,-459.657299,1406.391290
1266.406004,-6439.791695,-1149.143247,1036.288319
1266.406316,-7698.141797,-1532.190996,740.205942
1266.406627,-8660.409521,-919.314598,-296.082377
1266.406939,-9474.636058,612.876398,-444.123565
1266.407250,-11177.109724,1838.629195,-592.164754
1266.407562,-11547.212695,1149.143247,-814.226536
1266.407874,-10955.047942,766.095498,-0.000000
1266.408185,-9770.718434,0.000000,962.267725
1266.408497,-8512.368333,-459.657299,1776.494261
1266.408808,-6809.894666,-1225.752797,1702.473667
1266.409120,-5625.565159,-995.924147,1406.391290
1266.409431,-5551.544565,-2298.286494,1110.308913
1266.409743,-6883.915261,-1762.019645,-74.020594
1266.410054,-9104.533087,-995.924147,-74.020594
1266.410366,-11029.068536,306.438199,-444.123565
1266.410677,-11917.315666,536.266849,296.082377
1266.410989,-12213.398043,229.828649,-0.000000
1266.411300,-11029.068536,-153.219100,1332.370696
1266.411612,-9622.677246,0.000000,1258.350101
1266.411923,-7179.997637,229.828649,2294.638420
1266.412235,-6069.688724,0.000000,1554.432478
1266.412546,-5699.585753,-1302.362347,1702.473667
1266.412858,-7031.956449,-2145.067394,1406.391290
1266.413169,-7846.182985,-2145.067394,296.082377
1266.413481,-9474.636058,-536.266849,-740.205942
1266.413792,-10288.862594,689.485948,-888.247130
1266.414104,-11251.130318,383.047749,-962.267725
1266.414415,-12139.377449,0.000000,-296.082377
1266.414727,-11103.089130,-383.047749,888.247130
1266.415038,-10288.862594,76.609550,1776.494261
1266.415350,-8142.265362,0.000000,1924.535449
1266.415661,-6587.832884,153.219100,1924.535449
1266.415973,-5107.421000,-306.438199,1480.411884
1266.416284,-5847.626942,-1225.752797,666.185348
1266.416596,-7550.100608,-1149.143247,222.061783
1266.416907,-10584.944971,459.657299,-592.164754
1266.417219,-11621.233289,1685.410096,-74.020594
1266.417530,-11843.295072,1838.629195,-740.205942
1266.417842,-11547.212695,459.657299,148.041188
1266.418153,-10288.862594,0.000000,-0.000000
1266.418465,-7698.141797,459.657299,1184.329507
1266.418776,-6587.832884,-919.314598,1110.308913
1266.419088,-5773.606348,-306.438199,1702.473667
1266.419399,-6439.791695,-1378.971896,1406.391290
1266.419711,-7698.141797,-1762.019645,740.205942
1266.420022,-8808.450710,-1072.533697,148.041188
1266.420334,-10066.800811,766.095498,-962.267725
1266.420645,-10807.006753,1685.410096,-1628.453072
1266.420957,-10807.006753,995.924147,-1258.350101
1266.421268,-9622.677246,76.609550,-370.102971
1266.421580,-9696.697840,0.000000,592.164754
1266.421891,-8956.491898,0.000000,1258.350101
1266.422203,-7328.038826,-153.219100,1332.370696
1266.422514,-6069.688724,-306.438199,962.267725
1266.422826,-5995.668130,-383.047749,814.226536
1266.423137,-7105.977043,-1149.143247,-222.061783
1266.423449,-8808.450710,-153.219100,-518.144159
1266.423760,-10807.006753,1455.581446,-148.041188
1266.424072,-11843.295072,1149.143247,-370.102971
1266.424383,-12287.418637,919.314598,-0.000000
1266.424695,-11917.315666,0.000000,740.205942
1266.425006,-9696.697840,-229.828649,1036.288319
1266.425318,-7550.100608,-153.219100,1776.494261
1266.425629,-6957.935855,-612.876398,1406.391290
1266.425941,-6513.812290,-612.876398,1554.432478
1266.426252,-7254.018232,-1838.629195,1406.391290
1266.426564,-7994.224174,-1991.848295,666.185348
1266.426875,-9474.636058,0.000000,-444.123565
1266.427187,-10362.883188,1685.410096,-962.267725
1266.427498,-11103.089130,1608.800546,-1332.370696
1266.427810,-10584.944971,995.924147,-518.144159
1266.428121,-10066.800811,536.266849,592.164754
1266.428433,-9178.553681,153.219100,962.267725
1266.428744,-7624.121203,229.828649,1924.535449
1266.429056,-5995.668130,306.438199,1924.535449
1266.429367,-5995.668130,-306.438199,1480.411884
1266.429679,-6587.832884,-612.876398,888.247130
1266.429990,-7994.224174,-383.047749,444.123565
1266.430302,-9844.739029,919.314598,-0.000000
1266.430613,-11399.171507,2145.067394,-0.000000
1266.430925,-11473.192101,1991.848295,-74.020594
1266.431236,-11695.253884,1225.752797,-0.000000
1266.431548,-9770.718434,766.095498,666.185348
1266.431859,-7254.018232,306.438199,1480.411884
1266.432171,-5847.626942,-536.266849,1406.391290
1266.432482,-5403.503377,-1685.410096,2072.576638
1266.432794,-6957.935855,-2221.676944,1184.329507
1266.433105,-7920.203579,-1532.190996,1332.370696
1266.433417,-8956.491898,383.047749,222.061783
1266.433728,-11251.130318,1072.533697,-518.144159
1266.434040,-11843.295072,1685.410096,-740.205942
1266.434351,-11473.192101,1455.581446,-222.061783
1266.434663,-10955.047942,689.485948,370.102971
1266.434974,-9696.697840,536.266849,740.205942
1266.435286,-7624.121203,-383.047749,1332.370696
1266.435597,-6069.688724,-612.876398,1332.370696
1266.435909,-5255.462188,-1302.362347,888.247130
1266.436220,-5255.462188,-1149.143247,592.164754
1266.436532,-7031.956449,-1991.848295,370.102971
1266.436843,-10140.821405,-1378.971896,222.061783
1266.437155,-12139.377449,0.000000,740.205942
1266.437466,-12879.583391,766.095498,296.082377
1266.437778,-12805.562797,1608.800546,518.144159
1266.438089,-11547.212695,229.828649,1332.370696
1266.438401,-8882.471304,842.705048,1184.329507
1266.438713,-6587.832884,1149.143247,1036.288319
1266.439024,-5181.441594,842.705048,1258.350101
1266.439336,-5773.606348,-536.266849,1110.308913
1266.439647,-6217.729913,-1225.752797,888.247130
1266.439959,-7624.121203,-995.924147,74.020594
1266.440270,-8660.409521,383.047749,-740.205942
1266.440582,-10436.903782,1762.019645,-1110.308913
1266.440893,-11325.150913,1762.019645,-740.205942
1266.441205,-11325.150913,536.266849,-0.000000
1266.441516,-10658.965565,0.000000,740.205942
1266.441828,-9474.636058,0.000000,1776.494261
1266.442139,-7476.080014,0.000000,1480.411884
1266.442451,-5477.523971,-689.485948,1406.391290
1266.442762,-5477.523971,-1072.533697,1110.308913
1266.443074,-5699.585753,-1378.971896,370.102971
1266.443385,-8216.285956,-919.314598,-0.000000
1266.443697,-11177.109724,153.219100,-222.061783
1266.444008,-12213.398043,1149.143247,-74.020594
1266.444320,-12361.439231,766.095498,-148.041188
1266.444631,-12435.459826,229.828649,148.041188
1266.444943,-10732.986159,383.047749,-0.000000
1266.445254,-7772.162391,612.876398,296.082377
1266.445566,-6883.915261,-689.485948,1628.453072
1266.445877,-5847.626942,-1225.752797,1332.370696
1266.446189,-6957.935855,-1915.238745,1554.432478
1266.446500,-7328.038826,-1762.019645,1184.329507
1266.446812,-8660.409521,-766.095498,-222.061783
1266.447123,-9992.780217,1149.143247,-814.226536
1266.447435,-10881.027347,919.314598,-1332.370696
1266.447746,-11251.130318,689.485948,-370.102971
1266.448058,-11547.212695,306.438199,296.082377
1266.448369,-10584.944971,-536.266849,444.123565
1266.448681,-8734.430116,-1149.143247,1554.432478
1266.448992,-6809.894666,-1762.019645,1702.473667
1266.449304,-5995.668130,-1302.362347,1406.391290
1266.449615,-6365.771101,-1378.971896,1184.329507
1266.449927,-7402.059420,-1532.190996,370.102971
1266.450238,-9178.553681,-1302.362347,518.144159
1266.450550,-10436.903782,1072.533697,444.123565
1266.450861,-11103.089130,612.876398,222.061783
1266.451173,-11103.089130,306.438199,370.102971
1266.451484,-10584.944971,-153.219100,814.226536
1266.451796,-8364.327145,459.657299,962.267725
1266.452107,-6365.771101,459.657299,1184.329507
1266.452419,-6291.750507,-612.876398,1110.308913
1266.452730,-6069.688724,-1455.581446,1184.329507
1266.453042,-6735.874072,-1838.629195,1406.391290
1266.453353,-7624.121203,-612.876398,148.041188
1266.453665,-9548.656652,612.876398,-740.205942
1266.453976,-10658.965565,1838.629195,-1036.288319
1266.454288,-11177.109724,1378.971896,-962.267725
1266.454599,-10807.006753,689.485948,-0.000000
1266.454911,-9696.697840,153.219100,1110.308913
1266.455222,-9326.594869,0.000000,1332.370696
1266.455534,-7402.059420,-995.924147,1184.329507
1266.455845,-6365.771101,-612.876398,1480.411884
1266.456157,-6365.771101,-995.924147,888.247130
1266.456468,-6957.935855,-229.828649,148.041188
1266.456780,-9326.594869,-76.609550,-222.061783
1266.457091,-11029.068536,459.657299,-444.123565
1266.457403,-11621.233289,1838.629195,-74.020594
1266.457714,-11695.253884,1608.800546,-888.247130
1266.458026,-10807.006753,536.266849,370.102971
1266.458337,-9400.615463,306.438199,444.123565
1266.458649,-7105.977043,306.438199,962.267725
1266.458960,-6365.771101,-383.047749,888.247130
1266.459272,-6365.771101,-1685.410096,1184.329507
1266.459583,-7105.977043,-1991.848295,1332.370696
1266.459895,-8142.265362,-1378.971896,666.185348
1266.460206,-9844.739029,-383.047749,-148.041188
1266.460518,-11325.150913,536.266849,-1110.308913
1266.460829,-11695.253884,1149.143247,-1110.308913
1266.461141,-10955.047942,995.924147,-592.164754
1266.461452,-10288.862594,536.266849,-0.000000
1266.461764,-9474.636058,0.000000,518.144159
1266.462075,-6957.935855,-536.266849,2146.597232
1266.462387,-6069.688724,-1149.143247,1110.308913
1266.462698,-5773.606348,-2145.067394,1406.391290
1266.463010,-6513.812290,-1991.848295,1184.329507
1266.463321,-8882.471304,-1532.190996,592.164754
1266.463633,-10807.006753,0.000000,666.185348
1266.463944,-11769.274478,842.705048,370.102971
1266.464256,-11177.109724,1072.533697,-0.000000
1266.464567,-11621.233289,1149.143247,222.061783
1266.464879,-9992.780217,612.876398,814.226536
1266.465190,-7328.038826,306.438199,814.226536
1266.465502,-6439.791695,842.705048,1036.288319
1266.465813,-6143.709319,0.000000,1628.453072
1266.466125,-7031.956449,-1532.190996,1184.329507
1266.466436,-7476.080014,-1149.143247,1110.308913
1266.466748,-8660.409521,-689.485948,740.205942
1266.467059,-9622.677246,153.219100,-962.267725
1266.467371,-10732.986159,1685.410096,-1036.288319
1266.467682,-10881.027347,995.924147,-740.205942
1266.467994,-10436.903782,306.438199,148.041188
1266.468305,-9622.677246,459.657299,888.247130
1266.468617,-8586.388927,229.828649,1480.411884
1266.468929,-6883.915261,0.000000,1406.391290
1266.469240,-5847.626942,0.000000,1480.411884
1266.469552,-6439.791695,-842.705048,1036.288319
1266.469863,-7476.080014,-995.924147,-0.000000
1266.470175,-9844.739029,-229.828649,-74.020594
1266.470486,-11103.089130,766.095498,-0.000000
1266.470798,-11547.212695,1455.581446,-296.082377
1266.471109,-11103.089130,612.876398,222.061783
1266.471421,-10288.862594,306.438199,666.185348
1266.471732,-8734.430116,76.609550,888.247130
1266.472044,-7254.018232,842.705048,1036.288319
1266.472355,-6365.771101,0.000000,1702.473667
1266.472667,-6809.894666,-995.924147,888.247130
1266.472978,-7698.141797,-1455.581446,518.144159
1266.473290,-8660.409521,-766.095498,-74.020594
1266.473601,-9770.718434,536.266849,-740.205942
1266.473913,-10955.047942,1149.143247,-740.205942
1266.474224,-10807.006753,689.485948,-592.164754
1266.474535,-11029.068536,-153.219100,-148.041188
1266.474847,-10066.800811,0.000000,518.144159
1266.475158,-8586.388927,-536.266849,1480.411884
1266.475470,-7179.997637,-995.924147,1184.329507
1266.475781,-6661.853478,-1532.190996,1480.411884
1266.476092,-6661.853478,-1762.019645,962.267725
1266.476404,-6883.915261,-1838.629195,518.144159
1266.476715,-9400.615463,-1378.971896,296.082377
1266.477026,-10436.903782,-612.876398,666.185348
1266.477338,-11917.315666,459.657299,148.041188
1266.477649,-11621.233289,383.047749,-0.000000
1266.477960,-11251.130318,-153.219100,814.226536
1266.478272,-10066.800811,0.000000,888.247130
1266.478583,-7994.224174,383.047749,1850.514855
1266.478894,-6439.791695,306.438199,1554.432478
1266.479206,-5847.626942,-612.876398,1258.350101
1266.479517,-6587.832884,-1072.533697,666.185348
1266.479829,-7402.059420,-995.924147,-222.061783
1266.480140,-9326.594869,383.047749,-1184.329507
1266.480451,-10658.965565,1685.410096,-1258.350101
1266.480763,-11325.150913,1685.410096,-1036.288319
1266.481074,-11843.295072,459.657299,-0.000000
1266.481385,-11177.109724,153.219100,888.247130
1266.481697,-9178.553681,-612.876398,1480.411884
1266.482008,-7550.100608,-536.266849,1554.432478
1266.482319,-6439.791695,76.609550,1258.350101
1266.482631,-5477.523971,-153.219100,1036.288319
1266.482942,-5403.503377,-536.266849,370.102971
1266.483253,-7476.080014,-536.266849,-0.000000
1266.483565,-10140.821405,612.876398,-592.164754
1266.483876,-11547.212695,2298.286494,-444.123565
1266.484188,-12361.439231,2451.505594,-814.226536
1266.484499,-11621.233289,1838.629195,-0.000000
1266.484810,-10140.821405,153.219100,518.144159
1266.485122,-7772.162391,-229.828649,1184.329507
1266.485433,-6069.688724,-766.095498,1480.411884
1266.485744,-5847.626942,-1455.581446,1998.556043
1266.486056,-6883.915261,-1991.848295,1554.432478
1266.486367,-7772.162391,-1762.019645,814.226536
1266.486678,-8734.430116,-689.485948,296.082377
1266.486990,-9918.759623,383.047749,-518.144159
1266.487301,-10288.862594,1455.581446,-1110.308913
1266.487613,-10658.965565,1072.533697,-1184.329507
1266.487924,-10214.842000,229.828649,-370.102971
1266.488235,-9696.697840,-536.266849,296.082377
1266.488547,-8660.409521,0.000000,1406.391290
1266.488858,-7476.080014,-459.657299,1850.514855
1266.489169,-6957.935855,-1762.019645,1332.370696
1266.489481,-6587.832884,-1608.800546,1406.391290
1266.489792,-7994.224174,-1838.629195,592.164754
1266.490103,-9474.636058,-1378.971896,444.123565
1266.490415,-11103.089130,0.000000,222.061783
1266.490726,-11843.295072,842.705048,222.061783
1266.491037,-11547.212695,1072.533697,-74.020594
1266.491349,-10362.883188,1072.533697,962.267725
1266.491660,-8956.491898,919.314598,1110.308913
1266.491972,-6883.915261,0.000000,1258.350101
1266.492283,-6587.832884,-153.219100,1110.308913
1266.492594,-6661.853478,-766.095498,1406.391290
1266.492906,-7698.141797,-1455.581446,1332.370696
1266.493217,-8364.327145,-1608.800546,518.144159
1266.493528,-9548.656652,383.047749,-518.144159
1266.493840,-10732.986159,1762.019645,-814.226536
1266.494151,-11029.068536,1762.019645,-1110.308913
1266.494462,-10732.986159,1915.238745,-518.144159
1266.494774,-10214.842000,1608.800546,666.185348
1266.495085,-8734.430116,995.924147,1036.288319
1266.495397,-6735.874072,383.047749,1184.329507
1266.495708,-5847.626942,229.828649,1628.453072
1266.496019,-5625.565159,-612.876398,814.226536
1266.496331,-6439.791695,-766.095498,962.267725
1266.496642,-8734.430116,-919.314598,-0.000000
1266.496953,-10881.027347,229.828649,-0.000000
1266.497265,-11547.212695,919.314598,-0.000000
1266.497576,-11769.274478,1378.971896,-222.061783
1266.497887,-11103.089130,1378.971896,444.123565
1266.498199,-9548.656652,1149.143247,518.144159
1266.498510,-7698.141797,919.314598,1554.432478
1266.498821,-5921.647536,689.485948,1480.411884
1266.499133,-5699.585753,153.219100,1628.453072
1266.499444,-6661.853478,-766.095498,1554.432478
1266.499756,-8068.244768,-919.314598,370.102971
1266.500067,-9844.739029,459.657299,-814.226536
1266.500378,-10881.027347,1225.752797,-888.247130
1266.500690,-11399.171507,1302.362347,-1258.350101
1266.501001,-11251.130318,1072.533697,-814.226536
1266.501312,-10214.842000,-842.705048,-0.000000
1266.501624,-8882.471304,-536.266849,444.123565
1266.501935,-7179.997637,-919.314598,888.247130
1266.502246,-6883.915261,-1378.971896,1554.432478
1266.502558,-6365.771101,-1685.410096,1702.473667
1266.502869,-6587.832884,-2451.505594,1850.514855
1266.503180,-7772.162391,-2298.286494,1184.329507
1266.503492,-9696.697840,-1532.190996,444.123565
1266.503803,-11325.150913,0.000000,148.041188
1266.504115,-11843.295072,306.438199,148.041188
1266.504426,-12139.377449,0.000000,370.102971
1266.504737,-11621.233289,-153.219100,814.226536
1266.505049,-9400.615463,459.657299,1036.288319
1266.505360,-7550.100608,383.047749,1332.370696
1266.505671,-6439.791695,0.000000,1628.453072
1266.505983,-5995.668130,-536.266849,1480.411884
1266.506294,-6809.894666,-995.924147,296.082377
1266.506605,-8068.244768,-612.876398,-0.000000
1266.506917,-9696.697840,536.266849,-592.164754
1266.507228,-10288.862594,1838.629195,-888.247130
1266.507540,-10955.047942,1915.238745,-740.205942
1266.507851,-10881.027347,612.876398,296.082377
1266.508162,-10288.862594,0.000000,962.267725
1266.508474,-8882.471304,-536.266849,1628.453072
1266.508785,-6735.874072,0.000000,1702.473667
1266.509096,-6069.688724,-306.438199,1776.494261
1266.509408,-6217.729913,-919.314598,1258.350101
1266.509719,-6957.935855,-536.266849,296.082377
1266.510030,-8882.471304,76.609550,-296.082377
1266.510342,-11029.068536,1455.581446,-444.123565
1266.510653,-12139.377449,2374.896044,-444.123565
1266.510964,-11473.192101,1915.238745,-222.061783
1266.511276,-10807.006753,689.485948,518.144159
1266.511587,-8882.471304,536.266849,1184.329507
1266.511899,-5995.668130,306.438199,1628.453072
1266.512210,-5477.523971,0.000000,2072.576638
1266.512521,-5699.585753,-995.924147,1998.556043
1266.512833,-6513.812290,-1762.019645,1258.350101
1266.513144,-7846.182985,-1532.190996,222.061783
1266.513455,-8586.388927,76.609550,-222.061783
1266.513767,-10362.883188,1072.533697,-1480.411884
1266.514078,-10436.903782,1532.190996,-1554.432478
1266.514389,-10807.006753,842.705048,-962.267725
1266.514701,-10288.862594,76.609550,148.041188
1266.515012,-9696.697840,-919.314598,1036.288319
1266.515323,-8364.327145,-1608.800546,1998.556043
1266.515635,-7105.977043,-2451.505594,2220.617826
1266.515946,-5995.668130,-1838.629195,1998.556043
1266.516258,-6439.791695,-2604.724693,1702.473667
1266.516569,-8660.409521,-2604.724693,444.123565
1266.516880,-11029.068536,-1225.752797,-0.000000
1266.517192,-11695.253884,459.657299,-296.082377
1266.517503,-11991.336260,1378.971896,-814.226536
1266.517814,-11399.171507,689.485948,-222.061783
1266.518126,-10510.924376,536.266849,-296.082377
1266.518437,-8882.471304,0.000000,-0.000000
1266.518748,-6809.894666,0.000000,814.226536
1266.519060,-6587.832884,-612.876398,1258.350101
1266.519371,-7031.956449,-1532.190996,1480.411884
1266.519683,-7105.977043,-2451.505594,1332.370696
1266.519994,-8364.327145,-2374.896044,666.185348
1266.520305,-9992.780217,-689.485948,-518.144159
1266.520617,-11843.295072,1532.190996,-1258.350101
1266.520928,-11621.233289,2068.457845,-1184.329507
1266.521239,-11991.336260,842.705048,-370.102971
1266.521551,-10807.006753,0.000000,222.061783
1266.521862,-8882.471304,383.047749,962.267725
1266.522173,-6957.935855,229.828649,1184.329507
1266.522485,-5329.482782,0.000000,1776.494261
1266.522796,-5403.503377,-919.314598,1702.473667
1266.523107,-6143.709319,-995.924147,444.123565
1266.523419,-8512.368333,-612.876398,74.020594
1266.523730,-10881.027347,842.705048,-74.020594
1266.524042,-11769.274478,2604.724693,-296.082377
1266.524353,-11991.336260,2374.896044,-592.164754
1266.524664,-11251.130318,1378.971896,-0.000000
1266.524976,-8956.491898,1685.410096,518.144159
1266.525287,-6439.791695,1915.238745,1332.370696
1266.525598,-5403.503377,383.047749,1702.473667
1266.525910,-5181.441594,-612.876398,1628.453072
1266.526221,-5921.647536,-1149.143247,1406.391290
1266.526532,-7476.080014,-766.095498,592.164754
1266.526844,-8734.430116,76.609550,-0.000000
1266.527155,-10214.842000,1149.143247,-962.267725
1266.527466,-10807.006753,1302.362347,-888.247130
1266.527778,-10584.944971,612.876398,-148.041188
1266.528089,-9918.759623,0.000000,1036.288319
1266.528401,-9326.594869,-919.314598,1332.370696
1266.528712,-7920.203579,-995.924147,1702.473667
1266.529023,-6809.894666,-1608.800546,1702.473667
1266.529335,-6513.812290,-1685.410096,1554.432478
1266.529646,-6957.935855,-1378.971896,1110.308913
1266.529957,-8438.347739,-1302.362347,-222.061783
1266.530269,-10362.883188,0.000000,-148.041188
1266.530580,-11399.171507,1532.190996,74.020594
1266.530891,-11695.253884,766.095498,-0.000000
1266.531203,-11769.274478,459.657299,444.123565
1266.531514,-11029.068536,153.219100,814.226536
1266.531826,-8808.450710,306.438199,740.205942
1266.532137,-7550.100608,612.876398,740.205942
1266.532448,-7031.956449,0.000000,962.267725
1266.532760,-7179.997637,-919.314598,740.205942
1266.533071,-7994.224174,-2068.457845,592.164754
1266.533382,-9252.574275,-1455.581446,148.041188
1266.533694,-11029.068536,306.438199,-666.185348
1266.534005,-11029.068536,1225.752797,-370.102971
1266.534316,-11399.171507,766.095498,-444.123565
1266.534628,-10584.944971,-229.828649,444.123565
1266.534939,-9474.636058,-306.438199,222.061783
1266.535250,-7698.141797,0.000000,1554.432478
1266.535562,-6735.874072,306.438199,888.247130
1266.535873,-5699.585753,-383.047749,1628.453072
1266.536185,-6069.688724,-1225.752797,1184.329507
1266.536496,-7328.038826,-1532.190996,592.164754
1266.536807,-9326.594869,-153.219100,-0.000000
1266.537119,-10732.986159,1762.019645,-666.185348
1266.537430,-11103.089130,1838.629195,-814.226536
1266.537741,-10807.006753,1532.190996,-444.123565
1266.538053,-10362.883188,153.219100,-0.000000
1266.538364,-8586.388927,229.828649,666.185348
1266.538675,-7105.977043,306.438199,1480.411884
1266.538987,-6365.771101,-536.266849,1998.556043
1266.539298,-6217.729913,-1608.800546,1924.535449
1266.539609,-7105.977043,-2451.505594,1554.432478
1266.539921,-7698.141797,-1915.238745,148.041188
1266.540232,-8808.450710,0.000000,-666.185348
1266.540544,-9992.780217,1378.971896,-1406.391290
1266.540855,-11325.150913,1225.752797,-1628.453072
1266.541166,-10658.965565,612.876398,-740.205942
1266.541478,-10214.842000,0.000000,-0.000000
1266.541789,-9474.636058,-689.485948,1406.391290
1266.542100,-8142.265362,-1455.581446,1554.432478
1266.542412,-7179.997637,-1762.019645,1776.494261
1266.542723,-6291.750507,-1378.971896,1628.453072
1266.543034,-6883.915261,-2068.457845,1480.411884
1266.543346,-8808.450710,-1532.190996,518.144159
1266.543657,-10140.821405,-229.828649,-74.020594
1266.543969,-11325.150913,1149.143247,-444.123565
1266.544280,-11251.130318,1608.800546,-1036.288319
1266.544591,-11473.192101,919.314598,-74.020594
1266.544903,-10288.862594,689.485948,370.102971
1266.545214,-8660.409521,383.047749,1184.329507
1266.545525,-7476.080014,-919.314598,1776.494261
1266.545837,-7254.018232,-1149.143247,2220.617826
1266.546148,-7994.224174,-2068.457845,1850.514855
1266.546459,-8216.285956,-2221.676944,962.267725
1266.546771,-8586.388927,-1149.143247,-0.000000
1266.547082,-9770.718434,1149.143247,-814.226536
1266.547393,-10807.006753,1991.848295,-888.247130
1266.547705,-10658.965565,612.876398,-0.000000
1266.548016,-10362.883188,459.657299,814.226536
1266.548328,-9696.697840,229.828649,1480.411884
1266.548639,-7920.203579,459.657299,1776.494261
1266.548950,-5995.668130,459.657299,1406.391290
1266.549262,-5329.482782,153.219100,1036.288319
1266.549573,-5699.585753,-229.828649,592.164754
1266.549884,-7179.997637,-76.609550,-592.164754
1266.550196,-9326.594869,995.924147,-740.205942
1266.550507,-11325.150913,1455.581446,-148.041188
1266.550818,-11843.295072,1225.752797,-0.000000
1266.551130,-11473.192101,766.095498,222.061783
1266.551441,-10214.842000,536.266849,962.267725
1266.551752,-7846.182985,153.219100,666.185348
1266.552064,-6291.750507,0.000000,962.267725
1266.552375,-5551.544565,-306.438199,1628.453072
1266.552687,-6143.709319,-1762.019645,962.267725
1266.552998,-7328.038826,-2221.676944,518.144159
1266.553309,-8660.409521,-1762.019645,-0.000000
1266.553621,-9548.656652,-306.438199,-814.226536
1266.553932,-10732.986159,76.609550,-814.226536
1266.554243,-10955.047942,0.000000,-962.267725
1266.554555,-11029.068536,-919.314598,-74.020594
1266.554866,-9696.697840,-306.438199,222.061783
1266.555177,-8660.409521,-306.438199,592.164754
1266.555489,-7550.100608,-842.705048,1036.288319
1266.555800,-6957.935855,-919.314598,888.247130
1266.556112,-6735.874072,-1149.143247,1110.308913
1266.556423,-7698.141797,-1762.019645,444.123565
1266.556734,-9474.636058,-612.876398,592.164754
1266.557046,-11251.130318,612.876398,-0.000000
1266.557357,-11917.315666,689.485948,222.061783
1266.557668,-11843.295072,536.266849,-592.164754
1266.557980,-11029.068536,306.438199,370.102971
1266.558291,-9252.574275,383.047749,222.061783
1266.558602,-7994.224174,-153.219100,814.226536
1266.558914,-7920.203579,-536.266849,1258.350101
1266.559225,-7698.141797,-383.047749,1628.453072
1266.559536,-8068.244768,-842.705048,1480.411884
1266.559848,-7846.182985,-995.924147,1184.329507
1266.560159,-9326.594869,0.000000,-148.041188
1266.560471,-10066.800811,1532.190996,-814.226536
1266.560782,-10584.944971,2451.505594,-1110.308913
1266.561093,-10214.842000,1915.238745,-296.082377
1266.561405,-9992.780217,1838.629195,148.041188
1266.561716,-8808.450710,689.485948,1406.391290
1266.562027,-6587.832884,306.438199,2146.597232
1266.562339,-5551.544565,229.828649,1850.514855
1266.562650,-5847.626942,-229.828649,1406.391290
1266.562961,-6735.874072,-766.095498,1110.308913
1266.563273,-8364.327145,-76.609550,-370.102971
1266.563584,-10658.965565,1455.581446,-518.144159
1266.563895,-11399.171507,2451.505594,-518.144159
1266.564207,-10955.047942,3140.991542,-666.185348
1266.564518,-10362.883188,995.924147,296.082377
1266.564830,-8586.388927,0.000000,1776.494261
1266.565141,-6957.935855,0.000000,2146.597232
1266.565452,-5847.626942,-459.657299,2516.700203
1266.565764,-5847.626942,-536.266849,2368.659014
1266.566075,-6217.729913,-1302.362347,1628.453072
1266.566386,-7328.038826,-459.657299,-222.061783
1266.566698,-8660.409521,-153.219100,-74.020594
1266.567009,-9622.677246,766.095498,-1036.288319
1266.567320,-10658.965565,1225.752797,-962.267725
1266.567632,-11177.109724,459.657299,-518.144159
1266.567943,-10584.944971,-766.095498,370.102971
1266.568255,-10066.800811,-1225.752797,740.205942
1266.568566,-8956.491898,-1072.533697,1554.432478
1266.568877,-7476.080014,-1149.143247,1110.308913
1266.569189,-6735.874072,-995.924147,1110.308913
1266.569500,-6957.935855,-1225.752797,1628.453072
1266.569811,-8290.306550,-2298.286494,814.226536
1266.570123,-9622.677246,-1762.019645,592.164754
1266.570434,-11029.068536,0.000000,444.123565
1266.570745,-11769.274478,0.000000,-74.020594
1266.571057,-11473.192101,-229.828649,-370.102971
1266.571368,-11843.295072,76.609550,-148.041188
1266.571679,-9696.697840,689.485948,-444.123565
1266.571991,-7846.182985,1072.533697,518.144159
1266.572302,-7328.038826,306.438199,666.185348
1266.572614,-7179.997637,-689.485948,1332.370696
1266.572925,-7402.059420,-1991.848295,1184.329507
1266.573236,-8364.327145,-1838.629195,444.123565
1266.573548,-9770.718434,229.828649,-518.144159
1266.573859,-10584.944971,2145.067394,-1184.329507
1266.574170,-10584.944971,1762.019645,-1258.350101
1266.574482,-10140.821405,153.219100,-296.082377
1266.574793,-9918.759623,-459.657299,518.144159
1266.575105,-8808.450710,-459.657299,1258.350101
1266.575416,-7328.038826,0.000000,1776.494261
1266.575728,-5995.668130,-536.266849,2072.576638
1266.576039,-6291.750507,-1455.581446,1776.494261
1266.576351,-7105.977043,-2145.067394,814.226536
1266.576662,-8142.265362,-383.047749,148.041188
1266.576974,-10214.842000,1455.581446,-74.020594
1266.577285,-11991.336260,3140.991542,-444.123565
1266.577597,-12139.377449,2834.553343,-370.102971
1266.577908,-10658.965565,1762.019645,518.144159
1266.578220,-8660.409521,0.000000,1480.411884
1266.578531,-6143.709319,0.000000,2220.617826
1266.578843,-5847.626942,-689.485948,2220.617826
1266.579154,-5995.668130,-612.876398,2072.576638
1266.579466,-6883.915261,-1302.362347,1628.453072
1266.579777,-7624.121203,-1302.362347,666.185348
1266.580089,-8512.368333,0.000000,-74.020594
1266.580400,-9992.780217,459.657299,-1036.288319
1266.580712,-10214.842000,842.705048,-1036.288319
1266.581023,-10140.821405,459.657299,-444.123565
1266.581335,-9770.718434,383.047749,814.226536
1266.581646,-9622.677246,-306.438199,1406.391290
1266.581958,-8808.450710,-1378.971896,2294.638420
1266.582269,-7698.141797,-689.485948,2220.617826
1266.582581,-6439.791695,-306.438199,1628.453072
1266.582892,-6883.915261,-766.095498,962.267725
1266.583204,-7994.224174,-1302.362347,444.123565
1266.583515,-9770.718434,-1072.533697,-0.000000
1266.583826,-10881.027347,153.219100,296.082377
1266.584138,-11177.109724,153.219100,222.061783
1266.584449,-11251.130318,-153.219100,-74.020594
1266.584761,-10658.965565,-229.828649,-0.000000
1266.585072,-8660.409521,-306.438199,-0.000000
1266.585384,-7105.977043,-842.705048,296.082377
1266.585695,-7031.956449,-842.705048,518.144159
1266.586007,-7698.141797,-995.924147,1406.391290
1266.586318,-7698.141797,-2221.676944,1036.288319
1266.586630,-9104.533087,-1762.019645,518.144159
1266.586941,-10288.862594,-536.266849,-148.041188
1266.587253,-10807.006753,842.705048,-592.164754
1266.587564,-10955.047942,1072.533697,-1036.288319
1266.587876,-10881.027347,459.657299,-370.102971
1266.588187,-10658.965565,0.000000,-74.020594
1266.588499,-9252.574275,0.000000,-74.020594
1266.588810,-7476.080014,459.657299,592.164754
1266.589122,-6439.791695,76.609550,666.185348
1266.589433,-6661.853478,-383.047749,296.082377
1266.589745,-7402.059420,-689.485948,296.082377
1266.590056,-8882.471304,-229.828649,-74.020594
1266.590368,-10140.821405,766.095498,-148.041188
1266.590679,-11399.171507,2145.067394,-370.102971
1266.590991,-10881.027347,1915.238745,-592.164754
1266.591302,-10510.924376,1762.019645,222.061783
1266.591614,-8290.306550,612.876398,666.185348
1266.591925,-6661.853478,612.876398,888.247130
1266.592237,-5995.668130,383.047749,1480.411884
1266.592548,-6439.791695,-383.047749,1332.370696
1266.592860,-7476.080014,-689.485948,666.185348
1266.593171,-8068.244768,-919.314598,-0.000000
1266.593483,-9474.636058,842.705048,-518.144159
1266.593794,-9918.759623,1685.410096,-1258.350101
1266.594105,-11103.089130,1762.019645,-1258.350101
1266.594417,-10584.944971,995.924147,-370.102971
1266.594728,-9918.759623,229.828649,666.185348
1266.595040,-9252.574275,0.000000,1924.535449
1266.595351,-7328.038826,-919.314598,2812.782580
1266.595663,-6883.915261,-1302.362347,2368.659014
1266.595974,-6661.853478,-1378.971896,2146.597232
1266.596286,-6587.832884,-766.095498,1406.391290
1266.596597,-8216.285956,-536.266849,296.082377
1266.596909,-9696.697840,383.047749,-74.020594
1266.597220,-10881.027347,995.924147,-0.000000
1266.597532,-11103.089130,1225.752797,-0.000000
1266.597843,-10881.027347,766.095498,518.144159
1266.598155,-10214.842000,-842.705048,1110.308913
1266.598466,-7846.182985,-306.438199,2072.576638
1266.598778,-6883.915261,-995.924147,1924.535449
1266.599089,-6365.771101,-1378.971896,2072.576638
1266.599401,-7179.997637,-1991.848295,1998.556043
1266.599712,-8216.285956,-2298.286494,1332.370696
1266.600024,-9474.636058,-1838.629195,592.164754
1266.600335,-10436.903782,76.609550,-666.185348
1266.600647,-10140.821405,1149.143247,-444.123565
1266.600958,-10510.924376,536.266849,-296.082377
1266.601270,-10140.821405,76.609550,222.061783
1266.601581,-9696.697840,-229.828649,444.123565
1266.601893,-8290.306550,76.609550,1036.288319
1266.602204,-6365.771101,229.828649,814.226536
1266.602516,-6069.688724,76.609550,888.247130
1266.602827,-6587.832884,-919.314598,592.164754
1266.603139,-7846.182985,-306.438199,-222.061783
1266.603450,-9622.677246,0.000000,-0.000000
1266.603762,-11695.253884,1378.971896,-74.020594
1266.604073,-12065.356855,1302.362347,-370.102971
1266.604384,-11695.253884,842.705048,-74.020594
1266.604696,-10658.965565,383.047749,-0.000000
1266.605007,-8216.285956,766.095498,444.123565
1266.605319,-6735.874072,1149.143247,518.144159
1266.605630,-6365.771101,0.000000,1110.308913
1266.605942,-6143.709319,-1455.581446,1406.391290
1266.606253,-7254.018232,-1915.238745,740.205942
1266.606565,-8142.265362,-1149.143247,-0.000000
1266.606876,-9548.656652,0.000000,-740.205942
1266.607188,-10658.965565,459.657299,-814.226536
1266.607499,-11473.192101,459.657299,-1110.308913
1266.607811,-11103.089130,383.047749,-148.041188
1266.608122,-9844.739029,153.219100,518.144159
1266.608434,-9400.615463,-306.438199,1554.432478
1266.608745,-7402.059420,-766.095498,1924.535449
1266.609057,-6735.874072,-689.485948,1924.535449
1266.609368,-6143.709319,-459.657299,1702.473667
1266.609680,-5921.647536,-536.266849,740.205942
1266.609991,-8364.327145,-1149.143247,222.061783
1266.610303,-9622.677246,-229.828649,-222.061783
1266.610614,-10288.862594,383.047749,-666.185348
1266.610926,-10881.027347,306.438199,-370.102971
1266.611237,-10955.047942,-153.219100,296.082377
1266.611549,-10066.800811,-995.924147,814.226536
1266.611860,-9030.512492,-1302.362347,1480.411884
1266.612172,-7846.182985,-1225.752797,2072.576638
1266.612483,-7105.977043,-766.095498,2368.659014
1266.612795,-7550.100608,-1302.362347,2146.597232
1266.613106,-7179.997637,-1762.019645,1480.411884
1266.613418,-7994.224174,-1378.971896,592.164754
1266.613729,-9622.677246,536.266849,-222.061783
1266.614041,-10510.924376,1302.362347,-592.164754
1266.614352,-11325.150913,1302.362347,-740.205942
1266.614663,-10658.965565,536.266849,444.123565
1266.614975,-10658.965565,0.000000,518.144159
1266.615286,-9030.512492,-459.657299,1554.432478
1266.615598,-7105.977043,-919.314598,1628.453072
1266.615909,-6291.750507,-1072.533697,1850.514855
1266.616221,-6365.771101,-1302.362347,1554.432478
1266.616532,-7476.080014,-1072.533697,740.205942
1266.616844,-9696.697840,76.609550,-0.000000
1266.617155,-11103.089130,1838.629195,-592.164754
1266.617467,-11177.109724,1838.629195,-74.020594
1266.617778,-10584.944971,1685.410096,-518.144159
1266.618090,-9918.759623,536.266849,444.123565
1266.618401,-7994.224174,0.000000,1036.288319
1266.618713,-6291.750507,-306.438199,1850.514855
1266.619024,-5551.544565,-995.924147,1998.556043
1266.619336,-6365.771101,-1225.752797,740.205942
1266.619647,-8142.265362,-1225.752797,370.102971
1266.619959,-9178.553681,306.438199,-814.226536
1266.620270,-9326.594869,1838.629195,-1258.350101
1266.620582,-10140.821405,1838.629195,-1702.473667
1266.620893,-11029.068536,842.705048,-740.205942
1266.621205,-10732.986159,306.438199,148.041188
1266.621516,-9770.718434,-383.047749,1184.329507
1266.621828,-8364.327145,-306.438199,1406.391290
1266.622139,-6587.832884,-766.095498,1702.473667
1266.622451,-6809.894666,-1378.971896,1258.350101
1266.622762,-6587.832884,-995.924147,444.123565
1266.623074,-7624.121203,-536.266849,-148.041188
1266.623385,-9844.739029,-459.657299,-444.123565
1266.623697,-11621.233289,306.438199,-1110.308913
1266.624008,-11843.295072,689.485948,-370.102971
1266.624320,-11621.233289,383.047749,-592.164754
1266.624631,-10510.924376,-766.095498,-296.082377
1266.624942,-9844.739029,0.000000,-0.000000
1266.625254,-8068.244768,-459.657299,962.267725
1266.625565,-7476.080014,-306.438199,1628.453072
1266.625877,-7254.018232,-536.266849,2220.617826
1266.626188,-7846.182985,-1455.581446,2294.638420
1266.626500,-8290.306550,-2374.896044,1110.308913
1266.626811,-9918.759623,-1072.533697,-666.185348
1266.627123,-10362.883188,1608.800546,-592.164754
1266.627434,-10362.883188,3140.991542,-1554.432478
1266.627746,-10362.883188,1685.410096,-962.267725
1266.628057,-10658.965565,842.705048,-0.000000
1266.628369,-9548.656652,383.047749,888.247130
1266.628680,-7698.141797,306.438199,962.267725
1266.628992,-6143.709319,612.876398,1702.473667
1266.629303,-6439.791695,229.828649,1702.473667
1266.629615,-6439.791695,-766.095498,1184.329507
1266.629926,-7920.203579,-842.705048,740.205942
1266.630238,-9844.739029,-229.828649,148.041188
1266.630549,-11621.233289,1838.629195,296.082377
1266.630861,-11547.212695,2145.067394,-148.041188
1266.631172,-10955.047942,1072.533697,-148.041188
1266.631484,-9696.697840,689.485948,888.247130
1266.631795,-6809.894666,842.705048,1850.514855
1266.632107,-5847.626942,0.000000,1924.535449
1266.632418,-5551.544565,-306.438199,2220.617826
1266.632730,-6587.832884,-1149.143247,1258.350101
1266.633041,-7920.203579,-1302.362347,888.247130
1266.633353,-8734.430116,-383.047749,-148.041188
1266.633664,-9992.780217,306.438199,-962.267725
1266.633976,-10881.027347,612.876398,-740.205942
1266.634287,-10584.944971,306.438199,-222.061783
1266.634599,-10140.821405,-229.828649,592.164754
1266.634910,-9696.697840,-842.705048,1406.391290
1266.635222,-9030.512492,-306.438199,2294.638420
1266.635533,-6809.894666,-383.047749,2146.597232
1266.635844,-5921.647536,-689.485948,1628.453072
1266.636156,-5995.668130,-1149.143247,1110.308913
1266.636467,-7105.977043,-842.705048,-148.041188
1266.636779,-9104.533087,0.000000,-370.102971
1266.637090,-10214.842000,-383.047749,-444.123565
1266.637402,-11325.150913,383.047749,592.164754
1266.637713,-11769.274478,-536.266849,-0.000000
1266.638025,-11103.089130,-766.095498,962.267725
1266.638336,-9992.780217,-383.047749,666.185348
1266.638648,-8808.450710,-153.219100,1110.308913
1266.638959,-8142.265362,536.266849,1480.411884
1266.639271,-7994.224174,-229.828649,1184.329507
1266.639582,-7846.182985,-995.924147,1184.329507
1266.639894,-8734.430116,-1225.752797,296.082377
1266.640205,-9844.739029,0.000000,-518.144159
1266.640517,-10288.862594,1838.629195,-888.247130
1266.640828,-10436.903782,1838.629195,-1406.391290
1266.641140,-9696.697840,919.314598,-666.185348
1266.641451,-9696.697840,0.000000,-74.020594
1266.641763,-9030.512492,-536.266849,222.061783
1266.642074,-7772.162391,0.000000,962.267725
1266.642386,-6809.894666,-306.438199,1332.370696
1266.642697,-7031.956449,-919.314598,1406.391290
1266.643009,-7698.141797,-1378.971896,1628.453072
1266.643320,-9030.512492,-1762.019645,740.205942
1266.643632,-10658.965565,-306.438199,518.144159
1266.643943,-10881.027347,1225.752797,-74.020594
1266.644255,-11029.068536,1608.800546,-888.247130
1266.644566,-10955.047942,2145.067394,-222.061783
1266.644878,-8956.491898,1225.752797,296.082377
1266.645189,-6735.874072,1455.581446,814.226536
1266.645501,-5847.626942,153.219100,1776.494261
1266.645812,-5403.503377,-536.266849,1850.514855
1266.646123,-6809.894666,-2451.505594,962.267725
1266.646435,-6883.915261,-1991.848295,962.267725
1266.646746,-8808.450710,-689.485948,-444.123565
1266.647058,-10214.842000,383.047749,-1406.391290
1266.647369,-10955.047942,612.876398,-740.205942
1266.647681,-11251.130318,76.609550,-370.102971
1266.647992,-10955.047942,-919.314598,592.164754
1266.648304,-9696.697840,-1532.190996,1776.494261
1266.648615,-8364.327145,-1225.752797,2072.576638
1266.648927,-6365.771101,-2528.115143,2664.741391
1266.649238,-5255.462188,-2298.286494,2516.700203
1266.649550,-6809.894666,-2681.334243,1998.556043
1266.649861,-7846.182985,-1915.238745,370.102971
1266.650173,-10140.821405,-383.047749,-0.000000
1266.650484,-11103.089130,766.095498,-0.000000
1266.650796,-11103.089130,995.924147,-592.164754
1266.651107,-11251.130318,459.657299,-518.144159
1266.651419,-10288.862594,-153.219100,518.144159
1266.651730,-8438.347739,0.000000,740.205942
1266.652042,-7772.162391,-153.219100,1406.391290
1266.652353,-7254.018232,-229.828649,1924.535449
1266.652665,-7254.018232,-689.485948,2072.576638
1266.652976,-7920.203579,-995.924147,1702.473667
1266.653288,-8734.430116,-689.485948,370.102971
1266.653599,-9474.636058,1378.971896,-1110.308913
1266.653911,-10584.944971,2604.724693,-1554.432478
1266.654222,-10658.965565,2374.896044,-1554.432478
1266.654534,-10510.924376,1378.971896,-370.102971
1266.654845,-10140.821405,536.266849,370.102971
1266.655157,-9252.574275,0.000000,1184.329507
1266.655468,-7476.080014,-383.047749,1480.411884
1266.655780,-6439.791695,0.000000,1554.432478
1266.656091,-6661.853478,-1762.019645,1036.288319
1266.656402,-7550.100608,-1608.800546,666.185348
1266.656714,-9474.636058,-536.266849,148.041188
1266.657025,-10955.047942,1302.362347,-74.020594
1266.657337,-11251.130318,2528.115143,-74.020594
1266.657648,-10658.965565,1838.629195,-444.123565
1266.657960,-9770.718434,1762.019645,-74.020594
1266.658271,-6957.935855,1532.190996,518.144159
1266.658583,-5995.668130,995.924147,444.123565
1266.658894,-5699.585753,689.485948,1110.308913
1266.659206,-6365.771101,-153.219100,666.185348
1266.659517,-7402.059420,-1378.971896,592.164754
1266.659829,-8068.244768,-1302.362347,-0.000000
1266.660140,-9030.512492,-306.438199,-518.144159
1266.660452,-10066.800811,766.095498,-962.267725
1266.660763,-11103.089130,383.047749,-1110.308913
1266.661075,-10436.903782,0.000000,-518.144159
1266.661386,-10066.800811,76.609550,592.164754
1266.661698,-9844.739029,-766.095498,1406.391290
1266.662009,-8660.409521,-1072.533697,2146.597232
1266.662321,-6957.935855,-1225.752797,1332.370696
1266.662632,-6809.894666,-1072.533697,814.226536
1266.662944,-7179.997637,-1838.629195,666.185348
1266.663255,-8512.368333,-1149.143247,-370.102971
1266.663567,-10584.944971,-842.705048,-222.061783
1266.663878,-11843.295072,0.000000,-370.102971
1266.664190,-12139.377449,536.266849,-370.102971
1266.664501,-11695.253884,306.438199,296.082377
1266.664813,-10881.027347,0.000000,666.185348
1266.665124,-9400.615463,0.000000,1110.308913
1266.665436,-7254.018232,229.828649,1184.329507
1266.665747,-7254.018232,0.000000,1776.494261
1266.666059,-7254.018232,-1072.533697,1998.556043
1266.666370,-7846.182985,-1608.800546,1184.329507
1266.666681,-9326.594869,-1608.800546,962.267725
1266.666993,-9844.739029,0.000000,-370.102971
1266.667304,-10436.903782,1302.362347,-1036.288319
1266.667616,-10658.965565,1225.752797,-1184.329507
1266.667927,-10288.862594,536.266849,-74.020594
1266.668239,-9178.553681,-306.438199,888.247130
1266.668550,-8216.285956,-229.828649,1702.473667
1266.668862,-7105.977043,-229.828649,1702.473667
1266.669173,-6365.771101,0.000000,1924.535449
1266.669485,-6809.894666,-842.705048,1776.494261
1266.669796,-7328.038826,-766.095498,962.267725
1266.670108,-8290.306550,229.828649,518.144159
1266.670419,-10140.821405,1762.019645,-370.102971
1266.670731,-10510.924376,2221.676944,-370.102971
1266.671042,-10140.821405,1762.019645,-518.144159
1266.671354,-9474.636058,1302.362347,296.082377
1266.671665,-8364.327145,995.924147,1110.308913
1266.671977,-6661.853478,306.438199,1554.432478
1266.672288,-6365.771101,0.000000,1628.453072
1266.672600,-6291.750507,76.609550,1184.329507
1266.672911,-7031.956449,-1072.533697,666.185348
1266.673223,-8290.306550,-995.924147,-0.000000
1266.673534,-9474.636058,-612.876398,-888.247130
1266.673846,-10510.924376,383.047749,-962.267725
1266.674157,-11029.068536,76.609550,-962.267725
1266.674468,-11029.068536,0.000000,370.102971
1266.674780,-10362.883188,-766.095498,962.267725
1266.675091,-9252.574275,-919.314598,1776.494261
1266.675403,-7772.162391,-1532.190996,1776.494261
1266.675714,-7179.997637,-1302.362347,1110.308913
1266.676025,-7105.977043,-1072.533697,1036.288319
1266.676337,-7550.100608,-1072.533697,592.164754
1266.676648,-9030.512492,-1302.362347,-0.000000
1266.676959,-9992.780217,0.000000,-222.061783
1266.677271,-10807.006753,1608.800546,-148.041188
1266.677582,-11473.192101,383.047749,-888.247130
1266.677894,-10658.965565,0.000000,296.082377
1266.678205,-10584.944971,-229.828649,518.144159
1266.678516,-8882.471304,229.828649,1184.329507
1266.678828,-7846.182985,-153.219100,1480.411884
1266.679139,-7624.121203,-689.485948,1776.494261
1266.679451,-7550.100608,-1302.362347,1702.473667
1266.679762,-8068.244768,-1685.410096,888.247130
1266.680073,-8882.471304,-1149.143247,296.082377
1266.680385,-9992.780217,306.438199,-1036.288319
1266.680696,-10066.800811,2221.676944,-1036.288319
1266.681008,-10362.883188,1072.533697,-1332.370696
1266.681319,-10140.821405,0.000000,-0.000000
1266.681630,-9548.656652,-459.657299,666.185348
1266.681942,-8142.265362,-689.485948,1702.473667
1266.682253,-7105.977043,-459.657299,1850.514855
1266.682565,-6217.729913,-1225.752797,1924.535449
1266.682876,-6439.791695,-1225.752797,1628.453072
1266.683187,-7624.121203,-1302.362347,666.185348
1266.683499,-9548.656652,76.609550,296.082377
1266.683810,-11473.192101,1991.848295,-222.061783
1266.684122,-11473.192101,2374.896044,-296.082377
1266.684433,-11029.068536,1762.019645,-296.082377
1266.684744,-9030.512492,1302.362347,666.185348
1266.685056,-6661.853478,919.314598,592.164754
1266.685367,-5255.462188,-306.438199,962.267725
1266.685679,-5255.462188,-383.047749,1554.432478
1266.685990,-6513.812290,-1762.019645,1036.288319
1266.686301,-7846.182985,-1991.848295,888.247130
1266.686613,-8956.491898,-919.314598,-0.000000
1266.686924,-10140.821405,153.219100,-592.164754
1266.687236,-11103.089130,995.924147,-1258.350101
1266.687547,-11473.192101,689.485948,-1110.308913
1266.687858,-10436.903782,383.047749,-296.082377
1266.688170,-9770.718434,1072.533697,592.164754
1266.688481,-8882.471304,0.000000,1554.432478
1266.688792,-7254.018232,-459.657299,1554.432478
1266.689104,-6735.874072,-919.314598,1628.453072
1266.689415,-6587.832884,-1225.752797,1036.288319
1266.689727,-7624.121203,-229.828649,-148.041188
1266.690038,-9474.636058,-919.314598,-592.164754
1266.690349,-11843.295072,306.438199,-1036.288319
1266.690661,-11991.336260,995.924147,-296.082377
1266.690972,-12139.377449,689.485948,-592.164754
1266.691284,-11251.130318,0.000000,666.185348
1266.691595,-9918.759623,-229.828649,1036.288319
1266.691906,-8438.347739,-306.438199,1776.494261
1266.692218,-6587.832884,-229.828649,2368.659014
1266.692529,-6661.853478,-459.657299,2220.617826
1266.692841,-7550.100608,-1608.800546,1776.494261
1266.693152,-8068.244768,-1378.971896,296.082377
1266.693463,-9400.615463,0.000000,-814.226536
1266.693775,-9992.780217,1455.581446,-1480.411884
1266.694086,-10288.862594,1685.410096,-1110.308913
1266.694398,-10436.903782,689.485948,-592.164754
1266.694709,-9696.697840,-689.485948,592.164754
1266.695020,-8438.347739,76.609550,1480.411884
1266.695332,-7624.121203,0.000000,1480.411884
1266.695643,-6143.709319,306.438199,1776.494261
1266.695955,-5625.565159,76.609550,1406.391290
1266.696266,-6143.709319,-229.828649,962.267725
1266.696577,-7624.121203,0.000000,518.144159
1266.696889,-9474.636058,76.609550,-444.123565
1266.697200,-10881.027347,1991.848295,148.041188
1266.697512,-11029.068536,2068.457845,-0.000000
1266.697823,-11177.109724,1532.190996,-74.020594
1266.698134,-9918.759623,306.438199,666.185348
1266.698446,-8142.265362,0.000000,1406.391290
1266.698757,-6513.812290,0.000000,1258.350101
1266.699068,-5995.668130,-459.657299,1554.432478
1266.699380,-7105.977043,-995.924147,962.267725
1266.699691,-8216.285956,-1455.581446,888.247130
1266.700003,-9326.594869,-459.657299,-222.061783
1266.700314,-10584.944971,-383.047749,-1110.308913
1266.700625,-11029.068536,1608.800546,-1110.308913
1266.700937,-11251.130318,1149.143247,-888.247130
1266.701248,-10510.924376,0.000000,-0.000000
1266.701560,-9548.656652,-459.657299,962.267725
1266.701871,-8142.265362,-383.047749,1850.514855
1266.702182,-6809.894666,-842.705048,1480.411884
1266.702494,-6661.853478,-1225.752797,1480.411884
1266.702805,-7031.956449,-919.314598,1036.288319
1266.703117,-8142.265362,-1378.971896,-0.000000
1266.703428,-9770.718434,-842.705048,-0.000000
1266.703739,-11251.130318,229.828649,-518.144159
1266.704051,-11769.274478,1225.752797,-0.000000
1266.704362,-11695.253884,612.876398,-0.000000
1266.704674,-10658.965565,229.828649,1258.350101
1266.704985,-9474.636058,229.828649,1332.370696
1266.705296,-7624.121203,383.047749,2442.679609
1266.705608,-6587.832884,0.000000,1998.556043
1266.705919,-6291.750507,-689.485948,2146.597232
1266.706231,-7328.038826,-1762.019645,1776.494261
1266.706542,-8068.244768,-1378.971896,-148.041188
1266.706853,-8882.471304,689.485948,-814.226536
1266.707165,-9992.780217,1455.581446,-1628.453072
1266.707476,-10362.883188,1762.019645,-1628.453072
1266.707788,-10214.842000,306.438199,-592.164754
1266.708099,-9696.697840,-689.485948,814.226536
1266.708410,-8216.285956,-766.095498,1554.432478
1266.708722,-7254.018232,-229.828649,1924.535449
1266.709033,-6143.709319,0.000000,1924.535449
1266.709345,-6661.853478,-919.314598,1406.391290
1266.709656,-6883.915261,-919.314598,1110.308913
1266.709967,-8512.368333,-383.047749,518.144159
1266.710279,-10658.965565,459.657299,-148.041188
1266.710590,-11695.253884,1608.800546,-148.041188
1266.710901,-11695.253884,1455.581446,-370.102971
1266.711213,-11029.068536,1225.752797,-74.020594
1266.711524,-9178.553681,766.095498,370.102971
1266.711836,-6957.935855,995.924147,1480.411884
1266.712147,-5995.668130,-536.266849,1628.453072
1266.712458,-5699.585753,-995.924147,2072.576638
1266.712770,-6809.894666,-1608.800546,1258.350101
1266.713081,-7698.141797,-1915.238745,888.247130
1266.713393,-9178.553681,-612.876398,-0.000000
1266.713704,-10807.006753,612.876398,-814.226536
1266.714015,-11621.233289,1072.533697,-1332.370696
1266.714327,-11621.233289,766.095498,-666.185348
1266.714638,-10807.006753,612.876398,296.082377
1266.714950,-9992.780217,-383.047749,962.267725
1266.715261,-8290.306550,-995.924147,1702.473667
1266.715572,-6735.874072,-1149.143247,1702.473667
1266.715884,-5847.626942,-1149.143247,1554.432478
1266.716195,-6217.729913,-1991.848295,1036.288319
1266.716507,-7476.080014,-1302.362347,-222.061783
1266.716818,-9770.718434,-459.657299,-0.000000
1266.717129,-11177.109724,306.438199,-740.205942
1266.717441,-11843.295072,689.485948,-222.061783
1266.717752,-11843.295072,229.828649,-0.000000
1266.718064,-11325.150913,-229.828649,592.164754
1266.718375,-9696.697840,0.000000,1036.288319
1266.718686,-7328.038826,-229.828649,1628.453072
1266.718998,-6957.935855,-153.219100,1998.556043
1266.719309,-6217.729913,-1072.533697,1406.391290
1266.719621,-6587.832884,-1915.238745,962.267725
1266.719932,-8142.265362,-1149.143247,-370.102971
1266.720243,-9400.615463,689.485948,-1554.432478
1266.720555,-10214.842000,1915.238745,-1776.494261
1266.720866,-10436.903782,1608.800546,-1628.453072
1266.721178,-10510.924376,229.828649,-296.082377
1266.721489,-10584.944971,-612.876398,444.123565
1266.721800,-8882.471304,-842.705048,1628.453072
1266.722112,-7328.038826,-306.438199,2220.617826
1266.722423,-6291.750507,-766.095498,2146.597232
1266.722734,-6143.709319,-1532.190996,1776.494261
1266.723046,-6365.771101,-1378.971896,1110.308913
1266.723357,-8808.450710,-536.266849,296.082377
1266.723669,-10881.027347,842.705048,-148.041188
1266.723980,-12065.356855,2604.724693,-740.205942
1266.724291,-11991.336260,2911.162892,-666.185348
1266.724603,-10955.047942,1378.971896,-222.061783
1266.724914,-8882.471304,612.876398,740.205942
1266.725226,-7105.977043,0.000000,1184.329507
1266.725537,-5773.606348,-766.095498,1924.535449
1266.725848,-6217.729913,-1072.533697,1480.411884
1266.726160,-7254.018232,-1302.362347,1184.329507
1266.726471,-8586.388927,-1149.143247,592.164754
1266.726783,-9474.636058,153.219100,-74.020594
1266.727094,-10732.986159,459.657299,-444.123565
1266.727405,-11473.192101,1378.971896,-1110.308913
1266.727717,-10584.944971,1302.362347,-814.226536
1266.728028,-9992.780217,842.705048,-0.000000
1266.728340,-8956.491898,0.000000,1332.370696
1266.728651,-7105.977043,-536.266849,1850.514855
1266.728962,-5921.647536,-842.705048,1332.370696
1266.729274,-6069.688724,-919.314598,1702.473667
1266.729585,-7328.038826,-1532.190996,1184.329507
1266.729897,-9178.553681,-919.314598,-0.000000
1266.730208,-10807.006753,153.219100,-0.000000
1266.730519,-11917.315666,1455.581446,-444.123565
1266.730831,-11843.295072,1762.019645,-444.123565
1266.731142,-11251.130318,919.314598,-74.020594
1266.731454,-9844.739029,689.485948,444.123565
1266.731765,-7846.182985,76.609550,1184.329507
1266.732076,-6661.853478,0.000000,2146.597232
1266.732388,-5995.668130,-536.266849,2146.597232
1266.732699,-6513.812290,-1685.410096,1776.494261
1266.733011,-7476.080014,-1685.410096,666.185348
1266.733322,-8660.409521,-459.657299,-666.185348
1266.733633,-10066.800811,536.266849,-1702.473667
1266.733945,-10658.965565,1455.581446,-1406.391290
1266.734256,-10807.006753,1225.752797,-1258.350101
1266.734567,-10658.965565,-766.095498,-74.020594
1266.734879,-10140.821405,-1072.533697,962.267725
1266.735190,-8956.491898,-612.876398,1702.473667
1266.735502,-6883.915261,-306.438199,1998.556043
1266.735813,-6513.812290,-1072.533697,1480.411884
1266.736124,-6439.791695,-995.924147,1184.329507
1266.736436,-7402.059420,-995.924147,-0.000000
1266.736747,-9622.677246,0.000000,222.061783
1266.737059,-11399.171507,1532.190996,-518.144159
1266.737370,-11473.192101,2221.676944,-518.144159
1266.737681,-11251.130318,2374.896044,-814.226536
1266.737993,-10214.842000,1072.533697,222.061783
1266.738304,-8068.244768,919.314598,740.205942
1266.738616,-6365.771101,229.828649,1480.411884
1266.738927,-6217.729913,-383.047749,1480.411884
1266.739238,-6365.771101,-1225.752797,1406.391290
1266.739550,-7846.182985,-1762.019645,1036.288319
1266.739861,-8512.368333,-1455.581446,296.082377
1266.740173,-9770.718434,-153.219100,-148.041188
1266.740484,-11547.212695,153.219100,-740.205942
1266.740795,-11843.295072,766.095498,-740.205942
1266.741107,-10807.006753,306.438199,-148.041188
1266.741418,-9770.718434,-306.438199,814.226536
1266.741730,-8808.450710,-842.705048,2072.576638
1266.742041,-7328.038826,-1149.143247,2072.576638
1266.742352,-6661.853478,-1225.752797,1850.514855
1266.742664,-6365.771101,-1225.752797,1184.329507
1266.742975,-6439.791695,-1072.533697,740.205942
1266.743287,-8586.388927,-1762.019645,-370.102971
1266.743598,-10288.862594,0.000000,-666.185348
1266.743909,-11029.068536,919.314598,222.061783
1266.744221,-11621.233289,1378.971896,-666.185348
1266.744532,-11473.192101,383.047749,518.144159
1266.744843,-10584.944971,76.609550,1110.308913
1266.745155,-9326.594869,0.000000,2072.576638
1266.745466,-7031.956449,-536.266849,2664.741391
1266.745778,-5699.585753,-153.219100,2738.761985
1266.746089,-6365.771101,-1762.019645,2146.597232
1266.746400,-6661.853478,-1685.410096,518.144159
1266.746712,-7772.162391,-1149.143247,-148.041188
1266.747023,-9770.718434,766.095498,-1554.432478
1266.747335,-10658.965565,1608.800546,-1258.350101
1266.747646,-10881.027347,1149.143247,-888.247130
1266.747957,-11103.089130,536.266849,518.144159
1266.748269,-10140.821405,0.000000,1184.329507
1266.748580,-8438.347739,-766.095498,2368.659014
1266.748892,-6957.935855,229.828649,2220.617826
1266.749203,-5995.668130,0.000000,1776.494261
1266.749514,-6069.688724,-383.047749,1332.370696
1266.749826,-6587.832884,76.609550,296.082377
1266.750137,-9030.512492,1149.143247,-740.205942
1266.750449,-10140.821405,1225.752797,-1110.308913
1266.750760,-11473.192101,1149.143247,-1554.432478
1266.751071,-11029.068536,536.266849,-1184.329507
1266.751383,-10288.862594,306.438199,-0.000000
1266.751694,-8808.450710,-612.876398,1110.308913
1266.752006,-7476.080014,-1149.143247,1406.391290
1266.752317,-6661.853478,-1149.143247,1998.556043
1266.752628,-7105.977043,-1685.410096,1702.473667
1266.752940,-7994.224174,-2221.676944,1036.288319
1266.753251,-8808.450710,-1991.848295,-0.000000
1266.753563,-10362.883188,-1149.143247,-518.144159
1266.753874,-10807.006753,306.438199,-1036.288319
1266.754185,-11695.253884,459.657299,-1184.329507
1266.754497,-11325.150913,459.657299,-370.102971
1266.754808,-10214.842000,306.438199,-0.000000
1266.755120,-8808.450710,-766.095498,740.205942
1266.755431,-7476.080014,306.438199,814.226536
1266.755742,-6661.853478,-612.876398,1110.308913
1266.756054,-6439.791695,-766.095498,962.267725
1266.756365,-7624.121203,-1072.533697,740.205942
1266.756676,-9326.594869,-995.924147,-296.082377
1266.756988,-10584.944971,306.438199,-222.061783
1266.757299,-11843.295072,1608.800546,-444.123565
1266.757611,-11251.130318,1302.362347,-666.185348
1266.757922,-10881.027347,766.095498,518.144159
1266.758233,-10066.800811,229.828649,962.267725
1266.758545,-8216.285956,0.000000,1924.535449
1266.758856,-7254.018232,-229.828649,2220.617826
1266.759168,-6883.915261,-459.657299,2368.659014
1266.759479,-7031.956449,-995.924147,1850.514855
1266.759790,-7846.182985,-689.485948,370.102971
1266.760102,-8364.327145,383.047749,-74.020594
1266.760413,-10066.800811,1762.019645,-1480.411884
1266.760725,-10510.924376,3140.991542,-1554.432478
1266.761036,-10510.924376,2145.067394,-1036.288319
1266.761347,-9992.780217,842.705048,740.205942
1266.761659,-8882.471304,383.047749,1554.432478
1266.761970,-7179.997637,229.828649,2368.659014
1266.762282,-5477.523971,383.047749,1998.556043
1266.762593,-5255.462188,-229.828649,1702.473667
1266.762904,-6809.894666,-383.047749,1702.473667
1266.763216,-8142.265362,-306.438199,-0.000000
1266.763527,-10362.883188,1072.533697,-296.082377
1266.763839,-11325.150913,2068.457845,-222.061783
1266.764150,-11547.212695,2528.115143,-444.123565
1266.764461,-10807.006753,1762.019645,-444.123565
1266.764773,-9178.553681,459.657299,740.205942
1266.765084,-6957.935855,536.266849,1036.288319
1266.765396,-5995.668130,-919.314598,1776.494261
1266.765707,-5921.647536,-1149.143247,1924.535449
1266.766018,-7254.018232,-2145.067394,1628.453072
1266.766330,-8734.430116,-2451.505594,962.267725
1266.766641,-9844.739029,-1532.190996,-0.000000
1266.766953,-10955.047942,536.266849,-740.205942
1266.767264,-11177.109724,689.485948,-1036.288319
1266.767575,-11325.150913,612.876398,-814.226536
1266.767887,-9770.718434,229.828649,-0.000000
1266.768198,-10066.800811,-842.705048,296.082377
1266.768509,-8660.409521,-842.705048,1036.288319
1266.768821,-7402.059420,-995.924147,962.267725
1266.769132,-6809.894666,-766.095498,814.226536
1266.769444,-6587.832884,-1225.752797,518.144159
1266.769755,-7476.080014,-1991.848295,296.082377
1266.770066,-10214.842000,-2451.505594,-222.061783
1266.770378,-11917.315666,0.000000,-370.102971
1266.770689,-12953.603985,689.485948,-74.020594
1266.771001,-12657.521608,1225.752797,-0.000000
1266.771312,-11917.315666,536.266849,740.205942
1266.771623,-10214.842000,76.609550,814.226536
1266.771935,-7624.121203,383.047749,1480.411884
1266.772246,-5477.523971,153.219100,1480.411884
1266.772558,-5329.482782,-536.266849,1776.494261
1266.772869,-6365.771101,-1532.190996,1184.329507
1266.773180,-7772.162391,-1225.752797,-148.041188
1266.773492,-9178.553681,153.219100,-1406.391290
1266.773803,-10362.883188,1685.410096,-1480.411884
1266.774115,-11325.150913,2451.505594,-1258.350101
1266.774426,-10955.047942,1608.800546,-444.123565
1266.774737,-10732.986159,153.219100,962.267725
1266.775049,-9104.533087,612.876398,2368.659014
1266.775360,-6883.915261,0.000000,2738.761985
1266.775672,-5477.523971,153.219100,2442.679609
1266.775983,-4885.359217,-306.438199,1850.514855
1266.776294,-5773.606348,-459.657299,518.144159
1266.776606,-7772.162391,-919.314598,-0.000000
1266.776917,-10066.800811,536.266849,-1110.308913
1266.777229,-11399.171507,1838.629195,-74.020594
1266.777540,-11325.150913,1455.581446,-370.102971
1266.777852,-10732.986159,0.000000,444.123565
1266.778163,-9548.656652,-459.657299,1184.329507
1266.778475,-7920.203579,-612.876398,2146.597232
1266.778786,-6365.771101,-229.828649,2590.720797
1266.779098,-5699.585753,-689.485948,2368.659014
1266.779409,-6513.812290,-1149.143247,1332.370696
1266.779721,-7254.018232,-995.924147,518.144159
1266.780032,-8956.491898,-459.657299,-518.144159
1266.780344,-10510.924376,536.266849,-814.226536
1266.780655,-11177.109724,689.485948,-1184.329507
1266.780967,-11769.274478,306.438199,-888.247130
1266.781278,-11103.089130,-229.828649,222.061783
1266.781590,-9770.718434,-995.924147,888.247130
1266.781901,-8216.285956,-1532.190996,1480.411884
1266.782212,-7031.956449,-689.485948,1184.329507
1266.782524,-6439.791695,-1608.800546,1332.370696
1266.782835,-6291.750507,-1455.581446,1332.370696
1266.783147,-7476.080014,-2221.676944,370.102971
1266.783458,-10362.883188,-995.924147,-222.061783
1266.783770,-11695.253884,536.266849,-444.123565
1266.784081,-11917.315666,1532.190996,-814.226536
1266.784393,-11325.150913,1225.752797,-0.000000
1266.784704,-11103.089130,-612.876398,518.144159
1266.785016,-9844.739029,-612.876398,888.247130
1266.785327,-8142.265362,-229.828649,1850.514855
1266.785639,-7105.977043,0.000000,1924.535449
1266.785950,-5921.647536,-842.705048,1554.432478
1266.786262,-6661.853478,-2221.676944,962.267725
1266.786573,-7476.080014,-1991.848295,-0.000000
1266.786885,-8956.491898,0.000000,-1332.370696
1266.787196,-10881.027347,1991.848295,-1628.453072
1266.787508,-11399.171507,2451.505594,-1110.308913
1266.787819,-11621.233289,1455.581446,-148.041188
1266.788131,-10732.986159,-306.438199,962.267725
1266.788442,-8660.409521,-306.438199,1702.473667
1266.788754,-6217.729913,-459.657299,2072.576638
1266.789065,-5255.462188,0.000000,1850.514855
1266.789377,-5403.503377,-689.485948,1258.350101
1266.789688,-6513.812290,-1149.143247,296.082377
1266.789999,-8364.327145,76.609550,-592.164754
1266.790311,-10732.986159,1532.190996,-1036.288319
1266.790622,-11769.274478,2451.505594,-1036.288319
1266.790934,-11621.233289,2221.676944,-1406.391290
1266.791245,-10732.986159,536.266849,-222.061783
1266.791557,-8956.491898,0.000000,888.247130
1266.791868,-7476.080014,-766.095498,1554.432478
1266.792180,-5995.668130,-919.314598,2368.659014
1266.792491,-6661.853478,-1455.581446,2294.638420
1266.792803,-7179.997637,-2145.067394,1628.453072
1266.793114,-8142.265362,-1532.190996,518.144159
1266.793426,-9622.677246,-153.219100,-296.082377
1266.793737,-11325.150913,919.314598,-1702.473667
1266.794049,-12065.356855,1838.629195,-1702.473667
1266.794360,-10881.027347,2681.334243,-1554.432478
1266.794672,-9992.780217,1378.971896,-444.123565
1266.794983,-9548.656652,-306.438199,518.144159
1266.795295,-7994.224174,-459.657299,1554.432478
1266.795606,-6957.935855,-536.266849,1554.432478
1266.795918,-6069.688724,-842.705048,1998.556043
1266.796229,-6365.771101,-1225.752797,1702.473667
1266.796541,-8586.388927,-2068.457845,740.205942
1266.796852,-10510.924376,-1149.143247,222.061783
1266.797164,-11473.192101,919.314598,-592.164754
1266.797475,-11917.315666,1915.238745,-518.144159
1266.797786,-11991.336260,1915.238745,370.102971
1266.798098,-10658.965565,842.705048,592.164754
1266.798409,-8808.450710,229.828649,1628.453072
1266.798721,-6513.812290,76.609550,2442.679609
1266.799032,-5847.626942,153.219100,2368.659014
1266.799344,-6217.729913,-919.314598,2072.576638
1266.799655,-7550.100608,-2298.286494,1258.350101
1266.799967,-8216.285956,-1302.362347,-0.000000
1266.800278,-9548.656652,459.657299,-1036.288319
1266.800590,-10510.924376,1685.410096,-1110.308913
1266.800901,-11325.150913,1302.362347,-1184.329507
1266.801213,-10658.965565,0.000000,148.041188
1266.801524,-9918.759623,0.000000,1480.411884
1266.801836,-7772.162391,766.095498,2072.576638
1266.802147,-6143.709319,-383.047749,2294.638420
1266.802459,-4885.359217,-766.095498,2442.679609
1266.802770,-5403.503377,-1302.362347,1110.308913
1266.803082,-6587.832884,-1149.143247,-0.000000
1266.803393,-9030.512492,-153.219100,-222.061783
1266.803705,-11177.109724,1225.752797,-740.205942
1266.804016,-11843.295072,919.314598,-666.185348
1266.804328,-11991.336260,536.266849,-1184.329507
1266.804639,-11547.212695,0.000000,592.164754
1266.804951,-9474.636058,0.000000,740.205942
1266.805262,-7476.080014,0.000000,1998.556043
1266.805574,-6513.812290,-153.219100,1850.514855
1266.805885,-5921.647536,-536.266849,1850.514855
1266.806196,-7031.956449,-1072.533697,1554.432478
1266.806508,-8142.265362,-842.705048,-296.082377
1266.806819,-9178.553681,689.485948,-814.226536
1266.807131,-10955.047942,1532.190996,-1924.535449
1266.807442,-11769.274478,1378.971896,-1628.453072
1266.807754,-11103.089130,1225.752797,-962.267725
1266.808065,-10140.821405,0.000000,-0.000000
1266.808377,-9548.656652,-459.657299,1110.308913
1266.808688,-7624.121203,-1302.362347,1850.514855
1266.809000,-6587.832884,-1302.362347,1702.473667
1266.809311,-6365.771101,-1149.143247,1480.411884
1266.809623,-7328.038826,-1991.848295,1184.329507
1266.809934,-9252.574275,-2451.505594,-0.000000
1266.810246,-10362.883188,-1225.752797,-0.000000
1266.810557,-11251.130318,0.000000,-518.144159
1266.810869,-11695.253884,1149.143247,-518.144159
1266.811180,-10955.047942,1072.533697,296.082377
1266.811492,-10881.027347,76.609550,666.185348
1266.811803,-8882.471304,76.609550,2220.617826
1266.812115,-6735.874072,76.609550,2442.679609
1266.812426,-5921.647536,-306.438199,2368.659014
1266.812738,-5847.626942,-919.314598,1406.391290
1266.813049,-6957.935855,-1072.533697,148.041188
1266.813361,-7402.059420,306.438199,-888.247130
1266.813672,-9474.636058,1762.019645,-1776.494261
1266.813983,-11473.192101,1915.238745,-1110.308913
1266.814295,-11843.295072,1378.971896,-888.247130
1266.814606,-12065.356855,153.219100,814.226536
1266.814918,-10066.800811,0.000000,1702.473667
1266.815229,-8068.244768,0.000000,1924.535449
1266.815541,-5699.585753,-306.438199,2072.576638
1266.815852,-4737.318029,-842.705048,1776.494261
1266.816164,-5255.462188,-1838.629195,1258.350101
1266.816475,-6069.688724,-1225.752797,296.082377
1266.816787,-9400.615463,-306.438199,-148.041188
1266.817098,-11547.212695,919.314598,-592.164754
1266.817410,-12139.377449,1378.971896,-74.020594
1266.817721,-12139.377449,459.657299,-518.144159
1266.818033,-10658.965565,-306.438199,370.102971
1266.818344,-9104.533087,-383.047749,592.164754
1266.818656,-6957.935855,-459.657299,1776.494261
1266.818967,-5995.668130,-766.095498,2220.617826
1266.819279,-6735.874072,-1608.800546,2146.597232
1266.819590,-7476.080014,-1915.238745,1702.473667
1266.819902,-8068.244768,-995.924147,222.061783
1266.820213,-8956.491898,-153.219100,-296.082377
1266.820525,-10362.883188,1072.533697,-1406.391290
1266.820836,-10807.006753,1532.190996,-2072.576638
1266.821148,-10362.883188,1608.800546,-962.267725
1266.821459,-10362.883188,229.828649,-148.041188
1266.821770,-9696.697840,-689.485948,1110.308913
1266.822082,-8364.327145,-1149.143247,1628.453072
1266.822393,-7179.997637,-1608.800546,1480.411884
1266.822705,-6513.812290,-1532.190996,1332.370696
1266.823016,-7402.059420,-1455.581446,1184.329507
1266.823328,-9030.512492,-1762.019645,-222.061783
1266.823639,-10436.903782,-306.438199,-518.144159
1266.823951,-11843.295072,1532.190996,-888.247130
1266.824262,-11547.212695,2068.457845,-814.226536
1266.824574,-10807.006753,1378.971896,-74.020594
1266.824885,-9474.636058,0.000000,444.123565
1266.825197,-7920.203579,-383.047749,1258.350101
1266.825508,-6883.915261,0.000000,2072.576638
1266.825820,-7105.977043,-1225.752797,2146.597232
1266.826131,-8068.244768,-2145.067394,1332.370696
1266.826443,-8142.265362,-2145.067394,1036.288319
1266.826754,-8956.491898,-612.876398,-518.144159
1266.827066,-9844.739029,1455.581446,-1258.350101
1266.827377,-10732.986159,2911.162892,-1332.370696
1266.827689,-10807.006753,1378.971896,-740.205942
1266.828000,-10140.821405,766.095498,148.041188
1266.828312,-9178.553681,1532.190996,1480.411884
1266.828623,-7698.141797,459.657299,2294.638420
1266.828935,-6069.688724,536.266849,1776.494261
1266.829246,-5625.565159,76.609550,1776.494261
1266.829557,-6365.771101,-459.657299,740.205942
1266.829869,-7550.100608,-229.828649,-0.000000
1266.830180,-9696.697840,612.876398,-74.020594
1266.830492,-10955.047942,1685.410096,-518.144159
1266.830803,-11843.295072,1915.238745,-592.164754
1266.831115,-11251.130318,1838.629195,-148.041188
1266.831426,-10140.821405,1378.971896,740.205942
1266.831738,-8068.244768,1072.533697,1480.411884
1266.832049,-6439.791695,459.657299,1924.535449
1266.832361,-5329.482782,-229.828649,2072.576638
1266.832672,-5551.544565,-995.924147,1998.556043
1266.832984,-7105.977043,-1225.752797,962.267725
1266.833295,-8808.450710,-1225.752797,-0.000000
1266.833607,-10436.903782,0.000000,-296.082377
1266.833918,-11473.192101,536.266849,-666.185348
1266.834230,-11251.130318,76.609550,-518.144159
1266.834541,-10584.944971,-229.828649,222.061783
1266.834853,-9992.780217,-1225.752797,148.041188
1266.835164,-8660.409521,-1378.971896,1184.329507
1266.835476,-7179.997637,-1532.190996,1332.370696
1266.835787,-6735.874072,-612.876398,1110.308913
1266.836099,-6661.853478,-995.924147,1036.288319
1266.836410,-7402.059420,-1838.629195,666.185348
1266.836722,-9178.553681,-1915.238745,296.082377
1266.837033,-10658.965565,153.219100,-0.000000
1266.837344,-11769.274478,766.095498,518.144159
1266.837656,-11325.150913,766.095498,222.061783
1266.837967,-10732.986159,-153.219100,888.247130
1266.838279,-9992.780217,-383.047749,666.185348
1266.838590,-7772.162391,0.000000,1258.350101
1266.838902,-7105.977043,0.000000,962.267725
1266.839213,-6661.853478,0.000000,1110.308913
1266.839525,-7254.018232,-536.266849,444.123565
1266.839836,-7698.141797,-1225.752797,-0.000000
1266.840148,-8956.491898,-612.876398,-444.123565
1266.840459,-11177.109724,1072.533697,-888.247130
1266.840771,-11251.130318,1225.752797,-740.205942
1266.841082,-11843.295072,1302.362347,-296.082377
1266.841394,-11177.109724,76.609550,666.185348
1266.841705,-9548.656652,0.000000,1184.329507
1266.842017,-7476.080014,-229.828649,1776.494261
1266.842328,-5329.482782,0.000000,1628.453072
1266.842640,-5329.482782,-919.314598,1184.329507
1266.842951,-5921.647536,-1149.143247,518.144159
1266.843263,-8142.265362,-383.047749,-444.123565
1266.843574,-10362.883188,766.095498,-740.205942
1266.843886,-11769.274478,2221.676944,-370.102971
1266.844197,-11917.315666,2451.505594,-888.247130
1266.844509,-11103.089130,2604.724693,-592.164754
1266.844820,-9030.512492,1149.143247,740.205942
1266.845132,-7254.018232,76.609550,1702.473667
1266.845443,-6291.750507,-919.314598,3034.844362
1266.845754,-6291.750507,-1455.581446,2664.741391
1266.846066,-7031.956449,-2068.457845,1924.535449
1266.846377,-7328.038826,-1149.143247,740.205942
1266.846689,-8956.491898,0.000000,-444.123565
1266.847000,-9622.677246,766.095498,-1554.432478
1266.847312,-10658.965565,1838.629195,-1258.350101
1266.847623,-10140.821405,1225.752797,-444.123565
1266.847935,-10140.821405,612.876398,296.082377
1266.848246,-9622.677246,-689.485948,1258.350101
1266.848558,-8438.347739,-1149.143247,2220.617826
1266.848869,-6957.935855,-1302.362347,1998.556043
1266.849181,-6069.688724,-1302.362347,1702.473667
1266.849492,-5921.647536,-842.705048,1406.391290
1266.849804,-8142.265362,-2068.457845,-0.000000
1266.850115,-9992.780217,-2068.457845,-0.000000
1266.850427,-11251.130318,-766.095498,-0.000000
1266.850738,-11621.233289,689.485948,-296.082377
1266.851050,-11695.253884,76.609550,-0.000000
1266.851361,-11769.274478,-689.485948,370.102971
1266.851673,-9992.780217,-383.047749,888.247130
1266.851984,-7550.100608,0.000000,1258.350101
1266.852296,-6661.853478,-306.438199,1702.473667
1266.852607,-6661.853478,-1149.143247,2294.638420
1266.852919,-7550.100608,-2451.505594,1406.391290
1266.853230,-8290.306550,-2145.067394,74.020594
1266.853541,-9400.615463,-383.047749,-740.205942
1266.853853,-11251.130318,1608.800546,-1184.329507
1266.854164,-12139.377449,2221.676944,-814.226536
1266.854476,-11621.233289,1149.143247,-666.185348
1266.854787,-10955.047942,842.705048,222.061783
1266.855099,-9104.533087,1378.971896,1258.350101
1266.855410,-7179.997637,536.266849,1406.391290
1266.855722,-5773.606348,229.828649,1406.391290
1266.856033,-5181.441594,-306.438199,1110.308913
1266.856345,-5625.565159,0.000000,-0.000000
1266.856656,-7920.203579,153.219100,-518.144159
1266.856968,-10807.006753,766.095498,-1036.288319
1266.857279,-11991.336260,1838.629195,-592.164754
1266.857591,-11917.315666,1915.238745,-962.267725
1266.857902,-11621.233289,1455.581446,148.041188
1266.858214,-9696.697840,919.314598,962.267725
1266.858525,-7624.121203,-153.219100,1702.473667
1266.858837,-6217.729913,-766.095498,2072.576638
1266.859148,-5329.482782,-995.924147,2294.638420
1266.859460,-6291.750507,-1685.410096,1184.329507
1266.859771,-7402.059420,-689.485948,666.185348
1266.860083,-8956.491898,-306.438199,-296.082377
1266.860394,-9844.739029,536.266849,-1184.329507
1266.860706,-10510.924376,1302.362347,-1184.329507
1266.861017,-10362.883188,689.485948,-444.123565
1266.861328,-9622.677246,-842.705048,518.144159
1266.861640,-9400.615463,-1225.752797,666.185348
1266.861951,-7846.182985,-1302.362347,1850.514855
1266.862263,-7031.956449,-153.219100,1702.473667
