#time,accel_x,accel_y,accel_z
1453.148570,-9030.512492,-229.828649,370.102971
1453.148881,-8586.388927,76.609550,518.144159
1453.149192,-9104.533087,-229.828649,444.123565
1453.149504,-9104.533087,76.609550,370.102971
1453.149815,-8882.471304,0.000000,592.164754
1453.150126,-8956.491898,76.609550,518.144159
1453.150438,-8956.491898,-229.828649,296.082377
1453.150749,-8660.409521,153.219100,592.164754
1453.151060,-8734.430116,-153.219100,518.144159
1453.151372,-8882.471304,0.000000,444.123565
1453.151683,-8956.491898,-229.828649,518.144159
1453.151995,-8956.491898,0.000000,592.164754
1453.152306,-9030.512492,-306.438199,592.164754
1453.152617,-8956.491898,383.047749,444.123565
1453.152929,-8734.430116,0.000000,592.164754
1453.153240,-9104.533087,0.000000,444.123565
1453.153551,-8660.409521,-383.047749,666.185348
1453.153863,-8882.471304,0.000000,518.144159
1453.154174,-8882.471304,76.609550,740.205942
1453.154485,-8956.491898,0.000000,518.144159
1453.154797,-8956.491898,0.000000,296.082377
1453.155108,-9030.512492,0.000000,518.144159
1453.155419,-8660.409521,0.000000,592.164754
1453.155731,-8882.471304,-229.828649,518.144159
1453.156042,-8586.388927,306.438199,518.144159
1453.156353,-8808.450710,-306.438199,592.164754
1453.156665,-8956.491898,0.000000,296.082377
1453.156976,-9104.533087,-306.438199,444.123565
1453.157288,-8956.491898,0.000000,518.144159
1453.157599,-8808.450710,0.000000,740.205942
1453.157910,-8956.491898,0.000000,-0.000000
1453.158222,-8808.450710,229.828649,296.082377
1453.158533,-8808.450710,153.219100,444.123565
1453.158844,-9104.533087,229.828649,444.123565
1453.159156,-9104.533087,76.609550,444.123565
1453.159467,-8882.471304,76.609550,592.164754
1453.159778,-9030.512492,0.000000,592.164754
1453.160090,-9104.533087,229.828649,518.144159
1453.160401,-8808.450710,76.609550,296.082377
1453.160712,-8734.430116,306.438199,-0.000000
1453.161024,-9178.553681,0.000000,296.082377
1453.161335,-8882.471304,-153.219100,666.185348
1453.161646,-8956.491898,0.000000,592.164754
1453.161958,-8956.491898,0.000000,518.144159
1453.162269,-8956.491898,536.266849,592.164754
1453.162581,-9030.512492,0.000000,222.061783
1453.162892,-8808.450710,0.000000,444.123565
1453.163203,-8808.450710,-153.219100,518.144159
1453.163515,-8956.491898,0.000000,296.082377
1453.163826,-8882.471304,0.000000,518.144159
1453.164137,-8956.491898,153.219100,666.185348
1453.164449,-8882.471304,76.609550,740.205942
1453.164760,-8808.450710,0.000000,518.144159
1453.165071,-8882.471304,229.828649,296.082377
1453.165383,-8438.347739,-459.657299,592.164754
1453.165694,-8512.368333,0.000000,740.205942
1453.166005,-8660.409521,0.000000,518.144159
1453.166317,-8882.471304,0.000000,370.102971
1453.166628,-8956.491898,0.000000,444.123565
1453.166940,-9030.512492,-153.219100,444.123565
1453.167251,-8956.491898,229.828649,222.061783
1453.167562,-9104.533087,0.000000,592.164754
1453.167874,-8512.368333,-229.828649,444.123565
1453.168185,-9178.553681,0.000000,222.061783
1453.168496,-9178.553681,0.000000,296.082377
1453.168808,-9030.512492,0.000000,518.144159
1453.169119,-9178.553681,0.000000,444.123565
1453.169430,-9030.512492,76.609550,518.144159
1453.169742,-9104.533087,0.000000,444.123565
1453.170053,-8956.491898,306.438199,666.185348
1453.170364,-8734.430116,306.438199,592.164754
1453.170676,-8956.491898,0.000000,814.226536
1453.170987,-9030.512492,-153.219100,592.164754
1453.171298,-9030.512492,-229.828649,518.144159
1453.171610,-8808.450710,-229.828649,592.164754
1453.171921,-8734.430116,-229.828649,592.164754
1453.172233,-8364.327145,-383.047749,444.123565
1453.172544,-8734.430116,229.828649,296.082377
1453.172855,-9178.553681,-153.219100,148.041188
1453.173167,-8660.409521,0.000000,740.205942
1453.173478,-9030.512492,0.000000,444.123565
1453.173789,-8882.471304,0.000000,518.144159
1453.174101,-8956.491898,0.000000,518.144159
1453.174412,-8956.491898,0.000000,444.123565
1453.174723,-8956.491898,0.000000,592.164754
1453.175035,-8734.430116,76.609550,444.123565
1453.175346,-8734.430116,76.609550,444.123565
1453.175657,-8808.450710,-153.219100,518.144159
1453.175969,-8882.471304,0.000000,666.185348
1453.176280,-8808.450710,-153.219100,666.185348
1453.176591,-8808.450710,-153.219100,666.185348
1453.176903,-9474.636058,0.000000,296.082377
1453.177214,-11991.336260,1532.190996,-0.000000
1453.177526,-10214.842000,4519.963438,740.205942
1453.177837,-7994.224174,4979.620737,740.205942
1453.178148,-7105.977043,2681.334243,1258.350101
1453.178460,-6661.853478,-229.828649,962.267725
1453.178771,-7402.059420,-1455.581446,-296.082377
1453.179082,-7179.997637,-612.876398,-0.000000
1453.179394,-9400.615463,-612.876398,-1258.350101
1453.179705,-13175.665768,-995.924147,-1554.432478
1453.180016,-11843.295072,306.438199,370.102971
1453.180328,-9548.656652,383.047749,814.226536
1453.180639,-8734.430116,-766.095498,2664.741391
1453.180950,-10584.944971,-995.924147,2442.679609
1453.181262,-11029.068536,2221.676944,1924.535449
1453.181573,-5847.626942,5286.058936,2442.679609
1453.181884,-5551.544565,4749.792088,1406.391290
1453.182196,-8068.244768,2451.505594,-0.000000
1453.182507,-6883.915261,3217.601092,-1406.391290
1453.182819,-8364.327145,3447.429741,-2442.679609
1453.183130,-9326.594869,3830.477490,-518.144159
1453.183441,-10066.800811,3294.210641,-814.226536
1453.183753,-14730.098246,306.438199,-592.164754
1453.184064,-11177.109724,-1072.533697,2368.659014
1453.184375,-8438.347739,-766.095498,1776.494261
1453.184687,-9918.759623,2068.457845,1924.535449
1453.184998,-7179.997637,6741.640382,2516.700203
1453.185309,-7846.182985,4290.134789,1554.432478
1453.185621,-6291.750507,3140.991542,2664.741391
1453.185932,-6661.853478,5286.058936,1480.411884
1453.186243,-8290.306550,6665.030833,-370.102971
1453.186555,-8512.368333,5898.935335,-1258.350101
1453.186866,-8808.450710,4826.401637,-1036.288319
1453.187177,-9918.759623,4903.011187,-2072.576638
1453.187489,-11547.212695,5439.278036,-0.000000
1453.187800,-12287.418637,5209.449386,370.102971
1453.188112,-10732.986159,4060.306139,2146.597232
1453.188423,-9844.739029,4443.353888,2294.638420
1453.188734,-8068.244768,6052.154434,2368.659014
1453.189046,-5551.544565,5745.716235,-0.000000
1453.189357,-5551.544565,5975.544884,-0.000000
1453.189668,-4663.297435,5822.325785,592.164754
1453.189980,-5847.626942,5132.839837,-666.185348
1453.190291,-7476.080014,4519.963438,-962.267725
1453.190602,-8734.430116,3830.477490,-1332.370696
1453.190914,-9992.780217,2604.724693,148.041188
1453.191225,-10955.047942,1225.752797,666.185348
1453.191536,-11103.089130,-153.219100,1776.494261
1453.191848,-11177.109724,-459.657299,1776.494261
1453.192159,-9770.718434,1302.362347,2368.659014
1453.192471,-9030.512492,2987.772442,1776.494261
1453.192782,-7328.038826,4060.306139,444.123565
1453.193093,-5995.668130,4060.306139,-0.000000
1453.193405,-6291.750507,3753.867940,-962.267725
1453.193716,-6217.729913,3753.867940,-370.102971
1453.194027,-7031.956449,2068.457845,-1406.391290
1453.194339,-8290.306550,383.047749,-888.247130
1453.194650,-9992.780217,-2145.067394,-296.082377
1453.194961,-11769.274478,-2298.286494,1036.288319
1453.195273,-13323.706956,-2451.505594,1480.411884
1453.195584,-13767.830521,-1608.800546,1776.494261
1453.195895,-12879.583391,-306.438199,1776.494261
1453.196207,-11843.295072,1532.190996,666.185348
1453.196518,-9400.615463,3677.258390,-148.041188
1453.196829,-7105.977043,4366.744339,-444.123565
1453.197141,-5329.482782,4749.792088,296.082377
1453.197452,-5995.668130,4596.572988,370.102971
1453.197764,-7105.977043,3830.477490,444.123565
1453.198075,-9104.533087,1991.848295,-74.020594
1453.198386,-11325.150913,919.314598,-0.000000
1453.198698,-13175.665768,919.314598,-814.226536
1453.199009,-13989.892304,-842.705048,-148.041188
1453.199320,-14063.912898,-153.219100,222.061783
1453.199632,-12805.562797,1149.143247,444.123565
1453.199943,-11325.150913,2145.067394,1110.308913
1453.200254,-8586.388927,4060.306139,1776.494261
1453.200566,-5773.606348,5056.230287,2072.576638
1453.200877,-3849.070898,5592.497135,962.267725
1453.201188,-1998.556043,6358.592633,-0.000000
1453.201500,-1480.411884,5745.716235,-1332.370696
1453.201811,-4293.194464,4519.963438,-1850.514855
1453.202122,-8364.327145,3140.991542,-1628.453072
1453.202434,-12583.501014,2604.724693,-740.205942
1453.202745,-15026.180623,3140.991542,1406.391290
1453.203057,-15840.407159,2757.943793,3182.885551
1453.203368,-14730.098246,2681.334243,3627.009116
1453.203679,-9918.759623,3677.258390,3552.988522
1453.203991,-5699.585753,4443.353888,2294.638420
1453.204302,-2146.597232,5132.839837,740.205942
1453.204613,-1480.411884,7048.078582,-1184.329507
1453.204925,-1702.473667,8120.612279,-2368.659014
1453.205236,-4219.173869,6741.640382,-2072.576638
1453.205547,-7105.977043,4060.306139,-814.226536
1453.205859,-9400.615463,2681.334243,222.061783
1453.206170,-11251.130318,-229.828649,592.164754
1453.206481,-12361.439231,-3064.381992,1406.391290
1453.206793,-12879.583391,-2757.943793,1998.556043
1453.207104,-12509.480420,-1991.848295,1480.411884
1453.207415,-12953.603985,919.314598,1406.391290
1453.207727,-11473.192101,2834.553343,1628.453072
1453.208038,-10510.924376,4903.011187,1850.514855
1453.208350,-7328.038826,6205.373534,2072.576638
1453.208661,-5847.626942,5822.325785,1184.329507
1453.208972,-6217.729913,3294.210641,-0.000000
1453.209284,-6365.771101,2911.162892,-814.226536
1453.209595,-7920.203579,2987.772442,-2590.720797
1453.209906,-9548.656652,3983.696590,-2442.679609
1453.210218,-11695.253884,3140.991542,-2368.659014
1453.210529,-12583.501014,1685.410096,-740.205942
1453.210840,-12509.480420,995.924147,888.247130
1453.211152,-12583.501014,536.266849,2368.659014
1453.211463,-12509.480420,2298.286494,2072.576638
1453.211774,-11325.150913,4136.915689,2146.597232
1453.212086,-8956.491898,6588.421283,740.205942
1453.212397,-6365.771101,6435.202183,740.205942
1453.212709,-5255.462188,4749.792088,-1036.288319
1453.213020,-5551.544565,3217.601092,-888.247130
1453.213331,-7328.038826,2451.505594,-1480.411884
1453.213643,-8586.388927,2681.334243,-444.123565
1453.213954,-9104.533087,1762.019645,-148.041188
1453.214265,-9548.656652,-995.924147,1036.288319
1453.214577,-8512.368333,-3140.991542,2442.679609
1453.214888,-8068.244768,-2757.943793,1554.432478
1453.215199,-8808.450710,1072.533697,1332.370696
1453.215511,-9696.697840,5745.716235,222.061783
1453.215822,-10510.924376,9346.365076,-296.082377
1453.216133,-9918.759623,8810.098227,888.247130
1453.216445,-9400.615463,7124.688131,1332.370696
1453.216756,-8734.430116,4290.134789,962.267725
1453.217067,-8290.306550,4060.306139,888.247130
1453.217379,-7105.977043,4826.401637,962.267725
1453.217690,-4885.359217,3677.258390,1036.288319
1453.218002,-5329.482782,766.095498,148.041188
1453.218313,-5329.482782,-153.219100,148.041188
1453.218624,-7105.977043,153.219100,-888.247130
1453.218936,-9252.574275,3447.429741,-1036.288319
1453.219247,-11399.171507,6665.030833,-444.123565
1453.219558,-12583.501014,6971.469032,148.041188
1453.219870,-13027.624579,4673.182538,2590.720797
1453.220181,-14211.954086,1991.848295,3849.070898
1453.220493,-11695.253884,2451.505594,2886.803174
1453.220804,-8660.409521,4290.134789,2368.659014
1453.221115,-5403.503377,3217.601092,1850.514855
1453.221427,-3182.885551,-766.095498,1110.308913
1453.221738,-4293.194464,-4979.620737,-666.185348
1453.222050,-5773.606348,-4519.963438,-888.247130
1453.222361,-6957.935855,536.266849,-1184.329507
1453.222672,-9104.533087,4443.353888,-888.247130
1453.222984,-12583.501014,4903.011187,370.102971
1453.223295,-16654.633695,2451.505594,1332.370696
1453.223607,-17690.922014,2604.724693,2812.782580
1453.223918,-14878.139434,5898.935335,2516.700203
1453.224229,-10584.944971,8273.831378,2146.597232
1453.224541,-6069.688724,4749.792088,370.102971
1453.224852,-2812.782580,-995.924147,-222.061783
1453.225164,-740.205942,-2757.943793,-1332.370696
1453.225475,0.000000,995.924147,-1480.411884
1453.225786,-5181.441594,3907.087040,-1110.308913
1453.226098,-10658.965565,3140.991542,370.102971
1453.226409,-15470.304188,1685.410096,296.082377
1453.226721,-16580.613101,2604.724693,740.205942
1453.227032,-13619.789333,5515.887586,1184.329507
1453.227343,-11843.295072,4979.620737,-444.123565
1453.227655,-10955.047942,3140.991542,-1184.329507
1453.227966,-8142.265362,766.095498,-1776.494261
1453.228278,-5255.462188,2068.457845,-1110.308913
1453.228589,-5477.523971,2834.553343,518.144159
1453.228900,-6883.915261,919.314598,2664.741391
1453.229212,-10214.842000,-2451.505594,3256.906145
1453.229523,-10436.903782,-1225.752797,3330.926739
1453.229835,-9400.615463,4290.134789,1776.494261
1453.230146,-9178.553681,8427.050478,-1258.350101
1453.230457,-9326.594869,8427.050478,-2516.700203
1453.230769,-8586.388927,6281.983084,-3849.070898
1453.231080,-6587.832884,7814.174080,-3775.050304
1453.231392,-9400.615463,9882.631924,-2590.720797
1453.231703,-13027.624579,8886.707777,-0.000000
1453.232014,-13101.645173,4290.134789,2886.803174
1453.232326,-10732.986159,-612.876398,4663.297435
1453.232637,-6587.832884,-1991.848295,3997.112087
1453.232949,-5403.503377,536.266849,1332.370696
1453.233260,-4219.173869,612.876398,-444.123565
1453.233571,-592.164754,306.438199,-1036.288319
1453.233883,-4219.173869,459.657299,-1110.308913
1453.234194,-10807.006753,1532.190996,888.247130
1453.234506,-15100.201217,3294.210641,2072.576638
1453.234817,-15840.407159,2528.115143,4145.153275
1453.235128,-11991.336260,0.000000,3923.091493
1453.235440,-9326.594869,-995.924147,2146.597232
1453.235751,-5181.441594,-689.485948,-962.267725
1453.236063,-2738.761985,-995.924147,-1110.308913
1453.236374,-3849.070898,-2987.772442,592.164754
1453.236685,-5625.565159,-2451.505594,1924.535449
1453.236997,-9474.636058,-2068.457845,3997.112087
1453.237308,-11029.068536,-3753.867940,4367.215058
1453.237620,-10807.006753,-4673.182538,3478.967927
1453.237931,-9474.636058,-2145.067394,962.267725
1453.238242,-7105.977043,1149.143247,-2294.638420
1453.238554,-6809.894666,919.314598,-3552.988522
1453.238865,-9104.533087,153.219100,-3256.906145
1453.239177,-11695.253884,153.219100,-888.247130
1453.239488,-13175.665768,-842.705048,1110.308913
1453.239799,-13323.706956,-2451.505594,3849.070898
1453.240111,-14137.933492,-1302.362347,2516.700203
1453.240422,-12065.356855,1225.752797,2146.597232
1453.240734,-6735.874072,2451.505594,-74.020594
1453.241045,-3478.967927,1225.752797,-666.185348
1453.241357,-4219.173869,1225.752797,-592.164754
1453.241668,-7550.100608,2604.724693,-1554.432478
1453.241979,-11843.295072,2451.505594,-2368.659014
1453.242291,-14359.995275,1072.533697,-1776.494261
1453.242602,-15248.242405,995.924147,-2368.659014
1453.242914,-13471.748144,2528.115143,-2294.638420
1453.243225,-11103.089130,1915.238745,-1406.391290
1453.243536,-11621.233289,-1991.848295,-0.000000
1453.243848,-11325.150913,-2834.553343,2516.700203
1453.244159,-9844.739029,-995.924147,4515.256246
1453.244471,-6587.832884,153.219100,5995.668130
1453.244782,-4515.256246,-612.876398,3849.070898
1453.245093,-2664.741391,919.314598,-74.020594
1453.245405,1036.288319,4903.011187,-3552.988522
1453.245716,-592.164754,5515.887586,-6069.688724
1453.246028,-6661.853478,3753.867940,-4589.276840
1453.246339,-13619.789333,2451.505594,-2294.638420
1453.246650,-15988.448347,-306.438199,1110.308913
1453.246962,-16728.654289,-4519.963438,4293.194464
1453.247273,-14508.036463,-6205.373534,4737.318029
1453.247585,-8438.347739,-3217.601092,1776.494261
1453.247896,-3997.112087,-689.485948,592.164754
1453.248207,-1924.535449,-612.876398,1110.308913
1453.248519,-2812.782580,-229.828649,2146.597232
1453.248830,-4515.256246,1378.971896,3182.885551
1453.249142,-4145.153275,1532.190996,3849.070898
1453.249453,-4441.235652,-1455.581446,1702.473667
1453.249764,-4737.318029,-2221.676944,-74.020594
1453.250076,-5477.523971,0.000000,-2590.720797
1453.250387,-7550.100608,0.000000,-4367.215058
1453.250699,-13693.809927,-1225.752797,-1554.432478
1453.251010,-17912.983796,-1608.800546,1850.514855
1453.251321,-20651.745782,-2528.115143,4737.318029
1453.251633,-20133.601622,-4366.744339,5847.626942
1453.251944,-15322.262999,-3447.429741,4589.276840
1453.252256,-8734.430116,459.657299,962.267725
1453.252567,444.123565,2834.553343,-222.061783
1453.252878,2516.700203,306.438199,-1036.288319
1453.253190,592.164754,-3140.991542,-2368.659014
1453.253501,-4589.276840,-1762.019645,-2442.679609
1453.253813,-10881.027347,612.876398,-1628.453072
1453.254124,-15470.304188,1532.190996,-888.247130
1453.254435,-19837.519246,383.047749,-592.164754
1453.254747,-18653.189738,383.047749,444.123565
1453.255058,-14285.974681,76.609550,2368.659014
1453.255370,-13767.830521,-536.266849,3330.926739
1453.255681,-11547.212695,1455.581446,4663.297435
1453.255992,-9622.677246,2374.896044,3256.906145
1453.256304,-6587.832884,2298.286494,2812.782580
1453.256615,-3330.926739,2528.115143,-444.123565
1453.256927,-1998.556043,4443.353888,-5551.544565
1453.257238,-222.061783,6052.154434,-7105.977043
1453.257549,-2664.741391,4443.353888,-6143.709319
1453.257861,-8142.265362,919.314598,-2442.679609
1453.258172,-13915.871710,-1225.752797,1480.411884
1453.258484,-17098.757260,-2757.943793,5847.626942
1453.258795,-16654.633695,-3677.258390,7476.080014
1453.259106,-11769.274478,-842.705048,5847.626942
1453.259418,-5477.523971,3677.258390,1924.535449
1453.259729,370.102971,2757.943793,-296.082377
1453.260041,3256.906145,1685.410096,-1406.391290
1453.260352,296.082377,536.266849,-1702.473667
1453.260664,-4515.256246,306.438199,-1406.391290
1453.260975,-8364.327145,-1455.581446,-370.102971
1453.261286,-9770.718434,-4443.353888,-592.164754
1453.261598,-9696.697840,-5898.935335,-1332.370696
1453.261909,-9326.594869,-4979.620737,-592.164754
1453.262221,-9992.780217,-5592.497135,-0.000000
1453.262532,-14063.912898,-5362.668486,3034.844362
1453.262843,-16506.592507,-3217.601092,4293.194464
1453.263155,-15914.427753,0.000000,5477.523971
1453.263466,-13323.706956,612.876398,5477.523971
1453.263778,-8290.306550,1149.143247,3034.844362
1453.264089,-1406.391290,2911.162892,-1406.391290
1453.264400,3330.926739,3830.477490,-3849.070898
1453.264712,1628.453072,1991.848295,-4663.297435
1453.265023,-3849.070898,459.657299,-4441.235652
1453.265335,-11547.212695,0.000000,-3701.029710
1453.265646,-16506.592507,-1455.581446,-1332.370696
1453.265957,-18949.272115,-3217.601092,888.247130
1453.266269,-20059.581028,-2911.162892,1628.453072
1453.266580,-18505.148550,-2068.457845,1924.535449
1453.266892,-17172.777854,-842.705048,2368.659014
1453.267203,-15766.386565,153.219100,2516.700203
1453.267514,-12435.459826,3600.648841,4071.132681
1453.267826,-6587.832884,4290.134789,3997.112087
1453.268137,-1036.288319,612.876398,3108.864956
1453.268449,1554.432478,-1608.800546,-1702.473667
1453.268760,2220.617826,306.438199,-6365.771101
1453.269071,0.000000,2987.772442,-8216.285956
1453.269383,-6735.874072,3294.210641,-5255.462188
1453.269694,-15692.365970,-153.219100,-370.102971
1453.270006,-21910.095883,-3064.381992,4663.297435
1453.270317,-22354.219448,-4673.182538,8660.409521
1453.270628,-20059.581028,-3907.087040,8512.368333
1453.270940,-11473.192101,-612.876398,5551.544565
1453.271251,-1776.494261,2145.067394,518.144159
1453.271563,3849.070898,3447.429741,-962.267725
1453.271874,5107.421000,2068.457845,-1406.391290
1453.272185,3552.988522,1225.752797,-2664.741391
1453.272497,148.041188,2298.286494,-1554.432478
1453.272808,-4589.276840,-995.924147,444.123565
1453.273120,-10658.965565,-4290.134789,1110.308913
1453.273431,-10658.965565,-3524.039291,1628.453072
1453.273742,-8586.388927,-2145.067394,-0.000000
1453.274054,-10066.800811,-3064.381992,1776.494261
1453.274365,-11473.192101,-2834.553343,2442.679609
1453.274677,-14508.036463,1072.533697,1480.411884
1453.274988,-15840.407159,2987.772442,2516.700203
1453.275299,-12731.542202,3370.820191,3108.864956
1453.275611,-8290.306550,3600.648841,592.164754
1453.275922,-2738.761985,4443.353888,-2368.659014
1453.276234,2220.617826,1762.019645,-3997.112087
1453.276545,3404.947333,-1838.629195,-3552.988522
1453.276856,-1998.556043,-2451.505594,-2590.720797
1453.277168,-9696.697840,-153.219100,-962.267725
1453.277479,-17024.736666,-2145.067394,666.185348
1453.277791,-21539.992912,-2528.115143,2664.741391
1453.278102,-22798.343014,383.047749,2368.659014
1453.278413,-17838.963202,1991.848295,1702.473667
1453.278725,-14804.118840,306.438199,888.247130
1453.279036,-11991.336260,76.609550,1776.494261
1453.279348,-9622.677246,1149.143247,1184.329507
1453.279659,-7105.977043,612.876398,740.205942
1453.279971,-4737.318029,-766.095498,444.123565
1453.280282,-3552.988522,-1302.362347,-2812.782580
1453.280593,-2812.782580,-842.705048,-5255.462188
1453.280905,-4071.132681,0.000000,-3849.070898
1453.281216,-10140.821405,-229.828649,-962.267725
1453.281528,-15470.304188,306.438199,3330.926739
1453.281839,-18949.272115,-459.657299,7254.018232
1453.282150,-18875.251521,-2451.505594,8734.430116
1453.282462,-14063.912898,-2987.772442,7550.100608
1453.282773,-7105.977043,689.485948,1702.473667
1453.283085,1554.432478,4826.401637,-4219.173869
1453.283396,3849.070898,5209.449386,-5921.647536
1453.283707,444.123565,459.657299,-4219.173869
1453.284019,-2146.597232,-1225.752797,-3849.070898
1453.284330,-6217.729913,153.219100,370.102971
1453.284642,-9548.656652,-3370.820191,3552.988522
1453.284953,-12953.603985,-5209.449386,4885.359217
1453.285264,-11473.192101,-4060.306139,4959.379811
1453.285576,-10214.842000,-2604.724693,2886.803174
1453.285887,-11695.253884,-2221.676944,4589.276840
1453.286199,-9326.594869,1149.143247,2368.659014
1453.286510,-9326.594869,3830.477490,888.247130
1453.286821,-6809.894666,383.047749,740.205942
1453.287133,-3256.906145,-1302.362347,-222.061783
1453.287444,-3404.947333,-153.219100,-2220.617826
1453.287756,-740.205942,1455.581446,-5625.565159
1453.288067,-1850.514855,1302.362347,-4885.359217
1453.288378,-7105.977043,-459.657299,-4071.132681
1453.288690,-13323.706956,76.609550,-370.102971
1453.289001,-17098.757260,536.266849,2368.659014
1453.289313,-20429.683999,-1608.800546,3627.009116
1453.289624,-20281.642811,459.657299,4885.359217
1453.289935,-14804.118840,2757.943793,3404.947333
1453.290247,-11621.233289,2451.505594,592.164754
1453.290558,-8290.306550,1532.190996,148.041188
1453.290870,-6291.750507,842.705048,-1628.453072
1453.291181,-6143.709319,3140.991542,-1702.473667
1453.291492,-5847.626942,2528.115143,-1628.453072
1453.291804,-7254.018232,842.705048,-3182.885551
1453.292115,-6661.853478,-306.438199,-3478.967927
1453.292427,-6291.750507,383.047749,-2664.741391
1453.292738,-8734.430116,612.876398,-592.164754
1453.293049,-13767.830521,919.314598,2220.617826
1453.293361,-18727.210333,306.438199,4959.379811
1453.293672,-17838.963202,1915.238745,7476.080014
1453.293984,-15618.345376,842.705048,6883.915261
1453.294295,-10510.924376,-612.876398,4071.132681
1453.294606,-814.226536,-612.876398,-888.247130
1453.294918,2146.597232,-383.047749,-4811.338623
1453.295229,2516.700203,-2221.676944,-3330.926739
1453.295541,1110.308913,-4213.525239,-3701.029710
1453.295852,-5403.503377,-3677.258390,-518.144159
1453.296163,-9622.677246,-4979.620737,3330.926739
1453.296475,-14211.954086,-6205.373534,4219.173869
1453.296786,-14730.098246,-3753.867940,5625.565159
1453.297098,-10732.986159,689.485948,2664.741391
1453.297409,-8808.450710,1072.533697,2590.720797
1453.297720,-7328.038826,0.000000,2516.700203
1453.298032,-8438.347739,2221.676944,2960.823768
1453.298343,-8142.265362,1838.629195,1628.453072
1453.298655,-5551.544565,1149.143247,1702.473667
1453.298966,-4515.256246,-766.095498,-0.000000
1453.299278,-3775.050304,-1072.533697,-4737.318029
1453.299589,-2960.823768,919.314598,-6069.688724
1453.299900,-5847.626942,76.609550,-5995.668130
1453.300212,-10510.924376,-153.219100,-1554.432478
1453.300523,-15692.365970,153.219100,1628.453072
1453.300835,-19985.560434,-995.924147,4293.194464
1453.301146,-19541.436869,76.609550,5329.482782
1453.301457,-14508.036463,2681.334243,4885.359217
1453.301769,-8512.368333,3983.696590,2590.720797
1453.302080,-3923.091493,3064.381992,222.061783
1453.302392,-3330.926739,1072.533697,-1998.556043
1453.302703,-5773.606348,1378.971896,-3552.988522
1453.303014,-7698.141797,2834.553343,-3627.009116
1453.303326,-10362.883188,2528.115143,-4071.132681
1453.303637,-11695.253884,-919.314598,-3330.926739
1453.303949,-11769.274478,-1991.848295,-1998.556043
1453.304260,-11621.233289,-1302.362347,-222.061783
1453.304571,-12805.562797,-612.876398,2368.659014
1453.304883,-15100.201217,536.266849,4367.215058
1453.305194,-13471.748144,2451.505594,6439.791695
1453.305506,-9326.594869,2068.457845,5773.606348
1453.305817,-8364.327145,-306.438199,5329.482782
1453.306128,-4515.256246,-2681.334243,2368.659014
1453.306440,2368.659014,306.438199,-3775.050304
1453.306751,4441.235652,842.705048,-4219.173869
1453.307063,962.267725,-3064.381992,-3627.009116
1453.307374,-7105.977043,-6052.154434,-1776.494261
1453.307685,-12361.439231,-5515.887586,1850.514855
1453.307997,-14063.912898,-5592.497135,3182.885551
1453.308308,-15322.262999,-6128.763984,4441.235652
1453.308620,-15248.242405,-1225.752797,2368.659014
1453.308931,-13915.871710,2298.286494,888.247130
1453.309242,-8808.450710,2528.115143,-592.164754
1453.309554,-7994.224174,2451.505594,1628.453072
1453.309865,-7402.059420,3064.381992,3330.926739
1453.310177,-4515.256246,1838.629195,1702.473667
1453.310488,-3775.050304,-2911.162892,2220.617826
1453.310799,-1480.411884,-3294.210641,-888.247130
1453.311111,-740.205942,-383.047749,-4663.297435
1453.311422,-2738.761985,1915.238745,-5107.421000
1453.311734,-7179.997637,76.609550,-5107.421000
1453.312045,-14878.139434,-1149.143247,-1924.535449
1453.312356,-20207.622217,1991.848295,1776.494261
1453.312668,-22354.219448,3140.991542,4145.153275
1453.312979,-21984.116477,1915.238745,4367.215058
1453.313291,-16580.613101,229.828649,4219.173869
1453.313602,-9326.594869,1302.362347,1332.370696
1453.313913,-3775.050304,2068.457845,-370.102971
1453.314225,-1332.370696,1915.238745,-1258.350101
1453.314536,-1850.514855,1838.629195,-2294.638420
1453.314848,-5181.441594,1302.362347,-296.082377
1453.315159,-9104.533087,-1302.362347,518.144159
1453.315470,-10288.862594,-1225.752797,-814.226536
1453.315782,-9918.759623,1762.019645,-592.164754
1453.316093,-9474.636058,1762.019645,-0.000000
1453.316405,-9844.739029,689.485948,222.061783
1453.316716,-11917.315666,1149.143247,1628.453072
1453.317027,-14211.954086,2528.115143,2590.720797
1453.317339,-11917.315666,2834.553343,4293.194464
1453.317650,-9622.677246,1838.629195,3330.926739
1453.317962,-5995.668130,1838.629195,1702.473667
1453.318273,296.082377,919.314598,-518.144159
1453.318585,2146.597232,-995.924147,-962.267725
1453.318896,2368.659014,-3064.381992,-592.164754
1453.319207,-1628.453072,-3983.696590,296.082377
1453.319516,-8068.244768,-4443.353888,1702.473667
1453.319828,-12509.480420,-3830.477490,3627.009116
1453.320139,-14582.057057,-3140.991542,4367.215058
1453.320450,-14508.036463,-383.047749,1258.350101
1453.320762,-11399.171507,842.705048,518.144159
1453.321073,-11325.150913,153.219100,-296.082377
1453.321384,-10807.006753,-1915.238745,740.205942
1453.321696,-9622.677246,-1532.190996,1406.391290
1453.322007,-8956.491898,-2068.457845,1702.473667
1453.322319,-6957.935855,-4060.306139,2220.617826
1453.322630,-5477.523971,-5515.887586,-1258.350101
1453.322941,-4071.132681,-2987.772442,-2812.782580
1453.323253,-2886.803174,1072.533697,-3552.988522
1453.323564,-7846.182985,76.609550,-3701.029710
1453.323875,-14878.139434,919.314598,-1702.473667
1453.324187,-19467.416275,3370.820191,962.267725
1453.324498,-20947.828159,2911.162892,2516.700203
1453.324809,-18949.272115,536.266849,3256.906145
1453.325121,-14434.015869,0.000000,2072.576638
1453.325432,-8438.347739,229.828649,-148.041188
1453.325744,-5033.400406,-1302.362347,-1110.308913
1453.326055,-3330.926739,-1378.971896,-1258.350101
1453.326366,-5403.503377,-612.876398,-1998.556043
1453.326678,-6957.935855,-229.828649,-666.185348
1453.326989,-8290.306550,-1838.629195,-370.102971
1453.327300,-10214.842000,-1378.971896,-1110.308913
1453.327612,-9474.636058,3064.381992,740.205942
1453.327923,-9548.656652,4366.744339,-0.000000
1453.328234,-11251.130318,2911.162892,1850.514855
1453.328546,-11991.336260,2757.943793,4441.235652
1453.328857,-11621.233289,3600.648841,4959.379811
1453.329169,-9326.594869,2681.334243,4515.256246
1453.329480,-6217.729913,689.485948,2590.720797
1453.329791,-1628.453072,1302.362347,-1628.453072
1453.330103,3330.926739,2451.505594,-3775.050304
1453.330414,3701.029710,1302.362347,-4293.194464
1453.330725,-1184.329507,-2298.286494,-2220.617826
1453.331037,-7031.956449,-2528.115143,296.082377
1453.331348,-12509.480420,-3064.381992,3330.926739
1453.331659,-15248.242405,-4443.353888,5773.606348
1453.331971,-16506.592507,-4749.792088,5329.482782
1453.332282,-13767.830521,-1608.800546,3923.091493
1453.332593,-9252.574275,-689.485948,2220.617826
1453.332905,-6513.812290,-1149.143247,814.226536
1453.333216,-6661.853478,-689.485948,1554.432478
1453.333528,-6069.688724,76.609550,1554.432478
1453.333839,-4737.318029,-1378.971896,1924.535449
1453.334150,-5107.421000,-3217.601092,148.041188
1453.334462,-4589.276840,-1072.533697,-1258.350101
1453.334773,-3627.009116,1915.238745,-4589.276840
1453.335084,-7105.977043,2145.067394,-5033.400406
1453.335396,-12509.480420,1838.629195,-2072.576638
1453.335707,-19245.354492,2221.676944,-74.020594
1453.336018,-21984.116477,3294.210641,3034.844362
1453.336330,-21910.095883,919.314598,4811.338623
1453.336641,-19023.292709,-1225.752797,2886.803174
1453.336953,-10140.821405,-306.438199,1406.391290
1453.337264,-3552.988522,76.609550,-2738.761985
1453.337575,444.123565,-1991.848295,-2886.803174
1453.337887,-814.226536,-1915.238745,-3330.926739
1453.338198,-7105.977043,0.000000,-2072.576638
1453.338509,-10955.047942,0.000000,-148.041188
1453.338821,-12065.356855,-766.095498,518.144159
1453.339132,-14359.995275,1072.533697,-0.000000
1453.339443,-11843.295072,2604.724693,222.061783
1453.339755,-9918.759623,2221.676944,222.061783
1453.340066,-12213.398043,536.266849,1850.514855
1453.340378,-10807.006753,1685.410096,4367.215058
1453.340689,-10584.944971,612.876398,3701.029710
1453.341000,-9622.677246,-2374.896044,5181.441594
1453.341312,-5995.668130,-4290.134789,2886.803174
1453.341623,518.144159,-3524.039291,-2960.823768
1453.341934,5921.647536,995.924147,-5255.462188
1453.342246,2516.700203,-842.705048,-5107.421000
1453.342557,-4441.235652,-2221.676944,-2738.761985
1453.342868,-9400.615463,-383.047749,888.247130
1453.343180,-14211.954086,0.000000,3997.112087
1453.343491,-16506.592507,-689.485948,6365.771101
1453.343802,-14063.912898,0.000000,5773.606348
1453.344114,-9844.739029,2374.896044,3034.844362
1453.344425,-4959.379811,1302.362347,1850.514855
1453.344737,-3034.844362,-995.924147,1702.473667
1453.345048,-4293.194464,-995.924147,444.123565
1453.345359,-5773.606348,0.000000,-592.164754
1453.345671,-5921.647536,-1991.848295,-740.205942
1453.345982,-7402.059420,-2757.943793,-1924.535449
1453.346293,-8956.491898,-1378.971896,-3849.070898
1453.346605,-8734.430116,1455.581446,-4737.318029
1453.346916,-12583.501014,1302.362347,-3997.112087
1453.347227,-16876.695478,2604.724693,-148.041188
1453.347539,-20429.683999,3753.867940,2738.761985
1453.347850,-21317.931130,1149.143247,5625.565159
1453.348162,-16654.633695,-1072.533697,8290.306550
1453.348473,-9844.739029,-1608.800546,5329.482782
1453.348784,-2146.597232,-995.924147,222.061783
1453.349096,1554.432478,459.657299,-3330.926739
1453.349407,1110.308913,-612.876398,-4737.318029
1453.349718,-3552.988522,0.000000,-6069.688724
1453.350030,-10436.903782,2451.505594,-4367.215058
1453.350341,-16506.592507,1608.800546,-3256.906145
1453.350652,-19837.519246,76.609550,370.102971
1453.350964,-18357.107362,0.000000,2294.638420
1453.351275,-14582.057057,383.047749,1480.411884
1453.351587,-11547.212695,229.828649,2368.659014
1453.351898,-7624.121203,306.438199,3775.050304
1453.352209,-7550.100608,1225.752797,6069.688724
1453.352521,-5847.626942,-1378.971896,7624.121203
1453.352832,222.061783,-4060.306139,4219.173869
1453.353143,2220.617826,-2221.676944,1776.494261
1453.353455,2368.659014,-459.657299,-3849.070898
1453.353766,1998.556043,1149.143247,-6143.709319
1453.354077,-2220.617826,612.876398,-4885.359217
1453.354389,-8882.471304,-689.485948,-2516.700203
1453.354700,-15248.242405,-2068.457845,2294.638420
1453.355012,-19319.375086,-2681.334243,4367.215058
1453.355323,-21243.910535,-2221.676944,6587.832884
1453.355634,-16062.468941,-2451.505594,5107.421000
1453.355946,-8882.471304,153.219100,2072.576638
1453.356257,-3256.906145,2834.553343,1628.453072
1453.356568,-222.061783,612.876398,296.082377
1453.356880,148.041188,-1149.143247,444.123565
1453.357191,-222.061783,-1302.362347,1406.391290
1453.357502,-2590.720797,-1149.143247,-370.102971
1453.357814,-6661.853478,-1149.143247,-1850.514855
1453.358125,-10658.965565,689.485948,-5625.565159
1453.358436,-12435.459826,3217.601092,-5107.421000
1453.358748,-14952.160028,2374.896044,-3404.947333
1453.359059,-18949.272115,612.876398,-0.000000
1453.359371,-22428.240043,1302.362347,3775.050304
1453.359682,-21539.992912,0.000000,5699.585753
1453.359993,-17468.860231,-1838.629195,5773.606348
1453.360305,-9918.759623,-229.828649,2960.823768
1453.360616,-2294.638420,2681.334243,-888.247130
1453.360927,3182.885551,2911.162892,-4071.132681
1453.361239,2812.782580,459.657299,-5107.421000
1453.361550,-4811.338623,1915.238745,-5033.400406
1453.361861,-10658.965565,3677.258390,-3182.885551
1453.362173,-15618.345376,3064.381992,-1110.308913
1453.362484,-18061.024985,306.438199,2368.659014
1453.362796,-16210.510130,-766.095498,2072.576638
1453.363107,-12287.418637,229.828649,1924.535449
1453.363418,-8586.388927,1225.752797,2072.576638
1453.363730,-6957.935855,1455.581446,2590.720797
1453.364041,-7254.018232,2451.505594,4441.235652
1453.364352,-9104.533087,-76.609550,4737.318029
1453.364664,-3330.926739,-2451.505594,2072.576638
1453.364975,148.041188,-919.314598,-1406.391290
1453.365286,1628.453072,-306.438199,-3627.009116
1453.365598,2442.679609,-459.657299,-4441.235652
1453.365909,-3701.029710,-3907.087040,-2368.659014
1453.366221,-11991.336260,-4979.620737,1554.432478
1453.366532,-16876.695478,-4749.792088,6069.688724
1453.366843,-18357.107362,-3294.210641,5921.647536
1453.367155,-18135.045579,-1455.581446,5773.606348
1453.367466,-12139.377449,-1685.410096,3701.029710
1453.367777,-3849.070898,-383.047749,666.185348
1453.368089,-444.123565,459.657299,222.061783
1453.368400,0.000000,229.828649,-740.205942
1453.368711,-3108.864956,0.000000,-962.267725
1453.369023,-4811.338623,229.828649,370.102971
1453.369334,-6291.750507,-612.876398,-666.185348
1453.369646,-8882.471304,-1608.800546,-2368.659014
1453.369957,-10288.862594,0.000000,-4071.132681
1453.370268,-13249.686362,2451.505594,-3552.988522
1453.370580,-17098.757260,2298.286494,-962.267725
1453.370891,-20133.601622,1455.581446,2368.659014
1453.371202,-20799.786970,1685.410096,4959.379811
1453.371514,-17987.004391,-919.314598,6143.709319
1453.371825,-11843.295072,-1455.581446,4589.276840
1453.372136,-4885.359217,1455.581446,-0.000000
1453.372448,1776.494261,4826.401637,-4219.173869
1453.372759,3404.947333,4826.401637,-6143.709319
1453.373070,-2442.679609,1685.410096,-6069.688724
1453.373382,-9104.533087,2145.067394,-3923.091493
1453.373693,-15174.221811,1838.629195,-1110.308913
1453.374005,-18653.189738,229.828649,2146.597232
1453.374316,-19985.560434,-1378.971896,3627.009116
1453.374627,-16580.613101,-536.266849,3478.967927
1453.374939,-10510.924376,-1302.362347,3627.009116
1453.375250,-6587.832884,-2681.334243,2664.741391
1453.375561,-6365.771101,0.000000,3330.926739
1453.375873,-8438.347739,2145.067394,2664.741391
1453.376184,-2960.823768,1455.581446,1036.288319
1453.376495,666.185348,2068.457845,-296.082377
1453.376807,814.226536,919.314598,-3034.844362
1453.377118,1628.453072,1072.533697,-4219.173869
1453.377430,-1184.329507,-995.924147,-3034.844362
1453.377741,-7550.100608,-3983.696590,-740.205942
1453.378052,-14211.954086,-3677.258390,4071.132681
1453.378364,-17394.839637,-3677.258390,6513.812290
1453.378675,-19245.354492,-4060.306139,7698.141797
1453.378986,-16728.654289,-5209.449386,6365.771101
1453.379298,-7772.162391,-3064.381992,2960.823768
1453.379609,-1332.370696,-229.828649,-740.205942
1453.379920,1184.329507,0.000000,-2294.638420
1453.380232,-1036.288319,-995.924147,-4219.173869
1453.380543,-2516.700203,1225.752797,-1702.473667
1453.380855,-3701.029710,2451.505594,-666.185348
1453.381166,-7846.182985,-1302.362347,814.226536
1453.381477,-10510.924376,-2451.505594,-666.185348
1453.381789,-11547.212695,536.266849,-1184.329507
1453.382100,-12139.377449,1225.752797,-518.144159
1453.382411,-15766.386565,0.000000,1110.308913
1453.382723,-20059.581028,1608.800546,2960.823768
1453.383034,-20355.663405,2221.676944,4145.153275
1453.383345,-17542.880825,-2068.457845,3108.864956
1453.383657,-12213.398043,-1532.190996,1628.453072
1453.383968,-6735.874072,1685.410096,-2590.720797
1453.384280,-1480.411884,2604.724693,-4959.379811
1453.384591,296.082377,76.609550,-5921.647536
1453.384902,-4737.318029,-306.438199,-5107.421000
1453.385214,-10066.800811,2451.505594,-2072.576638
1453.385525,-14359.995275,3217.601092,296.082377
1453.385836,-16876.695478,995.924147,4293.194464
1453.386148,-16358.551318,153.219100,5403.503377
1453.386459,-13101.645173,383.047749,3923.091493
1453.386770,-8734.430116,689.485948,1998.556043
1453.387082,-6439.791695,1991.848295,666.185348
1453.387393,-5107.421000,3294.210641,-222.061783
1453.387704,-6069.688724,3677.258390,-888.247130
1453.388016,-5329.482782,0.000000,-1036.288319
1453.388327,-2590.720797,-1991.848295,-1702.473667
1453.388639,-1702.473667,-995.924147,-2294.638420
1453.388950,-814.226536,-1685.410096,-1554.432478
1453.389261,-4811.338623,-3524.039291,-444.123565
1453.389573,-10732.986159,-4290.134789,2516.700203
1453.389884,-12879.583391,-2451.505594,5921.647536
1453.390195,-14211.954086,-1685.410096,7402.059420
1453.390507,-13915.871710,-2528.115143,7698.141797
1453.390818,-11695.253884,-2451.505594,5255.462188
1453.391129,-5181.441594,-383.047749,1480.411884
1453.391441,1702.473667,1608.800546,-2072.576638
1453.391752,2886.803174,229.828649,-3034.844362
1453.392064,74.020594,-2604.724693,-4959.379811
1453.392375,-4737.318029,-1762.019645,-4219.173869
1453.392686,-8438.347739,-383.047749,-2368.659014
1453.392998,-12509.480420,-1225.752797,-222.061783
1453.393309,-16950.716072,-2221.676944,-0.000000
1453.393620,-18875.251521,-2298.286494,1332.370696
1453.393932,-18949.272115,-1608.800546,3034.844362
1453.394243,-18135.045579,995.924147,4367.215058
1453.394554,-16506.592507,3140.991542,4737.318029
1453.394866,-12361.439231,1685.410096,4367.215058
1453.395177,-7328.038826,-2374.896044,2220.617826
1453.395489,-2368.659014,-1149.143247,-1332.370696
1453.395800,74.020594,3370.820191,-6439.791695
1453.396111,-592.164754,4903.011187,-8290.306550
1453.396423,-5551.544565,2451.505594,-7476.080014
1453.396734,-12435.459826,842.705048,-4737.318029
1453.397045,-17838.963202,2221.676944,-222.061783
1453.397357,-21614.013506,842.705048,3775.050304
1453.397668,-22280.198854,76.609550,6291.750507
1453.397979,-17616.901420,-459.657299,6439.791695
1453.398291,-9474.636058,536.266849,4589.276840
1453.398602,-1332.370696,1302.362347,1924.535449
1453.398913,-1850.514855,2451.505594,1406.391290
1453.399225,-3256.906145,1378.971896,1036.288319
1453.399536,1110.308913,1302.362347,-3108.864956
1453.399848,0.000000,1608.800546,-1258.350101
1453.400159,-3775.050304,-2068.457845,-2812.782580
1453.400470,-4811.338623,-1991.848295,-4145.153275
1453.400782,-5921.647536,-1302.362347,-1184.329507
1453.401093,-8882.471304,-3983.696590,-0.000000
1453.401404,-13101.645173,-4136.915689,4737.318029
1453.401716,-16580.613101,-1149.143247,5329.482782
1453.402027,-18357.107362,612.876398,7105.977043
1453.402338,-15470.304188,-2145.067394,7105.977043
1453.402650,-7402.059420,-689.485948,4515.256246
1453.402961,222.061783,2604.724693,1110.308913
1453.403273,5699.585753,995.924147,-3701.029710
1453.403584,5477.523971,-2987.772442,-4367.215058
1453.403895,1406.391290,-2834.553343,-4737.318029
1453.404207,-4663.297435,153.219100,-3923.091493
1453.404518,-11769.274478,-842.705048,-1406.391290
1453.404829,-16802.674883,-2528.115143,444.123565
1453.405141,-20503.704593,-306.438199,1480.411884
1453.405452,-18135.045579,0.000000,2590.720797
1453.405763,-16876.695478,-459.657299,3034.844362
1453.406075,-16432.571912,1072.533697,4071.132681
1453.406386,-12657.521608,2834.553343,3849.070898
1453.406698,-9844.739029,306.438199,1702.473667
1453.407009,-5107.421000,-842.705048,592.164754
1453.407320,-2294.638420,2451.505594,-3627.009116
1453.407632,-1406.391290,2911.162892,-7105.977043
1453.407943,-2516.700203,1838.629195,-8216.285956
1453.408254,-8512.368333,1225.752797,-5773.606348
1453.408566,-15174.221811,689.485948,-2368.659014
1453.408877,-20355.663405,-536.266849,2664.741391
1453.409188,-23316.487173,-1608.800546,5847.626942
1453.409500,-21317.931130,-1991.848295,7476.080014
1453.409811,-14582.057057,0.000000,5847.626942
1453.410123,-6291.750507,1762.019645,2590.720797
1453.410434,296.082377,2757.943793,1184.329507
1453.410745,-518.144159,2451.505594,-814.226536
1453.411057,-2072.576638,1455.581446,-1036.288319
1453.411368,-962.267725,2221.676944,-2738.761985
1453.411679,-3330.926739,919.314598,-1332.370696
1453.411991,-7031.956449,-3370.820191,-1406.391290
1453.412302,-8290.306550,-3294.210641,-1480.411884
1453.412613,-8882.471304,-2374.896044,-0.000000
1453.412925,-10510.924376,-2374.896044,3404.947333
1453.413236,-12879.583391,-2374.896044,5847.626942
1453.413547,-15396.283594,-1225.752797,5403.503377
1453.413859,-14582.057057,-459.657299,6809.894666
1453.414170,-9474.636058,0.000000,5773.606348
1453.414482,-2812.782580,919.314598,2072.576638
1453.414793,4515.256246,3677.258390,-1036.288319
1453.415104,7105.977043,306.438199,-5107.421000
1453.415416,4811.338623,-3907.087040,-4589.276840
1453.415727,-1924.535449,-3370.820191,-3552.988522
1453.416038,-9326.594869,-1149.143247,-1554.432478
1453.416350,-16506.592507,-3600.648841,1036.288319
1453.416661,-21614.013506,-4979.620737,3034.844362
1453.416972,-22058.137072,-2451.505594,3256.906145
1453.417284,-19837.519246,-536.266849,2516.700203
1453.417595,-17468.860231,842.705048,2516.700203
1453.417907,-13397.727550,2604.724693,2738.761985
1453.418218,-9474.636058,3907.087040,962.267725
1453.418529,-4885.359217,2681.334243,-0.000000
1453.418841,370.102971,1149.143247,-1406.391290
1453.419152,1702.473667,2068.457845,-4811.338623
1453.419463,1258.350101,3447.429741,-7550.100608
1453.419775,-3775.050304,2987.772442,-7179.997637
1453.420086,-12435.459826,612.876398,-4737.318029
1453.420397,-20799.786970,536.266849,-0.000000
1453.420708,-25092.981434,306.438199,4663.297435
1453.421020,-26425.352129,-689.485948,6365.771101
1453.421331,-22132.157666,-1991.848295,6365.771101
1453.421642,-12953.603985,-1072.533697,2812.782580
1453.421954,-3404.947333,1149.143247,-74.020594
1453.422265,3034.844362,3370.820191,-370.102971
1453.422576,444.123565,3064.381992,-1998.556043
1453.422888,-1036.288319,766.095498,-814.226536
1453.423199,-1480.411884,1991.848295,-370.102971
1453.423510,-4811.338623,-536.266849,740.205942
1453.423821,-8364.327145,-2451.505594,-518.144159
1453.424133,-9178.553681,-1915.238745,-74.020594
1453.424444,-9474.636058,-1762.019645,-74.020594
1453.424755,-11621.233289,-2374.896044,2960.823768
1453.425067,-12805.562797,-1915.238745,3997.112087
1453.425378,-14211.954086,919.314598,4145.153275
1453.425689,-13397.727550,-612.876398,5255.462188
1453.426000,-7994.224174,-2757.943793,3404.947333
1453.426312,-814.226536,0.000000,814.226536
1453.426623,3182.885551,2451.505594,-4219.173869
1453.426934,3552.988522,-306.438199,-3923.091493
1453.427246,1110.308913,-3217.601092,-1258.350101
1453.427557,-3627.009116,-1915.238745,-0.000000
1453.427868,-9918.759623,-919.314598,1776.494261
1453.428180,-16062.468941,-2834.553343,2960.823768
1453.428491,-19245.354492,-2068.457845,2886.803174
1453.428802,-17320.819043,2451.505594,1776.494261
1453.429113,-14656.077652,1608.800546,1628.453072
1453.429425,-13915.871710,0.000000,1110.308913
1453.429736,-13027.624579,2451.505594,1850.514855
1453.430047,-9918.759623,3907.087040,-222.061783
1453.430359,-6291.750507,1455.581446,-888.247130
1453.430670,-3775.050304,-536.266849,-1776.494261
1453.430981,-2072.576638,0.000000,-4663.297435
1453.431293,-1702.473667,1302.362347,-5995.668130
1453.431604,-6513.812290,76.609550,-4589.276840
1453.431915,-13693.809927,919.314598,-148.041188
1453.432226,-20799.786970,459.657299,3330.926739
1453.432538,-22206.178260,1685.410096,6883.915261
1453.432849,-21169.889941,536.266849,7772.162391
1453.433160,-16506.592507,-766.095498,5551.544565
1453.433472,-5699.585753,766.095498,1776.494261
1453.433783,-592.164754,1991.848295,-2812.782580
1453.434094,1924.535449,1455.581446,-3108.864956
1453.434406,1258.350101,689.485948,-4737.318029
1453.434717,-3478.967927,919.314598,-3627.009116
1453.435028,-7698.141797,-919.314598,148.041188
1453.435339,-11325.150913,-4213.525239,2294.638420
1453.435651,-12287.418637,-4596.572988,3404.947333
1453.435962,-12213.398043,-2451.505594,2886.803174
1453.436273,-11325.150913,-1685.410096,3997.112087
1453.436585,-11029.068536,-842.705048,3701.029710
1453.436896,-9992.780217,2298.286494,5033.400406
1453.437207,-9104.533087,2604.724693,3849.070898
1453.437519,-5699.585753,-459.657299,3404.947333
1453.437830,-1776.494261,-229.828649,444.123565
1453.438141,1480.411884,2298.286494,-3478.967927
1453.438452,4663.297435,2298.286494,-5699.585753
1453.438764,74.020594,-459.657299,-6365.771101
1453.439075,-4959.379811,-2145.067394,-2960.823768
1453.439386,-10881.027347,-2451.505594,-222.061783
1453.439698,-17320.819043,-3753.867940,3701.029710
1453.440009,-21688.034101,-3294.210641,5921.647536
1453.440320,-21317.931130,-2221.676944,5107.421000
1453.440632,-15396.283594,-1072.533697,3552.988522
1453.440943,-11177.109724,383.047749,2368.659014
1453.441254,-7031.956449,1225.752797,1036.288319
1453.441565,-5699.585753,1149.143247,-1628.453072
1453.441877,-5773.606348,1991.848295,-740.205942
1453.442188,-3775.050304,459.657299,-1924.535449
1453.442499,-4663.297435,-306.438199,-3478.967927
1453.442811,-5847.626942,536.266849,-6069.688724
1453.443122,-6809.894666,2451.505594,-5921.647536
1453.443433,-11621.233289,2068.457845,-3923.091493
1453.443744,-16950.716072,1455.581446,888.247130
1453.444056,-21762.054695,1072.533697,3923.091493
1453.444367,-21465.972318,1378.971896,7402.059420
1453.444678,-19023.292709,1378.971896,6809.894666
1453.444990,-12361.439231,1685.410096,4071.132681
1453.445301,-1924.535449,3294.210641,-740.205942
1453.445612,2072.576638,2451.505594,-3478.967927
1453.445924,2442.679609,0.000000,-3923.091493
1453.446235,-296.082377,0.000000,-5551.544565
1453.446546,-6365.771101,612.876398,-1332.370696
1453.446857,-10436.903782,-1532.190996,1480.411884
1453.447169,-13175.665768,-4519.963438,3330.926739
1453.447480,-12657.521608,-3524.039291,3627.009116
1453.447791,-11621.233289,-1762.019645,3627.009116
1453.448103,-9326.594869,-1762.019645,2886.803174
1453.448414,-9696.697840,-919.314598,2960.823768
1453.448725,-9326.594869,2374.896044,5255.462188
1453.449037,-8438.347739,919.314598,4515.256246
1453.449348,-5551.544565,-1149.143247,4293.194464
1453.449659,-2368.659014,-2374.896044,296.082377
1453.449970,1406.391290,-1302.362347,-3923.091493
1453.450282,4145.153275,-306.438199,-4663.297435
1453.450593,0.000000,-3370.820191,-3627.009116
1453.450904,-7920.203579,-4366.744339,-1036.288319
1453.451216,-13323.706956,-3217.601092,1776.494261
1453.451527,-19689.478057,-2451.505594,4589.276840
1453.451838,-21243.910535,-306.438199,5551.544565
1453.452150,-19097.313304,1072.533697,3034.844362
1453.452461,-13619.789333,2681.334243,2072.576638
1453.452772,-8290.306550,3217.601092,1036.288319
1453.453083,-6217.729913,2221.676944,-222.061783
1453.453395,-2960.823768,3983.696590,-1258.350101
1453.453706,-2886.803174,2145.067394,-1702.473667
1453.454017,-4145.153275,-1532.190996,-1850.514855
1453.454329,-5477.523971,-2451.505594,-3923.091493
1453.454640,-8142.265362,536.266849,-6069.688724
1453.454951,-11473.192101,1915.238745,-4737.318029
1453.455263,-15618.345376,766.095498,-1480.411884
1453.455574,-20207.622217,612.876398,2220.617826
1453.455885,-21910.095883,153.219100,4515.256246
1453.456196,-19467.416275,229.828649,7031.956449
1453.456508,-12583.501014,-153.219100,6291.750507
1453.456819,-7105.977043,1149.143247,2146.597232
1453.457130,-1480.411884,1991.848295,-518.144159
1453.457442,6439.791695,2911.162892,-5255.462188
1453.457753,4737.318029,2834.553343,-4663.297435
1453.458064,-1480.411884,306.438199,-3330.926739
1453.458376,-8216.285956,-2451.505594,-1036.288319
1453.458687,-14952.160028,-4749.792088,2368.659014
1453.458998,-16802.674883,-4290.134789,4293.194464
1453.459309,-15544.324782,-2451.505594,4219.173869
1453.459621,-13027.624579,-1378.971896,1110.308913
1453.459932,-11621.233289,459.657299,1036.288319
1453.460243,-11029.068536,1149.143247,962.267725
1453.460555,-6661.853478,4519.963438,962.267725
1453.460866,-3923.091493,5439.278036,2368.659014
1453.461177,-1628.453072,0.000000,2590.720797
1453.461488,888.247130,-4060.306139,1406.391290
1453.461800,4885.359217,-2221.676944,-74.020594
1453.462111,4219.173869,-1838.629195,-1480.411884
1453.462422,-2368.659014,-4136.915689,-1850.514855
1453.462734,-11843.295072,-4136.915689,-148.041188
1453.463045,-18801.230927,-2911.162892,1036.288319
1453.463356,-21688.034101,-2451.505594,3108.864956
1453.463668,-22946.384202,-3217.601092,3627.009116
1453.463979,-20725.766376,-766.095498,1480.411884
1453.464290,-14359.995275,2068.457845,-370.102971
1453.464601,-8364.327145,1685.410096,-962.267725
1453.464913,-6069.688724,1685.410096,-0.000000
1453.465224,-3552.988522,3294.210641,1184.329507
1453.465535,-962.267725,2451.505594,1850.514855
1453.465847,-666.185348,-1378.971896,740.205942
1453.466158,-1406.391290,-1149.143247,-2442.679609
1453.466469,-6069.688724,1762.019645,-5551.544565
1453.466781,-10140.821405,2834.553343,-4737.318029
1453.467092,-15544.324782,2834.553343,-2590.720797
1453.467403,-22354.219448,1225.752797,1184.329507
1453.467714,-23242.466579,689.485948,4515.256246
1453.468026,-20651.745782,-1455.581446,5699.585753
1453.468337,-15470.304188,-3830.477490,4219.173869
1453.468648,-6587.832884,-1149.143247,296.082377
1453.468960,444.123565,3064.381992,-3775.050304
1453.469271,3775.050304,3370.820191,-2812.782580
1453.469582,3478.967927,1991.848295,-1702.473667
1453.469894,-2664.741391,-306.438199,-148.041188
1453.470205,-7772.162391,-766.095498,3034.844362
1453.470516,-11695.253884,-2221.676944,4441.235652
1453.470827,-15322.262999,-2145.067394,3627.009116
1453.471139,-13619.789333,1302.362347,2146.597232
1453.471450,-9326.594869,2145.067394,148.041188
1453.471761,-8068.244768,76.609550,-1036.288319
1453.472073,-8586.388927,306.438199,444.123565
1453.472384,-7254.018232,1838.629195,592.164754
1453.472695,-6217.729913,842.705048,1480.411884
1453.473007,-4145.153275,-1991.848295,2146.597232
1453.473318,-2146.597232,-3447.429741,-74.020594
1453.473629,-740.205942,-2374.896044,-1998.556043
1453.473940,-814.226536,-2757.943793,-1998.556043
1453.474252,-5477.523971,-3983.696590,-444.123565
1453.474563,-12805.562797,-4366.744339,1850.514855
1453.474874,-17394.839637,-3294.210641,3330.926739
1453.475186,-19171.333898,-2451.505594,4589.276840
1453.475497,-18653.189738,-1762.019645,3478.967927
1453.475808,-13027.624579,1378.971896,1554.432478
1453.476120,-9178.553681,3064.381992,-1776.494261
1453.476431,-6809.894666,2757.943793,-2368.659014
1453.476742,-6587.832884,2145.067394,-888.247130
1453.477053,-6735.874072,2145.067394,-1406.391290
1453.477365,-6883.915261,842.705048,-0.000000
1453.477676,-8290.306550,-1072.533697,-1406.391290
1453.477987,-8364.327145,-1532.190996,-3404.947333
1453.478299,-8734.430116,1838.629195,-4071.132681
1453.478610,-10510.924376,1991.848295,-2664.741391
1453.478921,-15026.180623,-229.828649,370.102971
1453.479232,-18949.272115,-919.314598,4145.153275
1453.479544,-19615.457463,306.438199,5329.482782
1453.479855,-15248.242405,612.876398,4959.379811
1453.480166,-9622.677246,1302.362347,2072.576638
1453.480478,-2812.782580,2681.334243,-222.061783
1453.480789,3256.906145,3830.477490,-4885.359217
1453.481100,3182.885551,2911.162892,-5181.441594
1453.481412,-2442.679609,153.219100,-2960.823768
1453.481723,-9844.739029,-76.609550,-814.226536
1453.482034,-14434.015869,-1838.629195,1924.535449
1453.482345,-15618.345376,-3064.381992,4441.235652
1453.482657,-15248.242405,-3140.991542,4589.276840
1453.482968,-11103.089130,-1608.800546,2442.679609
1453.483279,-7476.080014,-766.095498,2368.659014
1453.483591,-6661.853478,-1225.752797,2220.617826
1453.483902,-4885.359217,536.266849,2960.823768
1453.484213,-3997.112087,2604.724693,2294.638420
1453.484525,-2368.659014,919.314598,2368.659014
1453.484836,-296.082377,-2145.067394,740.205942
1453.485147,148.041188,-1302.362347,-1924.535449
1453.485458,962.267725,1378.971896,-2886.803174
1453.485770,-3552.988522,-842.705048,-2442.679609
1453.486081,-10955.047942,-3600.648841,814.226536
1453.486392,-17394.839637,-2834.553343,2886.803174
1453.486704,-21095.869347,-2528.115143,5403.503377
1453.487015,-20503.704593,-2451.505594,5181.441594
1453.487326,-17098.757260,-459.657299,3108.864956
1453.487638,-11399.171507,2681.334243,-740.205942
1453.487949,-5773.606348,1915.238745,-1776.494261
1453.488260,-3997.112087,-842.705048,-2220.617826
1453.488571,-4959.379811,153.219100,-1184.329507
1453.488883,-4737.318029,2451.505594,-222.061783
1453.489194,-6069.688724,919.314598,-1036.288319
1453.489505,-7624.121203,-1915.238745,-518.144159
1453.489817,-7846.182985,-383.047749,-2146.597232
1453.490128,-9326.594869,2068.457845,-3108.864956
1453.490439,-12657.521608,2681.334243,-1406.391290
1453.490751,-18135.045579,1608.800546,1628.453072
1453.491062,-20873.807564,1302.362347,3404.947333
1453.491373,-19615.457463,1608.800546,4885.359217
1453.491684,-15914.427753,766.095498,4219.173869
1453.491996,-9400.615463,459.657299,1628.453072
1453.492307,-2294.638420,689.485948,-2516.700203
1453.492618,1184.329507,459.657299,-4293.194464
1453.492930,740.205942,-2374.896044,-2812.782580
1453.493241,-2220.617826,-2221.676944,-2886.803174
1453.493552,-7402.059420,0.000000,888.247130
1453.493863,-11399.171507,-2221.676944,3478.967927
1453.494175,-13471.748144,-2834.553343,4663.297435
1453.494486,-13397.727550,536.266849,3923.091493
1453.494797,-10066.800811,3600.648841,1628.453072
1453.495109,-6365.771101,3753.867940,1332.370696
1453.495420,-4811.338623,2374.896044,518.144159
1453.495731,-5477.523971,2757.943793,1184.329507
1453.496043,-4959.379811,919.314598,-74.020594
1453.496354,-3849.070898,-1455.581446,370.102971
1453.496665,-2590.720797,-3140.991542,-74.020594
1453.496976,-2072.576638,-2911.162892,-2072.576638
1453.497288,-3849.070898,-4136.915689,-1850.514855
1453.497599,-7476.080014,-4596.572988,-962.267725
1453.497910,-11991.336260,-4060.306139,1554.432478
1453.498222,-16062.468941,-1915.238745,3775.050304
1453.498533,-19245.354492,689.485948,3923.091493
1453.498844,-19615.457463,1685.410096,3478.967927
1453.499156,-15248.242405,2451.505594,1924.535449
1453.499467,-7105.977043,4903.011187,-370.102971
1453.499778,-1702.473667,4366.744339,-1406.391290
1453.500089,-518.144159,1455.581446,-1332.370696
1453.500401,-1554.432478,-1149.143247,-1702.473667
1453.500712,-5551.544565,-1378.971896,-1184.329507
1453.501023,-8586.388927,-1608.800546,-814.226536
1453.501335,-11917.315666,-1762.019645,-1998.556043
1453.501646,-13915.871710,-153.219100,-2516.700203
1453.501957,-17172.777854,1149.143247,-2516.700203
1453.502269,-19319.375086,842.705048,-0.000000
1453.502580,-18727.210333,689.485948,1998.556043
1453.502891,-18061.024985,1225.752797,4737.318029
1453.503202,-13841.851115,-306.438199,6587.832884
1453.503514,-7105.977043,-1532.190996,4441.235652
1453.503825,-4737.318029,-1608.800546,-148.041188
1453.504136,1036.288319,1915.238745,-2220.617826
1453.504448,4885.359217,1915.238745,-4959.379811
1453.504759,-444.123565,842.705048,-4293.194464
1453.505070,-8142.265362,0.000000,-2220.617826
1453.505382,-14508.036463,0.000000,814.226536
1453.505693,-16506.592507,-229.828649,4959.379811
1453.506004,-16136.489536,0.000000,5107.421000
1453.506315,-13545.768739,-459.657299,3108.864956
1453.506627,-8216.285956,-383.047749,-0.000000
1453.506938,-5847.626942,1455.581446,-74.020594
1453.507249,-4071.132681,2528.115143,-0.000000
1453.507561,-2516.700203,3140.991542,1332.370696
1453.507872,-2294.638420,536.266849,2812.782580
1453.508183,-1554.432478,-4903.011187,3108.864956
1453.508495,-518.144159,-6128.763984,1702.473667
1453.508806,222.061783,-3217.601092,-1406.391290
1453.509117,-1850.514855,153.219100,-2368.659014
1453.509428,-8142.265362,-1915.238745,-1184.329507
1453.509740,-15396.283594,-2681.334243,592.164754
1453.510051,-20873.807564,689.485948,3330.926739
1453.510362,-21391.951724,1455.581446,4811.338623
1453.510674,-19837.519246,-1072.533697,3701.029710
1453.510985,-13101.645173,76.609550,2368.659014
1453.511296,-5403.503377,2834.553343,-2072.576638
1453.511607,-296.082377,919.314598,-2368.659014
1453.511919,-444.123565,-383.047749,-1628.453072
1453.512230,-3552.988522,1455.581446,-592.164754
1453.512541,-4885.359217,2757.943793,-444.123565
1453.512853,-9030.512492,306.438199,-296.082377
1453.513164,-12583.501014,-306.438199,-1332.370696
1453.513475,-13693.809927,2757.943793,-2664.741391
1453.513787,-13693.809927,3677.258390,-2442.679609
1453.514098,-15174.221811,995.924147,-1184.329507
1453.514409,-18209.066173,689.485948,814.226536
1453.514720,-18801.230927,1608.800546,2738.761985
1453.515032,-15988.448347,306.438199,3627.009116
1453.515343,-10955.047942,-1915.238745,3034.844362
1453.515654,-5625.565159,-766.095498,-296.082377
1453.515966,74.020594,2528.115143,-1702.473667
1453.516277,-518.144159,459.657299,-2812.782580
1453.516588,-2738.761985,-1608.800546,-1850.514855
1453.516900,-6587.832884,612.876398,-1036.288319
1453.517211,-10732.986159,229.828649,2294.638420
1453.517522,-13915.871710,-1915.238745,4367.215058
1453.517833,-15100.201217,-2451.505594,4219.173869
1453.518145,-9992.780217,-153.219100,2294.638420
1453.518456,-4663.297435,-766.095498,1036.288319
1453.518767,-4071.132681,-1455.581446,-296.082377
1453.519079,-6513.812290,229.828649,-74.020594
1453.519390,-6513.812290,2604.724693,814.226536
1453.519701,-4885.359217,229.828649,1332.370696
1453.520013,-3478.967927,-3294.210641,3034.844362
1453.520324,-2516.700203,-3753.867940,666.185348
1453.520635,-2146.597232,-2834.553343,-1110.308913
1453.520946,-3775.050304,-3064.381992,-222.061783
1453.521258,-8364.327145,-3370.820191,1406.391290
1453.521569,-14434.015869,-2604.724693,2590.720797
1453.521880,-18209.066173,-2221.676944,4441.235652
1453.522192,-18505.148550,-2298.286494,4663.297435
1453.522503,-15174.221811,-536.266849,2886.803174
1453.522814,-9770.718434,2374.896044,-0.000000
1453.523125,-2812.782580,3140.991542,-3182.885551
1453.523437,-1776.494261,689.485948,-3552.988522
1453.523748,-3849.070898,229.828649,-1924.535449
1453.524059,-6587.832884,1608.800546,-1480.411884
1453.524371,-9030.512492,2068.457845,-740.205942
1453.524682,-11029.068536,153.219100,-222.061783
1453.524993,-13323.706956,-842.705048,-740.205942
1453.525304,-14211.954086,0.000000,-518.144159
1453.525616,-15840.407159,229.828649,-148.041188
1453.525927,-17394.839637,-153.219100,518.144159
1453.526238,-17098.757260,2068.457845,2664.741391
1453.526549,-14656.077652,2528.115143,3478.967927
1453.526861,-10288.862594,0.000000,3552.988522
1453.527172,-7105.977043,-1915.238745,1110.308913
1453.527483,-2294.638420,995.924147,-1776.494261
1453.527795,3182.885551,5592.497135,-4589.276840
1453.528106,666.185348,3600.648841,-4811.338623
1453.528417,-6291.750507,306.438199,-3108.864956
1453.528728,-12953.603985,-766.095498,-0.000000
1453.529040,-15100.201217,-1378.971896,3478.967927
1453.529351,-15766.386565,-3830.477490,6365.771101
1453.529662,-13619.789333,-6205.373534,6069.688724
1453.529974,-9622.677246,-6435.202183,2960.823768
1453.530285,-4811.338623,-5439.278036,1702.473667
1453.530596,-1776.494261,-4213.525239,222.061783
1453.530907,-2812.782580,-1991.848295,-814.226536
1453.531219,-3256.906145,1072.533697,-222.061783
1453.531530,-4145.153275,-1149.143247,296.082377
1453.531841,-3627.009116,-4290.134789,1776.494261
1453.532153,-3330.926739,-2757.943793,-0.000000
1453.532464,-2812.782580,-1378.971896,-222.061783
1453.532775,-4589.276840,-4673.182538,-0.000000
1453.533086,-9622.677246,-5132.839837,814.226536
1453.533398,-15692.365970,-2911.162892,2220.617826
1453.533709,-18357.107362,-1991.848295,2960.823768
1453.534020,-17394.839637,-3600.648841,4219.173869
1453.534331,-14804.118840,-4136.915689,2368.659014
1453.534643,-10362.883188,-2298.286494,-962.267725
1453.534954,-5551.544565,229.828649,-4071.132681
1453.535265,-2442.679609,612.876398,-3478.967927
1453.535577,-4367.215058,-995.924147,-2886.803174
1453.535888,-7402.059420,-2374.896044,-296.082377
1453.536199,-8512.368333,-2681.334243,666.185348
1453.536510,-10658.965565,-3140.991542,1480.411884
1453.536822,-12065.356855,-2528.115143,1554.432478
1453.537133,-12879.583391,-2221.676944,-444.123565
1453.537444,-12139.377449,-2604.724693,-1110.308913
1453.537756,-12879.583391,-2757.943793,296.082377
1453.538067,-15248.242405,-5286.058936,1776.494261
1453.538378,-17616.901420,-3907.087040,1406.391290
1453.538689,-15248.242405,-2298.286494,1036.288319
1453.539001,-9770.718434,-2451.505594,740.205942
1453.539312,-4737.318029,-3753.867940,-296.082377
1453.539623,-1184.329507,-2757.943793,-1924.535449
1453.539934,-1110.308913,-2451.505594,-3256.906145
1453.540246,-2516.700203,-3370.820191,-1036.288319
1453.540557,-6069.688724,-3217.601092,1702.473667
1453.540868,-11103.089130,-3217.601092,4367.215058
1453.541180,-14285.974681,-3677.258390,5847.626942
1453.541491,-13397.727550,-4366.744339,6217.729913
1453.541802,-8882.471304,-3064.381992,4293.194464
1453.542113,-5773.606348,-1838.629195,592.164754
1453.542425,-4737.318029,-306.438199,-2738.761985
1453.542736,-3034.844362,995.924147,-4293.194464
1453.543047,-2294.638420,919.314598,-3775.050304
1453.543359,-2516.700203,0.000000,-1776.494261
1453.543670,-6217.729913,-3217.601092,1036.288319
1453.543981,-8586.388927,-6511.811733,2368.659014
1453.544292,-8512.368333,-7431.126331,4219.173869
1453.544604,-8290.306550,-7354.516781,5181.441594
1453.544915,-7846.182985,-8044.002729,3478.967927
1453.545226,-9326.594869,-9882.631924,1406.391290
1453.545537,-9918.759623,-10878.556072,592.164754
1453.545849,-9770.718434,-6971.469032,-666.185348
1453.546160,-10140.821405,-1608.800546,-518.144159
1453.546471,-11917.315666,-1225.752797,-518.144159
1453.546783,-13101.645173,-4366.744339,1184.329507
1453.547094,-11769.274478,-5056.230287,1628.453072
1453.547405,-9696.697840,-919.314598,740.205942
1453.547716,-7994.224174,1225.752797,-444.123565
1453.548028,-6735.874072,0.000000,-1924.535449
1453.548339,-6365.771101,-2298.286494,-2368.659014
1453.548650,-7402.059420,-3064.381992,-3108.864956
1453.548962,-10584.944971,-919.314598,-2368.659014
1453.549273,-14359.995275,1378.971896,-592.164754
1453.549584,-16432.571912,1149.143247,1258.350101
1453.549895,-15692.365970,-2145.067394,2738.761985
1453.550207,-14211.954086,-4290.134789,1776.494261
1453.550518,-11177.109724,-3524.039291,740.205942
1453.550829,-7550.100608,-153.219100,-666.185348
1453.551141,-4145.153275,1225.752797,-2368.659014
1453.551452,-3256.906145,306.438199,-3182.885551
1453.551763,-5329.482782,-2068.457845,-2590.720797
1453.552074,-5921.647536,-4060.306139,-740.205942
1453.552386,-7550.100608,-3753.867940,1850.514855
1453.552697,-10732.986159,-3600.648841,3404.947333
1453.553008,-13471.748144,-3524.039291,4071.132681
1453.553319,-14285.974681,-3830.477490,4515.256246
1453.553631,-11843.295072,-2604.724693,3478.967927
1453.553942,-8586.388927,-1149.143247,2442.679609
1453.554253,-4367.215058,0.000000,518.144159
1453.554565,-2960.823768,-459.657299,-740.205942
1453.554876,-2146.597232,-229.828649,-1776.494261
1453.555187,-666.185348,-459.657299,-1998.556043
1453.555498,-444.123565,-2451.505594,-0.000000
1453.555810,-2516.700203,-5515.887586,296.082377
1453.556121,-6513.812290,-7354.516781,1628.453072
1453.556432,-10362.883188,-6128.763984,1924.535449
1453.556744,-12509.480420,-3830.477490,2664.741391
1453.557055,-14211.954086,-3294.210641,3478.967927
1453.557366,-14582.057057,-4673.182538,4071.132681
1453.557677,-13323.706956,-4979.620737,4367.215058
1453.557989,-10658.965565,-4903.011187,2738.761985
1453.558300,-7846.182985,-4060.306139,814.226536
1453.558611,-5033.400406,-1762.019645,-1406.391290
1453.558922,-3404.947333,-1302.362347,-3034.844362
1453.559234,-3330.926739,-2604.724693,-3256.906145
1453.559545,-5551.544565,-4519.963438,-2146.597232
1453.559856,-6957.935855,-4673.182538,-222.061783
1453.560168,-9844.739029,-4979.620737,518.144159
1453.560479,-13027.624579,-5592.497135,1850.514855
1453.560790,-15692.365970,-5592.497135,2072.576638
1453.561101,-16728.654289,-4673.182538,2516.700203
1453.561413,-16136.489536,-3600.648841,2738.761985
1453.561724,-14359.995275,-3830.477490,1702.473667
1453.562035,-11325.150913,-3064.381992,666.185348
1453.562347,-8586.388927,-3294.210641,-1184.329507
1453.562658,-4737.318029,-4979.620737,-1258.350101
1453.562969,-2590.720797,-6052.154434,-1702.473667
1453.563280,-3923.091493,-6358.592633,-1850.514855
1453.563592,-6217.729913,-5592.497135,-1628.453072
1453.563903,-8068.244768,-3983.696590,-814.226536
1453.564214,-11843.295072,-2451.505594,888.247130
1453.564525,-14878.139434,-2451.505594,1850.514855
1453.564837,-15766.386565,-1378.971896,3108.864956
1453.565148,-14211.954086,-1762.019645,2072.576638
1453.565459,-11103.089130,-766.095498,1110.308913
1453.565771,-7624.121203,0.000000,-518.144159
1453.566082,-5699.585753,76.609550,-2368.659014
1453.566393,-3775.050304,842.705048,-2368.659014
1453.566704,-3330.926739,0.000000,-2590.720797
1453.567016,-4663.297435,153.219100,-1110.308913
1453.567327,-5699.585753,-1149.143247,-222.061783
1453.567638,-7031.956449,-2528.115143,666.185348
1453.567950,-7105.977043,-3830.477490,1554.432478
1453.568261,-7402.059420,-3600.648841,1776.494261
1453.568572,-8290.306550,-3600.648841,1776.494261
1453.568883,-11103.089130,-4290.134789,888.247130
1453.569195,-11769.274478,-3370.820191,1850.514855
1453.569506,-11843.295072,-2451.505594,962.267725
1453.569817,-10881.027347,-1838.629195,518.144159
1453.570129,-8438.347739,-1455.581446,518.144159
1453.570440,-6143.709319,-1915.238745,148.041188
1453.570751,-4737.318029,-3140.991542,-148.041188
1453.571062,-4293.194464,-3064.381992,-0.000000
1453.571374,-4885.359217,-2451.505594,296.082377
1453.571685,-6365.771101,-2298.286494,814.226536
1453.571996,-7920.203579,-3064.381992,1554.432478
1453.572307,-9918.759623,-3217.601092,1554.432478
1453.572619,-11843.295072,-4366.744339,2368.659014
1453.572930,-12583.501014,-4903.011187,2516.700203
1453.573241,-11769.274478,-5132.839837,2812.782580
1453.573553,-11769.274478,-5286.058936,1406.391290
1453.573864,-11325.150913,-3830.477490,740.205942
1453.574175,-10214.842000,-2068.457845,-444.123565
1453.574486,-8882.471304,-995.924147,-592.164754
1453.574798,-7550.100608,0.000000,-222.061783
1453.575109,-7846.182985,0.000000,296.082377
1453.575420,-7920.203579,-1149.143247,1110.308913
1453.575732,-7846.182985,-1915.238745,1924.535449
1453.576043,-8660.409521,-3064.381992,1702.473667
1453.576354,-9400.615463,-3294.210641,1776.494261
1453.576665,-9844.739029,-4443.353888,888.247130
1453.576977,-10584.944971,-3907.087040,-0.000000
1453.577288,-11177.109724,-4290.134789,-0.000000
1453.577599,-11473.192101,-4443.353888,-0.000000
1453.577910,-10807.006753,-5439.278036,-0.000000
1453.578222,-9326.594869,-5745.716235,888.247130
1453.578533,-7550.100608,-5209.449386,962.267725
1453.578844,-6513.812290,-3907.087040,888.247130
1453.579156,-5921.647536,-3830.477490,666.185348
1453.579467,-6291.750507,-3447.429741,518.144159
1453.579778,-7105.977043,-2221.676944,1036.288319
1453.580089,-7550.100608,-1378.971896,1110.308913
1453.580401,-8808.450710,-1762.019645,814.226536
1453.580712,-9696.697840,-2604.724693,592.164754
1453.581023,-9992.780217,-3064.381992,-0.000000
1453.581335,-9400.615463,-2298.286494,-592.164754
1453.581646,-8364.327145,-1762.019645,-1036.288319
1453.581957,-7846.182985,-1685.410096,-1110.308913
1453.582268,-9474.636058,-2834.553343,-1332.370696
1453.582580,-7105.977043,-1991.848295,222.061783
1453.582891,-6957.935855,-2298.286494,-666.185348
1453.583202,-7698.141797,-3064.381992,666.185348
1453.583513,-9548.656652,-3983.696590,962.267725
1453.583825,-10881.027347,-2757.943793,1850.514855
1453.584136,-9844.739029,-1608.800546,1628.453072
1453.584447,-9548.656652,-1532.190996,2146.597232
1453.584759,-9770.718434,-2681.334243,1702.473667
1453.585070,-9326.594869,-3370.820191,518.144159
1453.585381,-9030.512492,-2834.553343,296.082377
1453.585692,-8808.450710,-1225.752797,518.144159
1453.586004,-10510.924376,-306.438199,444.123565
1453.586315,-12213.398043,153.219100,444.123565
1453.586626,-10881.027347,0.000000,2368.659014
1453.586938,-10214.842000,-1762.019645,1924.535449
1453.587249,-7328.038826,-842.705048,3552.988522
1453.587560,-8438.347739,-1072.533697,2072.576638
1453.587871,-8068.244768,-2987.772442,3775.050304
1453.588183,-9104.533087,-4366.744339,3849.070898
1453.588494,-9252.574275,-2221.676944,4737.318029
1453.588805,-9622.677246,-383.047749,5107.421000
1453.589117,-11769.274478,-1378.971896,4219.173869
1453.589428,-9474.636058,-1378.971896,5033.400406
1453.589739,-7328.038826,229.828649,2812.782580
1453.590050,-6661.853478,1455.581446,3404.947333
1453.590362,-6217.729913,919.314598,3330.926739
1453.590673,-7476.080014,-842.705048,2886.803174
1453.590984,-7624.121203,-383.047749,4071.132681
1453.591295,-6809.894666,306.438199,4811.338623
1453.591607,-10584.944971,-919.314598,4515.256246
1453.591918,-10510.924376,0.000000,7031.956449
1453.592229,-10362.883188,-459.657299,5625.565159
1453.592541,-8142.265362,-1072.533697,6069.688724
1453.592852,-7476.080014,-229.828649,4737.318029
1453.593163,-7920.203579,383.047749,4293.194464
1453.593474,-6291.750507,1532.190996,4145.153275
1453.593786,-5773.606348,995.924147,3034.844362
1453.594097,-6439.791695,1608.800546,3923.091493
1453.594408,-9030.512492,2068.457845,3997.112087
1453.594720,-9622.677246,1455.581446,5255.462188
1453.595031,-8956.491898,229.828649,5403.503377
1453.595342,-8142.265362,0.000000,5403.503377
1453.595653,-8068.244768,-919.314598,5033.400406
1453.595965,-8142.265362,-2298.286494,4737.318029
1453.596276,-8364.327145,-1915.238745,4515.256246
1453.596587,-7994.224174,0.000000,5181.441594
1453.596898,-8438.347739,842.705048,4071.132681
1453.597210,-9696.697840,1455.581446,4145.153275
1453.597521,-10214.842000,995.924147,3701.029710
1453.597832,-8808.450710,2451.505594,4441.235652
1453.598144,-8216.285956,1838.629195,3701.029710
1453.598455,-7624.121203,-153.219100,3923.091493
1453.598766,-7624.121203,-919.314598,3404.947333
1453.599077,-6957.935855,-1072.533697,2812.782580
1453.599389,-5773.606348,-459.657299,2738.761985
1453.599700,-7402.059420,-1072.533697,2294.638420
1453.600011,-9252.574275,-536.266849,3330.926739
1453.600323,-10807.006753,-229.828649,3330.926739
1453.600634,-10658.965565,-536.266849,3849.070898
1453.600945,-11843.295072,536.266849,3404.947333
1453.601256,-11621.233289,689.485948,2812.782580
1453.601568,-10288.862594,842.705048,2146.597232
1453.601879,-9104.533087,459.657299,1702.473667
1453.602190,-8216.285956,1072.533697,1628.453072
1453.602501,-9104.533087,459.657299,1924.535449
1453.602813,-10140.821405,-1225.752797,2960.823768
1453.603124,-9918.759623,-1378.971896,3849.070898
1453.603435,-9992.780217,-2221.676944,4145.153275
1453.603747,-9326.594869,-1838.629195,4515.256246
1453.604058,-8882.471304,-2221.676944,3552.988522
1453.604369,-7920.203579,-1762.019645,2590.720797
1453.604680,-5921.647536,-1072.533697,1406.391290
1453.604992,-5699.585753,0.000000,-444.123565
1453.605303,-7328.038826,459.657299,-0.000000
1453.605614,-10584.944971,536.266849,666.185348
1453.605926,-12731.542202,766.095498,2442.679609
1453.606237,-14656.077652,153.219100,4071.132681
1453.606548,-14656.077652,-383.047749,4589.276840
1453.606859,-12509.480420,-919.314598,4293.194464
1453.607171,-8290.306550,-612.876398,3552.988522
1453.607482,-3849.070898,-1225.752797,1110.308913
1453.607793,-2072.576638,-995.924147,-0.000000
1453.608104,-2294.638420,-1072.533697,-296.082377
1453.608416,-5255.462188,-459.657299,370.102971
1453.608727,-9326.594869,536.266849,1924.535449
1453.609038,-12435.459826,1685.410096,3775.050304
1453.609350,-14730.098246,1838.629195,5107.421000
1453.609661,-15026.180623,1072.533697,5625.565159
1453.609972,-12139.377449,0.000000,4811.338623
1453.610283,-7920.203579,-229.828649,3478.967927
1453.610595,-4441.235652,-306.438199,1332.370696
1453.610906,-3478.967927,536.266849,222.061783
1453.611217,-3108.864956,842.705048,296.082377
1453.611529,-5255.462188,689.485948,1184.329507
1453.611840,-9104.533087,995.924147,3108.864956
1453.612151,-13027.624579,919.314598,4219.173869
1453.612462,-14359.995275,612.876398,5847.626942
1453.612774,-12805.562797,76.609550,5995.668130
1453.613085,-10510.924376,-766.095498,5107.421000
1453.613396,-8142.265362,-2374.896044,4515.256246
1453.613708,-5847.626942,-1608.800546,3849.070898
1453.614019,-5773.606348,-1225.752797,4219.173869
1453.614330,-6735.874072,-612.876398,5403.503377
1453.614641,-9696.697840,0.000000,6513.812290
1453.614953,-11843.295072,-229.828649,8068.244768
1453.615264,-11103.089130,-229.828649,7624.121203
1453.615575,-9326.594869,612.876398,5625.565159
1453.615886,-6735.874072,2528.115143,4145.153275
1453.616198,-5033.400406,2911.162892,1776.494261
1453.616509,-4737.318029,2757.943793,962.267725
1453.616820,-5847.626942,2451.505594,1480.411884
1453.617132,-8808.450710,1685.410096,3182.885551
1453.617443,-11917.315666,-153.219100,6069.688724
1453.617754,-13619.789333,-2451.505594,7920.203579
1453.618065,-13619.789333,-3294.210641,8956.491898
1453.618377,-11769.274478,-2604.724693,9474.636058
1453.618688,-9622.677246,-1838.629195,8364.327145
1453.618999,-6809.894666,-1072.533697,6439.791695
1453.619311,-4589.276840,0.000000,3701.029710
1453.619622,-2960.823768,2374.896044,1406.391290
1453.619933,-2368.659014,2834.553343,740.205942
1453.620244,-3701.029710,3983.696590,592.164754
1453.620556,-6661.853478,3524.039291,1776.494261
1453.620867,-9030.512492,1455.581446,2960.823768
1453.621178,-10807.006753,-689.485948,4589.276840
1453.621489,-12435.459826,-1762.019645,5551.544565
1453.621801,-13619.789333,-2451.505594,5995.668130
1453.622112,-13323.706956,-2068.457845,5551.544565
1453.622423,-11473.192101,-1302.362347,5033.400406
1453.622735,-9474.636058,-689.485948,4367.215058
1453.623046,-7698.141797,-612.876398,4737.318029
1453.623357,-5847.626942,-306.438199,3849.070898
1453.623669,-3627.009116,153.219100,3330.926739
1453.623980,-2590.720797,306.438199,1924.535449
1453.624291,-2738.761985,0.000000,592.164754
1453.624602,-4367.215058,536.266849,-444.123565
1453.624914,-7772.162391,0.000000,-1258.350101
1453.625225,-12583.501014,-995.924147,740.205942
1453.625536,-17024.736666,-383.047749,3627.009116
1453.625848,-20207.622217,-919.314598,5181.441594
1453.626159,-19393.395680,-995.924147,6365.771101
1453.626470,-15100.201217,-842.705048,5699.585753
1453.626782,-10066.800811,-612.876398,4959.379811
1453.627093,-4515.256246,-306.438199,3108.864956
1453.627404,-888.247130,76.609550,370.102971
1453.627715,296.082377,1762.019645,-2812.782580
1453.628027,444.123565,1685.410096,-4145.153275
1453.628338,-2664.741391,1302.362347,-3256.906145
1453.628649,-8808.450710,689.485948,-1850.514855
1453.628961,-15248.242405,-153.219100,2146.597232
1453.629272,-20799.786970,-919.314598,5699.585753
1453.629583,-23020.404796,-1455.581446,8216.285956
1453.629895,-20429.683999,-1225.752797,9030.512492
1453.630206,-14285.974681,-1762.019645,7476.080014
1453.630517,-7105.977043,-1302.362347,5625.565159
1453.630828,0.000000,-153.219100,888.247130
1453.631140,4737.318029,1302.362347,-2146.597232
1453.631451,5255.462188,2681.334243,-4071.132681
1453.631762,148.041188,3907.087040,-1554.432478
1453.632074,-8142.265362,1455.581446,1628.453072
1453.632385,-15248.242405,0.000000,4515.256246
1453.632696,-18653.189738,-1225.752797,6809.894666
1453.633007,-17838.963202,-1225.752797,7624.121203
1453.633319,-14359.995275,-1072.533697,8290.306550
1453.633630,-11177.109724,-2757.943793,7105.977043
1453.633941,-7550.100608,-3140.991542,4663.297435
1453.634253,-3182.885551,-1685.410096,3182.885551
1453.634564,0.000000,76.609550,3034.844362
1453.634875,-962.267725,1149.143247,1850.514855
1453.635187,-4737.318029,1225.752797,2072.576638
1453.635498,-9400.615463,1532.190996,3182.885551
1453.635809,-11621.233289,2068.457845,3849.070898
1453.636120,-12065.356855,2451.505594,4589.276840
1453.636432,-12139.377449,1455.581446,4515.256246
1453.636743,-12213.398043,-995.924147,4145.153275
1453.637054,-11325.150913,-2298.286494,4737.318029
1453.637366,-8734.430116,-459.657299,5255.462188
1453.637677,-8364.327145,842.705048,6809.894666
1453.637988,-8882.471304,153.219100,7402.059420
1453.638300,-9178.553681,-1225.752797,7328.038826
1453.638611,-6809.894666,-766.095498,5255.462188
1453.638922,-2146.597232,1915.238745,2368.659014
1453.639233,-1406.391290,3370.820191,-740.205942
1453.639545,-2368.659014,3447.429741,-2368.659014
1453.639856,-4737.318029,1991.848295,-2590.720797
1453.640167,-7920.203579,306.438199,-0.000000
1453.640479,-13027.624579,-153.219100,5329.482782
1453.640790,-19615.457463,-1838.629195,8956.491898
1453.641101,-19985.560434,-3294.210641,11473.192101
1453.641412,-14285.974681,-5132.839837,9252.574275
1453.641724,-8142.265362,-4443.353888,5995.668130
1453.642035,-1924.535449,-1838.629195,1406.391290
1453.642346,592.164754,1072.533697,-2812.782580
1453.642658,1184.329507,3370.820191,-5181.441594
1453.642969,-888.247130,4596.572988,-4737.318029
1453.643280,-5995.668130,4596.572988,-2960.823768
1453.643592,-10436.903782,2528.115143,-0.000000
1453.643903,-13397.727550,76.609550,1184.329507
1453.644214,-12213.398043,-2911.162892,2812.782580
1453.644525,-11399.171507,-2834.553343,2368.659014
1453.644837,-11917.315666,-2987.772442,1258.350101
1453.645148,-13101.645173,-1762.019645,1036.288319
1453.645459,-15322.262999,-2145.067394,1924.535449
1453.645771,-14878.139434,-995.924147,1184.329507
1453.646082,-12139.377449,229.828649,666.185348
1453.646393,-8734.430116,0.000000,-3256.906145
1453.646705,-2886.803174,919.314598,-3775.050304
1453.647016,370.102971,-153.219100,-7698.141797
1453.647327,0.000000,229.828649,-6661.853478
1453.647638,-6513.812290,459.657299,-4589.276840
1453.647950,-14508.036463,-153.219100,-740.205942
1453.648261,-20059.581028,-536.266849,3478.967927
1453.648572,-22206.178260,-612.876398,4959.379811
1453.648884,-19467.416275,-1838.629195,3923.091493
1453.649195,-14211.954086,-1991.848295,1850.514855
1453.649506,-6957.935855,-1991.848295,-666.185348
1453.649817,-2146.597232,306.438199,-3256.906145
1453.650129,-666.185348,1225.752797,-5773.606348
1453.650440,-2812.782580,1532.190996,-4885.359217
1453.650751,-5625.565159,1685.410096,-3034.844362
1453.651063,-9030.512492,689.485948,-1702.473667
1453.651374,-11177.109724,153.219100,296.082377
1453.651685,-10214.842000,-1378.971896,1406.391290
1453.651997,-9178.553681,-3753.867940,518.144159
1453.652308,-7772.162391,-2911.162892,2146.597232
1453.652619,-9918.759623,-2757.943793,3627.009116
1453.652930,-12953.603985,-2681.334243,4811.338623
1453.653242,-14878.139434,-1838.629195,5033.400406
1453.653553,-12139.377449,0.000000,3404.947333
1453.653864,-6513.812290,2221.676944,1480.411884
1453.654176,-2146.597232,1455.581446,-2146.597232
1453.654487,666.185348,1838.629195,-4367.215058
1453.654798,296.082377,3524.039291,-5107.421000
1453.655110,-2960.823768,3064.381992,-3108.864956
1453.655421,-7105.977043,995.924147,-148.041188
1453.655732,-11029.068536,-1838.629195,2738.761985
1453.656043,-14582.057057,-2528.115143,4737.318029
1453.656355,-15322.262999,-2451.505594,5033.400406
1453.656666,-14804.118840,0.000000,4737.318029
1453.656977,-12583.501014,1608.800546,4219.173869
1453.657289,-9474.636058,1225.752797,3330.926739
1453.657600,-8216.285956,612.876398,666.185348
1453.657911,-5107.421000,1455.581446,-1406.391290
1453.658222,-2960.823768,3983.696590,-3997.112087
1453.658534,-2220.617826,3983.696590,-4367.215058
1453.658845,-3552.988522,1532.190996,-4071.132681
1453.659156,-8068.244768,-459.657299,-2960.823768
1453.659468,-12361.439231,-1991.848295,1110.308913
1453.659779,-17320.819043,-2681.334243,4885.359217
1453.660090,-20281.642811,-3064.381992,7254.018232
1453.660402,-18875.251521,-2681.334243,7402.059420
1453.660713,-13915.871710,-3830.477490,5329.482782
1453.661024,-6957.935855,-2987.772442,2368.659014
1453.661335,-2220.617826,76.609550,-296.082377
1453.661647,-1184.329507,3370.820191,-2294.638420
1453.661958,-1776.494261,3830.477490,-3478.967927
1453.662269,-3923.091493,3217.601092,-2886.803174
1453.662581,-5921.647536,1762.019645,-2368.659014
1453.662892,-7402.059420,1225.752797,-1702.473667
1453.663203,-8882.471304,459.657299,-1406.391290
1453.663515,-10881.027347,-1149.143247,-222.061783
1453.663826,-13989.892304,-2068.457845,2146.597232
1453.664137,-15544.324782,-2757.943793,4737.318029
1453.664448,-16062.468941,-3677.258390,6291.750507
1453.664760,-14211.954086,-3983.696590,6291.750507
1453.665071,-9622.677246,-3370.820191,4441.235652
1453.665382,-4737.318029,-1225.752797,444.123565
1453.665694,444.123565,612.876398,-2072.576638
1453.666005,3108.864956,1149.143247,-4959.379811
1453.666316,1258.350101,1455.581446,-5551.544565
1453.666628,-3627.009116,1838.629195,-4737.318029
1453.666939,-9104.533087,1378.971896,-2368.659014
1453.667250,-13619.789333,383.047749,-0.000000
1453.667561,-16728.654289,306.438199,2442.679609
1453.667873,-18801.230927,842.705048,3182.885551
1453.668184,-18061.024985,766.095498,3108.864956
1453.668495,-15470.304188,1225.752797,2664.741391
1453.668807,-10807.006753,1455.581446,296.082377
1453.669118,-5033.400406,842.705048,-2072.576638
1453.669429,-1036.288319,1149.143247,-4589.276840
1453.669740,370.102971,1838.629195,-4737.318029
1453.670052,-1110.308913,1455.581446,-4663.297435
1453.670363,-4663.297435,612.876398,-3182.885551
1453.670674,-9844.739029,-1762.019645,-1702.473667
1453.670986,-13027.624579,-2451.505594,1258.350101
1453.671297,-15322.262999,-1991.848295,3627.009116
1453.671608,-17468.860231,-2451.505594,4515.256246
1453.671920,-16654.633695,-2221.676944,4219.173869
1453.672231,-13397.727550,-1915.238745,1776.494261
1453.672542,-9622.677246,-306.438199,592.164754
1453.672853,-5847.626942,1838.629195,-666.185348
1453.673165,-6217.729913,2757.943793,-3256.906145
1453.673476,-5403.503377,3677.258390,-3182.885551
1453.673787,-4071.132681,2987.772442,-2368.659014
1453.674099,-4959.379811,919.314598,-444.123565
1453.674410,-6957.935855,-1991.848295,370.102971
1453.674721,-8142.265362,-3524.039291,666.185348
1453.675033,-9622.677246,-3907.087040,1184.329507
1453.675344,-11325.150913,-3370.820191,2368.659014
1453.675655,-13841.851115,-2451.505594,3108.864956
1453.675966,-14211.954086,-2221.676944,4589.276840
1453.676278,-13471.748144,-2221.676944,5699.585753
1453.676589,-10436.903782,-1378.971896,4589.276840
1453.676900,-7254.018232,0.000000,2146.597232
1453.677212,-2590.720797,2681.334243,-888.247130
1453.677523,1258.350101,4290.134789,-3775.050304
1453.677834,-518.144159,2528.115143,-3627.009116
1453.678145,-5699.585753,2528.115143,-3404.947333
1453.678457,-10510.924376,1608.800546,-962.267725
1453.678768,-13989.892304,306.438199,1776.494261
1453.679079,-14434.015869,-1685.410096,4737.318029
1453.679391,-14508.036463,-3294.210641,4219.173869
1453.679702,-14582.057057,-3294.210641,3701.029710
1453.680013,-12065.356855,-1915.238745,3923.091493
1453.680325,-9326.594869,0.000000,2664.741391
1453.680636,-5551.544565,1991.848295,1480.411884
1453.680947,-2368.659014,2221.676944,-888.247130
1453.681258,-518.144159,2451.505594,-3034.844362
1453.681570,148.041188,3294.210641,-3627.009116
1453.681881,-2220.617826,3217.601092,-4293.194464
1453.682192,-6957.935855,2987.772442,-2590.720797
1453.682504,-12805.562797,76.609550,-1110.308913
1453.682815,-17690.922014,-1685.410096,1924.535449
1453.683126,-20651.745782,-2068.457845,3404.947333
1453.683438,-19763.498651,-1838.629195,4589.276840
1453.683749,-16506.592507,-2298.286494,3923.091493
1453.684060,-11103.089130,-3140.991542,2516.700203
1453.684371,-5477.523971,-2145.067394,-0.000000
1453.684683,-814.226536,-229.828649,-1480.411884
1453.684994,-148.041188,919.314598,-3182.885551
1453.685305,0.000000,1838.629195,-2590.720797
1453.685617,-2664.741391,1762.019645,-2368.659014
1453.685928,-6217.729913,1225.752797,-1702.473667
1453.686239,-8956.491898,383.047749,-222.061783
1453.686550,-12953.603985,-766.095498,222.061783
1453.686862,-16876.695478,-1225.752797,3256.906145
1453.687173,-18949.272115,-536.266849,4737.318029
1453.687484,-19541.436869,-919.314598,5403.503377
1453.687796,-17024.736666,-1225.752797,7031.956449
1453.688107,-10955.047942,-3217.601092,4885.359217
1453.688418,-3182.885551,-3294.210641,296.082377
1453.688730,4071.132681,0.000000,-1924.535449
1453.689041,5181.441594,919.314598,-4515.256246
1453.689352,1184.329507,-383.047749,-4145.153275
1453.689663,-4145.153275,-306.438199,-2960.823768
1453.689975,-10881.027347,-229.828649,-444.123565
1453.690286,-14211.954086,383.047749,4663.297435
1453.690597,-18431.127956,-229.828649,5625.565159
1453.690909,-18801.230927,-383.047749,6587.832884
1453.691220,-13767.830521,-995.924147,4441.235652
1453.691531,-9770.718434,-612.876398,2664.741391
1453.691843,-5995.668130,2604.724693,962.267725
1453.692154,-5773.606348,4136.915689,-1850.514855
1453.692465,-4367.215058,2757.943793,-2886.803174
1453.692776,-1702.473667,3524.039291,-3256.906145
1453.693088,-2590.720797,2834.553343,-4293.194464
1453.693399,-3478.967927,2221.676944,-3552.988522
1453.693710,-6439.791695,766.095498,-2590.720797
1453.694022,-10066.800811,-612.876398,148.041188
1453.694333,-14211.954086,-2298.286494,3182.885551
1453.694644,-17616.901420,-3370.820191,4663.297435
1453.694956,-17320.819043,-2681.334243,6587.832884
1453.695267,-14582.057057,-1225.752797,4811.338623
1453.695578,-10362.883188,-383.047749,2146.597232
1453.695889,-6513.812290,0.000000,-592.164754
1453.696201,-4219.173869,612.876398,-2960.823768
1453.696512,-2738.761985,1455.581446,-3256.906145
1453.696823,-4737.318029,1838.629195,-4811.338623
1453.697135,-5107.421000,2528.115143,-2812.782580
1453.697446,-7994.224174,-153.219100,-2960.823768
1453.697757,-10066.800811,-2681.334243,-74.020594
1453.698068,-11325.150913,-4136.915689,2590.720797
1453.698380,-13471.748144,-4060.306139,3552.988522
1453.698691,-15618.345376,-3677.258390,5625.565159
1453.699002,-17098.757260,-3370.820191,5773.606348
1453.699314,-15618.345376,-2911.162892,4959.379811
1453.699625,-10066.800811,-1225.752797,2368.659014
1453.699936,-5921.647536,1685.410096,-148.041188
1453.700248,-2146.597232,3064.381992,-2442.679609
1453.700559,1110.308913,3370.820191,-5699.585753
1453.700870,1110.308913,3524.039291,-6883.915261
1453.701181,-1998.556043,2451.505594,-4811.338623
1453.701493,-7698.141797,1225.752797,-1480.411884
1453.701804,-13693.809927,995.924147,1480.411884
1453.702115,-18505.148550,-306.438199,4737.318029
1453.702427,-19763.498651,-1378.971896,6809.894666
1453.702738,-17987.004391,-2374.896044,7031.956449
1453.703049,-14285.974681,-2604.724693,5329.482782
1453.703361,-8882.471304,-1532.190996,2812.782580
1453.703672,-3997.112087,0.000000,148.041188
1453.703983,-740.205942,1991.848295,-3034.844362
1453.704294,1406.391290,3600.648841,-4589.276840
1453.704606,814.226536,1532.190996,-4293.194464
1453.704917,-1776.494261,1532.190996,-2220.617826
1453.705228,-6069.688724,766.095498,-888.247130
1453.705540,-10584.944971,1455.581446,1184.329507
1453.705851,-14508.036463,612.876398,3627.009116
1453.706162,-18061.024985,-842.705048,5033.400406
1453.706473,-18209.066173,-766.095498,6143.709319
1453.706785,-16950.716072,-1225.752797,5403.503377
1453.707096,-12435.459826,-2068.457845,4885.359217
1453.707407,-7402.059420,-1915.238745,1776.494261
1453.707719,-2960.823768,-383.047749,-1702.473667
1453.708030,1628.453072,76.609550,-2886.803174
1453.708341,1702.473667,76.609550,-3701.029710
1453.708653,-2294.638420,1685.410096,-2442.679609
1453.708964,-7328.038826,1762.019645,-148.041188
1453.709275,-11473.192101,-306.438199,2368.659014
1453.709586,-13249.686362,-1915.238745,4367.215058
1453.709898,-13323.706956,-2068.457845,3775.050304
1453.710209,-14137.933492,-229.828649,3627.009116
1453.710520,-15026.180623,612.876398,4145.153275
1453.710832,-14656.077652,-383.047749,3478.967927
1453.711143,-12213.398043,-766.095498,2146.597232
1453.711454,-8068.244768,306.438199,2220.617826
1453.711766,-5403.503377,0.000000,-0.000000
1453.712077,-1850.514855,229.828649,-1406.391290
1453.712388,-1406.391290,153.219100,-3997.112087
1453.712699,-1110.308913,-306.438199,-3775.050304
1453.713011,-3627.009116,-995.924147,-2812.782580
1453.713322,-9252.574275,-766.095498,-0.000000
1453.713633,-14730.098246,-919.314598,1776.494261
1453.713945,-18505.148550,-2068.457845,3849.070898
1453.714256,-19097.313304,-1532.190996,5551.544565
1453.714567,-16580.613101,-536.266849,3849.070898
1453.714878,-11251.130318,-229.828649,2072.576638
1453.715190,-5625.565159,536.266849,-592.164754
1453.715501,-2812.782580,1378.971896,-3775.050304
1453.715812,-2220.617826,3294.210641,-5477.523971
1453.716124,-2146.597232,4749.792088,-5995.668130
1453.716435,-3701.029710,4366.744339,-3923.091493
1453.716746,-6143.709319,1762.019645,-2220.617826
1453.717058,-10066.800811,-1608.800546,-2960.823768
1453.717369,-12805.562797,-1838.629195,-148.041188
1453.717680,-15100.201217,-1608.800546,1776.494261
1453.717991,-15692.365970,-1608.800546,2960.823768
1453.718303,-15396.283594,-2451.505594,2442.679609
1453.718614,-12287.418637,-2145.067394,2146.597232
1453.718925,-8734.430116,-1455.581446,666.185348
1453.719237,-4737.318029,-229.828649,-1258.350101
1453.719548,-296.082377,2298.286494,-3775.050304
1453.719859,444.123565,2987.772442,-5477.523971
1453.720171,-2220.617826,1685.410096,-4441.235652
1453.720482,-7402.059420,1225.752797,-2812.782580
1453.720793,-12879.583391,689.485948,-296.082377
1453.721105,-16136.489536,383.047749,2146.597232
1453.721416,-16728.654289,-2145.067394,3923.091493
1453.721727,-16210.510130,-3677.258390,4811.338623
1453.722039,-14137.933492,-5056.230287,3478.967927
1453.722350,-9770.718434,-4826.401637,2812.782580
1453.722662,-6883.915261,-3140.991542,1554.432478
1453.722973,-5107.421000,-383.047749,1480.411884
1453.723285,-4737.318029,842.705048,740.205942
1453.723596,-4885.359217,76.609550,-222.061783
1453.723907,-4293.194464,1149.143247,-518.144159
1453.724219,-4441.235652,1762.019645,-1628.453072
1453.724530,-6291.750507,3600.648841,-2368.659014
1453.724842,-8808.450710,2681.334243,-74.020594
1453.725153,-12287.418637,-459.657299,1480.411884
1453.725465,-16136.489536,-1991.848295,3627.009116
1453.725776,-18801.230927,-689.485948,6957.935855
1453.726087,-18505.148550,689.485948,7846.182985
1453.726399,-14434.015869,766.095498,7105.977043
1453.726710,-7920.203579,-1838.629195,4737.318029
1453.727022,444.123565,-1149.143247,-0.000000
1453.727333,5847.626942,2298.286494,-4071.132681
1453.727645,7105.977043,4749.792088,-4959.379811
1453.727956,2146.597232,4366.744339,-4959.379811
1453.728267,-5329.482782,2451.505594,-2442.679609
1453.728579,-12139.377449,459.657299,666.185348
1453.728890,-16358.551318,-766.095498,3552.988522
1453.729202,-18135.045579,-536.266849,6069.688724
1453.729513,-18357.107362,-919.314598,5699.585753
1453.729825,-16062.468941,-2604.724693,3997.112087
1453.730136,-11103.089130,-2757.943793,2664.741391
1453.730447,-7772.162391,-1072.533697,1332.370696
1453.730759,-5255.462188,76.609550,-148.041188
1453.731070,-1924.535449,383.047749,-2812.782580
1453.731382,-370.102971,229.828649,-5255.462188
1453.731693,-296.082377,1302.362347,-6143.709319
1453.732005,-3034.844362,1991.848295,-4737.318029
1453.732316,-8068.244768,1225.752797,-2516.700203
1453.732627,-14878.139434,-76.609550,1776.494261
1453.732939,-21169.889941,-3140.991542,4219.173869
1453.733250,-22354.219448,-2681.334243,5699.585753
1453.733562,-18949.272115,-536.266849,4071.132681
1453.733873,-11695.253884,-153.219100,2220.617826
1453.734185,-5921.647536,-842.705048,-518.144159
1453.734496,-3330.926739,-536.266849,-3404.947333
1453.734807,-1110.308913,2068.457845,-3997.112087
1453.735119,-1110.308913,2834.553343,-3627.009116
1453.735430,-4145.153275,1532.190996,-2368.659014
1453.735742,-7994.224174,0.000000,-2146.597232
1453.736053,-10807.006753,-1532.190996,-2516.700203
1453.736365,-11325.150913,-1225.752797,-1184.329507
1453.736676,-12213.398043,-383.047749,1110.308913
1453.736987,-14804.118840,-2221.676944,2664.741391
1453.737299,-15988.448347,-3907.087040,4737.318029
1453.737610,-15544.324782,-4826.401637,5773.606348
1453.737922,-13249.686362,-3140.991542,5921.647536
1453.738233,-7698.141797,536.266849,2368.659014
1453.738545,-2664.741391,2604.724693,-1776.494261
1453.738856,1998.556043,3140.991542,-3997.112087
1453.739167,2368.659014,3370.820191,-6217.729913
1453.739479,-592.164754,4673.182538,-5403.503377
1453.739790,-5625.565159,4596.572988,-4071.132681
1453.740102,-11177.109724,2374.896044,-148.041188
1453.740413,-14285.974681,-1378.971896,3108.864956
1453.740725,-16728.654289,-3447.429741,4293.194464
1453.741036,-16210.510130,-3677.258390,5477.523971
1453.741347,-13619.789333,-2451.505594,4885.359217
1453.741659,-11251.130318,-2068.457845,2738.761985
1453.741970,-7550.100608,229.828649,2294.638420
1453.742282,-5995.668130,459.657299,592.164754
1453.742593,-3997.112087,0.000000,-1924.535449
1453.742905,-1628.453072,2528.115143,-3997.112087
1453.743216,-592.164754,4136.915689,-5847.626942
1453.743527,-1258.350101,3753.867940,-5699.585753
1453.743839,-4885.359217,-383.047749,-4441.235652
1453.744150,-12065.356855,-2298.286494,-1406.391290
1453.744462,-18061.024985,-1608.800546,4293.194464
1453.744773,-23242.466579,-2068.457845,7550.100608
1453.745085,-23834.631332,-3217.601092,8290.306550
1453.745396,-18949.272115,-4060.306139,5773.606348
1453.745707,-10510.924376,-2987.772442,3330.926739
1453.746019,-1850.514855,-1302.362347,-296.082377
1453.746330,2664.741391,1685.410096,-4885.359217
1453.746642,3701.029710,2451.505594,-6291.750507
1453.746953,-370.102971,1532.190996,-6069.688724
1453.747265,-5773.606348,842.705048,-3552.988522
1453.747576,-11769.274478,842.705048,-2220.617826
1453.747887,-16210.510130,-612.876398,-222.061783
1453.748199,-16580.613101,-1838.629195,2220.617826
1453.748510,-18727.210333,-2451.505594,3108.864956
1453.748822,-17394.839637,-1915.238745,4959.379811
1453.749133,-16210.510130,-1762.019645,6661.853478
1453.749445,-13175.665768,-1838.629195,6365.771101
1453.749756,-7846.182985,0.000000,3552.988522
1453.750067,-2960.823768,1532.190996,-74.020594
1453.750379,2220.617826,3294.210641,-3404.947333
1453.750690,5033.400406,4673.182538,-4959.379811
1453.751002,2072.576638,5209.449386,-5255.462188
1453.751313,-3256.906145,3600.648841,-3478.967927
1453.751625,-9696.697840,1302.362347,-962.267725
1453.751936,-14582.057057,-919.314598,3182.885551
1453.752247,-15914.427753,-2068.457845,5551.544565
1453.752559,-16358.551318,-2528.115143,5329.482782
1453.752870,-15100.201217,-1532.190996,5403.503377
1453.753182,-13323.706956,-1685.410096,5181.441594
1453.753493,-9474.636058,0.000000,3997.112087
1453.753805,-5773.606348,1149.143247,3478.967927
1453.754116,-4737.318029,1225.752797,1628.453072
1453.754427,-1776.494261,0.000000,-0.000000
1453.754739,518.144159,-229.828649,-3182.885551
1453.755050,1628.453072,459.657299,-4367.215058
1453.755362,-1184.329507,536.266849,-4219.173869
1453.755673,-7698.141797,-766.095498,-296.082377
1453.755985,-13989.892304,-2911.162892,3997.112087
1453.756296,-20429.683999,-3830.477490,7624.121203
1453.756607,-22724.322419,-2681.334243,9844.739029
1453.756919,-19911.539840,-1072.533697,8364.327145
1453.757230,-12287.418637,306.438199,4811.338623
1453.757542,-3627.009116,459.657299,592.164754
1453.757853,888.247130,1915.238745,-4589.276840
1453.758165,1702.473667,4213.525239,-6365.771101
1453.758476,-888.247130,4903.011187,-4885.359217
1453.758787,-5847.626942,2757.943793,-3182.885551
1453.759099,-10584.944971,-536.266849,-370.102971
1453.759410,-14137.933492,-2757.943793,2146.597232
1453.759722,-15322.262999,-4366.744339,3108.864956
1453.760033,-15396.283594,-4979.620737,3478.967927
1453.760345,-14656.077652,-3524.039291,3923.091493
1453.760656,-13397.727550,-1149.143247,3108.864956
1453.760967,-12509.480420,-919.314598,5255.462188
1453.761279,-11843.295072,-1378.971896,2294.638420
1453.761590,-8660.409521,1149.143247,-666.185348
1453.761902,-1480.411884,4290.134789,-4219.173869
1453.762213,2960.823768,4903.011187,-6957.935855
1453.762525,1850.514855,3217.601092,-8438.347739
1453.762836,-4145.153275,2298.286494,-6809.894666
1453.763147,-10362.883188,766.095498,-3997.112087
1453.763459,-15692.365970,-229.828649,962.267725
1453.763770,-19689.478057,-1915.238745,4219.173869
1453.764082,-20503.704593,-3370.820191,5403.503377
1453.764393,-17468.860231,-3753.867940,4219.173869
1453.764705,-11251.130318,-2221.676944,1924.535449
1453.765016,-5625.565159,1149.143247,-518.144159
1453.765327,-2072.576638,3140.991542,-1406.391290
1453.765639,-1628.453072,2451.505594,-3108.864956
1453.765950,-3182.885551,459.657299,-3256.906145
1453.766262,-3330.926739,766.095498,-4293.194464
1453.766573,-4293.194464,2374.896044,-5181.441594
1453.766885,-5181.441594,2451.505594,-3775.050304
1453.767196,-9622.677246,-229.828649,-2220.617826
1453.767507,-14434.015869,-2834.553343,1332.370696
1453.767819,-19245.354492,-4060.306139,5107.421000
1453.768130,-21762.054695,-2145.067394,8586.388927
1453.768442,-19763.498651,-689.485948,8660.409521
1453.768753,-12805.562797,-1302.362347,5329.482782
1453.769065,-4515.256246,-1455.581446,888.247130
1453.769376,2146.597232,612.876398,-2442.679609
1453.769687,4811.338623,2374.896044,-5181.441594
1453.769999,2664.741391,3370.820191,-5329.482782
1453.770310,-2220.617826,2374.896044,-2442.679609
1453.770622,-9104.533087,-919.314598,740.205942
1453.770933,-14730.098246,-2834.553343,4293.194464
1453.771245,-17616.901420,-2681.334243,5995.668130
1453.771556,-17616.901420,-2145.067394,6513.812290
1453.771867,-16284.530724,-1991.848295,6439.791695
1453.772179,-14063.912898,-1991.848295,6217.729913
1453.772490,-11547.212695,-1302.362347,5033.400406
1453.772802,-7772.162391,-383.047749,4293.194464
1453.773113,-3330.926739,1072.533697,2294.638420
1453.773425,592.164754,1915.238745,-1702.473667
1453.773736,3182.885551,3217.601092,-5033.400406
1453.774047,2812.782580,3294.210641,-5625.565159
1453.774359,-1998.556043,3064.381992,-2886.803174
1453.774670,-9992.780217,2451.505594,-148.041188
1453.774982,-16358.551318,919.314598,4367.215058
1453.775293,-20429.683999,-1455.581446,6735.874072
1453.775605,-19985.560434,-1685.410096,7846.182985
1453.775916,-15470.304188,0.000000,5033.400406
1453.776227,-10510.924376,689.485948,2368.659014
1453.776539,-6143.709319,306.438199,740.205942
1453.776850,-3627.009116,-689.485948,-2368.659014
1453.777162,-740.205942,229.828649,-3552.988522
1453.777473,296.082377,1838.629195,-4367.215058
1453.777785,-2294.638420,1072.533697,-2516.700203
1453.778096,-7031.956449,-1915.238745,-2664.741391
1453.778407,-9992.780217,-2528.115143,-1184.329507
1453.778719,-12435.459826,-1608.800546,1110.308913
1453.779030,-14359.995275,-2451.505594,3330.926739
1453.779342,-16506.592507,-2451.505594,5255.462188
1453.779653,-18135.045579,-2987.772442,4663.297435
1453.779965,-15692.365970,-2298.286494,4367.215058
1453.780276,-11251.130318,0.000000,1702.473667
1453.780587,-5329.482782,2451.505594,-1036.288319
1453.780899,-2072.576638,3217.601092,-4737.318029
1453.781210,-666.185348,1608.800546,-6513.812290
1453.781522,-1554.432478,766.095498,-7105.977043
1453.781833,-4959.379811,2604.724693,-5403.503377
1453.782145,-7550.100608,2604.724693,-1406.391290
1453.782456,-13323.706956,-1838.629195,370.102971
1453.782767,-14952.160028,-4826.401637,3478.967927
1453.783079,-16580.613101,-4596.572988,3923.091493
1453.783390,-15766.386565,-2451.505594,4441.235652
1453.783702,-13767.830521,-919.314598,3404.947333
1453.784013,-12805.562797,383.047749,1924.535449
1453.784325,-8068.244768,-536.266849,1258.350101
1453.784636,-5699.585753,-536.266849,-1850.514855
1453.784947,-3034.844362,1608.800546,-3404.947333
1453.785259,518.144159,4136.915689,-5995.668130
1453.785570,1332.370696,3983.696590,-7328.038826
1453.785882,-2220.617826,2068.457845,-5551.544565
1453.786193,-9474.636058,-153.219100,-2442.679609
1453.786505,-15322.262999,0.000000,1554.432478
1453.786816,-19911.539840,0.000000,5699.585753
1453.787127,-20133.601622,-1378.971896,8216.285956
1453.787439,-18209.066173,-2528.115143,6883.915261
1453.787750,-12953.603985,-3217.601092,4219.173869
1453.788062,-5477.523971,-1685.410096,814.226536
1453.788373,-148.041188,842.705048,-2590.720797
1453.788684,1036.288319,2528.115143,-3849.070898
1453.788996,148.041188,2068.457845,-4145.153275
1453.789307,-1480.411884,536.266849,-3256.906145
1453.789619,-3923.091493,-919.314598,-2516.700203
1453.789930,-7179.997637,-383.047749,-1998.556043
1453.790242,-11473.192101,842.705048,-0.000000
1453.790553,-16062.468941,0.000000,2368.659014
1453.790864,-20947.828159,-2298.286494,3701.029710
1453.791176,-21169.889941,-1608.800546,6143.709319
1453.791487,-18727.210333,-536.266849,6957.935855
1453.791799,-12805.562797,-919.314598,4737.318029
1453.792110,-6365.771101,-1302.362347,1258.350101
1453.792422,-222.061783,-229.828649,-2146.597232
1453.792733,4145.153275,1915.238745,-3849.070898
1453.793044,2590.720797,2298.286494,-4293.194464
1453.793356,-2960.823768,1838.629195,-2072.576638
1453.793667,-7846.182985,612.876398,-0.000000
1453.793979,-10436.903782,-919.314598,1036.288319
1453.794290,-11695.253884,-1991.848295,2294.638420
1453.794602,-13397.727550,-229.828649,4441.235652
1453.794913,-15914.427753,-1378.971896,4145.153275
1453.795224,-16358.551318,-1762.019645,4885.359217
1453.795536,-15618.345376,-1685.410096,4515.256246
1453.795847,-12509.480420,0.000000,4145.153275
1453.796159,-7994.224174,995.924147,3034.844362
1453.796470,-3034.844362,536.266849,-518.144159
1453.796782,1110.308913,1532.190996,-3849.070898
1453.797093,3404.947333,1685.410096,-5995.668130
1453.797404,2368.659014,689.485948,-4589.276840
1453.797716,-3775.050304,766.095498,-2812.782580
1453.798027,-11325.150913,383.047749,296.082377
1453.798339,-16950.716072,-153.219100,4367.215058
1453.798650,-20207.622217,-612.876398,6439.791695
1453.798962,-19837.519246,-612.876398,6957.935855
1453.799273,-15544.324782,153.219100,4441.235652
1453.799584,-9178.553681,383.047749,1554.432478
1453.799896,-3256.906145,1225.752797,-1628.453072
1453.800207,-1110.308913,1762.019645,-4441.235652
1453.800519,-1258.350101,2374.896044,-5699.585753
1453.800830,-1480.411884,2374.896044,-5033.400406
1453.801142,-3552.988522,689.485948,-3997.112087
1453.801453,-7698.141797,-1149.143247,-1924.535449
1453.801764,-11695.253884,-1608.800546,-518.144159
1453.802076,-14285.974681,-2451.505594,1184.329507
1453.802387,-16506.592507,-2451.505594,2886.803174
1453.802699,-17987.004391,-2757.943793,4293.194464
1453.803010,-17690.922014,-2451.505594,4071.132681
1453.803322,-15174.221811,-1455.581446,3701.029710
1453.803633,-9548.656652,-1072.533697,1924.535449
1453.803944,-3404.947333,-153.219100,-1258.350101
1453.804256,518.144159,2374.896044,-5329.482782
1453.804567,2664.741391,3064.381992,-6069.688724
1453.804879,-370.102971,842.705048,-6069.688724
1453.805190,-7105.977043,153.219100,-3330.926739
1453.805502,-13323.706956,0.000000,222.061783
1453.805813,-16654.633695,-1455.581446,2738.761985
1453.806124,-17690.922014,-2757.943793,4589.276840
1453.806436,-17172.777854,-4136.915689,4293.194464
1453.806747,-13841.851115,-3064.381992,3256.906145
1453.807059,-10732.986159,-2681.334243,1850.514855
1453.807370,-7402.059420,-1302.362347,740.205942
1453.807682,-4515.256246,612.876398,-518.144159
1453.807993,-3256.906145,919.314598,-1110.308913
1453.808304,-3701.029710,1149.143247,-1554.432478
1453.808616,-2738.761985,2298.286494,-2072.576638
1453.808927,-5551.544565,3907.087040,-2294.638420
1453.809239,-7254.018232,4366.744339,-888.247130
1453.809550,-9474.636058,1838.629195,-74.020594
1453.809862,-12361.439231,-766.095498,888.247130
1453.810173,-12879.583391,-1072.533697,2664.741391
1453.810484,-13471.748144,76.609550,4663.297435
1453.810796,-14656.077652,0.000000,5329.482782
1453.811107,-13545.768739,-1072.533697,4515.256246
1453.811419,-9622.677246,-1072.533697,2516.700203
1453.811730,-4071.132681,153.219100,962.267725
1453.812042,-370.102971,2221.676944,-2294.638420
1453.812353,1258.350101,2528.115143,-4071.132681
1453.812664,962.267725,766.095498,-4293.194464
1453.812976,-1480.411884,-766.095498,-4219.173869
1453.813287,-6365.771101,383.047749,-1480.411884
1453.813599,-13693.809927,0.000000,1184.329507
1453.813910,-20799.786970,-842.705048,5033.400406
1453.814222,-24574.837274,-1991.848295,6957.935855
1453.814533,-23242.466579,-1915.238745,6809.894666
1453.814844,-16728.654289,-1225.752797,5403.503377
1453.815156,-9326.594869,-1072.533697,2960.823768
1453.815467,-2516.700203,-1532.190996,-1110.308913
1453.815779,3330.926739,-383.047749,-4959.379811
1453.816090,5403.503377,2221.676944,-6217.729913
1453.816402,1258.350101,1991.848295,-3849.070898
1453.816713,-5181.441594,-229.828649,-1554.432478
1453.817024,-11843.295072,-919.314598,666.185348
1453.817336,-15988.448347,-306.438199,3701.029710
1453.817647,-19023.292709,-612.876398,5477.523971
1453.817959,-18357.107362,-1685.410096,6291.750507
1453.818270,-13545.768739,-1762.019645,4071.132681
1453.818582,-9918.759623,-2221.676944,1628.453072
1453.818893,-6365.771101,-1455.581446,1036.288319
1453.819204,-4737.318029,0.000000,-1480.411884
1453.819516,-2590.720797,2757.943793,-1258.350101
1453.819827,-2220.617826,2068.457845,-1184.329507
1453.820139,-5181.441594,-306.438199,-888.247130
1453.820450,-7254.018232,76.609550,-1036.288319
1453.820762,-7476.080014,1685.410096,-1480.411884
1453.821073,-8216.285956,2528.115143,-888.247130
1453.821384,-10436.903782,-229.828649,1406.391290
1453.821696,-13101.645173,-2298.286494,2664.741391
1453.822007,-14137.933492,-2145.067394,3256.906145
1453.822319,-13101.645173,-689.485948,4811.338623
1453.822630,-11325.150913,689.485948,4145.153275
1453.822942,-8438.347739,842.705048,1554.432478
1453.823253,-5995.668130,1608.800546,-1480.411884
1453.823564,-2738.761985,1302.362347,-3701.029710
1453.823876,-1628.453072,2987.772442,-5403.503377
1453.824187,-3182.885551,3907.087040,-5551.544565
1453.824499,-5847.626942,2451.505594,-4293.194464
1453.824810,-10510.924376,-919.314598,-592.164754
1453.825122,-15100.201217,-2145.067394,3997.112087
1453.825433,-18357.107362,-2911.162892,6439.791695
1453.825744,-17690.922014,-3294.210641,6365.771101
1453.826056,-13397.727550,-4596.572988,4145.153275
1453.826367,-10066.800811,-2528.115143,3034.844362
1453.826679,-6661.853478,0.000000,2072.576638
1453.826990,-5329.482782,0.000000,-296.082377
1453.827301,-4663.297435,76.609550,-2072.576638
1453.827613,-2590.720797,1762.019645,-3330.926739
1453.827924,-1702.473667,2987.772442,-4441.235652
1453.828236,-2442.679609,2374.896044,-3849.070898
1453.828547,-6217.729913,229.828649,-3256.906145
1453.828858,-11399.171507,-842.705048,-222.061783
1453.829170,-15840.407159,-1072.533697,3330.926739
1453.829481,-20133.601622,-2068.457845,6365.771101
1453.829793,-21910.095883,-3064.381992,7698.141797
1453.830104,-18653.189738,-3983.696590,5921.647536
1453.830415,-9918.759623,-2451.505594,3182.885551
1453.830727,-2812.782580,-1455.581446,-1258.350101
1453.831038,1628.453072,842.705048,-3849.070898
1453.831350,3330.926739,1455.581446,-4589.276840
1453.831661,1554.432478,919.314598,-4219.173869
1453.831972,-3775.050304,919.314598,-2664.741391
1453.832284,-10658.965565,1225.752797,-1480.411884
1453.832595,-14508.036463,2681.334243,1776.494261
1453.832907,-15248.242405,3140.991542,2960.823768
1453.833218,-16654.633695,1685.410096,3330.926739
1453.833529,-15914.427753,383.047749,4441.235652
1453.833841,-14211.954086,-995.924147,4663.297435
1453.834152,-10362.883188,-842.705048,4219.173869
1453.834464,-6143.709319,919.314598,1776.494261
1453.834775,-4367.215058,842.705048,-2072.576638
1453.835087,148.041188,1608.800546,-3701.029710
1453.835398,2072.576638,1225.752797,-5625.565159
1453.835709,74.020594,1149.143247,-5625.565159
1453.836021,-4515.256246,2221.676944,-2442.679609
1453.836332,-10214.842000,766.095498,-444.123565
1453.836644,-15988.448347,-1532.190996,3849.070898
1453.836955,-19467.416275,-2911.162892,6069.688724
1453.837266,-18727.210333,-2834.553343,4885.359217
1453.837578,-14434.015869,-1455.581446,4441.235652
1453.837889,-11103.089130,229.828649,3108.864956
1453.838201,-8808.450710,-536.266849,1184.329507
1453.838512,-5625.565159,-229.828649,148.041188
1453.838823,-3849.070898,-306.438199,-1110.308913
1453.839135,-3552.988522,995.924147,-1998.556043
1453.839446,-3923.091493,1685.410096,-2146.597232
1453.839758,-3701.029710,1455.581446,-2590.720797
1453.840069,-4219.173869,229.828649,-2812.782580
1453.840380,-7994.224174,-1378.971896,-962.267725
1453.840692,-11547.212695,-1915.238745,2886.803174
1453.841003,-15914.427753,-1532.190996,5107.421000
1453.841315,-19023.292709,-1302.362347,6661.853478
1453.841626,-19911.539840,-1685.410096,7550.100608
1453.841937,-15692.365970,-1991.848295,5181.441594
1453.842249,-7994.224174,-306.438199,740.205942
1453.842560,-2146.597232,1838.629195,-2516.700203
1453.842872,740.205942,2987.772442,-4219.173869
1453.843183,740.205942,2681.334243,-4367.215058
1453.843494,-3182.885551,2221.676944,-3923.091493
1453.843806,-7772.162391,306.438199,-962.267725
1453.844117,-11399.171507,-842.705048,962.267725
1453.844429,-13027.624579,536.266849,3256.906145
1453.844740,-15248.242405,383.047749,3701.029710
1453.845052,-14952.160028,-612.876398,3849.070898
1453.845363,-13397.727550,-1149.143247,3552.988522
1453.845674,-9770.718434,306.438199,4145.153275
1453.845986,-7254.018232,153.219100,2368.659014
1453.846297,-5403.503377,-229.828649,-222.061783
1453.846609,-1776.494261,1302.362347,-3923.091493
1453.846920,1036.288319,3217.601092,-5477.523971
1453.847231,888.247130,2834.553343,-4959.379811
1453.847543,-4219.173869,306.438199,-4071.132681
1453.847854,-10510.924376,-536.266849,-740.205942
1453.848166,-15692.365970,-1072.533697,2812.782580
1453.848477,-19615.457463,-1838.629195,5699.585753
1453.848788,-19763.498651,-2681.334243,7105.977043
1453.849100,-16432.571912,-3907.087040,5107.421000
1453.849411,-9918.759623,-3294.210641,2738.761985
1453.849723,-5329.482782,-1915.238745,-370.102971
1453.850034,-2442.679609,1762.019645,-2368.659014
1453.850345,-1332.370696,2451.505594,-2738.761985
1453.850657,-3108.864956,919.314598,-2886.803174
1453.850968,-5477.523971,76.609550,-3478.967927
1453.851280,-7476.080014,1302.362347,-3923.091493
1453.851591,-8956.491898,2604.724693,-3923.091493
1453.851902,-10066.800811,2145.067394,-1998.556043
1453.852214,-13027.624579,0.000000,444.123565
1453.852525,-15840.407159,-2221.676944,2146.597232
1453.852837,-18505.148550,-2221.676944,6291.750507
1453.853148,-18505.148550,-1915.238745,6883.915261
1453.853459,-14063.912898,-2298.286494,4959.379811
1453.853771,-8882.471304,-2604.724693,1554.432478
1453.854082,-2812.782580,-1455.581446,-1110.308913
1453.854394,888.247130,0.000000,-5255.462188
1453.854705,1850.514855,2374.896044,-5033.400406
1453.855017,-296.082377,2757.943793,-5181.441594
1453.855328,-5995.668130,1225.752797,-2960.823768
1453.855639,-11621.233289,383.047749,1258.350101
1453.855951,-15766.386565,229.828649,2590.720797
1453.856262,-17172.777854,1225.752797,4367.215058
1453.856574,-15100.201217,1378.971896,4515.256246
1453.856885,-12657.521608,689.485948,2960.823768
1453.857196,-10140.821405,306.438199,2886.803174
1453.857508,-8586.388927,383.047749,2072.576638
1453.857819,-7328.038826,842.705048,1184.329507
1453.858131,-4663.297435,1225.752797,-444.123565
1453.858442,-2368.659014,76.609550,-2368.659014
1453.858753,518.144159,-1608.800546,-4589.276840
1453.859065,814.226536,-459.657299,-5033.400406
1453.859376,-4145.153275,459.657299,-1998.556043
1453.859688,-8660.409521,229.828649,2442.679609
1453.859999,-17246.798449,-2298.286494,4811.338623
1453.860310,-22206.178260,-3140.991542,7550.100608
1453.860622,-19985.560434,-1915.238745,7550.100608
1453.860933,-16358.551318,-612.876398,4145.153275
1453.861245,-10658.965565,1378.971896,1776.494261
1453.861556,-6217.729913,1225.752797,-3478.967927
1453.861867,0.000000,1455.581446,-4441.235652
1453.862179,2590.720797,2374.896044,-4663.297435
1453.862490,-1480.411884,1762.019645,-3256.906145
1453.862802,-6957.935855,919.314598,-1480.411884
1453.863113,-9918.759623,153.219100,-0.000000
1453.863425,-11843.295072,766.095498,1998.556043
1453.863736,-12065.356855,76.609550,3627.009116
1453.864047,-13101.645173,-766.095498,4441.235652
1453.864359,-14137.933492,-2374.896044,4441.235652
1453.864670,-12953.603985,-2834.553343,4145.153275
1453.864982,-10436.903782,-1915.238745,2960.823768
1453.865293,-7624.121203,-1302.362347,962.267725
1453.865604,-4589.276840,-536.266849,-1702.473667
1453.865916,-2368.659014,-1302.362347,-3034.844362
1453.866227,-3404.947333,-459.657299,-4145.153275
1453.866539,-4959.379811,2145.067394,-1924.535449
1453.866850,-9104.533087,1915.238745,-1332.370696
1453.867161,-11621.233289,842.705048,2294.638420
1453.867473,-13619.789333,-919.314598,3478.967927
1453.867784,-14211.954086,-1685.410096,2960.823768
1453.868096,-12657.521608,-995.924147,2442.679609
1453.868407,-11621.233289,536.266849,2146.597232
1453.868718,-9030.512492,0.000000,1702.473667
1453.869030,-6661.853478,-536.266849,888.247130
1453.869341,-6661.853478,-612.876398,296.082377
1453.869653,-6513.812290,-612.876398,-1036.288319
1453.869964,-3701.029710,1149.143247,-3404.947333
1453.870275,-1628.453072,3140.991542,-6069.688724
1453.870587,-2368.659014,2987.772442,-5551.544565
1453.870898,-6365.771101,-153.219100,-3923.091493
1453.871210,-12213.398043,0.000000,-370.102971
1453.871521,-18431.127956,612.876398,3478.967927
1453.871832,-20651.745782,0.000000,6143.709319
1453.872144,-20059.581028,-1915.238745,6883.915261
1453.872455,-16284.530724,-2987.772442,3923.091493
1453.872767,-8364.327145,-2068.457845,1258.350101
1453.873078,-1702.473667,-1378.971896,-2812.782580
1453.873390,1258.350101,-459.657299,-4663.297435
1453.873701,1184.329507,1072.533697,-5403.503377
1453.874012,-1554.432478,842.705048,-4219.173869
1453.874324,-6365.771101,383.047749,-1850.514855
1453.874635,-12287.418637,842.705048,444.123565
1453.874947,-15766.386565,1915.238745,3182.885551
1453.875258,-15840.407159,612.876398,3775.050304
1453.875569,-13915.871710,-1915.238745,3108.864956
1453.875881,-10362.883188,-2911.162892,2442.679609
1453.876192,-8364.327145,-2221.676944,3552.988522
1453.876504,-8290.306550,-2451.505594,2516.700203
1453.876815,-8364.327145,-2374.896044,2960.823768
1453.877126,-9400.615463,-2374.896044,814.226536
1453.877438,-6291.750507,-842.705048,518.144159
1453.877749,-3552.988522,153.219100,-1332.370696
1453.878061,-2738.761985,1915.238745,-3478.967927
1453.878372,-2146.597232,2604.724693,-3108.864956
1453.878683,-4293.194464,1685.410096,-2664.741391
1453.878995,-8660.409521,1149.143247,370.102971
1453.879306,-14804.118840,1608.800546,2146.597232
1453.879618,-18949.272115,1302.362347,4737.318029
1453.879929,-17987.004391,1455.581446,6365.771101
1453.880240,-14211.954086,1532.190996,5625.565159
1453.880552,-10658.965565,306.438199,3775.050304
1453.880863,-5403.503377,-842.705048,1924.535449
1453.881175,-2442.679609,0.000000,-370.102971
1453.881486,-74.020594,0.000000,-3478.967927
1453.881797,814.226536,995.924147,-4737.318029
1453.882109,-1924.535449,842.705048,-4071.132681
1453.882420,-5255.462188,229.828649,-2072.576638
1453.882732,-10955.047942,-153.219100,444.123565
1453.883043,-16876.695478,-766.095498,3923.091493
1453.883355,-20133.601622,-536.266849,7179.997637
1453.883666,-21836.075289,-995.924147,8068.244768
1453.883977,-17616.901420,-2911.162892,6587.832884
1453.884289,-11547.212695,-2451.505594,2220.617826
1453.884600,-4219.173869,-1149.143247,-888.247130
1453.884912,222.061783,306.438199,-4663.297435
1453.885223,740.205942,1685.410096,-6069.688724
1453.885534,-370.102971,2374.896044,-5107.421000
1453.885846,-3701.029710,-229.828649,-2072.576638
1453.886157,-7698.141797,-1455.581446,370.102971
1453.886469,-12583.501014,-766.095498,1702.473667
1453.886780,-14730.098246,-383.047749,2738.761985
1453.887091,-14952.160028,-919.314598,3478.967927
1453.887403,-14804.118840,-612.876398,4293.194464
1453.887714,-13323.706956,-995.924147,3404.947333
1453.888026,-10732.986159,-536.266849,2368.659014
1453.888337,-6883.915261,-689.485948,1554.432478
1453.888648,-3034.844362,-229.828649,-1184.329507
1453.888960,-592.164754,689.485948,-4071.132681
1453.889271,-148.041188,1225.752797,-5107.421000
1453.889583,-2368.659014,1378.971896,-4071.132681
1453.889894,-7328.038826,1072.533697,-2738.761985
1453.890205,-11769.274478,1455.581446,-296.082377
1453.890517,-15692.365970,2221.676944,2146.597232
1453.890828,-17394.839637,306.438199,4219.173869
1453.891140,-15544.324782,-1608.800546,5033.400406
1453.891451,-12953.603985,-2298.286494,3478.967927
1453.891762,-9622.677246,-1302.362347,3404.947333
1453.892074,-7550.100608,-612.876398,2368.659014
1453.892385,-4737.318029,-689.485948,1480.411884
1453.892697,-2072.576638,-536.266849,-2368.659014
1453.893008,-148.041188,-919.314598,-4293.194464
1453.893320,-1628.453072,2681.334243,-4663.297435
1453.893631,-7402.059420,4596.572988,-3923.091493
1453.893942,-11917.315666,3447.429741,-2442.679609
1453.894254,-16062.468941,229.828649,-592.164754
1453.894565,-18505.148550,-1378.971896,2886.803174
1453.894877,-17690.922014,-1762.019645,4145.153275
1453.895188,-16062.468941,-1685.410096,3923.091493
1453.895499,-13915.871710,-2604.724693,3627.009116
1453.895811,-10436.903782,-2681.334243,2886.803174
1453.896122,-5847.626942,-3064.381992,1332.370696
1453.896434,-2146.597232,-612.876398,1036.288319
1453.896745,-3478.967927,0.000000,-1332.370696
1453.897056,-3330.926739,1149.143247,-1702.473667
1453.897368,-3478.967927,2911.162892,-2516.700203
1453.897679,-4145.153275,3140.991542,-3256.906145
1453.897991,-5773.606348,2451.505594,-1258.350101
1453.898302,-10881.027347,229.828649,-148.041188
1453.898613,-13693.809927,-153.219100,2072.576638
1453.898925,-16358.551318,-229.828649,3627.009116
1453.899236,-17838.963202,-153.219100,6217.729913
1453.899548,-16210.510130,-1378.971896,6809.894666
1453.899859,-10066.800811,-1838.629195,5033.400406
1453.900170,-4811.338623,-2681.334243,2960.823768
1453.900482,-1702.473667,-2298.286494,148.041188
1453.900793,3108.864956,-1608.800546,-2960.823768
1453.901105,4515.256246,842.705048,-4737.318029
1453.901416,814.226536,536.266849,-3775.050304
1453.901728,-8068.244768,-229.828649,-1332.370696
1453.902039,-15766.386565,306.438199,3034.844362
1453.902350,-20725.766376,995.924147,5107.421000
1453.902662,-20503.704593,1072.533697,7328.038826
1453.902973,-16802.674883,-1302.362347,5847.626942
1453.903285,-12657.521608,-1762.019645,3182.885551
1453.903596,-5625.565159,0.000000,888.247130
1453.903907,-2294.638420,842.705048,-2590.720797
1453.904219,-2294.638420,2221.676944,-2738.761985
1453.904530,-4515.256246,2451.505594,-2368.659014
1453.904842,-6143.709319,1608.800546,-1850.514855
