#time,accel_x,accel_y,accel_z
1319.663446,-8956.491898,153.219100,592.164754
1319.663758,-9030.512492,-383.047749,370.102971
1319.664069,-8586.388927,-153.219100,518.144159
1319.664381,-8734.430116,306.438199,444.123565
1319.664692,-8956.491898,0.000000,370.102971
1319.665004,-8808.450710,0.000000,518.144159
1319.665315,-8882.471304,0.000000,518.144159
1319.665627,-8882.471304,0.000000,518.144159
1319.665938,-8660.409521,-612.876398,444.123565
1319.666250,-8808.450710,-76.609550,592.164754
1319.666562,-8808.450710,0.000000,296.082377
1319.666873,-9030.512492,-306.438199,148.041188
1319.667185,-8882.471304,0.000000,592.164754
1319.667496,-8882.471304,0.000000,592.164754
1319.667808,-8734.430116,0.000000,666.185348
1319.668119,-9030.512492,153.219100,518.144159
1319.668431,-8734.430116,229.828649,370.102971
1319.668742,-9030.512492,229.828649,444.123565
1319.669054,-8808.450710,-459.657299,666.185348
1319.669365,-8956.491898,0.000000,518.144159
1319.669677,-9030.512492,-153.219100,444.123565
1319.669988,-8956.491898,0.000000,592.164754
1319.670300,-8882.471304,0.000000,444.123565
1319.670611,-8438.347739,76.609550,518.144159
1319.670923,-9104.533087,-153.219100,222.061783
1319.671234,-8512.368333,0.000000,962.267725
1319.671546,-8808.450710,-306.438199,296.082377
1319.671857,-8808.450710,0.000000,592.164754
1319.672169,-8956.491898,0.000000,518.144159
1319.672480,-8956.491898,153.219100,296.082377
1319.672792,-9104.533087,153.219100,740.205942
1319.673103,-8734.430116,76.609550,888.247130
1319.673415,-8882.471304,0.000000,444.123565
1319.673726,-8142.265362,-459.657299,666.185348
1319.674038,-8956.491898,306.438199,370.102971
1319.674350,-8956.491898,0.000000,666.185348
1319.674661,-8882.471304,0.000000,444.123565
1319.674973,-9030.512492,0.000000,518.144159
1319.675284,-8956.491898,0.000000,592.164754
1319.675596,-8734.430116,306.438199,592.164754
1319.675907,-8956.491898,-842.705048,518.144159
1319.676219,-9104.533087,-153.219100,222.061783
1319.676530,-8660.409521,-306.438199,740.205942
1319.676842,-8956.491898,0.000000,518.144159
1319.677153,-8956.491898,0.000000,518.144159
1319.677465,-9104.533087,0.000000,444.123565
1319.677776,-8956.491898,0.000000,592.164754
1319.678088,-8956.491898,-306.438199,296.082377
1319.678399,-9030.512492,153.219100,592.164754
1319.678711,-8660.409521,153.219100,518.144159
1319.679022,-8956.491898,0.000000,370.102971
1319.679334,-8956.491898,0.000000,592.164754
1319.679645,-8808.450710,0.000000,666.185348
1319.679957,-8956.491898,0.000000,444.123565
1319.680268,-8660.409521,-536.266849,444.123565
1319.680580,-8808.450710,0.000000,518.144159
1319.680891,-8882.471304,0.000000,296.082377
1319.681203,-8586.388927,229.828649,666.185348
1319.681514,-8808.450710,0.000000,740.205942
1319.681826,-8956.491898,-153.219100,518.144159
1319.682138,-9030.512492,0.000000,518.144159
1319.682449,-9178.553681,-229.828649,518.144159
1319.682761,-9252.574275,-153.219100,592.164754
1319.683072,-9178.553681,0.000000,370.102971
1319.683384,-8438.347739,306.438199,444.123565
1319.683695,-8808.450710,0.000000,518.144159
1319.684007,-9030.512492,-306.438199,370.102971
1319.684318,-8882.471304,-229.828649,666.185348
1319.684630,-8956.491898,0.000000,592.164754
1319.684941,-8956.491898,76.609550,592.164754
1319.685253,-8586.388927,0.000000,518.144159
1319.685564,-9474.636058,0.000000,148.041188
1319.685876,-8734.430116,229.828649,-0.000000
1319.686187,-8586.388927,0.000000,666.185348
1319.686499,-8956.491898,0.000000,592.164754
1319.686810,-9104.533087,0.000000,592.164754
1319.687122,-9104.533087,0.000000,518.144159
1319.687433,-9104.533087,0.000000,592.164754
1319.687745,-8808.450710,153.219100,518.144159
1319.688056,-8956.491898,766.095498,296.082377
1319.688368,-9030.512492,76.609550,296.082377
1319.688679,-8882.471304,153.219100,814.226536
1319.688991,-8808.450710,0.000000,814.226536
1319.689302,-8882.471304,0.000000,592.164754
1319.689614,-8956.491898,0.000000,666.185348
1319.689925,-9030.512492,306.438199,444.123565
1319.690237,-9030.512492,0.000000,370.102971
1319.690549,-8808.450710,306.438199,814.226536
1319.690860,-8734.430116,-229.828649,592.164754
1319.691172,-8734.430116,0.000000,518.144159
1319.691483,-8808.450710,0.000000,592.164754
1319.691795,-8882.471304,-153.219100,444.123565
1319.692106,-9252.574275,0.000000,444.123565
1319.692418,-8660.409521,306.438199,370.102971
1319.692729,-9178.553681,0.000000,222.061783
1319.693041,-8734.430116,0.000000,444.123565
1319.693352,-8586.388927,76.609550,592.164754
1319.693664,-8956.491898,0.000000,370.102971
1319.693975,-9030.512492,0.000000,592.164754
1319.694287,-8956.491898,0.000000,518.144159
1319.694598,-9030.512492,0.000000,518.144159
1319.694910,-8808.450710,-229.828649,444.123565
1319.695221,-8660.409521,-153.219100,592.164754
1319.695533,-8808.450710,-766.095498,740.205942
1319.695844,-8660.409521,0.000000,222.061783
1319.696156,-9030.512492,0.000000,518.144159
1319.696467,-8956.491898,-229.828649,666.185348
1319.696779,-8882.471304,0.000000,518.144159
1319.697090,-8956.491898,-229.828649,518.144159
1319.697402,-8586.388927,0.000000,444.123565
1319.697713,-9178.553681,536.266849,296.082377
1319.698025,-9030.512492,-153.219100,592.164754
1319.698337,-9030.512492,-306.438199,592.164754
1319.698648,-8956.491898,0.000000,592.164754
1319.698960,-8882.471304,0.000000,592.164754
1319.699271,-8956.491898,153.219100,592.164754
1319.699583,-9030.512492,-383.047749,518.144159
1319.699894,-8586.388927,0.000000,592.164754
1319.700206,-8956.491898,-842.705048,444.123565
1319.700517,-8364.327145,-229.828649,296.082377
1319.700829,-8956.491898,0.000000,296.082377
1319.701140,-8808.450710,-153.219100,518.144159
1319.701452,-8882.471304,0.000000,370.102971
1319.701763,-8882.471304,-306.438199,518.144159
1319.702075,-9178.553681,383.047749,444.123565
1319.702386,-8808.450710,76.609550,740.205942
1319.702698,-8882.471304,0.000000,296.082377
1319.703009,-8882.471304,-229.828649,592.164754
1319.703321,-9104.533087,-153.219100,444.123565
1319.703632,-9104.533087,0.000000,518.144159
1319.703944,-9104.533087,0.000000,518.144159
1319.704255,-9252.574275,229.828649,444.123565
1319.704567,-9178.553681,0.000000,148.041188
1319.704878,-9030.512492,383.047749,296.082377
1319.705190,-8734.430116,76.609550,592.164754
1319.705501,-9030.512492,0.000000,444.123565
1319.705813,-8586.388927,0.000000,666.185348
1319.706124,-8734.430116,0.000000,592.164754
1319.706436,-9030.512492,0.000000,592.164754
1319.706748,-8808.450710,-229.828649,592.164754
1319.707059,-8734.430116,536.266849,666.185348
1319.707371,-8734.430116,-306.438199,370.102971
1319.707682,-8290.306550,-229.828649,814.226536
1319.707994,-8882.471304,0.000000,666.185348
1319.708305,-8882.471304,0.000000,592.164754
1319.708617,-8956.491898,-229.828649,666.185348
1319.708928,-8956.491898,0.000000,814.226536
1319.709240,-8660.409521,-383.047749,518.144159
1319.709551,-8882.471304,76.609550,370.102971
1319.709863,-9030.512492,383.047749,518.144159
1319.710174,-8438.347739,536.266849,222.061783
1319.710486,-9030.512492,0.000000,518.144159
1319.710797,-9178.553681,0.000000,296.082377
1319.711109,-8956.491898,0.000000,444.123565
1319.711420,-9030.512492,0.000000,592.164754
1319.711732,-8734.430116,-229.828649,444.123565
1319.712043,-8438.347739,0.000000,518.144159
1319.712355,-8660.409521,153.219100,370.102971
1319.712666,-9252.574275,0.000000,148.041188
1319.712978,-8956.491898,0.000000,518.144159
1319.713289,-10066.800811,306.438199,370.102971
1319.713601,-11843.295072,1378.971896,222.061783
1319.713912,-9992.780217,4136.915689,740.205942
1319.714224,-8068.244768,4903.011187,518.144159
1319.714536,-7254.018232,2987.772442,962.267725
1319.714847,-6291.750507,0.000000,1184.329507
1319.715159,-7105.977043,-1302.362347,-0.000000
1319.715470,-7105.977043,-766.095498,222.061783
1319.715782,-9178.553681,-919.314598,-592.164754
1319.716093,-13101.645173,-919.314598,-1110.308913
1319.716405,-10955.047942,1072.533697,-0.000000
1319.716716,-9918.759623,1072.533697,370.102971
1319.717028,-8364.327145,76.609550,2442.679609
1319.717339,-10362.883188,-612.876398,1998.556043
1319.717651,-11103.089130,2451.505594,1480.411884
1319.717962,-6143.709319,5132.839837,2368.659014
1319.718274,-6143.709319,4366.744339,1850.514855
1319.718585,-8438.347739,2451.505594,740.205942
1319.718897,-7624.121203,2528.115143,-1110.308913
1319.719208,-8142.265362,3064.381992,-1702.473667
1319.719520,-8364.327145,3830.477490,-740.205942
1319.719831,-9326.594869,3907.087040,-1258.350101
1319.720143,-14656.077652,919.314598,-1258.350101
1319.720454,-11399.171507,-766.095498,1998.556043
1319.720766,-9326.594869,-536.266849,1406.391290
1319.721077,-10362.883188,3217.601092,1480.411884
1319.721389,-7476.080014,7048.078582,2368.659014
1319.721700,-9030.512492,4826.401637,740.205942
1319.722012,-6883.915261,2604.724693,2738.761985
1319.722324,-6217.729913,6281.983084,1554.432478
1319.722635,-7328.038826,7354.516781,-0.000000
1319.722947,-8364.327145,6128.763984,-1036.288319
1319.723258,-10214.842000,4290.134789,-222.061783
1319.723570,-9030.512492,5439.278036,-1998.556043
1319.723881,-10881.027347,6052.154434,-592.164754
1319.724193,-11843.295072,4366.744339,-296.082377
1319.724504,-11029.068536,3983.696590,1110.308913
1319.724816,-10807.006753,4519.963438,1850.514855
1319.725127,-8142.265362,4673.182538,2368.659014
1319.725439,-6661.853478,4673.182538,1628.453072
1319.725750,-6365.771101,4443.353888,1036.288319
1319.726062,-4885.359217,4673.182538,1184.329507
1319.726373,-5255.462188,3907.087040,-518.144159
1319.726685,-6809.894666,3983.696590,-814.226536
1319.726996,-8882.471304,3370.820191,-962.267725
1319.727308,-9474.636058,2528.115143,-0.000000
1319.727619,-10955.047942,1378.971896,444.123565
1319.727931,-11177.109724,919.314598,1258.350101
1319.728242,-11621.233289,153.219100,1702.473667
1319.728554,-10807.006753,1762.019645,1998.556043
1319.728865,-8438.347739,3370.820191,1480.411884
1319.729177,-7031.956449,4826.401637,444.123565
1319.729488,-6365.771101,3677.258390,-74.020594
1319.729800,-7402.059420,3524.039291,-296.082377
1319.730111,-7254.018232,3907.087040,-740.205942
1319.730423,-7031.956449,3064.381992,-962.267725
1319.730735,-8660.409521,383.047749,-814.226536
1319.731046,-9844.739029,-1762.019645,-518.144159
1319.731358,-10881.027347,-1685.410096,666.185348
1319.731669,-11917.315666,-1915.238745,1332.370696
1319.731981,-13027.624579,-1225.752797,1924.535449
1319.732292,-13323.706956,-383.047749,1702.473667
1319.732604,-12435.459826,1991.848295,814.226536
1319.732915,-9918.759623,3677.258390,518.144159
1319.733227,-7476.080014,3983.696590,-0.000000
1319.733538,-6217.729913,4826.401637,296.082377
1319.733850,-6365.771101,4979.620737,370.102971
1319.734161,-7031.956449,4596.572988,370.102971
1319.734473,-8808.450710,2451.505594,-296.082377
1319.734784,-10881.027347,1455.581446,-74.020594
1319.735096,-11917.315666,919.314598,-296.082377
1319.735407,-12731.542202,459.657299,-296.082377
1319.735719,-13175.665768,1072.533697,-148.041188
1319.736030,-12213.398043,1991.848295,444.123565
1319.736342,-9696.697840,2987.772442,1406.391290
1319.736653,-8586.388927,4519.963438,2146.597232
1319.736965,-6439.791695,4290.134789,2590.720797
1319.737276,-3552.988522,5209.449386,1036.288319
1319.737588,-1702.473667,6358.592633,-0.000000
1319.737899,-1850.514855,5439.278036,-1406.391290
1319.738211,-4959.379811,3830.477490,-1776.494261
1319.738523,-9178.553681,2451.505594,-1406.391290
1319.738834,-12361.439231,3370.820191,-222.061783
1319.739146,-15766.386565,3064.381992,1110.308913
1319.739457,-15100.201217,2681.334243,2812.782580
1319.739769,-12435.459826,1991.848295,3404.947333
1319.740080,-8290.306550,1378.971896,3330.926739
1319.740392,-4663.297435,1685.410096,2368.659014
1319.740703,-2294.638420,3064.381992,444.123565
1319.741015,-2738.761985,4979.620737,-1036.288319
1319.741326,-4219.173869,5592.497135,-1702.473667
1319.741638,-6143.709319,4596.572988,-1702.473667
1319.741949,-8142.265362,2451.505594,-888.247130
1319.742261,-9178.553681,0.000000,444.123565
1319.742572,-10436.903782,-2451.505594,592.164754
1319.742884,-11177.109724,-4213.525239,1628.453072
1319.743195,-11399.171507,-3830.477490,1850.514855
1319.743507,-11473.192101,-3447.429741,1554.432478
1319.743818,-11917.315666,-2221.676944,1702.473667
1319.744130,-11325.150913,766.095498,1406.391290
1319.744441,-11325.150913,3294.210641,518.144159
1319.744753,-9474.636058,4749.792088,444.123565
1319.745064,-7994.224174,4290.134789,740.205942
1319.745376,-7772.162391,1455.581446,148.041188
1319.745687,-7179.997637,0.000000,-0.000000
1319.745999,-7328.038826,-842.705048,-888.247130
1319.746311,-8956.491898,0.000000,-1702.473667
1319.746622,-10436.903782,689.485948,-1332.370696
1319.746934,-11103.089130,229.828649,-814.226536
1319.747245,-11103.089130,-1149.143247,518.144159
1319.747557,-11103.089130,-1762.019645,1924.535449
1319.747868,-10436.903782,-1608.800546,1924.535449
1319.748180,-11177.109724,-995.924147,296.082377
1319.748491,-10807.006753,536.266849,-0.000000
1319.748803,-9104.533087,2298.286494,-444.123565
1319.749114,-8364.327145,2911.162892,-2072.576638
1319.749426,-8142.265362,3217.601092,-1110.308913
1319.749737,-7031.956449,2145.067394,-0.000000
1319.750049,-6883.915261,-459.657299,1628.453072
1319.750360,-7105.977043,-2834.553343,2442.679609
1319.750672,-7846.182985,-3370.820191,3108.864956
1319.750983,-9622.677246,-4519.963438,2516.700203
1319.751295,-10510.924376,-2221.676944,1554.432478
1319.751606,-8660.409521,1455.581446,-518.144159
1319.751918,-7994.224174,4136.915689,-1554.432478
1319.752229,-7105.977043,3830.477490,-1776.494261
1319.752541,-6809.894666,1915.238745,-1776.494261
1319.752852,-6661.853478,1225.752797,-888.247130
1319.753164,-6291.750507,306.438199,-74.020594
1319.753475,-7402.059420,76.609550,444.123565
1319.753787,-9178.553681,76.609550,1702.473667
1319.754099,-9622.677246,229.828649,2368.659014
1319.754410,-9770.718434,-995.924147,3404.947333
1319.754722,-10066.800811,-842.705048,3701.029710
1319.755033,-10584.944971,-229.828649,3034.844362
1319.755345,-9474.636058,0.000000,1480.411884
1319.755656,-8586.388927,0.000000,-74.020594
1319.755968,-7772.162391,306.438199,-1628.453072
1319.756279,-6439.791695,1302.362347,-2516.700203
1319.756591,-6661.853478,1838.629195,-2146.597232
1319.756902,-7772.162391,1072.533697,-1036.288319
1319.757214,-8882.471304,153.219100,518.144159
1319.757525,-10066.800811,-919.314598,1628.453072
1319.757837,-11325.150913,-2451.505594,2516.700203
1319.758148,-11917.315666,-2987.772442,2738.761985
1319.758460,-12953.603985,-1915.238745,1554.432478
1319.758771,-12139.377449,306.438199,1628.453072
1319.759083,-10807.006753,919.314598,1480.411884
1319.759394,-9548.656652,1378.971896,1406.391290
1319.759706,-8068.244768,459.657299,1184.329507
1319.760017,-6735.874072,-536.266849,-0.000000
1319.760329,-5329.482782,-1532.190996,-518.144159
1319.760640,-5995.668130,-766.095498,-1406.391290
1319.760952,-6143.709319,-459.657299,-1628.453072
1319.761264,-6143.709319,-995.924147,-814.226536
1319.761575,-8512.368333,-2604.724693,1036.288319
1319.761887,-10436.903782,-2451.505594,2516.700203
1319.762198,-11769.274478,-1991.848295,3478.967927
1319.762510,-12139.377449,-1915.238745,2812.782580
1319.762821,-11695.253884,-1455.581446,2220.617826
1319.763133,-11177.109724,229.828649,74.020594
1319.763444,-9844.739029,2451.505594,-1480.411884
1319.763756,-7624.121203,3907.087040,-2220.617826
1319.764067,-6217.729913,3753.867940,-1702.473667
1319.764379,-6291.750507,1915.238745,-370.102971
1319.764690,-5773.606348,-612.876398,-0.000000
1319.765002,-6439.791695,-1838.629195,888.247130
1319.765313,-8068.244768,-2834.553343,1406.391290
1319.765625,-7698.141797,-1838.629195,444.123565
1319.765936,-8142.265362,-842.705048,296.082377
1319.766248,-9474.636058,-842.705048,-74.020594
1319.766559,-10955.047942,0.000000,518.144159
1319.766871,-11769.274478,1149.143247,814.226536
1319.767182,-11547.212695,1608.800546,148.041188
1319.767494,-10955.047942,995.924147,296.082377
1319.767805,-9844.739029,1302.362347,-1110.308913
1319.768117,-9400.615463,2221.676944,-2220.617826
1319.768429,-8290.306550,2068.457845,-1924.535449
1319.768740,-7105.977043,1149.143247,-370.102971
1319.769052,-7624.121203,459.657299,666.185348
1319.769363,-7772.162391,-612.876398,1628.453072
1319.769675,-8956.491898,-2068.457845,1998.556043
1319.769986,-9622.677246,-2298.286494,1850.514855
1319.770298,-9400.615463,-2145.067394,814.226536
1319.770609,-8956.491898,-459.657299,-666.185348
1319.770921,-8068.244768,0.000000,-814.226536
1319.771232,-8808.450710,612.876398,-1406.391290
1319.771544,-8956.491898,1225.752797,-814.226536
1319.771855,-8882.471304,612.876398,-444.123565
1319.772167,-9474.636058,0.000000,370.102971
1319.772478,-9992.780217,-459.657299,444.123565
1319.772790,-10510.924376,766.095498,-0.000000
1319.773101,-10288.862594,1225.752797,1554.432478
1319.773413,-9844.739029,153.219100,2368.659014
1319.773724,-9548.656652,459.657299,3330.926739
1319.774036,-8068.244768,-306.438199,3478.967927
1319.774347,-7328.038826,-1532.190996,2664.741391
1319.774659,-7402.059420,-2068.457845,2072.576638
1319.774970,-6439.791695,-1455.581446,-296.082377
1319.775282,-5995.668130,536.266849,-1702.473667
1319.775594,-6217.729913,0.000000,-1776.494261
1319.775905,-8216.285956,0.000000,-814.226536
1319.776217,-9622.677246,-153.219100,740.205942
1319.776528,-10140.821405,-1225.752797,1554.432478
1319.776840,-11177.109724,-1608.800546,2886.803174
1319.777151,-11843.295072,-919.314598,3404.947333
1319.777463,-11991.336260,766.095498,2368.659014
1319.777774,-10955.047942,1838.629195,1036.288319
1319.778086,-8290.306550,1685.410096,1332.370696
1319.778397,-7402.059420,1072.533697,1332.370696
1319.778709,-6291.750507,459.657299,370.102971
1319.779020,-6143.709319,-306.438199,-0.000000
1319.779332,-7105.977043,-1455.581446,-370.102971
1319.779643,-7105.977043,-2068.457845,-444.123565
1319.779955,-8586.388927,-1302.362347,-592.164754
1319.780266,-8586.388927,-1762.019645,-444.123565
1319.780578,-9178.553681,-2068.457845,222.061783
1319.780889,-9992.780217,-2068.457845,1554.432478
1319.781201,-9696.697840,-1378.971896,2146.597232
1319.781512,-10288.862594,-612.876398,1998.556043
1319.781824,-10436.903782,-306.438199,1998.556043
1319.782135,-10807.006753,842.705048,518.144159
1319.782447,-9770.718434,2681.334243,-814.226536
1319.782759,-8290.306550,3294.210641,-1480.411884
1319.783070,-7402.059420,2681.334243,-1480.411884
1319.783382,-6365.771101,1149.143247,-518.144159
1319.783693,-6809.894666,-536.266849,-148.041188
1319.784005,-7624.121203,-1991.848295,592.164754
1319.784316,-8068.244768,-2374.896044,666.185348
1319.784628,-8364.327145,-1608.800546,-0.000000
1319.784939,-8438.347739,-842.705048,-74.020594
1319.785251,-9326.594869,-1302.362347,222.061783
1319.785562,-10066.800811,-1455.581446,888.247130
1319.785874,-10732.986159,-459.657299,888.247130
1319.786185,-11325.150913,459.657299,592.164754
1319.786497,-11621.233289,995.924147,444.123565
1319.786808,-10955.047942,1455.581446,-518.144159
1319.787120,-9400.615463,1991.848295,-1110.308913
1319.787431,-7698.141797,1608.800546,-1036.288319
1319.787743,-7031.956449,842.705048,-74.020594
1319.788054,-6365.771101,-306.438199,592.164754
1319.788366,-7254.018232,-1532.190996,1850.514855
1319.788677,-9326.594869,-2757.943793,2442.679609
1319.788989,-9030.512492,-3370.820191,2146.597232
1319.789300,-9326.594869,-1915.238745,962.267725
1319.789612,-8660.409521,-1915.238745,370.102971
1319.789923,-7550.100608,-1378.971896,-370.102971
1319.790235,-8068.244768,-1302.362347,-222.061783
1319.790547,-7846.182985,-1149.143247,-74.020594
1319.790858,-8882.471304,-689.485948,370.102971
1319.791170,-9918.759623,-766.095498,296.082377
1319.791481,-11473.192101,1072.533697,-370.102971
1319.791793,-12065.356855,2987.772442,-296.082377
1319.792104,-10584.944971,3140.991542,-0.000000
1319.792416,-10510.924376,1532.190996,1924.535449
1319.792727,-9474.636058,536.266849,2516.700203
1319.793039,-7698.141797,-459.657299,2294.638420
1319.793350,-7402.059420,-612.876398,1628.453072
1319.793662,-8068.244768,-919.314598,1184.329507
1319.793973,-7254.018232,-612.876398,-592.164754
1319.794285,-6587.832884,689.485948,-1776.494261
1319.794596,-6291.750507,689.485948,-1258.350101
1319.794908,-8216.285956,306.438199,-740.205942
1319.795219,-9696.697840,-306.438199,888.247130
1319.795531,-10658.965565,-306.438199,1480.411884
1319.795842,-11325.150913,0.000000,2220.617826
1319.796154,-11029.068536,766.095498,1998.556043
1319.796465,-10436.903782,1838.629195,1036.288319
1319.796777,-9696.697840,2221.676944,370.102971
1319.797088,-8734.430116,1685.410096,370.102971
1319.797400,-7920.203579,1072.533697,1110.308913
1319.797712,-6809.894666,612.876398,1184.329507
1319.798023,-6661.853478,-612.876398,1480.411884
1319.798335,-7328.038826,-2528.115143,666.185348
1319.798646,-7105.977043,-2374.896044,-0.000000
1319.798958,-7179.997637,0.000000,-666.185348
1319.799269,-7254.018232,919.314598,-296.082377
1319.799581,-7994.224174,383.047749,-0.000000
1319.799892,-9918.759623,0.000000,740.205942
1319.800204,-10288.862594,-306.438199,1480.411884
1319.800515,-10436.903782,76.609550,1554.432478
1319.800827,-10807.006753,1455.581446,962.267725
1319.801138,-10584.944971,2374.896044,-296.082377
1319.801450,-10140.821405,2145.067394,-1258.350101
1319.801761,-8660.409521,2681.334243,-962.267725
1319.802073,-8068.244768,1532.190996,74.020594
1319.802384,-7846.182985,229.828649,1036.288319
1319.802696,-7772.162391,-1532.190996,1406.391290
1319.803007,-8438.347739,-2757.943793,1110.308913
1319.803319,-8734.430116,-2834.553343,962.267725
1319.803630,-8364.327145,-1608.800546,-148.041188
1319.803942,-7698.141797,-995.924147,-296.082377
1319.804253,-8438.347739,-995.924147,-296.082377
1319.804565,-10288.862594,-1378.971896,222.061783
1319.804877,-10881.027347,-536.266849,814.226536
1319.805188,-11103.089130,153.219100,814.226536
1319.805500,-11621.233289,612.876398,1184.329507
1319.805811,-10362.883188,536.266849,222.061783
1319.806123,-9696.697840,1838.629195,-740.205942
1319.806434,-8364.327145,2451.505594,-1036.288319
1319.806746,-7698.141797,1685.410096,-296.082377
1319.807057,-7105.977043,612.876398,1110.308913
1319.807369,-7920.203579,-612.876398,2072.576638
1319.807680,-9030.512492,-2451.505594,2590.720797
1319.807992,-9326.594869,-3140.991542,1998.556043
1319.808303,-8956.491898,-1378.971896,592.164754
1319.808615,-7402.059420,0.000000,-296.082377
1319.808926,-7031.956449,383.047749,-518.144159
1319.809238,-8364.327145,-1149.143247,-370.102971
1319.809549,-8290.306550,-459.657299,518.144159
1319.809861,-8882.471304,153.219100,592.164754
1319.810172,-9992.780217,536.266849,740.205942
1319.810484,-10362.883188,1455.581446,962.267725
1319.810795,-10807.006753,1915.238745,-0.000000
1319.811107,-9622.677246,2528.115143,814.226536
1319.811418,-8068.244768,2145.067394,1332.370696
1319.811730,-7402.059420,766.095498,1776.494261
1319.812042,-6883.915261,-689.485948,2368.659014
1319.812353,-7105.977043,-1915.238745,1850.514855
1319.812665,-7105.977043,-2757.943793,1406.391290
1319.812976,-7328.038826,-1838.629195,74.020594
1319.813288,-6957.935855,-919.314598,-962.267725
1319.813599,-7179.997637,-383.047749,-1924.535449
1319.813911,-8438.347739,153.219100,-370.102971
1319.814222,-10436.903782,536.266849,-0.000000
1319.814534,-10807.006753,153.219100,666.185348
1319.814845,-11251.130318,0.000000,1776.494261
1319.815157,-11621.233289,-306.438199,1406.391290
1319.815468,-11843.295072,306.438199,444.123565
1319.815780,-10436.903782,2145.067394,-74.020594
1319.816091,-8216.285956,1838.629195,-74.020594
1319.816403,-7772.162391,766.095498,-0.000000
1319.816714,-8068.244768,-306.438199,518.144159
1319.817026,-8586.388927,-1225.752797,888.247130
1319.817337,-8660.409521,-1685.410096,888.247130
1319.817649,-8882.471304,-1072.533697,518.144159
1319.817960,-8882.471304,383.047749,-592.164754
1319.818272,-7846.182985,995.924147,-1036.288319
1319.818583,-7624.121203,919.314598,-444.123565
1319.818895,-8512.368333,0.000000,296.082377
1319.819207,-8586.388927,766.095498,666.185348
1319.819518,-9770.718434,153.219100,1184.329507
1319.819830,-11103.089130,-306.438199,888.247130
1319.820141,-11991.336260,76.609550,148.041188
1319.820453,-11991.336260,2068.457845,-444.123565
1319.820764,-10955.047942,2681.334243,-962.267725
1319.821076,-9918.759623,1991.848295,-222.061783
1319.821387,-8290.306550,153.219100,370.102971
1319.821699,-6883.915261,-995.924147,962.267725
1319.822010,-6735.874072,-2145.067394,1480.411884
1319.822322,-5773.606348,-3294.210641,1480.411884
1319.822633,-5921.647536,-2145.067394,148.041188
1319.822945,-6587.832884,-1072.533697,-74.020594
1319.823256,-7105.977043,76.609550,-148.041188
1319.823568,-9400.615463,536.266849,1184.329507
1319.823879,-10658.965565,459.657299,888.247130
1319.824191,-11029.068536,153.219100,1406.391290
1319.824502,-10807.006753,383.047749,962.267725
1319.824814,-10140.821405,1149.143247,370.102971
1319.825125,-9400.615463,2068.457845,-148.041188
1319.825437,-9030.512492,2298.286494,-740.205942
1319.825748,-7772.162391,1915.238745,-0.000000
1319.826060,-6957.935855,1149.143247,1776.494261
1319.826372,-8068.244768,153.219100,2220.617826
1319.826683,-8512.368333,-766.095498,2812.782580
1319.826995,-8586.388927,-2145.067394,1998.556043
1319.827306,-8142.265362,-1532.190996,1036.288319
1319.827618,-7550.100608,-229.828649,222.061783
1319.827929,-7105.977043,842.705048,-1036.288319
1319.828241,-7698.141797,536.266849,-888.247130
1319.828552,-8734.430116,459.657299,296.082377
1319.828864,-9104.533087,0.000000,518.144159
1319.829175,-10140.821405,0.000000,888.247130
1319.829487,-11103.089130,383.047749,814.226536
1319.829798,-11769.274478,919.314598,296.082377
1319.830110,-11473.192101,1685.410096,740.205942
1319.830421,-10214.842000,919.314598,666.185348
1319.830733,-10066.800811,0.000000,1332.370696
1319.831044,-8734.430116,-1302.362347,2516.700203
1319.831356,-7550.100608,-2451.505594,2590.720797
1319.831667,-6661.853478,-2987.772442,2072.576638
1319.831979,-6957.935855,-3217.601092,370.102971
1319.832290,-7031.956449,-1838.629195,-592.164754
1319.832602,-6365.771101,-153.219100,-592.164754
1319.832913,-7772.162391,383.047749,-518.144159
1319.833225,-9696.697840,-306.438199,666.185348
1319.833536,-9770.718434,76.609550,1258.350101
1319.833848,-10140.821405,0.000000,1258.350101
1319.834160,-10214.842000,536.266849,1258.350101
1319.834471,-10436.903782,842.705048,-74.020594
1319.834783,-9696.697840,1762.019645,-962.267725
1319.835094,-8438.347739,1302.362347,-518.144159
1319.835406,-7476.080014,842.705048,-0.000000
1319.835717,-7105.977043,76.609550,592.164754
1319.836029,-7550.100608,-1072.533697,1480.411884
1319.836340,-8882.471304,-2834.553343,1554.432478
1319.836652,-8734.430116,-3524.039291,1480.411884
1319.836963,-8438.347739,-2451.505594,-296.082377
1319.837275,-7772.162391,-1302.362347,-592.164754
1319.837586,-7994.224174,-1302.362347,-1184.329507
1319.837898,-9104.533087,-1225.752797,-1110.308913
1319.838209,-8882.471304,-229.828649,-444.123565
1319.838521,-10140.821405,306.438199,-0.000000
1319.838832,-11399.171507,-919.314598,1036.288319
1319.839144,-12435.459826,-306.438199,444.123565
1319.839455,-12435.459826,1532.190996,-74.020594
1319.839767,-10362.883188,2451.505594,-518.144159
1319.840078,-8142.265362,2298.286494,-74.020594
1319.840390,-6883.915261,229.828649,444.123565
1319.840701,-5847.626942,-842.705048,296.082377
1319.841013,-6809.894666,-2068.457845,1036.288319
1319.841325,-8808.450710,-1685.410096,1110.308913
1319.841636,-8956.491898,-612.876398,-296.082377
1319.841948,-9400.615463,1149.143247,-666.185348
1319.842259,-9030.512492,919.314598,-518.144159
1319.842571,-9400.615463,536.266849,148.041188
1319.842882,-8586.388927,153.219100,1258.350101
1319.843194,-9400.615463,1532.190996,666.185348
1319.843505,-10881.027347,612.876398,814.226536
1319.843817,-10214.842000,1685.410096,370.102971
1319.844128,-10881.027347,2298.286494,-370.102971
1319.844440,-10066.800811,2528.115143,-74.020594
1319.844751,-7698.141797,1685.410096,592.164754
1319.845063,-8512.368333,612.876398,1332.370696
1319.845374,-8956.491898,-153.219100,1924.535449
1319.845686,-8290.306550,-919.314598,2220.617826
1319.845997,-8216.285956,-1532.190996,1850.514855
1319.846309,-7105.977043,-1532.190996,1406.391290
1319.846620,-6365.771101,-1455.581446,-74.020594
1319.846932,-5995.668130,-995.924147,-296.082377
1319.847243,-6809.894666,153.219100,-0.000000
1319.847555,-7105.977043,0.000000,1110.308913
1319.847866,-8438.347739,-766.095498,888.247130
1319.848178,-10140.821405,-919.314598,1924.535449
1319.848490,-10881.027347,306.438199,1332.370696
1319.848801,-11399.171507,1302.362347,148.041188
1319.849113,-10584.944971,2451.505594,222.061783
1319.849424,-9474.636058,1991.848295,518.144159
1319.849735,-8142.265362,383.047749,1258.350101
1319.850047,-7402.059420,-842.705048,1776.494261
1319.850358,-7994.224174,-2145.067394,1924.535449
1319.850670,-7920.203579,-2604.724693,1184.329507
1319.850981,-7328.038826,-1302.362347,-0.000000
1319.851293,-6883.915261,-766.095498,-1332.370696
1319.851604,-7328.038826,-536.266849,-1110.308913
1319.851915,-8808.450710,-842.705048,-0.000000
1319.852227,-10288.862594,-919.314598,1110.308913
1319.852538,-10955.047942,383.047749,1702.473667
1319.852850,-11843.295072,-153.219100,888.247130
1319.853161,-11621.233289,536.266849,518.144159
1319.853472,-10658.965565,919.314598,-370.102971
1319.853784,-9548.656652,919.314598,-666.185348
1319.854095,-9104.533087,1072.533697,-296.082377
1319.854407,-8808.450710,536.266849,592.164754
1319.854718,-9326.594869,-229.828649,1184.329507
1319.855029,-8660.409521,-1915.238745,1776.494261
1319.855341,-8142.265362,-3524.039291,1702.473667
1319.855652,-8882.471304,-3064.381992,1184.329507
1319.855964,-8438.347739,-2451.505594,-370.102971
1319.856275,-7994.224174,-842.705048,-1258.350101
1319.856586,-7624.121203,-766.095498,-296.082377
1319.856898,-8808.450710,-1302.362347,-74.020594
1319.857209,-9400.615463,-1149.143247,1554.432478
1319.857521,-10436.903782,-689.485948,740.205942
1319.857832,-10807.006753,0.000000,666.185348
1319.858143,-10140.821405,1149.143247,-0.000000
1319.858455,-10140.821405,2374.896044,-814.226536
1319.858766,-8808.450710,2681.334243,-222.061783
1319.859078,-8290.306550,1302.362347,518.144159
1319.859389,-7179.997637,0.000000,1628.453072
1319.859701,-6883.915261,0.000000,814.226536
1319.860012,-7920.203579,-1838.629195,814.226536
1319.860323,-7846.182985,-1685.410096,370.102971
1319.860635,-7920.203579,-1072.533697,148.041188
1319.860946,-7402.059420,-689.485948,-0.000000
1319.861258,-7698.141797,-1225.752797,-74.020594
1319.861569,-8808.450710,-1149.143247,518.144159
1319.861880,-8808.450710,0.000000,1110.308913
1319.862192,-8956.491898,0.000000,1110.308913
1319.862503,-9474.636058,0.000000,370.102971
1319.862815,-10066.800811,153.219100,-0.000000
1319.863126,-10140.821405,1149.143247,-518.144159
1319.863437,-10066.800811,1915.238745,-666.185348
1319.863749,-9918.759623,1838.629195,518.144159
1319.864060,-9252.574275,459.657299,1258.350101
1319.864372,-8586.388927,-1072.533697,1702.473667
1319.864683,-7846.182985,-1455.581446,1628.453072
1319.864994,-7994.224174,-1149.143247,1184.329507
1319.865306,-7772.162391,-995.924147,370.102971
1319.865617,-7698.141797,0.000000,-814.226536
1319.865929,-7402.059420,536.266849,-1110.308913
1319.866240,-7994.224174,842.705048,-592.164754
1319.866551,-9918.759623,612.876398,-0.000000
1319.866863,-9622.677246,1225.752797,370.102971
1319.867174,-9992.780217,536.266849,740.205942
1319.867486,-11251.130318,842.705048,814.226536
1319.867797,-11473.192101,1072.533697,-0.000000
1319.868109,-11843.295072,1762.019645,-0.000000
1319.868420,-10658.965565,1991.848295,592.164754
1319.868731,-9104.533087,919.314598,1406.391290
1319.869043,-8142.265362,153.219100,1406.391290
1319.869354,-7698.141797,-995.924147,1554.432478
1319.869666,-6735.874072,-1455.581446,740.205942
1319.869977,-5773.606348,-1302.362347,-222.061783
1319.870288,-6291.750507,76.609550,-888.247130
1319.870600,-7550.100608,383.047749,-1184.329507
1319.870911,-8364.327145,229.828649,-518.144159
1319.871223,-9918.759623,0.000000,592.164754
1319.871534,-9918.759623,459.657299,1628.453072
1319.871845,-10288.862594,76.609550,1110.308913
1319.872157,-9918.759623,0.000000,962.267725
1319.872468,-9400.615463,-306.438199,518.144159
1319.872780,-8808.450710,536.266849,-296.082377
1319.873091,-8216.285956,1149.143247,-0.000000
1319.873402,-8364.327145,689.485948,666.185348
1319.873714,-8808.450710,-766.095498,1480.411884
1319.874025,-8586.388927,-1149.143247,1850.514855
1319.874337,-8438.347739,-1608.800546,2072.576638
1319.874648,-8364.327145,-1991.848295,296.082377
1319.874959,-8142.265362,-1608.800546,-814.226536
1319.875271,-7328.038826,-459.657299,-1258.350101
1319.875582,-7105.977043,0.000000,-1036.288319
1319.875894,-8142.265362,-612.876398,-0.000000
1319.876205,-9252.574275,-612.876398,1184.329507
1319.876517,-10140.821405,-536.266849,1998.556043
1319.876828,-10510.924376,-306.438199,1776.494261
1319.877139,-10658.965565,-459.657299,888.247130
1319.877451,-10584.944971,459.657299,296.082377
1319.877762,-10066.800811,1838.629195,518.144159
1319.878074,-9696.697840,1762.019645,592.164754
1319.878385,-9474.636058,229.828649,1258.350101
1319.878696,-8586.388927,-1225.752797,1850.514855
1319.879008,-7772.162391,-1915.238745,1850.514855
1319.879319,-7772.162391,-1991.848295,1332.370696
1319.879631,-7624.121203,-1838.629195,-0.000000
1319.879942,-7698.141797,-383.047749,-370.102971
1319.880253,-7846.182985,383.047749,296.082377
1319.880565,-8290.306550,0.000000,370.102971
1319.880876,-9400.615463,0.000000,1480.411884
1319.881188,-9548.656652,306.438199,1776.494261
1319.881499,-9104.533087,995.924147,1406.391290
1319.881810,-9252.574275,459.657299,592.164754
1319.882122,-9474.636058,1225.752797,-148.041188
1319.882433,-9474.636058,1991.848295,-222.061783
1319.882745,-9474.636058,1685.410096,296.082377
1319.883056,-8586.388927,1149.143247,1776.494261
1319.883367,-7698.141797,-153.219100,2368.659014
1319.883679,-7550.100608,-1455.581446,2442.679609
1319.883990,-7105.977043,-2528.115143,1850.514855
1319.884302,-6883.915261,-2068.457845,-0.000000
1319.884613,-7179.997637,-536.266849,-1258.350101
1319.884925,-6513.812290,229.828649,-1258.350101
1319.885236,-7254.018232,306.438199,-1628.453072
1319.885547,-8882.471304,0.000000,-666.185348
1319.885859,-9548.656652,536.266849,-0.000000
1319.886170,-10436.903782,0.000000,1184.329507
1319.886482,-11843.295072,153.219100,1554.432478
1319.886793,-11621.233289,612.876398,814.226536
1319.887104,-10881.027347,1455.581446,-0.000000
1319.887416,-9104.533087,1838.629195,-0.000000
1319.887727,-7994.224174,1302.362347,148.041188
1319.888039,-7698.141797,306.438199,-0.000000
1319.888350,-7550.100608,-153.219100,-0.000000
1319.888661,-7920.203579,-1378.971896,148.041188
1319.888973,-7624.121203,-1378.971896,296.082377
1319.889284,-9400.615463,-995.924147,-666.185348
1319.889596,-9252.574275,-306.438199,-740.205942
1319.889907,-8734.430116,-459.657299,-444.123565
1319.890218,-9474.636058,-766.095498,-0.000000
1319.890530,-9844.739029,-459.657299,814.226536
1319.890841,-10807.006753,0.000000,740.205942
1319.891153,-10658.965565,-383.047749,1036.288319
1319.891464,-11399.171507,383.047749,222.061783
1319.891775,-11621.233289,2145.067394,-370.102971
1319.892087,-10140.821405,2987.772442,-518.144159
1319.892398,-9178.553681,2681.334243,-0.000000
1319.892710,-7846.182985,1838.629195,740.205942
1319.893021,-7550.100608,536.266849,962.267725
1319.893333,-7105.977043,-919.314598,1332.370696
1319.893644,-6513.812290,-1378.971896,1332.370696
1319.893955,-6883.915261,-1838.629195,222.061783
1319.894267,-7550.100608,-995.924147,-518.144159
1319.894578,-8290.306550,-306.438199,-222.061783
1319.894890,-8438.347739,-459.657299,-0.000000
1319.895201,-10066.800811,-383.047749,666.185348
1319.895512,-9992.780217,0.000000,1480.411884
1319.895824,-9622.677246,0.000000,1776.494261
1319.896135,-10881.027347,306.438199,1332.370696
1319.896447,-10214.842000,1225.752797,1110.308913
1319.896758,-8956.491898,1685.410096,814.226536
1319.897069,-8290.306550,1762.019645,740.205942
1319.897381,-7402.059420,766.095498,1998.556043
1319.897692,-7698.141797,-919.314598,1480.411884
1319.898004,-7179.997637,-2068.457845,1628.453072
1319.898315,-7031.956449,-2145.067394,1258.350101
1319.898626,-7550.100608,-1072.533697,-0.000000
1319.898938,-8142.265362,-995.924147,-296.082377
1319.899249,-8364.327145,-689.485948,-0.000000
1319.899561,-8068.244768,-612.876398,666.185348
1319.899872,-8364.327145,-153.219100,814.226536
1319.900183,-9030.512492,689.485948,1554.432478
1319.900495,-9252.574275,842.705048,962.267725
1319.900806,-10732.986159,383.047749,666.185348
1319.901118,-10955.047942,1455.581446,-370.102971
1319.901429,-9992.780217,2451.505594,-370.102971
1319.901741,-9844.739029,2298.286494,-74.020594
1319.902052,-9474.636058,995.924147,814.226536
1319.902363,-8808.450710,-995.924147,1628.453072
1319.902675,-7920.203579,-2068.457845,2294.638420
1319.902986,-7920.203579,-2604.724693,1998.556043
1319.903298,-8290.306550,-2911.162892,1036.288319
1319.903609,-8290.306550,-1225.752797,-148.041188
1319.903920,-8512.368333,-1378.971896,-888.247130
1319.904232,-7772.162391,-612.876398,-666.185348
1319.904543,-8734.430116,-459.657299,-0.000000
1319.904855,-9548.656652,-229.828649,444.123565
1319.905166,-9992.780217,0.000000,962.267725
1319.905477,-10510.924376,-383.047749,740.205942
1319.905789,-11029.068536,306.438199,666.185348
1319.906100,-10807.006753,1072.533697,-74.020594
1319.906412,-9474.636058,1915.238745,-370.102971
1319.906723,-8512.368333,919.314598,-0.000000
1319.907034,-7994.224174,-612.876398,888.247130
1319.907346,-7698.141797,-1991.848295,1332.370696
1319.907657,-7328.038826,-2451.505594,1480.411884
1319.907969,-7476.080014,-2834.553343,888.247130
1319.908280,-8512.368333,-2604.724693,-148.041188
1319.908591,-7920.203579,-1608.800546,-888.247130
1319.908903,-8512.368333,-1072.533697,-814.226536
1319.909214,-8882.471304,-689.485948,-74.020594
1319.909526,-9548.656652,-459.657299,740.205942
1319.909837,-9992.780217,0.000000,592.164754
1319.910149,-9918.759623,459.657299,740.205942
1319.910460,-11103.089130,919.314598,222.061783
1319.910771,-9696.697840,2298.286494,-222.061783
1319.911083,-9622.677246,2834.553343,-814.226536
1319.911394,-8734.430116,3294.210641,-148.041188
1319.911706,-7846.182985,2068.457845,444.123565
1319.912017,-7105.977043,612.876398,592.164754
1319.912328,-7105.977043,-306.438199,962.267725
1319.912640,-7476.080014,-2298.286494,814.226536
1319.912951,-7698.141797,-2374.896044,-148.041188
1319.913263,-8660.409521,-536.266849,-666.185348
1319.913574,-8364.327145,0.000000,-0.000000
1319.913885,-9104.533087,-536.266849,-0.000000
1319.914197,-10214.842000,-306.438199,1110.308913
1319.914508,-10066.800811,306.438199,1184.329507
1319.914820,-10288.862594,76.609550,1184.329507
1319.915131,-9992.780217,1838.629195,1110.308913
1319.915442,-10066.800811,1455.581446,222.061783
1319.915754,-9474.636058,2145.067394,-0.000000
1319.916065,-9104.533087,1455.581446,222.061783
1319.916377,-8512.368333,842.705048,1110.308913
1319.916688,-8364.327145,229.828649,1110.308913
1319.916999,-7994.224174,-689.485948,1480.411884
1319.917311,-7846.182985,-2221.676944,1480.411884
1319.917622,-7402.059420,-1838.629195,518.144159
1319.917934,-7105.977043,-766.095498,222.061783
1319.918245,-7328.038826,-383.047749,-0.000000
1319.918557,-7846.182985,-153.219100,370.102971
1319.918868,-9030.512492,-383.047749,740.205942
1319.919179,-9474.636058,0.000000,1332.370696
1319.919491,-10140.821405,-612.876398,962.267725
1319.919802,-10436.903782,459.657299,444.123565
1319.920114,-10214.842000,1149.143247,-74.020594
1319.920425,-10436.903782,1915.238745,-444.123565
1319.920736,-9770.718434,1455.581446,740.205942
1319.921048,-9030.512492,306.438199,1628.453072
1319.921359,-8512.368333,-919.314598,2442.679609
1319.921671,-7179.997637,-2298.286494,2886.803174
1319.921982,-6957.935855,-3524.039291,1776.494261
1319.922293,-7105.977043,-2911.162892,296.082377
1319.922605,-7402.059420,-919.314598,-1184.329507
1319.922916,-7105.977043,689.485948,-1628.453072
1319.923228,-7254.018232,0.000000,-962.267725
1319.923539,-9548.656652,-612.876398,-444.123565
1319.923850,-10362.883188,-689.485948,592.164754
1319.924162,-10658.965565,76.609550,1480.411884
1319.924473,-10881.027347,-153.219100,1406.391290
1319.924785,-10584.944971,306.438199,1036.288319
1319.925096,-10955.047942,0.000000,222.061783
1319.925407,-10214.842000,459.657299,-0.000000
1319.925719,-8808.450710,919.314598,370.102971
1319.926030,-8882.471304,0.000000,1110.308913
1319.926342,-8364.327145,-1072.533697,1036.288319
1319.926653,-7994.224174,-1991.848295,592.164754
1319.926965,-7476.080014,-1991.848295,444.123565
1319.927276,-8142.265362,-689.485948,-518.144159
1319.927587,-8216.285956,919.314598,-1332.370696
1319.927899,-8438.347739,689.485948,-740.205942
1319.928210,-8956.491898,306.438199,-0.000000
1319.928522,-9992.780217,229.828649,1110.308913
1319.928833,-9770.718434,1072.533697,1110.308913
1319.929144,-9770.718434,459.657299,666.185348
1319.929456,-9844.739029,76.609550,370.102971
1319.929767,-9474.636058,1149.143247,-370.102971
1319.930079,-8808.450710,1455.581446,-888.247130
1319.930390,-8586.388927,842.705048,-0.000000
1319.930701,-8956.491898,0.000000,888.247130
1319.931013,-8142.265362,-1225.752797,1628.453072
1319.931324,-7550.100608,-2298.286494,1850.514855
1319.931636,-7179.997637,-3370.820191,1406.391290
1319.931947,-6587.832884,-3753.867940,1184.329507
1319.932258,-7105.977043,-2451.505594,-370.102971
1319.932570,-6587.832884,-1378.971896,-444.123565
1319.932881,-8068.244768,-383.047749,-74.020594
1319.933193,-10288.862594,-919.314598,740.205942
1319.933504,-10658.965565,0.000000,1110.308913
1319.933815,-11103.089130,612.876398,814.226536
1319.934127,-10807.006753,612.876398,962.267725
1319.934438,-10140.821405,1532.190996,-148.041188
1319.934750,-10510.924376,2068.457845,-1110.308913
1319.935061,-9326.594869,1991.848295,-740.205942
1319.935373,-8290.306550,1532.190996,296.082377
1319.935684,-8512.368333,229.828649,1406.391290
1319.935995,-8512.368333,-383.047749,2146.597232
1319.936307,-9030.512492,-1685.410096,1702.473667
1319.936618,-8438.347739,-1455.581446,962.267725
1319.936930,-7772.162391,0.000000,-0.000000
1319.937241,-7624.121203,1149.143247,-296.082377
1319.937552,-7846.182985,1072.533697,-1036.288319
1319.937864,-9474.636058,0.000000,-222.061783
1319.938175,-9918.759623,383.047749,814.226536
1319.938487,-10214.842000,1225.752797,370.102971
1319.938798,-10732.986159,1608.800546,962.267725
1319.939109,-10214.842000,1532.190996,814.226536
1319.939421,-10658.965565,1455.581446,-0.000000
1319.939732,-9474.636058,2681.334243,222.061783
1319.940044,-8438.347739,2145.067394,962.267725
1319.940355,-7994.224174,919.314598,1554.432478
1319.940666,-7772.162391,-766.095498,1332.370696
1319.940978,-6587.832884,-1608.800546,1110.308913
1319.941289,-5847.626942,-2298.286494,-148.041188
1319.941601,-6291.750507,-1302.362347,-74.020594
1319.941912,-6365.771101,-766.095498,-1036.288319
1319.942223,-7254.018232,-383.047749,-740.205942
1319.942535,-9178.553681,-612.876398,-0.000000
1319.942846,-10732.986159,0.000000,814.226536
1319.943158,-11103.089130,1072.533697,1036.288319
1319.943469,-10140.821405,1302.362347,1480.411884
1319.943781,-9770.718434,919.314598,814.226536
1319.944092,-9548.656652,1838.629195,-74.020594
1319.944403,-10066.800811,1991.848295,-444.123565
1319.944715,-9326.594869,2145.067394,1332.370696
1319.945026,-8142.265362,689.485948,1332.370696
1319.945338,-9030.512492,-459.657299,1406.391290
1319.945649,-8808.450710,-1685.410096,1184.329507
1319.945960,-7920.203579,-2374.896044,296.082377
1319.946272,-7624.121203,-1378.971896,-444.123565
1319.946583,-7254.018232,76.609550,-518.144159
1319.946895,-7772.162391,306.438199,-0.000000
1319.947206,-9252.574275,-2145.067394,518.144159
1319.947517,-10658.965565,-1532.190996,1776.494261
1319.947829,-11325.150913,-383.047749,2072.576638
1319.948140,-11251.130318,-229.828649,1702.473667
1319.948452,-10881.027347,306.438199,1184.329507
1319.948763,-10140.821405,842.705048,-74.020594
1319.949074,-9844.739029,1149.143247,-592.164754
1319.949386,-9030.512492,1455.581446,-0.000000
1319.949697,-8734.430116,919.314598,962.267725
1319.950009,-9104.533087,-1302.362347,1702.473667
1319.950320,-8068.244768,-2145.067394,2368.659014
1319.950631,-7476.080014,-2374.896044,1628.453072
1319.950943,-6217.729913,-2757.943793,962.267725
1319.951254,-6513.812290,-2451.505594,-0.000000
1319.951566,-6735.874072,-1149.143247,-518.144159
1319.951877,-7105.977043,0.000000,-74.020594
1319.952188,-8808.450710,76.609550,1110.308913
1319.952500,-9844.739029,76.609550,2072.576638
1319.952811,-10510.924376,536.266849,1480.411884
1319.953123,-9548.656652,995.924147,1184.329507
1319.953434,-9030.512492,766.095498,-0.000000
1319.953745,-8660.409521,1455.581446,-592.164754
1319.954057,-8290.306550,2757.943793,-148.041188
1319.954368,-8364.327145,1225.752797,1184.329507
1319.954680,-8882.471304,0.000000,1480.411884
1319.954991,-9252.574275,-612.876398,2220.617826
1319.955302,-9178.553681,-1762.019645,1480.411884
1319.955614,-8216.285956,-2145.067394,1036.288319
1319.955925,-7402.059420,-1838.629195,-0.000000
1319.956237,-6809.894666,-1149.143247,-814.226536
1319.956548,-6587.832884,-919.314598,-666.185348
1319.956859,-8216.285956,0.000000,-518.144159
1319.957171,-9622.677246,0.000000,444.123565
1319.957482,-9992.780217,153.219100,148.041188
1319.957794,-10584.944971,459.657299,-74.020594
1319.958105,-11029.068536,919.314598,-148.041188
1319.958416,-11029.068536,1302.362347,-1036.288319
1319.958728,-11103.089130,2298.286494,-592.164754
1319.959039,-10658.965565,2221.676944,-222.061783
1319.959351,-9548.656652,1072.533697,1332.370696
1319.959662,-8068.244768,-229.828649,1480.411884
1319.959973,-7402.059420,-1685.410096,1110.308913
1319.960285,-7031.956449,-2221.676944,444.123565
1319.960596,-6957.935855,-1455.581446,-740.205942
1319.960908,-8364.327145,-306.438199,-1628.453072
1319.961219,-9326.594869,536.266849,-1258.350101
1319.961530,-10140.821405,153.219100,-814.226536
1319.961842,-11399.171507,229.828649,74.020594
1319.962153,-10732.986159,459.657299,740.205942
1319.962465,-10436.903782,306.438199,666.185348
1319.962776,-9992.780217,919.314598,444.123565
1319.963087,-9992.780217,1685.410096,-296.082377
1319.963399,-9474.636058,2451.505594,-0.000000
1319.963710,-8290.306550,2604.724693,296.082377
1319.964022,-7846.182985,1838.629195,666.185348
1319.964333,-7698.141797,0.000000,1776.494261
1319.964644,-7920.203579,-1225.752797,1406.391290
1319.964956,-6883.915261,-1455.581446,1628.453072
1319.965267,-7105.977043,-1149.143247,740.205942
1319.965579,-7476.080014,-842.705048,814.226536
1319.965890,-7994.224174,-1149.143247,-0.000000
1319.966201,-7920.203579,-1225.752797,962.267725
1319.966513,-8882.471304,-459.657299,962.267725
1319.966824,-9474.636058,76.609550,1628.453072
1319.967136,-10066.800811,536.266849,1554.432478
1319.967447,-9696.697840,612.876398,1850.514855
1319.967758,-9696.697840,1225.752797,1184.329507
1319.968070,-9178.553681,2528.115143,518.144159
1319.968381,-9104.533087,2604.724693,1110.308913
1319.968693,-8438.347739,1149.143247,740.205942
1319.969004,-7105.977043,0.000000,1628.453072
1319.969315,-7105.977043,-995.924147,1776.494261
1319.969627,-7179.997637,-2068.457845,1332.370696
1319.969938,-7624.121203,-2681.334243,518.144159
1319.970250,-8882.471304,-2145.067394,-74.020594
1319.970561,-8808.450710,-612.876398,-666.185348
1319.970872,-9178.553681,459.657299,-296.082377
1319.971184,-9992.780217,-689.485948,1184.329507
1319.971495,-9178.553681,-689.485948,1776.494261
1319.971807,-9030.512492,-1072.533697,1332.370696
1319.972118,-9030.512492,-612.876398,1036.288319
1319.972429,-9548.656652,306.438199,-148.041188
1319.972741,-10658.965565,919.314598,-370.102971
1319.973052,-10214.842000,1762.019645,-74.020594
1319.973364,-10140.821405,229.828649,-0.000000
1319.973675,-9770.718434,-459.657299,1110.308913
1319.973986,-9770.718434,-842.705048,1850.514855
1319.974298,-9548.656652,-2221.676944,1554.432478
1319.974609,-8142.265362,-2451.505594,740.205942
1319.974921,-7698.141797,-1915.238745,-222.061783
1319.975232,-7179.997637,-919.314598,-962.267725
1319.975543,-7105.977043,-153.219100,-592.164754
1319.975855,-8216.285956,0.000000,-222.061783
1319.976166,-8512.368333,612.876398,-0.000000
1319.976478,-9252.574275,689.485948,-0.000000
1319.976789,-10140.821405,306.438199,592.164754
1319.977100,-11177.109724,-229.828649,444.123565
1319.977412,-11103.089130,536.266849,-0.000000
1319.977723,-9992.780217,1838.629195,-0.000000
1319.978035,-9474.636058,1378.971896,-222.061783
1319.978346,-8512.368333,689.485948,666.185348
1319.978657,-8512.368333,-536.266849,814.226536
1319.978969,-7254.018232,-2068.457845,1258.350101
1319.979280,-6957.935855,-2604.724693,814.226536
1319.979592,-7476.080014,-1685.410096,-0.000000
1319.979903,-7476.080014,-229.828649,-1036.288319
1319.980214,-7402.059420,-229.828649,-1332.370696
1319.980526,-7328.038826,-842.705048,-370.102971
1319.980837,-8808.450710,-1302.362347,222.061783
1319.981149,-9178.553681,-229.828649,962.267725
1319.981460,-10214.842000,-153.219100,1036.288319
1319.981771,-10510.924376,-689.485948,1110.308913
1319.982083,-10732.986159,-383.047749,814.226536
1319.982394,-10362.883188,612.876398,518.144159
1319.982706,-9696.697840,1532.190996,-0.000000
1319.983017,-9400.615463,1532.190996,666.185348
1319.983328,-8956.491898,612.876398,814.226536
1319.983640,-8438.347739,-536.266849,1036.288319
1319.983951,-7846.182985,-1838.629195,666.185348
1319.984263,-7846.182985,-1915.238745,296.082377
1319.984574,-7846.182985,-612.876398,-222.061783
1319.984885,-7846.182985,383.047749,-222.061783
1319.985197,-8956.491898,-229.828649,444.123565
1319.985508,-9696.697840,76.609550,1628.453072
1319.985820,-9992.780217,306.438199,1258.350101
1319.986131,-10584.944971,1149.143247,888.247130
1319.986442,-10658.965565,1991.848295,740.205942
1319.986754,-10584.944971,2145.067394,-0.000000
1319.987065,-10066.800811,3064.381992,-222.061783
1319.987377,-9104.533087,2757.943793,148.041188
1319.987688,-8364.327145,2374.896044,814.226536
1319.987999,-7994.224174,919.314598,2072.576638
1319.988311,-7254.018232,0.000000,2072.576638
1319.988622,-7031.956449,-1455.581446,1702.473667
1319.988934,-7254.018232,-2298.286494,888.247130
1319.989245,-7254.018232,-1378.971896,-222.061783
1319.989556,-7402.059420,-383.047749,-296.082377
1319.989868,-7402.059420,229.828649,-296.082377
1319.990179,-8438.347739,-536.266849,444.123565
1319.990491,-9400.615463,-536.266849,962.267725
1319.990802,-9474.636058,-229.828649,962.267725
1319.991113,-9696.697840,229.828649,1184.329507
1319.991425,-9252.574275,459.657299,962.267725
1319.991736,-9696.697840,689.485948,-222.061783
1319.992048,-9474.636058,1455.581446,-148.041188
1319.992359,-8586.388927,1072.533697,444.123565
1319.992670,-7920.203579,0.000000,1332.370696
1319.992982,-7994.224174,-2068.457845,2368.659014
1319.993293,-8808.450710,-3753.867940,2220.617826
1319.993605,-8364.327145,-3217.601092,1110.308913
1319.993916,-8808.450710,-1991.848295,-222.061783
1319.994227,-8808.450710,0.000000,-1110.308913
1319.994539,-7698.141797,766.095498,-1480.411884
1319.994850,-9104.533087,0.000000,-1924.535449
1319.995162,-9622.677246,612.876398,-222.061783
1319.995473,-9992.780217,76.609550,-0.000000
1319.995784,-10288.862594,689.485948,222.061783
1319.996096,-10584.944971,459.657299,1036.288319
1319.996407,-10955.047942,-306.438199,-0.000000
1319.996719,-10214.842000,612.876398,-0.000000
1319.997030,-9474.636058,1302.362347,-0.000000
1319.997341,-8882.471304,689.485948,370.102971
1319.997653,-9178.553681,-1532.190996,1110.308913
1319.997964,-8808.450710,-2834.553343,2294.638420
1319.998276,-7624.121203,-3753.867940,962.267725
1319.998587,-7550.100608,-3677.258390,296.082377
1319.998898,-7920.203579,-2604.724693,-74.020594
1319.999210,-8068.244768,-1225.752797,-74.020594
1319.999521,-8438.347739,-689.485948,-444.123565
1319.999833,-9474.636058,-689.485948,518.144159
1320.000144,-9696.697840,0.000000,1480.411884
1320.000455,-9474.636058,536.266849,1332.370696
1320.000767,-9474.636058,459.657299,1332.370696
1320.001078,-9622.677246,536.266849,370.102971
1320.001390,-9548.656652,1838.629195,-296.082377
1320.001701,-9252.574275,2528.115143,-0.000000
1320.002012,-8216.285956,1455.581446,1036.288319
1320.002324,-8142.265362,0.000000,1258.350101
1320.002635,-7846.182985,-842.705048,1480.411884
1320.002947,-7254.018232,-1378.971896,1184.329507
1320.003258,-6661.853478,-1762.019645,-0.000000
1320.003569,-6439.791695,-689.485948,-518.144159
1320.003881,-6957.935855,76.609550,-814.226536
1320.004192,-7772.162391,-229.828649,-666.185348
1320.004504,-9252.574275,-229.828649,740.205942
1320.004815,-11103.089130,0.000000,1332.370696
1320.005126,-10732.986159,995.924147,1850.514855
1320.005438,-11103.089130,919.314598,1110.308913
1320.005749,-10732.986159,919.314598,666.185348
1320.006061,-10214.842000,1991.848295,-222.061783
1320.006372,-9326.594869,2374.896044,-0.000000
1320.006683,-8438.347739,2298.286494,592.164754
1320.006995,-7994.224174,383.047749,1110.308913
1320.007306,-7402.059420,-229.828649,1628.453072
1320.007617,-7402.059420,-689.485948,1924.535449
1320.007929,-7328.038826,-2145.067394,666.185348
1320.008240,-7476.080014,-1532.190996,-148.041188
1320.008552,-7920.203579,-229.828649,-814.226536
1320.008863,-7772.162391,153.219100,-888.247130
1320.009174,-8956.491898,153.219100,-370.102971
1320.009486,-9474.636058,0.000000,296.082377
1320.009797,-9104.533087,919.314598,888.247130
1320.010109,-10732.986159,536.266849,666.185348
1320.010420,-10881.027347,689.485948,814.226536
1320.010731,-11325.150913,1072.533697,370.102971
1320.011043,-10584.944971,1915.238745,222.061783
1320.011354,-9622.677246,1838.629195,740.205942
1320.011666,-9548.656652,689.485948,1184.329507
1320.011977,-8956.491898,-459.657299,1554.432478
1320.012288,-7772.162391,-1072.533697,1258.350101
1320.012600,-7105.977043,-1378.971896,814.226536
1320.012911,-6957.935855,-1532.190996,-74.020594
1320.013223,-7476.080014,-689.485948,-592.164754
1320.013534,-8142.265362,-153.219100,-518.144159
1320.013845,-8882.471304,-76.609550,-0.000000
1320.014157,-9918.759623,306.438199,1110.308913
1320.014468,-10362.883188,306.438199,740.205942
1320.014780,-9844.739029,612.876398,1258.350101
1320.015091,-10436.903782,919.314598,1332.370696
1320.015402,-9844.739029,1378.971896,518.144159
1320.015714,-9474.636058,1838.629195,-0.000000
1320.016025,-8956.491898,1532.190996,222.061783
1320.016337,-8808.450710,536.266849,962.267725
1320.016648,-7624.121203,-612.876398,1480.411884
1320.016959,-7402.059420,-2298.286494,1406.391290
1320.017271,-7031.956449,-2451.505594,1776.494261
1320.017582,-7254.018232,-3370.820191,666.185348
1320.017894,-7994.224174,-2145.067394,-148.041188
1320.018205,-7846.182985,-766.095498,-222.061783
1320.018516,-8068.244768,-995.924147,-0.000000
1320.018828,-9178.553681,-1072.533697,814.226536
1320.019139,-9104.533087,-766.095498,1110.308913
1320.019451,-9104.533087,153.219100,962.267725
1320.019762,-9918.759623,689.485948,740.205942
1320.020073,-10066.800811,766.095498,962.267725
1320.020385,-10436.903782,1532.190996,148.041188
1320.020696,-10066.800811,1685.410096,222.061783
1320.021008,-9252.574275,1532.190996,814.226536
1320.021319,-8142.265362,459.657299,1258.350101
1320.021630,-8808.450710,-689.485948,888.247130
1320.021942,-8216.285956,-1838.629195,1110.308913
1320.022253,-7328.038826,-2145.067394,-0.000000
1320.022565,-7402.059420,-1608.800546,-296.082377
1320.022876,-7846.182985,-383.047749,-370.102971
1320.023187,-8512.368333,-1072.533697,-444.123565
1320.023499,-9474.636058,-1072.533697,518.144159
1320.023810,-10066.800811,-383.047749,962.267725
1320.024122,-10510.924376,612.876398,1406.391290
1320.024433,-11399.171507,766.095498,1554.432478
1320.024744,-11325.150913,612.876398,666.185348
1320.025056,-10140.821405,1991.848295,-148.041188
1320.025367,-9030.512492,2451.505594,-148.041188
1320.025679,-8512.368333,2221.676944,-0.000000
1320.025990,-7772.162391,1225.752797,962.267725
1320.026301,-7846.182985,-229.828649,962.267725
1320.026613,-7402.059420,-2145.067394,1554.432478
1320.026924,-7254.018232,-1991.848295,592.164754
1320.027236,-7624.121203,-1685.410096,222.061783
1320.027547,-7550.100608,-1455.581446,-0.000000
1320.027858,-7105.977043,-1225.752797,-370.102971
1320.028170,-7624.121203,-1225.752797,-0.000000
1320.028481,-8808.450710,-306.438199,740.205942
1320.028793,-9252.574275,-459.657299,1406.391290
1320.029104,-9844.739029,0.000000,888.247130
1320.029415,-10214.842000,536.266849,592.164754
1320.029727,-10658.965565,1378.971896,-0.000000
1320.030038,-10955.047942,2221.676944,-222.061783
1320.030350,-10362.883188,2681.334243,-0.000000
1320.030661,-9696.697840,1378.971896,1110.308913
1320.030972,-8438.347739,0.000000,1480.411884
1320.031284,-7402.059420,-1302.362347,1332.370696
1320.031595,-6957.935855,-1915.238745,370.102971
1320.031907,-6143.709319,-1302.362347,-296.082377
1320.032218,-7031.956449,-689.485948,-962.267725
1320.032529,-7772.162391,76.609550,-1184.329507
1320.032841,-9104.533087,76.609550,-740.205942
1320.033152,-10510.924376,766.095498,296.082377
1320.033464,-10807.006753,766.095498,962.267725
1320.033775,-11177.109724,612.876398,1036.288319
1320.034086,-10732.986159,1225.752797,888.247130
1320.034398,-10584.944971,1685.410096,-0.000000
1320.034709,-9770.718434,2528.115143,-0.000000
1320.035021,-8956.491898,2911.162892,-0.000000
1320.035332,-8808.450710,2068.457845,814.226536
1320.035643,-8438.347739,459.657299,1184.329507
1320.035955,-9178.553681,-612.876398,1258.350101
1320.036266,-7772.162391,-612.876398,1036.288319
1320.036578,-7624.121203,-919.314598,666.185348
1320.036889,-7846.182985,-1302.362347,222.061783
1320.037200,-7476.080014,-536.266849,-0.000000
1320.037512,-7772.162391,-229.828649,-0.000000
1320.037823,-8364.327145,-153.219100,518.144159
1320.038135,-8290.306550,76.609550,1184.329507
1320.038446,-9178.553681,766.095498,962.267725
1320.038757,-9474.636058,536.266849,1184.329507
1320.039069,-9918.759623,1072.533697,592.164754
1320.039380,-10214.842000,1225.752797,-0.000000
1320.039692,-9474.636058,2604.724693,518.144159
1320.040003,-9252.574275,1532.190996,814.226536
1320.040314,-9178.553681,0.000000,1554.432478
1320.040626,-8216.285956,-995.924147,2146.597232
1320.040937,-7179.997637,-1991.848295,1628.453072
1320.041249,-6735.874072,-3217.601092,1184.329507
1320.041560,-6957.935855,-2451.505594,222.061783
1320.041871,-7254.018232,-1685.410096,-370.102971
1320.042183,-7402.059420,-1302.362347,-0.000000
1320.042494,-8956.491898,-1302.362347,518.144159
1320.042806,-9696.697840,-919.314598,1258.350101
1320.043117,-9918.759623,0.000000,1480.411884
1320.043428,-10436.903782,-383.047749,814.226536
1320.043740,-10584.944971,-153.219100,444.123565
1320.044051,-10881.027347,919.314598,-370.102971
1320.044363,-9844.739029,1685.410096,-0.000000
1320.044674,-9696.697840,1072.533697,222.061783
1320.044985,-9326.594869,76.609550,1480.411884
1320.045297,-9030.512492,-766.095498,1924.535449
1320.045608,-8068.244768,-2757.943793,2072.576638
1320.045920,-7105.977043,-3294.210641,1258.350101
1320.046231,-7920.203579,-2681.334243,-148.041188
1320.046542,-8216.285956,-383.047749,-1184.329507
1320.046854,-8364.327145,842.705048,-1258.350101
1320.047165,-9030.512492,1072.533697,-1258.350101
1320.047477,-9844.739029,766.095498,-444.123565
1320.047788,-10510.924376,995.924147,-222.061783
1320.048099,-9918.759623,1072.533697,1036.288319
1320.048411,-10288.862594,76.609550,370.102971
1320.048722,-9548.656652,306.438199,740.205942
1320.049034,-9474.636058,1072.533697,740.205942
1320.049345,-9474.636058,689.485948,592.164754
1320.049656,-8216.285956,76.609550,1258.350101
1320.049968,-7994.224174,-612.876398,1258.350101
1320.050279,-7105.977043,-2068.457845,1480.411884
1320.050591,-6735.874072,-2911.162892,1628.453072
1320.050902,-7105.977043,-4213.525239,444.123565
1320.051213,-7254.018232,-2145.067394,-666.185348
1320.051525,-7772.162391,-689.485948,-444.123565
1320.051836,-8734.430116,-229.828649,-148.041188
1320.052147,-10140.821405,153.219100,814.226536
1320.052458,-10288.862594,995.924147,1332.370696
1320.052770,-9992.780217,1915.238745,1480.411884
1320.053081,-9696.697840,1072.533697,1184.329507
1320.053393,-8956.491898,1838.629195,-148.041188
1320.053704,-8956.491898,2911.162892,-814.226536
1320.054016,-7920.203579,2528.115143,-518.144159
1320.054327,-8216.285956,1608.800546,-0.000000
1320.054639,-8438.347739,612.876398,592.164754
1320.054950,-8882.471304,-306.438199,1258.350101
1320.055262,-8956.491898,-1685.410096,1184.329507
1320.055573,-8882.471304,-1608.800546,148.041188
1320.055885,-9178.553681,-689.485948,296.082377
1320.056196,-8364.327145,-919.314598,-370.102971
1320.056507,-8586.388927,-153.219100,-148.041188
1320.056819,-9474.636058,0.000000,-0.000000
1320.057130,-9030.512492,842.705048,666.185348
1320.057442,-9918.759623,1149.143247,740.205942
1320.057753,-10658.965565,842.705048,592.164754
1320.058065,-11029.068536,1072.533697,666.185348
1320.058376,-11473.192101,919.314598,-222.061783
1320.058688,-10214.842000,2221.676944,740.205942
1320.058999,-9844.739029,1991.848295,666.185348
1320.059311,-9104.533087,766.095498,888.247130
1320.059622,-7624.121203,-995.924147,1776.494261
1320.059934,-6513.812290,-2834.553343,1184.329507
1320.060245,-5477.523971,-2298.286494,1036.288319
1320.060556,-6883.915261,-2145.067394,-296.082377
1320.060868,-6513.812290,-536.266849,-296.082377
1320.061179,-6661.853478,-76.609550,-444.123565
1320.061491,-8512.368333,-153.219100,-0.000000
1320.061802,-9252.574275,229.828649,888.247130
1320.062114,-10436.903782,919.314598,370.102971
1320.062425,-10362.883188,1149.143247,592.164754
1320.062737,-10066.800811,2451.505594,518.144159
1320.063048,-10584.944971,1762.019645,444.123565
1320.063360,-9474.636058,1302.362347,370.102971
1320.063671,-9474.636058,459.657299,518.144159
1320.063983,-9104.533087,0.000000,1258.350101
1320.064294,-8660.409521,-766.095498,1184.329507
1320.064605,-8142.265362,-2068.457845,1258.350101
1320.064917,-7179.997637,-2834.553343,814.226536
1320.065228,-7254.018232,-2757.943793,444.123565
1320.065540,-7254.018232,-2528.115143,222.061783
1320.065851,-7179.997637,-1455.581446,-296.082377
1320.066163,-8364.327145,-919.314598,-74.020594
1320.066474,-9252.574275,-459.657299,518.144159
1320.066786,-9918.759623,0.000000,444.123565
1320.067097,-9770.718434,612.876398,666.185348
1320.067409,-9622.677246,689.485948,222.061783
1320.067720,-10658.965565,459.657299,-0.000000
1320.068031,-11251.130318,1149.143247,444.123565
1320.068343,-11547.212695,536.266849,444.123565
1320.068654,-9770.718434,0.000000,1184.329507
1320.068966,-9400.615463,-766.095498,1406.391290
1320.069277,-8512.368333,-1532.190996,1406.391290
1320.069589,-7179.997637,-2221.676944,592.164754
1320.069900,-6587.832884,-3064.381992,148.041188
1320.070212,-6587.832884,-2145.067394,-0.000000
1320.070523,-7105.977043,-995.924147,-0.000000
1320.070835,-8586.388927,-229.828649,-74.020594
1320.071146,-10140.821405,0.000000,1110.308913
1320.071458,-9696.697840,383.047749,1776.494261
1320.071769,-9770.718434,766.095498,1184.329507
1320.072080,-9474.636058,919.314598,666.185348
1320.072392,-9548.656652,1225.752797,-148.041188
1320.072703,-8734.430116,1838.629195,-592.164754
1320.073015,-8438.347739,2068.457845,-222.061783
1320.073326,-8882.471304,842.705048,370.102971
1320.073638,-9474.636058,-766.095498,1184.329507
1320.073949,-8586.388927,-1532.190996,1924.535449
1320.074261,-7994.224174,-1991.848295,1924.535449
1320.074572,-7550.100608,-2681.334243,1258.350101
1320.074884,-7179.997637,-2451.505594,-0.000000
1320.075195,-7179.997637,-1762.019645,-296.082377
1320.075507,-6809.894666,-995.924147,-592.164754
1320.075818,-7624.121203,0.000000,-74.020594
1320.076129,-9178.553681,0.000000,592.164754
1320.076441,-9622.677246,612.876398,888.247130
1320.076752,-9992.780217,1072.533697,740.205942
1320.077064,-10288.862594,1762.019645,-0.000000
1320.077375,-11029.068536,2145.067394,-592.164754
1320.077687,-10658.965565,2298.286494,-296.082377
1320.077998,-10214.842000,2221.676944,-370.102971
1320.078310,-9622.677246,1455.581446,370.102971
1320.078621,-8882.471304,536.266849,814.226536
1320.078933,-8068.244768,-1225.752797,1184.329507
1320.079244,-7328.038826,-2834.553343,1110.308913
1320.079556,-7179.997637,-2451.505594,-296.082377
1320.079867,-7846.182985,-153.219100,-888.247130
1320.080178,-7920.203579,459.657299,-444.123565
1320.080490,-9474.636058,995.924147,-222.061783
1320.080801,-10066.800811,842.705048,592.164754
1320.081113,-9992.780217,1302.362347,740.205942
1320.081424,-9770.718434,766.095498,666.185348
1320.081736,-9474.636058,1685.410096,296.082377
1320.082047,-10066.800811,2068.457845,-74.020594
1320.082359,-10510.924376,2145.067394,-740.205942
1320.082670,-9696.697840,1762.019645,-0.000000
1320.082982,-10214.842000,1378.971896,518.144159
1320.083293,-9474.636058,383.047749,1554.432478
1320.083605,-8512.368333,-766.095498,2072.576638
1320.083916,-7179.997637,-2221.676944,1776.494261
1320.084227,-6809.894666,-2604.724693,740.205942
1320.084539,-6513.812290,-1838.629195,148.041188
1320.084850,-6439.791695,-536.266849,-222.061783
1320.085162,-6735.874072,0.000000,-148.041188
1320.085473,-8290.306550,-689.485948,296.082377
1320.085785,-8956.491898,0.000000,888.247130
1320.086096,-9770.718434,0.000000,962.267725
1320.086408,-10140.821405,0.000000,1480.411884
1320.086719,-10214.842000,-229.828649,1332.370696
1320.087031,-11029.068536,-536.266849,814.226536
1320.087342,-10288.862594,1378.971896,1110.308913
1320.087654,-9326.594869,919.314598,666.185348
1320.087965,-8660.409521,153.219100,1406.391290
1320.088276,-8438.347739,-766.095498,1628.453072
1320.088588,-7476.080014,-1838.629195,1036.288319
1320.088899,-6957.935855,-1915.238745,444.123565
1320.089211,-7402.059420,-1072.533697,-0.000000
1320.089522,-7772.162391,0.000000,-0.000000
1320.089834,-8290.306550,-766.095498,-0.000000
1320.090145,-9178.553681,-689.485948,740.205942
1320.090457,-9918.759623,-383.047749,1406.391290
1320.090768,-9992.780217,383.047749,1258.350101
1320.091080,-10140.821405,1072.533697,370.102971
1320.091391,-9992.780217,919.314598,-296.082377
1320.091703,-10584.944971,1225.752797,-666.185348
1320.092014,-9548.656652,2068.457845,-518.144159
1320.092325,-9326.594869,1915.238745,-0.000000
1320.092637,-8882.471304,766.095498,1480.411884
1320.092948,-8956.491898,-459.657299,1850.514855
1320.093260,-8512.368333,-1378.971896,1924.535449
1320.093571,-7698.141797,-2068.457845,962.267725
1320.093883,-7031.956449,-2068.457845,296.082377
1320.094194,-7772.162391,-1149.143247,-814.226536
1320.094506,-7476.080014,-689.485948,-888.247130
1320.094817,-8142.265362,-1149.143247,-222.061783
1320.095129,-9474.636058,-612.876398,444.123565
1320.095440,-9474.636058,-153.219100,1184.329507
1320.095751,-9696.697840,-612.876398,962.267725
1320.096063,-9474.636058,-536.266849,1554.432478
1320.096374,-10658.965565,-766.095498,-0.000000
1320.096686,-10658.965565,306.438199,-74.020594
1320.096997,-8882.471304,1149.143247,148.041188
1320.097309,-9474.636058,306.438199,740.205942
1320.097620,-9474.636058,-1225.752797,1702.473667
1320.097932,-8660.409521,-2068.457845,1332.370696
1320.098243,-7920.203579,-1608.800546,962.267725
1320.098555,-7254.018232,-766.095498,-0.000000
1320.098866,-7772.162391,766.095498,-1184.329507
1320.099178,-7550.100608,1225.752797,-2072.576638
1320.099489,-7698.141797,306.438199,-1110.308913
1320.099800,-9104.533087,0.000000,-444.123565
1320.100112,-9400.615463,536.266849,518.144159
1320.100423,-10436.903782,689.485948,370.102971
1320.100735,-10288.862594,0.000000,1036.288319
1320.101046,-10584.944971,-766.095498,740.205942
1320.101358,-10436.903782,76.609550,518.144159
1320.101669,-9474.636058,459.657299,1406.391290
1320.101981,-10140.821405,-383.047749,1110.308913
1320.102292,-9622.677246,-459.657299,2220.617826
1320.102604,-9030.512492,0.000000,1924.535449
1320.102915,-8364.327145,-459.657299,1554.432478
1320.103227,-7550.100608,-995.924147,740.205942
1320.103538,-7328.038826,-229.828649,-370.102971
1320.103849,-6883.915261,1378.971896,-888.247130
1320.104161,-6809.894666,1149.143247,-962.267725
1320.104472,-8068.244768,919.314598,-740.205942
1320.104784,-9104.533087,1149.143247,222.061783
1320.105095,-9844.739029,1991.848295,962.267725
1320.105407,-10140.821405,1532.190996,1184.329507
1320.105718,-10362.883188,1072.533697,962.267725
1320.106030,-10732.986159,1149.143247,296.082377
1320.106341,-9992.780217,1455.581446,518.144159
1320.106653,-8882.471304,1685.410096,962.267725
1320.106964,-8216.285956,306.438199,1628.453072
1320.107276,-7846.182985,-612.876398,1924.535449
1320.107587,-7179.997637,-995.924147,1258.350101
1320.107898,-6735.874072,-1149.143247,370.102971
1320.108210,-7328.038826,-612.876398,-148.041188
1320.108521,-7328.038826,76.609550,-370.102971
1320.108833,-8290.306550,0.000000,296.082377
1320.109144,-9104.533087,-1149.143247,1110.308913
1320.109456,-9770.718434,-383.047749,1554.432478
1320.109767,-9992.780217,0.000000,1554.432478
1320.110079,-9918.759623,0.000000,1184.329507
1320.110390,-9622.677246,-306.438199,814.226536
1320.110702,-9400.615463,153.219100,-518.144159
1320.111013,-8660.409521,1762.019645,-370.102971
1320.111325,-7920.203579,1455.581446,-0.000000
1320.111636,-7994.224174,766.095498,592.164754
1320.111947,-7624.121203,-1378.971896,1406.391290
1320.112259,-7105.977043,-2451.505594,1628.453072
1320.112570,-7402.059420,-2681.334243,1258.350101
1320.112882,-7994.224174,-2221.676944,296.082377
1320.113193,-8290.306550,-1838.629195,-666.185348
1320.113505,-8734.430116,-842.705048,-962.267725
1320.113816,-8808.450710,-1378.971896,-370.102971
1320.114128,-10288.862594,-1149.143247,-0.000000
1320.114439,-11103.089130,-842.705048,666.185348
1320.114751,-11103.089130,-612.876398,1184.329507
1320.115062,-11399.171507,-766.095498,1332.370696
1320.115374,-11621.233289,0.000000,666.185348
1320.115685,-11399.171507,1762.019645,148.041188
1320.115996,-9844.739029,1608.800546,-222.061783
1320.116308,-8734.430116,919.314598,148.041188
1320.116619,-8364.327145,153.219100,444.123565
1320.116931,-7994.224174,-153.219100,444.123565
1320.117242,-7846.182985,-1225.752797,666.185348
1320.117554,-7920.203579,-1532.190996,370.102971
1320.117865,-7994.224174,-1225.752797,-0.000000
1320.118177,-8512.368333,-383.047749,-740.205942
1320.118488,-8364.327145,-153.219100,-0.000000
1320.118800,-9178.553681,0.000000,518.144159
1320.119111,-9252.574275,536.266849,962.267725
1320.119423,-9474.636058,76.609550,888.247130
1320.119734,-9178.553681,-306.438199,1184.329507
1320.120045,-9474.636058,229.828649,296.082377
1320.120357,-10066.800811,1378.971896,148.041188
1320.120668,-9548.656652,2298.286494,592.164754
1320.120980,-9104.533087,1225.752797,1110.308913
1320.121291,-8364.327145,0.000000,2072.576638
1320.121603,-8068.244768,-689.485948,1850.514855
1320.121914,-6957.935855,-1302.362347,1628.453072
1320.122226,-6587.832884,-1608.800546,370.102971
1320.122537,-5995.668130,-1455.581446,-296.082377
1320.122849,-5625.565159,0.000000,-1110.308913
1320.123160,-5921.647536,612.876398,-888.247130
1320.123471,-7846.182985,0.000000,-370.102971
1320.123783,-9104.533087,0.000000,370.102971
1320.124094,-10807.006753,459.657299,962.267725
1320.124406,-11621.233289,689.485948,1258.350101
1320.124717,-11621.233289,766.095498,740.205942
1320.125029,-12065.356855,1072.533697,518.144159
1320.125340,-10436.903782,689.485948,296.082377
1320.125652,-8808.450710,766.095498,222.061783
1320.125963,-9104.533087,-383.047749,592.164754
1320.126275,-8216.285956,76.609550,962.267725
1320.126586,-7624.121203,-689.485948,888.247130
1320.126898,-7402.059420,-1378.971896,518.144159
1320.127209,-8142.265362,-1915.238745,-74.020594
1320.127520,-7920.203579,-306.438199,-148.041188
1320.127832,-8586.388927,-919.314598,-148.041188
1320.128143,-8734.430116,-383.047749,370.102971
1320.128455,-10140.821405,0.000000,370.102971
1320.128766,-10807.006753,0.000000,962.267725
1320.129078,-10214.842000,842.705048,666.185348
1320.129389,-10362.883188,995.924147,-148.041188
1320.129701,-10807.006753,1685.410096,-592.164754
1320.130012,-10140.821405,2911.162892,-962.267725
1320.130324,-9326.594869,3064.381992,-222.061783
1320.130635,-8586.388927,1608.800546,592.164754
1320.130947,-8512.368333,229.828649,1702.473667
1320.131258,-7476.080014,-1302.362347,1406.391290
1320.131569,-7179.997637,-2145.067394,1258.350101
1320.131881,-7105.977043,-2221.676944,592.164754
1320.132192,-7328.038826,-1302.362347,-74.020594
1320.132504,-7550.100608,0.000000,-74.020594
1320.132815,-7994.224174,-842.705048,-0.000000
1320.133127,-8734.430116,-1072.533697,1036.288319
1320.133438,-9400.615463,229.828649,666.185348
1320.133750,-9696.697840,612.876398,666.185348
1320.134061,-9622.677246,459.657299,814.226536
1320.134373,-10066.800811,919.314598,-0.000000
1320.134684,-9770.718434,2298.286494,-74.020594
1320.134996,-9252.574275,3524.039291,-148.041188
1320.135307,-9326.594869,1838.629195,444.123565
1320.135618,-8734.430116,689.485948,1480.411884
1320.135930,-7698.141797,-1838.629195,1776.494261
1320.136241,-7328.038826,-2528.115143,1702.473667
1320.136553,-7105.977043,-2987.772442,962.267725
1320.136864,-7550.100608,-2374.896044,222.061783
1320.137176,-7846.182985,-1302.362347,148.041188
1320.137487,-8142.265362,-1378.971896,370.102971
1320.137799,-8882.471304,-1838.629195,370.102971
1320.138110,-9770.718434,-689.485948,888.247130
1320.138422,-10362.883188,383.047749,962.267725
1320.138733,-9992.780217,306.438199,1110.308913
1320.139045,-10362.883188,459.657299,518.144159
1320.139356,-10510.924376,1072.533697,-0.000000
1320.139667,-10584.944971,2451.505594,-0.000000
1320.139979,-10288.862594,919.314598,518.144159
1320.140290,-9030.512492,1838.629195,1332.370696
1320.140602,-8734.430116,76.609550,1258.350101
1320.140913,-7846.182985,-2068.457845,1628.453072
1320.141225,-7476.080014,-2834.553343,962.267725
1320.141536,-7328.038826,-2604.724693,-0.000000
1320.141848,-7179.997637,-1302.362347,-518.144159
1320.142159,-7254.018232,0.000000,-888.247130
1320.142471,-7920.203579,-612.876398,-296.082377
1320.142782,-9326.594869,-766.095498,518.144159
1320.143094,-9844.739029,0.000000,1332.370696
1320.143405,-10214.842000,0.000000,1850.514855
1320.143716,-10881.027347,76.609550,1554.432478
1320.144028,-11621.233289,689.485948,518.144159
1320.144339,-11103.089130,2068.457845,-0.000000
1320.144651,-9030.512492,2757.943793,592.164754
1320.144962,-8364.327145,1455.581446,296.082377
1320.145274,-8290.306550,0.000000,518.144159
1320.145585,-7179.997637,-1378.971896,888.247130
1320.145897,-6883.915261,-1838.629195,666.185348
1320.146208,-7402.059420,-1532.190996,-74.020594
1320.146520,-7772.162391,-995.924147,-370.102971
1320.146831,-7402.059420,-459.657299,-518.144159
1320.147143,-7105.977043,-536.266849,-370.102971
1320.147454,-8364.327145,-1378.971896,518.144159
1320.147765,-8882.471304,0.000000,814.226536
1320.148077,-9992.780217,536.266849,1036.288319
1320.148388,-10140.821405,0.000000,666.185348
1320.148700,-10584.944971,0.000000,74.020594
1320.149011,-11177.109724,1455.581446,-296.082377
1320.149323,-10362.883188,2374.896044,-74.020594
1320.149634,-9474.636058,2604.724693,444.123565
1320.149946,-9104.533087,76.609550,1258.350101
1320.150257,-8290.306550,-842.705048,1110.308913
1320.150569,-8142.265362,-1991.848295,444.123565
1320.150880,-7698.141797,-2451.505594,-0.000000
1320.151191,-7402.059420,-1149.143247,-666.185348
1320.151503,-7105.977043,153.219100,-1628.453072
1320.151814,-7624.121203,0.000000,-1110.308913
1320.152126,-9252.574275,-842.705048,370.102971
1320.152437,-10436.903782,-383.047749,370.102971
1320.152748,-9918.759623,766.095498,1332.370696
1320.153060,-10436.903782,306.438199,1406.391290
1320.153371,-11029.068536,689.485948,592.164754
1320.153682,-11103.089130,1532.190996,-74.020594
1320.153994,-9770.718434,2145.067394,-74.020594
1320.154305,-9178.553681,1838.629195,296.082377
1320.154617,-8956.491898,459.657299,1184.329507
1320.154928,-9474.636058,-766.095498,1628.453072
1320.155239,-8586.388927,-1532.190996,2146.597232
1320.155551,-7772.162391,-2374.896044,1776.494261
1320.155862,-8068.244768,-1762.019645,740.205942
1320.156173,-8290.306550,0.000000,-0.000000
1320.156485,-8364.327145,689.485948,370.102971
1320.156796,-8586.388927,995.924147,740.205942
1320.157107,-8364.327145,1149.143247,1036.288319
1320.157419,-9252.574275,1455.581446,518.144159
1320.157730,-8734.430116,1225.752797,888.247130
1320.158041,-9030.512492,1838.629195,444.123565
1320.158353,-9400.615463,2451.505594,-0.000000
1320.158664,-9326.594869,2604.724693,296.082377
1320.158976,-9326.594869,2068.457845,740.205942
1320.159287,-8364.327145,689.485948,1924.535449
1320.159598,-7105.977043,-383.047749,2146.597232
1320.159910,-6661.853478,-1991.848295,1924.535449
1320.160221,-7328.038826,-2834.553343,962.267725
1320.160532,-7550.100608,-2834.553343,-0.000000
1320.160844,-7550.100608,-1608.800546,-592.164754
1320.161155,-7772.162391,-689.485948,-0.000000
1320.161466,-8586.388927,-1378.971896,370.102971
1320.161778,-9992.780217,-1302.362347,1036.288319
1320.162089,-10436.903782,-766.095498,1480.411884
1320.162401,-10362.883188,-383.047749,1332.370696
1320.162712,-9770.718434,0.000000,1110.308913
1320.163023,-10066.800811,995.924147,296.082377
1320.163335,-9400.615463,1302.362347,-296.082377
1320.163646,-8512.368333,1455.581446,-222.061783
1320.163957,-7994.224174,689.485948,592.164754
1320.164269,-8882.471304,76.609550,296.082377
1320.164580,-8290.306550,-919.314598,1036.288319
1320.164891,-8438.347739,-1991.848295,444.123565
1320.165203,-8660.409521,-2451.505594,-0.000000
1320.165514,-8956.491898,-1455.581446,-370.102971
1320.165825,-9474.636058,-1072.533697,-666.185348
1320.166137,-8882.471304,-919.314598,-74.020594
1320.166448,-9400.615463,-689.485948,444.123565
1320.166760,-9548.656652,229.828649,1110.308913
1320.167071,-9770.718434,0.000000,1036.288319
1320.167382,-9918.759623,-612.876398,518.144159
1320.167694,-10584.944971,383.047749,-0.000000
1320.168005,-10658.965565,1532.190996,-370.102971
1320.168316,-10732.986159,2374.896044,-0.000000
1320.168628,-9696.697840,1532.190996,592.164754
1320.168939,-8586.388927,153.219100,1110.308913
1320.169250,-7846.182985,-1762.019645,1702.473667
1320.169562,-6735.874072,-2911.162892,1480.411884
1320.169873,-7105.977043,-3600.648841,-0.000000
1320.170184,-7031.956449,-2298.286494,-592.164754
1320.170496,-7105.977043,-766.095498,-1036.288319
1320.170807,-7476.080014,-612.876398,-592.164754
1320.171119,-8956.491898,-536.266849,-74.020594
1320.171430,-9548.656652,689.485948,592.164754
1320.171741,-9696.697840,1455.581446,1110.308913
1320.172053,-10214.842000,1225.752797,1110.308913
1320.172364,-10955.047942,459.657299,444.123565
1320.172675,-11029.068536,1378.971896,148.041188
1320.172987,-10066.800811,2604.724693,-148.041188
1320.173298,-8734.430116,2528.115143,148.041188
1320.173609,-8512.368333,1378.971896,740.205942
1320.173921,-8438.347739,-306.438199,888.247130
1320.174232,-8364.327145,-919.314598,1184.329507
1320.174544,-7994.224174,-1608.800546,1036.288319
1320.174855,-8586.388927,-536.266849,296.082377
1320.175166,-8586.388927,536.266849,-0.000000
1320.175478,-8290.306550,612.876398,-444.123565
1320.175789,-7772.162391,459.657299,-0.000000
1320.176100,-8364.327145,919.314598,666.185348
1320.176412,-9030.512492,1762.019645,666.185348
1320.176723,-9622.677246,2221.676944,740.205942
1320.177034,-10066.800811,2145.067394,444.123565
1320.177346,-10214.842000,1838.629195,148.041188
1320.177657,-9918.759623,2374.896044,-0.000000
1320.177968,-9252.574275,1838.629195,592.164754
1320.178280,-8734.430116,229.828649,1332.370696
1320.178591,-7846.182985,-229.828649,1554.432478
1320.178903,-7550.100608,-1762.019645,1702.473667
1320.179214,-7624.121203,-3140.991542,1480.411884
1320.179525,-7105.977043,-3447.429741,740.205942
1320.179837,-7402.059420,-1991.848295,-444.123565
1320.180148,-7179.997637,-612.876398,-222.061783
1320.180459,-8364.327145,-383.047749,-0.000000
1320.180771,-10066.800811,-689.485948,814.226536
1320.181082,-9400.615463,306.438199,1702.473667
1320.181393,-9474.636058,766.095498,962.267725
1320.181705,-9770.718434,919.314598,888.247130
1320.182016,-10140.821405,995.924147,-0.000000
1320.182327,-9622.677246,1838.629195,-296.082377
1320.182639,-9474.636058,2145.067394,-592.164754
1320.182950,-9104.533087,1302.362347,296.082377
1320.183262,-9622.677246,0.000000,814.226536
1320.183573,-9770.718434,-1149.143247,1184.329507
1320.183884,-8586.388927,-2221.676944,1406.391290
1320.184196,-7698.141797,-2681.334243,1110.308913
1320.184507,-7624.121203,-1762.019645,592.164754
1320.184818,-7994.224174,-1225.752797,-0.000000
1320.185130,-8290.306550,-1608.800546,222.061783
1320.185441,-8808.450710,-1378.971896,592.164754
1320.185752,-9474.636058,0.000000,1110.308913
1320.186064,-9992.780217,459.657299,888.247130
1320.186375,-10658.965565,0.000000,814.226536
1320.186687,-10807.006753,0.000000,74.020594
1320.186998,-10658.965565,919.314598,-0.000000
1320.187309,-9918.759623,1455.581446,370.102971
1320.187621,-9992.780217,689.485948,814.226536
1320.187932,-8956.491898,-536.266849,1258.350101
1320.188243,-7328.038826,-1072.533697,1332.370696
1320.188555,-6143.709319,-2145.067394,1258.350101
1320.188866,-6217.729913,-2221.676944,222.061783
1320.189177,-7105.977043,-1378.971896,-444.123565
1320.189489,-7402.059420,-229.828649,-962.267725
1320.189800,-7031.956449,459.657299,-666.185348
1320.190111,-8142.265362,383.047749,222.061783
1320.190423,-9474.636058,229.828649,1110.308913
1320.190734,-10066.800811,229.828649,962.267725
1320.191046,-9474.636058,842.705048,888.247130
1320.191357,-10214.842000,1762.019645,-0.000000
1320.191668,-10510.924376,1532.190996,-370.102971
1320.191980,-10140.821405,1915.238745,-444.123565
1320.192291,-9474.636058,919.314598,296.082377
1320.192602,-9178.553681,-229.828649,1332.370696
1320.192914,-9104.533087,-766.095498,1332.370696
1320.193225,-8660.409521,-1608.800546,1628.453072
1320.193536,-8216.285956,-2374.896044,1184.329507
1320.193848,-7179.997637,-2068.457845,-0.000000
1320.194159,-7179.997637,-1302.362347,-592.164754
1320.194470,-7772.162391,-612.876398,-370.102971
1320.194782,-8808.450710,-612.876398,-370.102971
1320.195093,-9474.636058,0.000000,370.102971
1320.195405,-9992.780217,536.266849,962.267725
1320.195716,-10362.883188,612.876398,1110.308913
1320.196027,-10807.006753,0.000000,1110.308913
1320.196339,-10066.800811,995.924147,296.082377
1320.196650,-9178.553681,1685.410096,-296.082377
1320.196961,-9252.574275,1685.410096,-0.000000
1320.197273,-9474.636058,536.266849,666.185348
1320.197584,-9030.512492,-766.095498,1184.329507
1320.197895,-7698.141797,-1072.533697,1480.411884
1320.198207,-7105.977043,-1532.190996,1184.329507
1320.198518,-7402.059420,-1991.848295,-0.000000
1320.198830,-8068.244768,-2068.457845,-296.082377
1320.199141,-8438.347739,-766.095498,-0.000000
1320.199452,-8586.388927,0.000000,-0.000000
1320.199764,-9548.656652,536.266849,666.185348
1320.200075,-9622.677246,1072.533697,814.226536
1320.200386,-9030.512492,1302.362347,370.102971
1320.200698,-8586.388927,1149.143247,296.082377
1320.201009,-8956.491898,1302.362347,-296.082377
1320.201320,-9844.739029,1915.238745,-518.144159
1320.201632,-10807.006753,2221.676944,-0.000000
1320.201943,-10584.944971,1608.800546,1110.308913
1320.202254,-9474.636058,612.876398,1702.473667
1320.202566,-9252.574275,-766.095498,1776.494261
1320.202877,-8586.388927,-1378.971896,592.164754
1320.203189,-7105.977043,-612.876398,-74.020594
1320.203500,-6513.812290,76.609550,-222.061783
1320.203811,-7105.977043,-229.828649,-740.205942
1320.204123,-7772.162391,-689.485948,-74.020594
1320.204434,-8956.491898,-153.219100,-0.000000
1320.204745,-9178.553681,612.876398,1110.308913
1320.205057,-8734.430116,306.438199,1036.288319
1320.205368,-9400.615463,-306.438199,1628.453072
1320.205679,-10584.944971,0.000000,1258.350101
1320.205991,-10955.047942,0.000000,962.267725
1320.206302,-11029.068536,1762.019645,740.205942
1320.206613,-10362.883188,1838.629195,1406.391290
1320.206925,-8734.430116,383.047749,1924.535449
1320.207236,-7402.059420,-919.314598,2146.597232
1320.207548,-6217.729913,-1915.238745,1924.535449
1320.207859,-5921.647536,-1149.143247,592.164754
1320.208170,-6957.935855,0.000000,-518.144159
1320.208482,-7994.224174,689.485948,-962.267725
1320.208793,-7772.162391,842.705048,-1036.288319
1320.209104,-8734.430116,383.047749,-222.061783
1320.209416,-9696.697840,0.000000,666.185348
1320.209727,-9622.677246,-536.266849,1406.391290
1320.210038,-10140.821405,-1455.581446,1110.308913
1320.210350,-10436.903782,-2145.067394,1184.329507
1320.210661,-10584.944971,-383.047749,962.267725
1320.210973,-10658.965565,-766.095498,740.205942
1320.211284,-10288.862594,-153.219100,1110.308913
1320.211595,-9548.656652,-383.047749,1184.329507
1320.211907,-8438.347739,-689.485948,962.267725
1320.212218,-7920.203579,-1378.971896,1110.308913
1320.212529,-7772.162391,-2987.772442,962.267725
1320.212841,-7550.100608,-2911.162892,148.041188
1320.213152,-8438.347739,-1455.581446,-74.020594
1320.213463,-8216.285956,-689.485948,-74.020594
1320.213775,-8956.491898,-383.047749,444.123565
1320.214086,-10140.821405,-536.266849,814.226536
1320.214397,-9474.636058,153.219100,1110.308913
1320.214709,-9844.739029,689.485948,814.226536
1320.215020,-9178.553681,1225.752797,370.102971
1320.215332,-9992.780217,2221.676944,-296.082377
1320.215643,-9696.697840,2604.724693,-1036.288319
1320.215954,-7550.100608,2374.896044,-666.185348
1320.216266,-8364.327145,1225.752797,-0.000000
1320.216577,-7624.121203,536.266849,1110.308913
1320.216888,-7846.182985,-306.438199,962.267725
1320.217200,-8586.388927,-1915.238745,518.144159
1320.217511,-7105.977043,-1685.410096,592.164754
1320.217822,-8364.327145,-1762.019645,-888.247130
1320.218134,-7772.162391,-995.924147,-814.226536
1320.218445,-8586.388927,-612.876398,-740.205942
1320.218756,-8586.388927,-1149.143247,444.123565
1320.219068,-8364.327145,-612.876398,1480.411884
1320.219379,-9548.656652,-919.314598,1480.411884
1320.219691,-9548.656652,-1838.629195,962.267725
1320.220002,-10732.986159,76.609550,-0.000000
1320.220313,-10436.903782,1608.800546,-592.164754
1320.220625,-9992.780217,2298.286494,-592.164754
1320.220936,-10214.842000,1455.581446,222.061783
1320.221247,-9770.718434,0.000000,1480.411884
1320.221559,-9030.512492,-842.705048,1628.453072
1320.221870,-7846.182985,-1378.971896,1702.473667
1320.222181,-7994.224174,-1225.752797,592.164754
1320.222493,-7550.100608,-229.828649,-148.041188
1320.222804,-7624.121203,-153.219100,-1480.411884
1320.223116,-7846.182985,842.705048,-962.267725
1320.223427,-8364.327145,919.314598,-518.144159
1320.223738,-9474.636058,1378.971896,740.205942
1320.224050,-10288.862594,1225.752797,518.144159
1320.224361,-11251.130318,1302.362347,814.226536
1320.224672,-10807.006753,1378.971896,814.226536
1320.224984,-11177.109724,2374.896044,444.123565
1320.225295,-10881.027347,3064.381992,666.185348
1320.225606,-9548.656652,1685.410096,962.267725
1320.225918,-8734.430116,919.314598,1850.514855
1320.226229,-7179.997637,0.000000,1776.494261
1320.226540,-6809.894666,-842.705048,1850.514855
1320.226852,-7254.018232,-2221.676944,888.247130
1320.227163,-6661.853478,-842.705048,-0.000000
1320.227475,-7476.080014,76.609550,-888.247130
1320.227786,-7254.018232,995.924147,-740.205942
1320.228097,-8438.347739,76.609550,296.082377
1320.228409,-9252.574275,-689.485948,1036.288319
1320.228720,-8956.491898,-229.828649,1628.453072
1320.229031,-8956.491898,459.657299,1258.350101
1320.229343,-9474.636058,689.485948,1332.370696
1320.229654,-10288.862594,459.657299,740.205942
1320.229965,-9844.739029,459.657299,444.123565
1320.230277,-8734.430116,1225.752797,740.205942
1320.230588,-8068.244768,1072.533697,1480.411884
1320.230899,-8364.327145,-153.219100,1480.411884
1320.231211,-8068.244768,-1532.190996,1554.432478
1320.231522,-6883.915261,-2374.896044,888.247130
1320.231834,-6439.791695,-1762.019645,-222.061783
1320.232145,-7105.977043,-1225.752797,-370.102971
1320.232456,-8512.368333,-383.047749,-666.185348
1320.232768,-9252.574275,-1149.143247,-0.000000
1320.233079,-10436.903782,-766.095498,888.247130
1320.233390,-10584.944971,536.266849,1554.432478
1320.233702,-11029.068536,612.876398,1258.350101
1320.234013,-11029.068536,536.266849,-0.000000
1320.234324,-10362.883188,689.485948,-0.000000
1320.234636,-9622.677246,1915.238745,-518.144159
1320.234947,-9326.594869,2068.457845,-444.123565
1320.235259,-9252.574275,1762.019645,592.164754
1320.235570,-8882.471304,-612.876398,1184.329507
1320.235881,-8364.327145,-1915.238745,1628.453072
1320.236193,-8438.347739,-2528.115143,814.226536
1320.236504,-8216.285956,-2604.724693,444.123565
1320.236815,-8512.368333,-1915.238745,-222.061783
1320.237127,-8512.368333,-1608.800546,-0.000000
1320.237438,-8512.368333,-1838.629195,222.061783
1320.237749,-9400.615463,-1302.362347,444.123565
1320.238061,-9474.636058,-536.266849,1406.391290
1320.238372,-9400.615463,306.438199,888.247130
1320.238683,-8882.471304,689.485948,444.123565
1320.238995,-9104.533087,1532.190996,-444.123565
1320.239306,-9844.739029,995.924147,-1036.288319
1320.239618,-8882.471304,2221.676944,-370.102971
1320.239929,-9548.656652,2145.067394,592.164754
1320.240240,-9548.656652,689.485948,1110.308913
1320.240552,-9030.512492,-153.219100,1998.556043
1320.240863,-7846.182985,-1225.752797,1924.535449
1320.241174,-6513.812290,-1915.238745,1184.329507
1320.241486,-6439.791695,-2145.067394,-148.041188
1320.241797,-6291.750507,-1072.533697,-814.226536
1320.242108,-7031.956449,0.000000,-1258.350101
1320.242420,-8438.347739,0.000000,-592.164754
1320.242731,-9696.697840,612.876398,592.164754
1320.243042,-10436.903782,459.657299,592.164754
1320.243354,-10436.903782,459.657299,1036.288319
1320.243665,-10510.924376,919.314598,592.164754
1320.243977,-10140.821405,1149.143247,-0.000000
1320.244288,-10214.842000,1991.848295,-74.020594
1320.244599,-9252.574275,1915.238745,518.144159
1320.244911,-8512.368333,919.314598,1036.288319
1320.245222,-8660.409521,-383.047749,1332.370696
1320.245533,-7846.182985,-1302.362347,1628.453072
1320.245845,-7994.224174,-2451.505594,518.144159
1320.246156,-7772.162391,-2451.505594,222.061783
1320.246467,-7624.121203,-689.485948,-518.144159
1320.246779,-7624.121203,383.047749,-814.226536
1320.247090,-7920.203579,-153.219100,-370.102971
1320.247402,-8882.471304,-612.876398,592.164754
1320.247713,-9400.615463,0.000000,1110.308913
1320.248024,-9622.677246,383.047749,1110.308913
1320.248336,-10362.883188,766.095498,1036.288319
1320.248647,-10807.006753,1685.410096,592.164754
1320.248958,-11251.130318,1685.410096,148.041188
1320.249270,-10066.800811,2604.724693,370.102971
1320.249581,-9252.574275,1532.190996,888.247130
1320.249892,-9326.594869,689.485948,1110.308913
1320.250204,-8290.306550,-229.828649,1258.350101
1320.250515,-6957.935855,-1225.752797,592.164754
1320.250826,-6439.791695,-1838.629195,-0.000000
1320.251138,-6365.771101,-995.924147,-148.041188
1320.251449,-6957.935855,-383.047749,-518.144159
1320.251761,-7994.224174,-459.657299,-0.000000
1320.252072,-9474.636058,-612.876398,1110.308913
1320.252383,-10214.842000,-153.219100,1480.411884
1320.252695,-10807.006753,766.095498,1258.350101
1320.253006,-10658.965565,919.314598,1258.350101
1320.253317,-10066.800811,766.095498,444.123565
1320.253629,-9696.697840,383.047749,-444.123565
1320.253940,-9252.574275,1838.629195,-444.123565
1320.254251,-8364.327145,1915.238745,222.061783
1320.254563,-8734.430116,536.266849,1258.350101
1320.254874,-8142.265362,-229.828649,1702.473667
1320.255185,-7920.203579,-1455.581446,1184.329507
1320.255497,-6883.915261,-1838.629195,592.164754
1320.255808,-6883.915261,-1608.800546,-518.144159
1320.256120,-7846.182985,-1302.362347,-1110.308913
1320.256431,-7994.224174,-842.705048,-444.123565
1320.256742,-9252.574275,-1072.533697,-0.000000
1320.257054,-9474.636058,-1072.533697,1406.391290
1320.257365,-8956.491898,-612.876398,1554.432478
1320.257676,-9474.636058,-1072.533697,962.267725
1320.257988,-9918.759623,-919.314598,962.267725
1320.258299,-10066.800811,536.266849,296.082377
1320.258610,-10436.903782,2604.724693,-444.123565
1320.258922,-9844.739029,2374.896044,518.144159
1320.259233,-9548.656652,1149.143247,1776.494261
1320.259544,-8734.430116,-919.314598,1776.494261
1320.259856,-7846.182985,-1378.971896,1554.432478
1320.260167,-7105.977043,-1608.800546,1332.370696
1320.260478,-7328.038826,-1915.238745,222.061783
1320.260790,-8734.430116,-1072.533697,-370.102971
1320.261101,-8142.265362,0.000000,-296.082377
1320.261413,-8586.388927,0.000000,-370.102971
1320.261724,-9844.739029,229.828649,296.082377
1320.262035,-9844.739029,689.485948,1332.370696
1320.262347,-9696.697840,383.047749,962.267725
1320.262658,-9696.697840,612.876398,1406.391290
1320.262969,-9918.759623,842.705048,962.267725
1320.263281,-9918.759623,1072.533697,296.082377
1320.263592,-9252.574275,919.314598,370.102971
1320.263903,-8364.327145,919.314598,370.102971
1320.264215,-7698.141797,-306.438199,1332.370696
1320.264526,-8290.306550,-1455.581446,1406.391290
1320.264837,-8734.430116,-2528.115143,740.205942
1320.265149,-8586.388927,-2987.772442,148.041188
1320.265460,-8586.388927,-2604.724693,-296.082377
1320.265772,-8290.306550,-689.485948,-444.123565
1320.266083,-7920.203579,-1532.190996,-0.000000
1320.266394,-7846.182985,-1838.629195,888.247130
1320.266706,-8068.244768,-919.314598,1036.288319
1320.267017,-8586.388927,306.438199,1184.329507
1320.267328,-9474.636058,1072.533697,740.205942
1320.267640,-10584.944971,1378.971896,148.041188
1320.267951,-10288.862594,2451.505594,-444.123565
1320.268262,-9548.656652,3064.381992,-296.082377
1320.268574,-10066.800811,2451.505594,-444.123565
1320.268885,-9400.615463,1225.752797,888.247130
1320.269196,-8438.347739,0.000000,666.185348
1320.269508,-7624.121203,-1072.533697,296.082377
1320.269819,-6883.915261,-1685.410096,148.041188
1320.270131,-7846.182985,-1608.800546,-888.247130
1320.270442,-7994.224174,-842.705048,-1036.288319
1320.270753,-8364.327145,-229.828649,-888.247130
1320.271065,-9474.636058,-153.219100,-0.000000
1320.271376,-10066.800811,306.438199,1036.288319
1320.271687,-10732.986159,153.219100,1702.473667
1320.271999,-10881.027347,153.219100,1184.329507
1320.272310,-10955.047942,459.657299,666.185348
1320.272621,-9844.739029,2145.067394,222.061783
1320.272933,-9844.739029,2757.943793,-148.041188
1320.273244,-8512.368333,1915.238745,740.205942
1320.273555,-8586.388927,383.047749,592.164754
1320.273867,-8142.265362,-459.657299,1406.391290
1320.274178,-7179.997637,-842.705048,1554.432478
1320.274490,-7994.224174,-1991.848295,962.267725
1320.274801,-7772.162391,-2068.457845,296.082377
1320.275112,-7698.141797,-766.095498,222.061783
1320.275424,-7105.977043,-306.438199,-74.020594
1320.275735,-8068.244768,689.485948,222.061783
1320.276046,-9104.533087,229.828649,1258.350101
1320.276358,-9326.594869,536.266849,1332.370696
1320.276669,-9474.636058,459.657299,1258.350101
1320.276980,-9696.697840,842.705048,740.205942
1320.277292,-10288.862594,1685.410096,148.041188
1320.277603,-9548.656652,2757.943793,-0.000000
1320.277914,-9400.615463,2298.286494,370.102971
1320.278226,-8882.471304,919.314598,1850.514855
1320.278537,-8216.285956,0.000000,1850.514855
1320.278848,-7772.162391,-1991.848295,2072.576638
1320.279160,-7031.956449,-3140.991542,1850.514855
1320.279471,-7031.956449,-3370.820191,814.226536
1320.279783,-7254.018232,-1685.410096,-296.082377
1320.280094,-7550.100608,-689.485948,-518.144159
1320.280405,-8586.388927,-383.047749,-296.082377
1320.280717,-10140.821405,-766.095498,814.226536
1320.281028,-10584.944971,-689.485948,1332.370696
1320.281339,-10214.842000,383.047749,1110.308913
1320.281651,-10288.862594,536.266849,1184.329507
1320.281962,-9918.759623,995.924147,222.061783
1320.282273,-9400.615463,1608.800546,-296.082377
1320.282585,-8512.368333,2145.067394,-0.000000
1320.282896,-8512.368333,1225.752797,888.247130
1320.283207,-8808.450710,229.828649,1554.432478
1320.283519,-8882.471304,-919.314598,1258.350101
1320.283830,-8734.430116,-1762.019645,962.267725
1320.284142,-8142.265362,-2374.896044,592.164754
1320.284453,-7994.224174,-1762.019645,-222.061783
1320.284764,-7698.141797,-842.705048,-518.144159
1320.285076,-7476.080014,-383.047749,-444.123565
1320.285387,-8734.430116,-919.314598,-0.000000
1320.285698,-9474.636058,-919.314598,740.205942
1320.286010,-9622.677246,766.095498,1110.308913
1320.286321,-10436.903782,612.876398,666.185348
1320.286632,-10955.047942,1225.752797,444.123565
1320.286944,-10658.965565,2145.067394,-0.000000
1320.287255,-9918.759623,2911.162892,-0.000000
1320.287566,-9252.574275,689.485948,740.205942
1320.287878,-8586.388927,-306.438199,1258.350101
1320.288189,-8216.285956,-459.657299,888.247130
1320.288501,-6809.894666,-1762.019645,962.267725
1320.288812,-6661.853478,-2757.943793,296.082377
1320.289123,-7105.977043,-2528.115143,-518.144159
1320.289435,-7476.080014,-1532.190996,-666.185348
1320.289746,-7994.224174,-842.705048,-592.164754
1320.290057,-9474.636058,-1915.238745,-0.000000
1320.290369,-10214.842000,-612.876398,1776.494261
1320.290680,-10362.883188,76.609550,1406.391290
1320.290991,-10288.862594,0.000000,962.267725
1320.291303,-10066.800811,383.047749,444.123565
1320.291614,-9992.780217,689.485948,-74.020594
1320.291925,-9474.636058,1838.629195,-222.061783
1320.292237,-8438.347739,1838.629195,-74.020594
1320.292548,-8290.306550,1149.143247,1110.308913
1320.292860,-8734.430116,0.000000,1036.288319
1320.293171,-8364.327145,-842.705048,1036.288319
1320.293482,-7772.162391,-1225.752797,592.164754
1320.293794,-8068.244768,-1608.800546,-222.061783
1320.294105,-8142.265362,0.000000,-444.123565
1320.294416,-8586.388927,536.266849,-592.164754
1320.294728,-8808.450710,76.609550,-222.061783
1320.295039,-9252.574275,0.000000,592.164754
1320.295350,-9400.615463,766.095498,1258.350101
1320.295662,-9474.636058,306.438199,962.267725
1320.295973,-10066.800811,612.876398,666.185348
1320.296284,-10584.944971,1149.143247,222.061783
1320.296596,-10436.903782,2068.457845,-0.000000
1320.296907,-9622.677246,2374.896044,518.144159
1320.297218,-8808.450710,1378.971896,888.247130
1320.297530,-8512.368333,-612.876398,1628.453072
1320.297841,-7105.977043,-2145.067394,1480.411884
1320.298153,-6217.729913,-2757.943793,1258.350101
1320.298464,-6661.853478,-2451.505594,370.102971
1320.298775,-7698.141797,-1762.019645,-0.000000
1320.299087,-8142.265362,-842.705048,-74.020594
1320.299398,-8068.244768,0.000000,-0.000000
1320.299709,-9622.677246,-229.828649,1036.288319
1320.300021,-9474.636058,995.924147,962.267725
1320.300332,-9326.594869,1991.848295,592.164754
1320.300643,-9696.697840,2298.286494,222.061783
1320.300955,-8512.368333,2451.505594,222.061783
1320.301266,-8586.388927,2451.505594,-222.061783
1320.301577,-9178.553681,2374.896044,-74.020594
1320.301889,-8808.450710,2068.457845,444.123565
1320.302200,-9400.615463,612.876398,1184.329507
1320.302512,-9474.636058,-689.485948,1776.494261
1320.302823,-9178.553681,-1532.190996,1628.453072
1320.303134,-8660.409521,-2757.943793,740.205942
1320.303446,-8438.347739,-2528.115143,-0.000000
1320.303757,-8216.285956,-1378.971896,-518.144159
1320.304068,-7994.224174,-995.924147,-370.102971
1320.304380,-9326.594869,-1991.848295,370.102971
1320.304691,-8586.388927,-1149.143247,1480.411884
1320.305002,-9030.512492,0.000000,592.164754
1320.305314,-9770.718434,-153.219100,222.061783
1320.305625,-10510.924376,612.876398,-148.041188
1320.305936,-11103.089130,1762.019645,-962.267725
1320.306248,-10362.883188,2298.286494,-296.082377
1320.306559,-9844.739029,1072.533697,518.144159
1320.306871,-10066.800811,-306.438199,1184.329507
1320.307182,-8882.471304,-2298.286494,1776.494261
1320.307493,-7031.956449,-1762.019645,1702.473667
1320.307805,-6883.915261,-3064.381992,1110.308913
1320.308116,-7105.977043,-2911.162892,518.144159
1320.308427,-7476.080014,-1991.848295,-222.061783
1320.308739,-7624.121203,-689.485948,-222.061783
1320.309050,-8068.244768,153.219100,666.185348
1320.309361,-9844.739029,383.047749,740.205942
1320.309673,-11029.068536,919.314598,1036.288319
1320.309984,-9770.718434,842.705048,740.205942
1320.310295,-9474.636058,919.314598,740.205942
1320.310607,-10288.862594,1608.800546,444.123565
1320.310918,-9326.594869,1838.629195,148.041188
1320.311230,-9178.553681,1455.581446,-0.000000
1320.311541,-7920.203579,1532.190996,1184.329507
1320.311852,-7698.141797,842.705048,1332.370696
1320.312164,-7328.038826,-689.485948,1628.453072
1320.312475,-7105.977043,-1991.848295,1998.556043
1320.312786,-7105.977043,-2604.724693,962.267725
1320.313098,-7846.182985,-1915.238745,-222.061783
1320.313409,-7698.141797,-459.657299,-0.000000
1320.313720,-8438.347739,-612.876398,-222.061783
1320.314032,-9030.512492,-1532.190996,-0.000000
1320.314343,-9400.615463,-842.705048,444.123565
1320.314654,-9770.718434,153.219100,444.123565
1320.314966,-10140.821405,76.609550,222.061783
1320.315277,-11325.150913,306.438199,370.102971
1320.315588,-11103.089130,1072.533697,-0.000000
1320.315900,-9918.759623,1915.238745,148.041188
1320.316211,-9030.512492,1378.971896,962.267725
1320.316523,-7994.224174,0.000000,962.267725
1320.316834,-7846.182985,-1225.752797,1184.329507
1320.317145,-7031.956449,-1762.019645,592.164754
1320.317457,-7328.038826,-1455.581446,-148.041188
1320.317768,-8216.285956,-536.266849,-444.123565
1320.318079,-8882.471304,536.266849,-740.205942
1320.318391,-8808.450710,689.485948,-962.267725
1320.318702,-9474.636058,842.705048,-518.144159
1320.319013,-9696.697840,1915.238745,370.102971
1320.319325,-9474.636058,2145.067394,148.041188
1320.319636,-8882.471304,2068.457845,-0.000000
1320.319947,-9548.656652,1149.143247,-592.164754
1320.320259,-9844.739029,1378.971896,-444.123565
1320.320570,-9474.636058,2145.067394,-0.000000
1320.320882,-9400.615463,1762.019645,962.267725
1320.321193,-9548.656652,0.000000,1406.391290
1320.321504,-8586.388927,-1378.971896,1924.535449
1320.321816,-8364.327145,-1991.848295,1184.329507
1320.322127,-7698.141797,-1762.019645,296.082377
1320.322438,-7846.182985,-1608.800546,-148.041188
1320.322750,-7846.182985,-1072.533697,-740.205942
1320.323061,-7772.162391,-536.266849,-444.123565
1320.323372,-8512.368333,-919.314598,-0.000000
1320.323684,-8660.409521,-459.657299,888.247130
1320.323995,-9178.553681,-229.828649,1554.432478
1320.324306,-9548.656652,-459.657299,1036.288319
1320.324618,-9770.718434,0.000000,148.041188
1320.324929,-10214.842000,842.705048,-0.000000
1320.325241,-9548.656652,2068.457845,518.144159
1320.325552,-9400.615463,1302.362347,666.185348
1320.325863,-9252.574275,0.000000,1702.473667
1320.326175,-8956.491898,-842.705048,2072.576638
1320.326486,-7772.162391,-1378.971896,1850.514855
1320.326797,-6883.915261,-1149.143247,1258.350101
1320.327109,-7105.977043,-1072.533697,-74.020594
1320.327420,-7550.100608,-536.266849,-888.247130
1320.327731,-8068.244768,536.266849,-888.247130
1320.328043,-9400.615463,842.705048,-0.000000
1320.328354,-10584.944971,1072.533697,740.205942
1320.328665,-11029.068536,995.924147,1406.391290
1320.328977,-10214.842000,459.657299,1110.308913
1320.329288,-9326.594869,536.266849,592.164754
1320.329600,-8808.450710,459.657299,370.102971
1320.329911,-8882.471304,766.095498,-296.082377
1320.330222,-8882.471304,1072.533697,666.185348
1320.330534,-9474.636058,0.000000,1480.411884
1320.330845,-9178.553681,-842.705048,2072.576638
1320.331156,-8290.306550,-1991.848295,2220.617826
1320.331468,-7994.224174,-2604.724693,1258.350101
1320.331779,-7328.038826,-3294.210641,592.164754
1320.332090,-8068.244768,-2757.943793,-296.082377
1320.332402,-8290.306550,-842.705048,-370.102971
1320.332713,-8660.409521,-383.047749,-148.041188
1320.333024,-9696.697840,-766.095498,1110.308913
1320.333336,-9548.656652,-76.609550,1480.411884
1320.333647,-9326.594869,-383.047749,1406.391290
1320.333958,-9474.636058,229.828649,962.267725
1320.334270,-9400.615463,919.314598,-0.000000
1320.334581,-9622.677246,2221.676944,-148.041188
1320.334893,-8956.491898,2451.505594,148.041188
1320.335204,-8586.388927,1072.533697,518.144159
1320.335515,-8734.430116,-153.219100,1110.308913
1320.335827,-7920.203579,-459.657299,1184.329507
1320.336138,-7994.224174,-1149.143247,888.247130
1320.336449,-7698.141797,-995.924147,-0.000000
1320.336761,-8364.327145,-1838.629195,-592.164754
1320.337072,-8512.368333,-536.266849,-518.144159
1320.337383,-8290.306550,-306.438199,-148.041188
1320.337695,-8882.471304,-459.657299,-0.000000
1320.338006,-9474.636058,-612.876398,296.082377
1320.338317,-9992.780217,919.314598,148.041188
1320.338629,-9992.780217,76.609550,518.144159
1320.338940,-9770.718434,0.000000,-296.082377
1320.339252,-10955.047942,536.266849,-740.205942
1320.339563,-10510.924376,842.705048,-296.082377
1320.339874,-10362.883188,459.657299,296.082377
1320.340186,-9326.594869,0.000000,1110.308913
1320.340497,-8216.285956,-612.876398,1406.391290
1320.340808,-8068.244768,-1608.800546,1036.288319
1320.341120,-7550.100608,-1838.629195,592.164754
1320.341431,-7550.100608,-1838.629195,-74.020594
1320.341742,-8068.244768,0.000000,-888.247130
1320.342054,-7846.182985,919.314598,-888.247130
1320.342365,-8364.327145,536.266849,-740.205942
1320.342676,-9104.533087,383.047749,222.061783
1320.342988,-9252.574275,1378.971896,518.144159
1320.343299,-9770.718434,-306.438199,370.102971
1320.343611,-10584.944971,766.095498,370.102971
1320.343922,-11769.274478,1762.019645,-74.020594
1320.344233,-11325.150913,1608.800546,444.123565
1320.344545,-10510.924376,1685.410096,1332.370696
1320.344856,-9844.739029,919.314598,1998.556043
1320.345167,-7994.224174,153.219100,1702.473667
1320.345479,-6957.935855,-459.657299,1258.350101
1320.345790,-5773.606348,-1072.533697,518.144159
1320.346101,-5921.647536,-1838.629195,-222.061783
1320.346413,-6513.812290,-459.657299,-444.123565
1320.346724,-7624.121203,842.705048,-518.144159
1320.347035,-8808.450710,612.876398,148.041188
1320.347347,-9918.759623,0.000000,1258.350101
1320.347658,-10288.862594,-153.219100,1850.514855
1320.347970,-9770.718434,306.438199,1258.350101
1320.348281,-9030.512492,0.000000,1110.308913
1320.348592,-9622.677246,76.609550,-0.000000
1320.348904,-9326.594869,1149.143247,-148.041188
1320.349215,-8586.388927,1455.581446,962.267725
1320.349526,-8734.430116,229.828649,1332.370696
1320.349838,-8586.388927,-689.485948,1924.535449
1320.350149,-8364.327145,-1455.581446,2220.617826
1320.350460,-7994.224174,-2834.553343,2146.597232
1320.350772,-7179.997637,-2834.553343,814.226536
1320.351083,-7105.977043,-1838.629195,-370.102971
1320.351394,-7476.080014,-1072.533697,-518.144159
1320.351706,-7920.203579,-919.314598,-74.020594
1320.352017,-9326.594869,-689.485948,518.144159
1320.352328,-9918.759623,153.219100,1184.329507
1320.352640,-10955.047942,153.219100,1480.411884
1320.352951,-10807.006753,1378.971896,814.226536
1320.353263,-10584.944971,1302.362347,-0.000000
1320.353574,-9918.759623,2068.457845,-814.226536
1320.353885,-9474.636058,1915.238745,-370.102971
1320.354197,-9622.677246,612.876398,296.082377
1320.354508,-9548.656652,-612.876398,1332.370696
1320.354820,-9252.574275,-1608.800546,1924.535449
1320.355131,-9030.512492,-2757.943793,1554.432478
1320.355442,-7920.203579,-1991.848295,1628.453072
1320.355754,-8068.244768,-2528.115143,148.041188
1320.356065,-7846.182985,-995.924147,-814.226536
1320.356377,-8216.285956,0.000000,-888.247130
1320.356688,-8734.430116,153.219100,-370.102971
1320.357000,-9104.533087,459.657299,518.144159
1320.357311,-9918.759623,0.000000,296.082377
1320.357623,-9252.574275,-153.219100,518.144159
1320.357934,-9030.512492,76.609550,-74.020594
1320.358245,-9178.553681,766.095498,-666.185348
1320.358557,-9474.636058,1685.410096,-0.000000
1320.358868,-9474.636058,459.657299,444.123565
1320.359180,-9104.533087,-612.876398,1924.535449
1320.359491,-8882.471304,-995.924147,2368.659014
1320.359803,-7846.182985,-1532.190996,1776.494261
1320.360114,-7624.121203,-1532.190996,962.267725
1320.360426,-7328.038826,-1532.190996,-222.061783
1320.360737,-7105.977043,-995.924147,-814.226536
1320.361048,-6513.812290,0.000000,-962.267725
1320.361360,-7920.203579,0.000000,-222.061783
1320.361671,-9474.636058,76.609550,592.164754
1320.361983,-10510.924376,536.266849,592.164754
1320.362294,-10732.986159,1991.848295,518.144159
1320.362606,-10807.006753,2451.505594,888.247130
1320.362917,-11177.109724,2298.286494,148.041188
1320.363229,-11103.089130,1915.238745,-0.000000
1320.363540,-9770.718434,1915.238745,444.123565
1320.363851,-8734.430116,1072.533697,1184.329507
1320.364163,-8290.306550,229.828649,1406.391290
1320.364474,-7550.100608,-383.047749,888.247130
1320.364786,-7031.956449,-1608.800546,666.185348
1320.365097,-6069.688724,-2068.457845,-296.082377
1320.365409,-7179.997637,-1302.362347,-814.226536
1320.365720,-8142.265362,0.000000,-370.102971
1320.366031,-9252.574275,76.609550,-74.020594
1320.366343,-10140.821405,-383.047749,1184.329507
1320.366654,-9844.739029,76.609550,1628.453072
1320.366966,-10140.821405,766.095498,1332.370696
1320.367277,-9474.636058,995.924147,444.123565
1320.367589,-9770.718434,919.314598,518.144159
1320.367900,-9770.718434,2221.676944,-444.123565
1320.368212,-9474.636058,2451.505594,296.082377
1320.368523,-9548.656652,1838.629195,962.267725
1320.368834,-9252.574275,383.047749,1702.473667
1320.369146,-8068.244768,-383.047749,1776.494261
1320.369457,-6291.750507,-689.485948,1110.308913
1320.369769,-6069.688724,-1608.800546,-296.082377
1320.370080,-6217.729913,-1455.581446,-666.185348
1320.370392,-6957.935855,0.000000,-814.226536
1320.370703,-7698.141797,153.219100,-518.144159
1320.371015,-9104.533087,-306.438199,-0.000000
1320.371326,-10510.924376,0.000000,518.144159
1320.371637,-10732.986159,536.266849,1036.288319
1320.371949,-9622.677246,459.657299,1036.288319
1320.372260,-10066.800811,0.000000,444.123565
1320.372572,-10881.027347,0.000000,-0.000000
1320.372883,-10436.903782,459.657299,148.041188
1320.373195,-9548.656652,306.438199,814.226536
1320.373506,-9178.553681,-153.219100,1184.329507
1320.373818,-9178.553681,-689.485948,1184.329507
1320.374129,-8290.306550,-1838.629195,1110.308913
1320.374440,-7254.018232,-2298.286494,740.205942
1320.374752,-6809.894666,-1838.629195,-74.020594
1320.375063,-7179.997637,-459.657299,-444.123565
1320.375375,-8142.265362,-689.485948,222.061783
1320.375686,-9548.656652,-1225.752797,370.102971
1320.375998,-10288.862594,-229.828649,1036.288319
1320.376309,-9844.739029,689.485948,888.247130
1320.376621,-10140.821405,1302.362347,222.061783
1320.376932,-9548.656652,459.657299,-0.000000
1320.377243,-9844.739029,1302.362347,-666.185348
1320.377555,-8882.471304,1762.019645,-0.000000
1320.377866,-9474.636058,1225.752797,-0.000000
1320.378178,-9844.739029,689.485948,1850.514855
1320.378489,-9030.512492,-536.266849,2220.617826
1320.378801,-7772.162391,-1915.238745,2072.576638
1320.379112,-7254.018232,-2451.505594,1332.370696
1320.379423,-6735.874072,-2604.724693,-0.000000
1320.379735,-7846.182985,-1762.019645,-888.247130
1320.380046,-7328.038826,-689.485948,-444.123565
1320.380358,-8290.306550,-1072.533697,-0.000000
1320.380669,-9696.697840,-1225.752797,518.144159
1320.380981,-9918.759623,383.047749,1258.350101
1320.381292,-10214.842000,612.876398,962.267725
1320.381604,-9548.656652,536.266849,814.226536
1320.381915,-9844.739029,919.314598,370.102971
1320.382226,-9770.718434,1378.971896,-148.041188
1320.382538,-9030.512492,1838.629195,-0.000000
1320.382849,-8068.244768,1302.362347,592.164754
1320.383161,-7698.141797,0.000000,1036.288319
1320.383472,-7550.100608,-1608.800546,814.226536
1320.383784,-7105.977043,-2757.943793,1036.288319
1320.384095,-7254.018232,-2451.505594,592.164754
1320.384407,-8586.388927,-1225.752797,222.061783
1320.384718,-9400.615463,-1302.362347,-370.102971
1320.385029,-8956.491898,-766.095498,-74.020594
1320.385341,-9178.553681,-919.314598,370.102971
1320.385652,-9030.512492,153.219100,666.185348
1320.385964,-9622.677246,919.314598,222.061783
1320.386275,-9992.780217,1685.410096,222.061783
1320.386587,-10510.924376,1532.190996,-0.000000
1320.386898,-10955.047942,2451.505594,-370.102971
1320.387210,-10288.862594,3447.429741,-0.000000
1320.387521,-9844.739029,1915.238745,148.041188
1320.387832,-9178.553681,1225.752797,1258.350101
1320.388144,-7846.182985,229.828649,962.267725
1320.388455,-6957.935855,-766.095498,740.205942
1320.388767,-6809.894666,-1762.019645,-0.000000
1320.389078,-7105.977043,-2145.067394,-592.164754
1320.389390,-8290.306550,-1378.971896,-814.226536
1320.389701,-8290.306550,76.609550,-296.082377
1320.390013,-9770.718434,229.828649,-74.020594
1320.390324,-11029.068536,153.219100,888.247130
1320.390635,-10214.842000,842.705048,1184.329507
1320.390947,-9548.656652,689.485948,888.247130
1320.391258,-9400.615463,306.438199,518.144159
1320.391570,-10066.800811,1455.581446,740.205942
1320.391881,-9696.697840,1378.971896,518.144159
1320.392193,-9252.574275,1149.143247,1110.308913
1320.392504,-9178.553681,153.219100,1850.514855
1320.392815,-9104.533087,-919.314598,1554.432478
1320.393127,-7920.203579,-842.705048,1406.391290
1320.393438,-6513.812290,-1225.752797,518.144159
1320.393750,-6143.709319,-1072.533697,-296.082377
1320.394061,-6661.853478,-919.314598,-296.082377
1320.394373,-7624.121203,-306.438199,-518.144159
1320.394684,-8586.388927,-306.438199,444.123565
1320.394996,-9696.697840,306.438199,1258.350101
1320.395307,-10288.862594,766.095498,1332.370696
1320.395618,-9770.718434,1149.143247,814.226536
1320.395930,-10066.800811,1225.752797,666.185348
1320.396241,-9918.759623,919.314598,-0.000000
1320.396553,-8882.471304,2451.505594,222.061783
1320.396864,-8660.409521,1762.019645,-0.000000
1320.397176,-9178.553681,306.438199,1110.308913
1320.397487,-8512.368333,-995.924147,2072.576638
1320.397799,-7994.224174,-1838.629195,1924.535449
1320.398110,-7550.100608,-2757.943793,1850.514855
1320.398421,-7476.080014,-2987.772442,592.164754
1320.398733,-8290.306550,-1915.238745,-148.041188
1320.399044,-7994.224174,-995.924147,-370.102971
1320.399356,-7772.162391,-1838.629195,-0.000000
1320.399667,-9474.636058,-1072.533697,592.164754
1320.399979,-10214.842000,-536.266849,1110.308913
1320.400290,-10584.944971,229.828649,666.185348
1320.400602,-10288.862594,1225.752797,444.123565
1320.400913,-10584.944971,1532.190996,-0.000000
1320.401224,-10658.965565,919.314598,-222.061783
1320.401536,-9400.615463,1149.143247,-0.000000
1320.401847,-9622.677246,612.876398,444.123565
1320.402159,-9030.512492,-306.438199,1480.411884
1320.402470,-8586.388927,-995.924147,1258.350101
1320.402782,-7920.203579,-1991.848295,1036.288319
1320.403093,-7624.121203,-2451.505594,592.164754
1320.403404,-7698.141797,-1455.581446,-0.000000
1320.403716,-7476.080014,0.000000,-962.267725
1320.404027,-8216.285956,459.657299,-518.144159
1320.404339,-8660.409521,153.219100,-0.000000
1320.404650,-9474.636058,383.047749,370.102971
1320.404962,-9844.739029,842.705048,148.041188
1320.405273,-9548.656652,1378.971896,296.082377
1320.405585,-9474.636058,1072.533697,-0.000000
1320.405896,-9770.718434,1149.143247,-592.164754
1320.406207,-8956.491898,1072.533697,-0.000000
1320.406519,-9400.615463,-76.609550,888.247130
1320.406830,-8956.491898,-1532.190996,2146.597232
1320.407142,-8438.347739,-1532.190996,2368.659014
1320.407453,-7550.100608,-2068.457845,1702.473667
1320.407765,-7328.038826,-2757.943793,666.185348
1320.408076,-7254.018232,-2374.896044,-296.082377
1320.408388,-7179.997637,-1915.238745,-1110.308913
1320.408699,-7179.997637,-229.828649,-1480.411884
1320.409010,-8216.285956,-383.047749,-370.102971
1320.409322,-10066.800811,-766.095498,-148.041188
1320.409633,-10288.862594,0.000000,1110.308913
1320.409945,-10510.924376,0.000000,1258.350101
1320.410256,-10584.944971,0.000000,1036.288319
1320.410568,-10881.027347,612.876398,370.102971
1320.410879,-10214.842000,1685.410096,666.185348
1320.411191,-9622.677246,1762.019645,-0.000000
1320.411502,-8734.430116,1072.533697,962.267725
1320.411813,-8882.471304,383.047749,1480.411884
1320.412125,-7920.203579,-689.485948,1776.494261
1320.412436,-8068.244768,-1455.581446,888.247130
1320.412748,-8586.388927,-1149.143247,592.164754
1320.413059,-8364.327145,306.438199,148.041188
1320.413371,-8882.471304,306.438199,-222.061783
1320.413682,-8734.430116,1915.238745,-0.000000
1320.413994,-9548.656652,612.876398,1036.288319
1320.414305,-9104.533087,1302.362347,1332.370696
1320.414616,-8734.430116,1838.629195,1258.350101
1320.414928,-9474.636058,1532.190996,814.226536
1320.415239,-9918.759623,1762.019645,296.082377
1320.415551,-10214.842000,2451.505594,-0.000000
1320.415862,-9474.636058,2681.334243,592.164754
1320.416174,-8216.285956,1608.800546,1480.411884
1320.416485,-7994.224174,229.828649,1924.535449
1320.416796,-6661.853478,-995.924147,1776.494261
1320.417108,-6291.750507,-2068.457845,1036.288319
1320.417419,-6587.832884,-2068.457845,148.041188
1320.417731,-7402.059420,-1225.752797,-518.144159
1320.418042,-7994.224174,-153.219100,-592.164754
1320.418354,-8068.244768,0.000000,-0.000000
1320.418665,-9770.718434,-153.219100,740.205942
1320.418977,-9992.780217,-536.266849,1702.473667
1320.419288,-10066.800811,0.000000,1554.432478
1320.419599,-9548.656652,0.000000,1480.411884
1320.419911,-9622.677246,689.485948,296.082377
1320.420222,-9622.677246,1072.533697,-148.041188
1320.420534,-8808.450710,1991.848295,-444.123565
1320.420845,-9252.574275,1149.143247,-148.041188
1320.421157,-8882.471304,459.657299,222.061783
1320.421468,-9104.533087,-229.828649,1184.329507
1320.421780,-8438.347739,-1149.143247,1184.329507
1320.422091,-8512.368333,-1762.019645,222.061783
1320.422402,-8512.368333,-1685.410096,-296.082377
1320.422714,-7846.182985,-536.266849,-814.226536
1320.423025,-8660.409521,-842.705048,-1184.329507
1320.423337,-8882.471304,76.609550,-0.000000
1320.423648,-10066.800811,229.828649,370.102971
1320.423960,-10658.965565,-153.219100,814.226536
1320.424271,-10214.842000,76.609550,888.247130
1320.424583,-10214.842000,-842.705048,592.164754
1320.424894,-10288.862594,-536.266849,-0.000000
1320.425205,-10288.862594,229.828649,-0.000000
1320.425517,-9474.636058,0.000000,296.082377
1320.425828,-9474.636058,-459.657299,1184.329507
1320.426140,-8882.471304,-1991.848295,2220.617826
1320.426451,-7920.203579,-2834.553343,2072.576638
1320.426763,-7254.018232,-3370.820191,1554.432478
1320.427074,-6365.771101,-3447.429741,592.164754
1320.427385,-6217.729913,-2604.724693,-0.000000
1320.427697,-7402.059420,-2834.553343,-888.247130
1320.428008,-7920.203579,-2604.724693,-0.000000
1320.428320,-8438.347739,-1762.019645,518.144159
1320.428631,-9252.574275,-1915.238745,1036.288319
1320.428943,-9844.739029,-1455.581446,1406.391290
1320.429254,-10066.800811,-1762.019645,1110.308913
1320.429566,-10066.800811,-1762.019645,740.205942
1320.429877,-9252.574275,-1072.533697,962.267725
1320.430188,-8808.450710,-919.314598,740.205942
1320.430500,-8586.388927,-1991.848295,888.247130
1320.430811,-9030.512492,-1685.410096,1036.288319
1320.431123,-7846.182985,-1532.190996,1332.370696
1320.431434,-7254.018232,-1838.629195,1184.329507
1320.431746,-7254.018232,-3064.381992,296.082377
1320.432057,-7254.018232,-4366.744339,-0.000000
1320.432369,-7846.182985,-4366.744339,-296.082377
1320.432680,-7920.203579,-3447.429741,-0.000000
1320.432991,-9474.636058,-1455.581446,-148.041188
1320.433303,-11103.089130,-1072.533697,148.041188
1320.433614,-11399.171507,-2145.067394,1036.288319
1320.433926,-10288.862594,-2374.896044,962.267725
1320.434237,-8512.368333,-2451.505594,148.041188
1320.434549,-7179.997637,-2987.772442,-74.020594
1320.434860,-7550.100608,-3600.648841,-518.144159
1320.435172,-8142.265362,-5209.449386,-74.020594
1320.435483,-9030.512492,-4903.011187,370.102971
1320.435794,-10807.006753,-3217.601092,666.185348
1320.436106,-11843.295072,-2451.505594,1184.329507
