#time,accel_x,accel_y,accel_z
1376.168102,-8956.491898,-229.828649,222.061783
1376.168413,-9104.533087,0.000000,-0.000000
1376.168725,-9178.553681,0.000000,518.144159
1376.169036,-8956.491898,153.219100,592.164754
1376.169347,-9030.512492,0.000000,518.144159
1376.169659,-8956.491898,-153.219100,370.102971
1376.169970,-8956.491898,536.266849,518.144159
1376.170282,-8882.471304,153.219100,444.123565
1376.170593,-8956.491898,0.000000,296.082377
1376.170905,-8808.450710,-153.219100,666.185348
1376.171216,-8808.450710,0.000000,444.123565
1376.171528,-9104.533087,0.000000,518.144159
1376.171839,-8882.471304,0.000000,740.205942
1376.172150,-8882.471304,0.000000,592.164754
1376.172462,-8808.450710,0.000000,222.061783
1376.172773,-8734.430116,0.000000,148.041188
1376.173085,-8808.450710,0.000000,370.102971
1376.173396,-8808.450710,-383.047749,666.185348
1376.173708,-9178.553681,0.000000,592.164754
1376.174019,-8882.471304,0.000000,592.164754
1376.174331,-9030.512492,0.000000,592.164754
1376.174642,-9030.512492,-612.876398,444.123565
1376.174953,-8734.430116,153.219100,592.164754
1376.175265,-8734.430116,-689.485948,444.123565
1376.175576,-8734.430116,0.000000,592.164754
1376.175888,-9030.512492,-383.047749,222.061783
1376.176199,-8882.471304,-153.219100,518.144159
1376.176511,-8882.471304,-153.219100,592.164754
1376.176822,-8808.450710,0.000000,592.164754
1376.177134,-8882.471304,0.000000,592.164754
1376.177445,-8882.471304,76.609550,518.144159
1376.177756,-8882.471304,766.095498,296.082377
1376.178068,-8882.471304,0.000000,592.164754
1376.178379,-9030.512492,0.000000,444.123565
1376.178691,-8956.491898,0.000000,740.205942
1376.179002,-8882.471304,0.000000,592.164754
1376.179314,-8956.491898,-153.219100,444.123565
1376.179625,-9030.512492,0.000000,148.041188
1376.179937,-8586.388927,76.609550,814.226536
1376.180248,-8512.368333,-383.047749,518.144159
1376.180559,-8290.306550,-153.219100,444.123565
1376.180871,-8808.450710,0.000000,592.164754
1376.181182,-8808.450710,0.000000,518.144159
1376.181494,-8956.491898,0.000000,518.144159
1376.181805,-8734.430116,0.000000,592.164754
1376.182117,-9030.512492,0.000000,666.185348
1376.182428,-9030.512492,689.485948,444.123565
1376.182740,-9104.533087,0.000000,518.144159
1376.183051,-9474.636058,0.000000,222.061783
1376.183362,-8882.471304,0.000000,592.164754
1376.183674,-9178.553681,0.000000,444.123565
1376.183985,-8956.491898,76.609550,592.164754
1376.184297,-8660.409521,-306.438199,814.226536
1376.184608,-8808.450710,-306.438199,370.102971
1376.184920,-8808.450710,306.438199,740.205942
1376.185231,-8956.491898,229.828649,296.082377
1376.185543,-8660.409521,0.000000,444.123565
1376.185854,-8882.471304,-229.828649,518.144159
1376.186165,-8808.450710,0.000000,592.164754
1376.186477,-8956.491898,0.000000,444.123565
1376.186788,-8660.409521,-306.438199,592.164754
1376.187100,-8956.491898,-153.219100,74.020594
1376.187411,-8512.368333,76.609550,148.041188
1376.187723,-8956.491898,-306.438199,518.144159
1376.188034,-9104.533087,0.000000,518.144159
1376.188346,-8956.491898,76.609550,592.164754
1376.188657,-8956.491898,0.000000,518.144159
1376.188968,-8808.450710,-229.828649,592.164754
1376.189280,-8808.450710,459.657299,592.164754
1376.189591,-8882.471304,0.000000,518.144159
1376.189903,-8512.368333,0.000000,444.123565
1376.190214,-8660.409521,-153.219100,148.041188
1376.190526,-8808.450710,0.000000,444.123565
1376.190837,-8882.471304,0.000000,592.164754
1376.191148,-8956.491898,-306.438199,592.164754
1376.191460,-8956.491898,0.000000,592.164754
1376.191771,-8956.491898,-153.219100,296.082377
1376.192083,-8956.491898,0.000000,444.123565
1376.192394,-9104.533087,-229.828649,74.020594
1376.192706,-9030.512492,0.000000,-0.000000
1376.193017,-9104.533087,0.000000,370.102971
1376.193329,-9030.512492,0.000000,370.102971
1376.193640,-8956.491898,-153.219100,370.102971
1376.193951,-8882.471304,-153.219100,592.164754
1376.194263,-8882.471304,0.000000,444.123565
1376.194574,-8808.450710,0.000000,444.123565
1376.194886,-8734.430116,229.828649,296.082377
1376.195197,-8734.430116,-229.828649,1036.288319
1376.195509,-8956.491898,-306.438199,666.185348
1376.195820,-9030.512492,0.000000,444.123565
1376.196132,-8956.491898,-229.828649,518.144159
1376.196443,-8882.471304,0.000000,370.102971
1376.196754,-9104.533087,0.000000,666.185348
1376.197066,-8882.471304,0.000000,444.123565
1376.197377,-8882.471304,-612.876398,592.164754
1376.197689,-9622.677246,-306.438199,666.185348
1376.198000,-11621.233289,1378.971896,296.082377
1376.198312,-10066.800811,4136.915689,592.164754
1376.198623,-8068.244768,4979.620737,740.205942
1376.198935,-7254.018232,2451.505594,814.226536
1376.199246,-6513.812290,76.609550,1110.308913
1376.199557,-7105.977043,-1762.019645,-222.061783
1376.199869,-6809.894666,-995.924147,148.041188
1376.200180,-9030.512492,-459.657299,-666.185348
1376.200492,-12805.562797,-842.705048,-1110.308913
1376.200803,-11547.212695,536.266849,222.061783
1376.201115,-9918.759623,459.657299,814.226536
1376.201426,-8586.388927,0.000000,2590.720797
1376.201738,-10214.842000,76.609550,2368.659014
1376.202049,-11325.150913,2374.896044,1776.494261
1376.202360,-6291.750507,5209.449386,2516.700203
1376.202672,-6291.750507,4443.353888,1850.514855
1376.202983,-8142.265362,2528.115143,296.082377
1376.203295,-7254.018232,3140.991542,-1258.350101
1376.203606,-8586.388927,3524.039291,-2368.659014
1376.203918,-8882.471304,4290.134789,-444.123565
1376.204229,-9770.718434,2911.162892,-888.247130
1376.204541,-14359.995275,612.876398,-444.123565
1376.204852,-10881.027347,-995.924147,2812.782580
1376.205163,-8808.450710,-766.095498,1554.432478
1376.205475,-9622.677246,2911.162892,1702.473667
1376.205786,-7402.059420,6971.469032,2886.803174
1376.206098,-9178.553681,4366.744339,1480.411884
1376.206409,-6587.832884,3370.820191,2960.823768
1376.206721,-6217.729913,5745.716235,1184.329507
1376.207032,-7402.059420,7048.078582,-740.205942
1376.207344,-9178.553681,6205.373534,-1554.432478
1376.207655,-10214.842000,4673.182538,-814.226536
1376.207966,-9252.574275,5362.668486,-1776.494261
1376.208278,-11251.130318,5592.497135,222.061783
1376.208589,-11769.274478,4366.744339,296.082377
1376.208901,-11029.068536,3983.696590,1998.556043
1376.209212,-10658.965565,4596.572988,2294.638420
1376.209524,-7402.059420,5286.058936,2368.659014
1376.209835,-5847.626942,5132.839837,1110.308913
1376.210147,-5847.626942,5592.497135,370.102971
1376.210458,-5551.544565,5132.839837,222.061783
1376.210769,-5699.585753,5132.839837,-666.185348
1376.211081,-6957.935855,4749.792088,-592.164754
1376.211392,-9030.512492,3447.429741,-814.226536
1376.211704,-9548.656652,2298.286494,-222.061783
1376.212015,-10288.862594,689.485948,518.144159
1376.212327,-10362.883188,689.485948,1702.473667
1376.212638,-11473.192101,-229.828649,1628.453072
1376.212949,-10955.047942,1532.190996,2072.576638
1376.213261,-9104.533087,2834.553343,1924.535449
1376.213572,-7624.121203,4443.353888,666.185348
1376.213884,-6439.791695,3370.820191,740.205942
1376.214195,-6957.935855,3677.258390,-592.164754
1376.214507,-6587.832884,4290.134789,-148.041188
1376.214818,-6735.874072,2757.943793,-1702.473667
1376.215130,-7846.182985,536.266849,-888.247130
1376.215441,-10140.821405,-1685.410096,-592.164754
1376.215752,-11695.253884,-1991.848295,370.102971
1376.216064,-12879.583391,-2298.286494,1110.308913
1376.216375,-13027.624579,-1532.190996,1702.473667
1376.216687,-13175.665768,306.438199,1776.494261
1376.216998,-12361.439231,995.924147,592.164754
1376.217310,-9548.656652,3064.381992,-0.000000
1376.217621,-7105.977043,4290.134789,-148.041188
1376.217933,-5699.585753,4749.792088,370.102971
1376.218244,-5699.585753,4749.792088,888.247130
1376.218555,-6883.915261,3600.648841,444.123565
1376.218867,-8512.368333,2451.505594,-0.000000
1376.219178,-11177.109724,1532.190996,-444.123565
1376.219490,-12657.521608,1072.533697,-444.123565
1376.219801,-13767.830521,766.095498,-444.123565
1376.220113,-14137.933492,153.219100,-74.020594
1376.220424,-12953.603985,1378.971896,-0.000000
1376.220736,-10732.986159,3294.210641,888.247130
1376.221047,-8512.368333,4213.525239,962.267725
1376.221358,-5699.585753,4979.620737,1628.453072
1376.221670,-3330.926739,5745.716235,1110.308913
1376.221981,-1480.411884,5745.716235,222.061783
1376.222293,-1110.308913,5286.058936,-1110.308913
1376.222604,-4441.235652,3753.867940,-1702.473667
1376.222916,-8586.388927,2604.724693,-1184.329507
1376.223227,-12657.521608,2374.896044,-370.102971
1376.223539,-14878.139434,3140.991542,1184.329507
1376.223850,-16432.571912,2911.162892,2738.761985
1376.224161,-13693.809927,2451.505594,3997.112087
1376.224473,-10140.821405,2681.334243,3108.864956
1376.224784,-5847.626942,3524.039291,2072.576638
1376.225096,-3182.885551,4749.792088,518.144159
1376.225407,-2368.659014,6818.249932,-296.082377
1376.225719,-1776.494261,8273.831378,-1332.370696
1376.226030,-4441.235652,5669.106685,-1406.391290
1376.226342,-7550.100608,3830.477490,-814.226536
1376.226653,-9474.636058,2604.724693,296.082377
1376.226964,-11399.171507,383.047749,370.102971
1376.227276,-11991.336260,-1685.410096,1628.453072
1376.227587,-12657.521608,-2604.724693,1258.350101
1376.227899,-12287.418637,-1838.629195,1850.514855
1376.228210,-12583.501014,306.438199,1850.514855
1376.228522,-11325.150913,2911.162892,1776.494261
1376.228833,-10732.986159,5745.716235,2146.597232
1376.229145,-7994.224174,6511.811733,1924.535449
1376.229456,-6217.729913,4979.620737,1258.350101
1376.229767,-6143.709319,3294.210641,-0.000000
1376.230079,-5921.647536,3140.991542,-1110.308913
1376.230390,-7476.080014,3600.648841,-2960.823768
1376.230702,-9326.594869,3983.696590,-2886.803174
1376.231013,-11547.212695,2987.772442,-1998.556043
1376.231325,-12657.521608,1762.019645,-222.061783
1376.231636,-12879.583391,1455.581446,1480.411884
1376.231948,-12583.501014,536.266849,2220.617826
1376.232259,-11917.315666,2068.457845,2590.720797
1376.232570,-10510.924376,4136.915689,2442.679609
1376.232882,-8660.409521,6435.202183,-222.061783
1376.233193,-5773.606348,6205.373534,-148.041188
1376.233505,-5181.441594,6128.763984,-1110.308913
1376.233816,-6365.771101,3370.820191,-962.267725
1376.234128,-6883.915261,2451.505594,-1702.473667
1376.234439,-7550.100608,2528.115143,-666.185348
1376.234750,-8734.430116,689.485948,-444.123565
1376.235062,-9030.512492,-689.485948,1184.329507
1376.235373,-8438.347739,-2911.162892,2812.782580
1376.235685,-7698.141797,-4136.915689,2294.638420
1376.235996,-8660.409521,-536.266849,1258.350101
1376.236308,-9844.739029,3600.648841,-592.164754
1376.236619,-10807.006753,8044.002729,-666.185348
1376.236931,-10732.986159,8427.050478,444.123565
1376.237242,-9548.656652,5515.887586,1184.329507
1376.237553,-9030.512492,2911.162892,2220.617826
1376.237865,-7698.141797,1838.629195,1480.411884
1376.238176,-5847.626942,2834.553343,1036.288319
1376.238488,-5625.565159,1915.238745,592.164754
1376.238799,-4441.235652,-536.266849,740.205942
1376.239111,-3478.967927,-3294.210641,148.041188
1376.239422,-4959.379811,-4673.182538,-740.205942
1376.239729,-8956.491898,-2221.676944,-1110.308913
1376.240040,-12805.562797,1838.629195,-1332.370696
1376.240352,-14656.077652,4749.792088,-370.102971
1376.240663,-16062.468941,3677.258390,1628.453072
1376.240975,-15174.221811,612.876398,3775.050304
1376.241286,-12879.583391,-919.314598,3849.070898
1376.241598,-8660.409521,-689.485948,3330.926739
1376.241909,-4071.132681,-612.876398,2368.659014
1376.242220,-2072.576638,-2374.896044,1110.308913
1376.242532,-2368.659014,-4749.792088,444.123565
1376.242843,-4145.153275,-7431.126331,-370.102971
1376.243155,-5625.565159,-6511.811733,-888.247130
1376.243466,-8956.491898,-1225.752797,-1332.370696
1376.243778,-14211.954086,1915.238745,-2146.597232
1376.244089,-16284.530724,2451.505594,-962.267725
1376.244400,-17024.736666,1608.800546,1258.350101
1376.244712,-16432.571912,0.000000,2590.720797
1376.245023,-13619.789333,842.705048,2738.761985
1376.245335,-10658.965565,1608.800546,814.226536
1376.245646,-4885.359217,2374.896044,814.226536
1376.245958,-370.102971,-689.485948,962.267725
1376.246269,1332.370696,-3677.258390,-0.000000
1376.246580,-1406.391290,-5209.449386,-370.102971
1376.246892,-5329.482782,-3140.991542,-1480.411884
1376.247203,-8586.388927,2068.457845,-2516.700203
1376.247515,-12731.542202,5132.839837,-1998.556043
1376.247826,-16580.613101,2987.772442,-1924.535449
1376.248137,-18875.251521,-1455.581446,-0.000000
1376.248449,-18061.024985,-919.314598,1554.432478
1376.248760,-14878.139434,3524.039291,1776.494261
1376.249072,-9696.697840,4136.915689,2072.576638
1376.249383,-2516.700203,0.000000,2146.597232
1376.249695,1332.370696,-5592.497135,2960.823768
1376.250006,1554.432478,-7660.954980,740.205942
1376.250317,0.000000,-4903.011187,-1850.514855
1376.250629,-3404.947333,3064.381992,-3627.009116
1376.250940,-9696.697840,5975.544884,-3034.844362
1376.251252,-15840.407159,5132.839837,-1554.432478
1376.251563,-20429.683999,2451.505594,148.041188
1376.251875,-19985.560434,1762.019645,2146.597232
1376.252186,-17024.736666,3677.258390,3552.988522
1376.252497,-10955.047942,5362.668486,2072.576638
1376.252809,-5995.668130,4136.915689,592.164754
1376.253120,0.000000,-1378.971896,-0.000000
1376.253432,4293.194464,-4826.401637,-0.000000
1376.253743,-370.102971,-3370.820191,370.102971
1376.254055,-3627.009116,-459.657299,-0.000000
1376.254366,-7624.121203,1838.629195,-1628.453072
1376.254677,-11991.336260,1149.143247,666.185348
1376.254989,-17616.901420,995.924147,2220.617826
1376.255300,-19911.539840,612.876398,2516.700203
1376.255612,-16654.633695,1225.752797,2146.597232
1376.255923,-12657.521608,2681.334243,1776.494261
1376.256234,-7328.038826,1915.238745,1332.370696
1376.256546,-4441.235652,-1762.019645,-74.020594
1376.256857,-1406.391290,-4749.792088,444.123565
1376.257169,-1036.288319,-5362.668486,-148.041188
1376.257480,-2516.700203,-2221.676944,2072.576638
1376.257792,-4145.153275,383.047749,-0.000000
1376.258103,-8660.409521,0.000000,1184.329507
1376.258414,-12879.583391,-3217.601092,2590.720797
1376.258726,-16432.571912,-2987.772442,3182.885551
1376.259037,-16580.613101,1915.238745,2664.741391
1376.259349,-14211.954086,3600.648841,1184.329507
1376.259660,-11547.212695,1532.190996,-0.000000
1376.259972,-6735.874072,-1302.362347,-0.000000
1376.260283,-4071.132681,-4673.182538,-888.247130
1376.260594,-2664.741391,-6435.202183,-814.226536
1376.260906,-2294.638420,-2298.286494,-74.020594
1376.261217,-6735.874072,0.000000,148.041188
1376.261529,-10066.800811,-1608.800546,1406.391290
1376.261840,-11843.295072,-3217.601092,740.205942
1376.262152,-12805.562797,-536.266849,1332.370696
1376.262463,-12731.542202,2221.676944,370.102971
1376.262774,-12583.501014,2298.286494,-148.041188
1376.263086,-10955.047942,1149.143247,-74.020594
1376.263397,-7698.141797,-2068.457845,-370.102971
1376.263709,-5551.544565,-4903.011187,-666.185348
1376.264020,-4589.276840,-4366.744339,-1332.370696
1376.264331,-6069.688724,76.609550,-1998.556043
1376.264643,-7476.080014,1685.410096,-1110.308913
1376.264954,-9400.615463,229.828649,-888.247130
1376.265266,-12287.418637,306.438199,1628.453072
1376.265577,-14359.995275,1072.533697,1776.494261
1376.265889,-14582.057057,3064.381992,1036.288319
1376.266200,-11473.192101,5132.839837,1036.288319
1376.266511,-8068.244768,4596.572988,-962.267725
1376.266823,-6365.771101,1378.971896,-1110.308913
1376.267134,-3849.070898,-2145.067394,-1628.453072
1376.267446,-4367.215058,-2221.676944,-2590.720797
1376.267757,-6809.894666,-689.485948,-1702.473667
1376.268069,-10288.862594,766.095498,-0.000000
1376.268380,-11547.212695,76.609550,888.247130
1376.268691,-12879.583391,-1072.533697,1702.473667
1376.269003,-14211.954086,-1455.581446,2738.761985
1376.269314,-13027.624579,1378.971896,2442.679609
1376.269626,-10140.821405,4749.792088,2220.617826
1376.269937,-5847.626942,4596.572988,1332.370696
1376.270249,-2664.741391,-153.219100,-0.000000
1376.270560,-1480.411884,-2451.505594,-2072.576638
1376.270871,-2368.659014,-1455.581446,-2368.659014
1376.271183,-4959.379811,612.876398,-2294.638420
1376.271494,-8734.430116,2528.115143,-444.123565
1376.271806,-12361.439231,995.924147,1998.556043
1376.272117,-15322.262999,-2911.162892,4367.215058
1376.272428,-16358.551318,-3600.648841,5921.647536
1376.272740,-14508.036463,0.000000,5255.462188
1376.273051,-10066.800811,3524.039291,2960.823768
1376.273363,-4737.318029,3753.867940,-148.041188
1376.273674,-1924.535449,919.314598,-1036.288319
1376.273986,0.000000,-2221.676944,-2072.576638
1376.274297,-962.267725,-2298.286494,-2590.720797
1376.274608,-4885.359217,-1455.581446,-1110.308913
1376.274920,-9844.739029,0.000000,-0.000000
1376.275231,-13471.748144,-1225.752797,2220.617826
1376.275543,-16580.613101,-3830.477490,3849.070898
1376.275854,-17542.880825,-4136.915689,4737.318029
1376.276166,-16210.510130,-2451.505594,3775.050304
1376.276477,-13397.727550,689.485948,3034.844362
1376.276788,-7105.977043,2145.067394,1406.391290
1376.277100,-3256.906145,76.609550,-222.061783
1376.277411,-2146.597232,-3294.210641,-1332.370696
1376.277723,-1998.556043,-3217.601092,-1628.453072
1376.278034,-4219.173869,-919.314598,-2664.741391
1376.278345,-7105.977043,1455.581446,-1554.432478
1376.278657,-11029.068536,1225.752797,-370.102971
1376.278968,-14582.057057,-2068.457845,1332.370696
1376.279280,-16728.654289,-2451.505594,3108.864956
1376.279591,-16210.510130,-842.705048,3997.112087
1376.279903,-13545.768739,1991.848295,3108.864956
1376.280214,-9326.594869,2757.943793,1554.432478
1376.280525,-3997.112087,1072.533697,-370.102971
1376.280837,-814.226536,-2528.115143,-1628.453072
1376.281148,-296.082377,-4673.182538,-2664.741391
1376.281460,-1924.535449,-2374.896044,-2812.782580
1376.281771,-6217.729913,995.924147,-3404.947333
1376.282083,-9770.718434,2451.505594,-1554.432478
1376.282394,-13101.645173,-612.876398,370.102971
1376.282705,-15766.386565,-2451.505594,2368.659014
1376.283017,-16580.613101,-995.924147,3330.926739
1376.283328,-14878.139434,2451.505594,3404.947333
1376.283640,-11029.068536,3753.867940,2886.803174
1376.283951,-6957.935855,2298.286494,222.061783
1376.284263,-2960.823768,-612.876398,-666.185348
1376.284574,-666.185348,-2145.067394,-3775.050304
1376.284885,-888.247130,153.219100,-4219.173869
1376.285197,-4219.173869,3447.429741,-3552.988522
1376.285508,-9326.594869,2451.505594,-2516.700203
1376.285820,-14359.995275,-995.924147,-222.061783
1376.286131,-17690.922014,-2451.505594,2146.597232
1376.286442,-18283.086767,-766.095498,4293.194464
1376.286754,-15692.365970,1685.410096,3701.029710
1376.287065,-11473.192101,3140.991542,2812.782580
1376.287377,-5995.668130,1685.410096,296.082377
1376.287688,-2072.576638,-459.657299,-0.000000
1376.288000,-962.267725,-1225.752797,-1258.350101
1376.288311,-2220.617826,153.219100,-1702.473667
1376.288622,-4737.318029,2068.457845,-2294.638420
1376.288934,-9104.533087,2451.505594,-1110.308913
1376.289245,-12287.418637,459.657299,-740.205942
1376.289557,-15470.304188,-1225.752797,1554.432478
1376.289868,-16950.716072,-919.314598,3330.926739
1376.290180,-15248.242405,689.485948,2886.803174
1376.290491,-11399.171507,1915.238745,3182.885551
1376.290802,-6957.935855,536.266849,2220.617826
1376.291114,-2886.803174,-2451.505594,1850.514855
1376.291425,-1850.514855,-4060.306139,-0.000000
1376.291737,-962.267725,-2374.896044,-74.020594
1376.292048,-3034.844362,1225.752797,-740.205942
1376.292360,-6883.915261,2834.553343,-592.164754
1376.292671,-10807.006753,459.657299,740.205942
1376.292982,-13693.809927,-2451.505594,2516.700203
1376.293294,-14656.077652,-2451.505594,2886.803174
1376.293605,-14211.954086,766.095498,2664.741391
1376.293917,-10955.047942,2528.115143,2294.638420
1376.294228,-7920.203579,0.000000,1628.453072
1376.294539,-5033.400406,-2451.505594,1258.350101
1376.294851,-3775.050304,-4136.915689,888.247130
1376.295162,-4367.215058,-1991.848295,-370.102971
1376.295474,-5329.482782,1915.238745,-296.082377
1376.295785,-8216.285956,2834.553343,-666.185348
1376.296097,-11029.068536,76.609550,148.041188
1376.296408,-12509.480420,-1455.581446,814.226536
1376.296719,-13989.892304,-1378.971896,1776.494261
1376.297031,-13027.624579,1302.362347,1258.350101
1376.297342,-10732.986159,1838.629195,1480.411884
1376.297654,-8142.265362,76.609550,888.247130
1376.297965,-6217.729913,-3140.991542,-0.000000
1376.298277,-3923.091493,-4366.744339,-148.041188
1376.298588,-4367.215058,-1225.752797,-962.267725
1376.298899,-6291.750507,1532.190996,-2072.576638
1376.299211,-8586.388927,3753.867940,-1702.473667
1376.299522,-11917.315666,1532.190996,-666.185348
1376.299834,-13989.892304,-229.828649,814.226536
1376.300145,-14952.160028,0.000000,1036.288319
1376.300457,-14285.974681,1838.629195,1036.288319
1376.300768,-10732.986159,2911.162892,666.185348
1376.301079,-8512.368333,1991.848295,-518.144159
1376.301391,-5181.441594,-1378.971896,-444.123565
1376.301702,-2886.803174,-3830.477490,-1332.370696
1376.302014,-4145.153275,-2528.115143,-1332.370696
1376.302325,-6365.771101,842.705048,-814.226536
1376.302636,-7920.203579,3294.210641,-1258.350101
1376.302948,-10732.986159,2757.943793,-0.000000
1376.303259,-12731.542202,229.828649,1406.391290
1376.303571,-14730.098246,-1225.752797,1628.453072
1376.303882,-14211.954086,2068.457845,1998.556043
1376.304194,-11399.171507,3753.867940,740.205942
1376.304505,-8068.244768,2374.896044,444.123565
1376.304816,-4959.379811,-459.657299,-814.226536
1376.305128,-2664.741391,-2221.676944,-1110.308913
1376.305439,-2442.679609,-2834.553343,-1110.308913
1376.305751,-5551.544565,-383.047749,-592.164754
1376.306062,-8882.471304,1762.019645,1332.370696
1376.306374,-11843.295072,1149.143247,1554.432478
1376.306685,-14804.118840,-1149.143247,3034.844362
1376.306996,-15544.324782,-612.876398,3404.947333
1376.307308,-13767.830521,2451.505594,2368.659014
1376.307619,-9844.739029,4366.744339,1554.432478
1376.307931,-5847.626942,3217.601092,-0.000000
1376.308242,-3404.947333,0.000000,-518.144159
1376.308554,-2368.659014,-2451.505594,-1036.288319
1376.308865,-2738.761985,-3064.381992,-888.247130
1376.309176,-4737.318029,-536.266849,-518.144159
1376.309488,-8438.347739,1685.410096,592.164754
1376.309799,-11399.171507,383.047749,1184.329507
1376.310111,-14730.098246,-1991.848295,2516.700203
1376.310422,-15692.365970,-1762.019645,4145.153275
1376.310733,-14656.077652,306.438199,3478.967927
1376.311045,-11547.212695,1072.533697,2738.761985
1376.311356,-7105.977043,842.705048,1332.370696
1376.311668,-3478.967927,-1991.848295,-222.061783
1376.311979,-1480.411884,-4366.744339,-888.247130
1376.312291,-2442.679609,-4903.011187,-1110.308913
1376.312602,-4737.318029,-1378.971896,-740.205942
1376.312913,-8142.265362,1302.362347,518.144159
1376.313225,-12139.377449,0.000000,2516.700203
1376.313536,-15026.180623,-2681.334243,2516.700203
1376.313848,-16506.592507,-1915.238745,2738.761985
1376.314159,-14434.015869,1072.533697,2368.659014
1376.314471,-10584.944971,3830.477490,1702.473667
1376.314782,-7402.059420,3524.039291,-1036.288319
1376.315093,-5403.503377,536.266849,-888.247130
1376.315405,-2368.659014,-2987.772442,-1184.329507
1376.315716,-2812.782580,-3064.381992,-2220.617826
1376.316028,-3627.009116,-383.047749,-1850.514855
1376.316339,-7105.977043,1685.410096,-1850.514855
1376.316651,-10658.965565,229.828649,-296.082377
1376.316962,-13767.830521,-2221.676944,1258.350101
1376.317273,-15692.365970,-1838.629195,2590.720797
1376.317585,-15618.345376,766.095498,2516.700203
1376.317896,-13989.892304,2834.553343,2664.741391
1376.318208,-10140.821405,3217.601092,1036.288319
1376.318519,-5107.421000,306.438199,-592.164754
1376.318830,-3775.050304,-2451.505594,-1924.535449
1376.319142,-2960.823768,-2374.896044,-2590.720797
1376.319453,-4589.276840,919.314598,-3034.844362
1376.319765,-7476.080014,3753.867940,-1998.556043
1376.320076,-11399.171507,2451.505594,-444.123565
1376.320388,-14804.118840,-229.828649,1332.370696
1376.320699,-16210.510130,-1532.190996,3256.906145
1376.321010,-15248.242405,1455.581446,2960.823768
1376.321322,-12213.398043,4443.353888,1702.473667
1376.321633,-7476.080014,5209.449386,-0.000000
1376.321945,-4145.153275,1991.848295,-888.247130
1376.322256,-1998.556043,-2298.286494,-1184.329507
1376.322568,-1850.514855,-3524.039291,-1776.494261
1376.322879,-3997.112087,-229.828649,-1776.494261
1376.323190,-6735.874072,3524.039291,-1776.494261
1376.323502,-10214.842000,612.876398,148.041188
1376.323813,-13101.645173,-2911.162892,2072.576638
1376.324125,-14656.077652,-3983.696590,3775.050304
1376.324436,-15322.262999,-1991.848295,4589.276840
1376.324748,-13027.624579,842.705048,3923.091493
1376.325059,-9474.636058,2221.676944,2368.659014
1376.325370,-5255.462188,-842.705048,518.144159
1376.325682,-1998.556043,-3064.381992,-148.041188
1376.325993,-1184.329507,-3140.991542,-1258.350101
1376.326305,-2812.782580,-383.047749,-1628.453072
1376.326616,-5551.544565,2068.457845,-814.226536
1376.326927,-9548.656652,689.485948,1184.329507
1376.327239,-13693.809927,-2145.067394,2738.761985
1376.327550,-15396.283594,-3217.601092,4367.215058
1376.327862,-15692.365970,-1838.629195,3997.112087
1376.328173,-13101.645173,536.266849,2886.803174
1376.328485,-9696.697840,1685.410096,1184.329507
1376.328796,-6217.729913,-306.438199,370.102971
1376.329107,-3775.050304,-4213.525239,-444.123565
1376.329419,-4367.215058,-5286.058936,-1110.308913
1376.329730,-4885.359217,-1915.238745,-1036.288319
1376.330042,-7476.080014,1685.410096,-888.247130
1376.330353,-9918.759623,1072.533697,592.164754
1376.330665,-12361.439231,-2374.896044,2072.576638
1376.330976,-14804.118840,-3677.258390,3330.926739
1376.331287,-14656.077652,-2221.676944,4145.153275
1376.331599,-13545.768739,1072.533697,2960.823768
1376.331910,-9992.780217,3370.820191,1332.370696
1376.332222,-5847.626942,1838.629195,-222.061783
1376.332533,-3034.844362,-2681.334243,-814.226536
1376.332844,-1702.473667,-3983.696590,-1850.514855
1376.333156,-2664.741391,0.000000,-2294.638420
1376.333467,-6661.853478,2911.162892,-1924.535449
1376.333779,-10436.903782,2757.943793,-962.267725
1376.334090,-13767.830521,766.095498,592.164754
1376.334402,-15174.221811,229.828649,1406.391290
1376.334713,-14730.098246,689.485948,1998.556043
1376.335024,-12879.583391,2681.334243,1554.432478
1376.335336,-9400.615463,3753.867940,1628.453072
1376.335647,-6217.729913,1378.971896,-0.000000
1376.335959,-3256.906145,-1991.848295,-296.082377
1376.336270,-3108.864956,-2987.772442,-1850.514855
1376.336582,-4589.276840,-689.485948,-2886.803174
1376.336893,-6735.874072,2987.772442,-3330.926739
1376.337204,-9104.533087,4060.306139,-2368.659014
1376.337516,-12435.459826,1225.752797,-222.061783
1376.337827,-16062.468941,-1225.752797,2072.576638
1376.338139,-16876.695478,-995.924147,3701.029710
1376.338450,-13989.892304,1991.848295,3108.864956
1376.338762,-9844.739029,3830.477490,1554.432478
1376.339073,-5403.503377,2528.115143,-1332.370696
1376.339384,-1776.494261,-153.219100,-2072.576638
1376.339696,-962.267725,-2681.334243,-3701.029710
1376.340007,-1702.473667,-2145.067394,-1998.556043
1376.340319,-5995.668130,1608.800546,-1924.535449
1376.340630,-11251.130318,1685.410096,296.082377
1376.340942,-14434.015869,-1991.848295,2442.679609
1376.341253,-16432.571912,-4060.306139,4071.132681
1376.341565,-15692.365970,-3370.820191,5107.421000
1376.341876,-13397.727550,-1302.362347,3552.988522
1376.342188,-9252.574275,306.438199,2516.700203
1376.342499,-5033.400406,306.438199,666.185348
1376.342810,-2664.741391,-3064.381992,518.144159
1376.343122,-1776.494261,-4673.182538,-740.205942
1376.343433,-2812.782580,-2528.115143,-1036.288319
1376.343745,-5773.606348,306.438199,-814.226536
1376.344056,-9326.594869,2374.896044,296.082377
1376.344368,-12657.521608,459.657299,1406.391290
1376.344679,-15618.345376,-2374.896044,3256.906145
1376.344991,-15914.427753,-2068.457845,4589.276840
1376.345302,-14285.974681,0.000000,3775.050304
1376.345614,-11251.130318,1915.238745,2220.617826
1376.345925,-6069.688724,1225.752797,-592.164754
1376.346236,-2220.617826,-2068.457845,-148.041188
1376.346548,-1036.288319,-4673.182538,-888.247130
1376.346859,-1924.535449,-4290.134789,-518.144159
1376.347171,-4885.359217,-1149.143247,-148.041188
1376.347482,-9622.677246,306.438199,1258.350101
1376.347794,-13471.748144,-612.876398,2368.659014
1376.348105,-15544.324782,-1762.019645,2146.597232
1376.348417,-16580.613101,-1225.752797,2516.700203
1376.348728,-14434.015869,1685.410096,1924.535449
1376.349040,-11621.233289,3753.867940,888.247130
1376.349351,-8290.306550,3064.381992,-740.205942
1376.349663,-4959.379811,-383.047749,-1406.391290
1376.349974,-2368.659014,-2298.286494,-1702.473667
1376.350285,-2294.638420,-1685.410096,-1554.432478
1376.350597,-4663.297435,1915.238745,-2146.597232
1376.350908,-7772.162391,3677.258390,-2072.576638
1376.351220,-10436.903782,2145.067394,-444.123565
1376.351531,-13175.665768,536.266849,888.247130
1376.351843,-15322.262999,-536.266849,2072.576638
1376.352154,-14804.118840,2145.067394,1554.432478
1376.352466,-11843.295072,4290.134789,962.267725
1376.352777,-7994.224174,3600.648841,-814.226536
1376.353089,-4145.153275,229.828649,-1998.556043
1376.353400,-2516.700203,-1762.019645,-2960.823768
1376.353711,-2886.803174,-1072.533697,-2590.720797
1376.354023,-4885.359217,842.705048,-2072.576638
1376.354334,-8290.306550,3064.381992,-888.247130
1376.354646,-13249.686362,1532.190996,370.102971
1376.354957,-15396.283594,-689.485948,2738.761985
1376.355269,-16284.530724,-995.924147,3478.967927
1376.355580,-14656.077652,842.705048,2812.782580
1376.355892,-10658.965565,2911.162892,1776.494261
1376.356203,-6809.894666,2681.334243,-296.082377
1376.356515,-4515.256246,459.657299,-1110.308913
1376.356826,-2072.576638,-2987.772442,-1850.514855
1376.357138,-2072.576638,-2221.676944,-1998.556043
1376.357449,-4589.276840,536.266849,-1184.329507
1376.357760,-7772.162391,2221.676944,-0.000000
1376.358072,-11695.253884,76.609550,1924.535449
1376.358383,-14359.995275,-2374.896044,3627.009116
1376.358695,-14952.160028,-2834.553343,4589.276840
1376.359006,-13175.665768,-1532.190996,3997.112087
1376.359318,-10955.047942,612.876398,3182.885551
1376.359629,-6883.915261,229.828649,814.226536
1376.359941,-4515.256246,-1915.238745,-296.082377
1376.360252,-2960.823768,-4596.572988,-888.247130
1376.360564,-3478.967927,-4596.572988,-370.102971
1376.360875,-5921.647536,-1685.410096,370.102971
1376.361186,-9400.615463,1225.752797,962.267725
1376.361498,-12139.377449,0.000000,1924.535449
1376.361809,-14063.912898,-2834.553343,3552.988522
1376.362121,-14656.077652,-1838.629195,4367.215058
1376.362432,-13175.665768,459.657299,3182.885551
1376.362744,-10584.944971,2528.115143,2220.617826
1376.363055,-7105.977043,1915.238745,1036.288319
1376.363367,-3997.112087,-612.876398,-296.082377
1376.363678,-2368.659014,-3294.210641,-1184.329507
1376.363990,-2590.720797,-3524.039291,-1406.391290
1376.364301,-5625.565159,-842.705048,-1184.329507
1376.364613,-9178.553681,1072.533697,-370.102971
1376.364924,-11473.192101,689.485948,740.205942
1376.365235,-13841.851115,-2604.724693,1924.535449
1376.365547,-14878.139434,-3294.210641,3478.967927
1376.365858,-14211.954086,-612.876398,2664.741391
1376.366170,-11177.109724,2451.505594,1332.370696
1376.366481,-7920.203579,2681.334243,-222.061783
1376.366793,-4737.318029,-766.095498,-814.226536
1376.367104,-2072.576638,-2911.162892,-1924.535449
1376.367416,-3108.864956,-2681.334243,-2368.659014
1376.367727,-4737.318029,383.047749,-2146.597232
1376.368039,-8216.285956,3064.381992,-1258.350101
1376.368350,-11547.212695,2298.286494,-518.144159
1376.368661,-12879.583391,1378.971896,1480.411884
1376.368973,-15618.345376,-459.657299,1628.453072
1376.369284,-15840.407159,1915.238745,1702.473667
1376.369596,-12435.459826,5822.325785,-0.000000
1376.369907,-8660.409521,6435.202183,-1258.350101
1376.370219,-5033.400406,3140.991542,-1480.411884
1376.370530,-3108.864956,-536.266849,-1850.514855
1376.370842,-3627.009116,-995.924147,-3034.844362
1376.371153,-5107.421000,1532.190996,-2664.741391
1376.371465,-7698.141797,4519.963438,-2146.597232
1376.371776,-11325.150913,4136.915689,-740.205942
1376.372087,-13249.686362,153.219100,1036.288319
1376.372399,-14804.118840,-2987.772442,2886.803174
1376.372710,-15026.180623,-2451.505594,3404.947333
1376.373022,-12657.521608,1378.971896,2146.597232
1376.373333,-8364.327145,3294.210641,814.226536
1376.373645,-5477.523971,76.609550,-74.020594
1376.373956,-3108.864956,-4366.744339,-814.226536
1376.374268,-2516.700203,-4903.011187,-1184.329507
1376.374579,-4737.318029,-1762.019645,-962.267725
1376.374891,-8290.306550,2068.457845,-148.041188
1376.375202,-11251.130318,2604.724693,1332.370696
1376.375514,-13249.686362,153.219100,3256.906145
1376.375825,-14285.974681,-1378.971896,4071.132681
1376.376136,-13915.871710,0.000000,3330.926739
1376.376448,-11621.233289,3600.648841,2442.679609
1376.376759,-7476.080014,4596.572988,888.247130
1376.377071,-4515.256246,2604.724693,-814.226536
1376.377382,-3034.844362,-1608.800546,-962.267725
1376.377694,-2072.576638,-3983.696590,-518.144159
1376.378005,-3182.885551,-3447.429741,296.082377
1376.378317,-7476.080014,-1302.362347,740.205942
1376.378628,-10140.821405,-1302.362347,2294.638420
1376.378940,-12657.521608,-3677.258390,3552.988522
1376.379251,-14656.077652,-4903.011187,4589.276840
1376.379562,-14582.057057,-4060.306139,5033.400406
1376.379874,-13175.665768,-383.047749,3478.967927
1376.380185,-9178.553681,2298.286494,1628.453072
1376.380497,-5847.626942,459.657299,-0.000000
1376.380808,-3182.885551,-2298.286494,-148.041188
1376.381120,-2368.659014,-3447.429741,-740.205942
1376.381431,-3404.947333,-1532.190996,-0.000000
1376.381743,-6587.832884,153.219100,-0.000000
1376.382054,-10140.821405,1685.410096,148.041188
1376.382366,-12657.521608,1149.143247,1258.350101
1376.382677,-14508.036463,-919.314598,1998.556043
1376.382989,-14656.077652,-1685.410096,2368.659014
1376.383300,-13323.706956,1991.848295,1258.350101
1376.383611,-9770.718434,3907.087040,-444.123565
1376.383923,-7105.977043,2757.943793,-1628.453072
1376.384234,-4959.379811,-1915.238745,-1480.411884
1376.384546,-3627.009116,-2451.505594,-2220.617826
1376.384857,-3627.009116,-842.705048,-2220.617826
1376.385169,-7179.997637,536.266849,-2294.638420
1376.385480,-10584.944971,1838.629195,-1036.288319
1376.385792,-12509.480420,-306.438199,370.102971
1376.386103,-14804.118840,-1378.971896,1332.370696
1376.386415,-15840.407159,-1225.752797,2146.597232
1376.386726,-14952.160028,1685.410096,1406.391290
1376.387037,-11547.212695,4213.525239,222.061783
1376.387349,-7254.018232,2757.943793,-1554.432478
1376.387660,-4885.359217,-306.438199,-2812.782580
1376.387972,-2812.782580,-1302.362347,-2960.823768
1376.388283,-2220.617826,-459.657299,-2886.803174
1376.388595,-5847.626942,1532.190996,-3108.864956
1376.388906,-8142.265362,3524.039291,-592.164754
1376.389218,-11029.068536,1685.410096,1110.308913
1376.389529,-14137.933492,-459.657299,2738.761985
1376.389841,-14434.015869,-383.047749,3552.988522
1376.390152,-12953.603985,2528.115143,1924.535449
1376.390464,-8882.471304,3524.039291,888.247130
1376.390775,-5699.585753,2911.162892,-740.205942
1376.391086,-3627.009116,0.000000,-1480.411884
1376.391398,-2886.803174,-2834.553343,-1628.453072
1376.391709,-3256.906145,-2298.286494,-74.020594
1376.392021,-6217.729913,-612.876398,222.061783
1376.392332,-9918.759623,0.000000,1702.473667
1376.392644,-11843.295072,-1762.019645,3182.885551
1376.392955,-13545.768739,-2681.334243,4071.132681
1376.393267,-14434.015869,-2451.505594,3849.070898
1376.393578,-13175.665768,459.657299,3627.009116
1376.393890,-9696.697840,2604.724693,2368.659014
1376.394201,-6587.832884,1302.362347,1036.288319
1376.394512,-3923.091493,-2298.286494,814.226536
1376.394824,-3701.029710,-3983.696590,-222.061783
1376.395135,-3849.070898,-2681.334243,592.164754
1376.395447,-4959.379811,536.266849,-74.020594
1376.395758,-8660.409521,1608.800546,296.082377
1376.396070,-11029.068536,229.828649,2220.617826
1376.396381,-13545.768739,-1991.848295,3182.885551
1376.396693,-15248.242405,-2451.505594,3701.029710
1376.397004,-14508.036463,919.314598,3849.070898
1376.397316,-11547.212695,2681.334243,2146.597232
1376.397627,-8216.285956,1838.629195,-0.000000
1376.397939,-5773.606348,-1225.752797,-74.020594
1376.398250,-3849.070898,-4136.915689,-1036.288319
1376.398561,-2812.782580,-2604.724693,-888.247130
1376.398873,-5847.626942,-536.266849,-1110.308913
1376.399184,-8956.491898,306.438199,-222.061783
1376.399496,-11177.109724,-459.657299,1036.288319
1376.399807,-13841.851115,-1838.629195,2368.659014
1376.400119,-14508.036463,-1838.629195,2220.617826
1376.400430,-13841.851115,919.314598,1554.432478
1376.400742,-10732.986159,3830.477490,518.144159
1376.401053,-7105.977043,1991.848295,-518.144159
1376.401365,-3701.029710,-1302.362347,-1332.370696
1376.401676,-2886.803174,-3677.258390,-1702.473667
1376.401987,-3627.009116,-3294.210641,-1998.556043
1376.402299,-4737.318029,0.000000,-2072.576638
1376.402610,-7846.182985,2528.115143,-1628.453072
1376.402922,-10288.862594,1838.629195,-0.000000
1376.403233,-13841.851115,-1762.019645,1406.391290
1376.403545,-15692.365970,-2834.553343,2368.659014
1376.403856,-14211.954086,1532.190996,2220.617826
1376.404168,-11473.192101,5132.839837,222.061783
1376.404479,-7994.224174,4826.401637,-1554.432478
1376.404791,-4367.215058,919.314598,-2368.659014
1376.405102,-2442.679609,-1915.238745,-2886.803174
1376.405413,-2516.700203,-1225.752797,-2960.823768
1376.405725,-5847.626942,995.924147,-2664.741391
1376.406036,-9252.574275,2374.896044,-814.226536
1376.406348,-12805.562797,689.485948,592.164754
1376.406659,-15248.242405,-2374.896044,2146.597232
1376.406971,-15618.345376,-2681.334243,2960.823768
1376.407282,-14656.077652,612.876398,2664.741391
1376.407594,-12213.398043,3983.696590,1554.432478
1376.407905,-8660.409521,2451.505594,-518.144159
1376.408217,-5033.400406,-459.657299,-740.205942
1376.408528,-3108.864956,-2834.553343,-814.226536
1376.408840,-3182.885551,-3217.601092,-888.247130
1376.409151,-4885.359217,-459.657299,-888.247130
1376.409462,-7550.100608,1762.019645,-148.041188
1376.409774,-10732.986159,459.657299,1924.535449
1376.410085,-14508.036463,-2068.457845,3034.844362
1376.410397,-16210.510130,-2528.115143,4959.379811
1376.410708,-15174.221811,383.047749,4515.256246
1376.411020,-11547.212695,3064.381992,2442.679609
1376.411331,-7179.997637,3677.258390,1184.329507
1376.411643,-3849.070898,766.095498,-518.144159
1376.411954,-1184.329507,-1915.238745,-1258.350101
1376.412266,-518.144159,-2834.553343,-740.205942
1376.412577,-3849.070898,-1685.410096,-222.061783
1376.412888,-7328.038826,229.828649,814.226536
1376.413200,-10881.027347,-153.219100,2072.576638
1376.413511,-13619.789333,-2451.505594,3182.885551
1376.413823,-14656.077652,-2374.896044,4515.256246
1376.414134,-13175.665768,0.000000,3923.091493
1376.414446,-11473.192101,2145.067394,1998.556043
1376.414757,-8364.327145,2528.115143,370.102971
1376.415069,-4663.297435,-766.095498,-74.020594
1376.415380,-3552.988522,-3064.381992,-1184.329507
1376.415692,-2664.741391,-3600.648841,-888.247130
1376.416003,-4367.215058,-1991.848295,-1702.473667
1376.416315,-7994.224174,153.219100,-1184.329507
1376.416626,-9992.780217,536.266849,1036.288319
1376.416937,-13027.624579,-2451.505594,2072.576638
1376.417249,-15322.262999,-3294.210641,3552.988522
1376.417560,-14952.160028,0.000000,3552.988522
1376.417872,-12879.583391,2528.115143,2294.638420
1376.418183,-8364.327145,3217.601092,-0.000000
1376.418495,-5551.544565,1532.190996,-1480.411884
1376.418806,-3330.926739,-766.095498,-2516.700203
1376.419118,-2590.720797,-2068.457845,-3182.885551
1376.419429,-4145.153275,153.219100,-3034.844362
1376.419741,-8142.265362,1608.800546,-2738.761985
1376.420052,-11325.150913,1608.800546,-1184.329507
1376.420363,-15544.324782,-995.924147,444.123565
1376.420675,-16876.695478,-536.266849,2368.659014
1376.420986,-16654.633695,689.485948,2072.576638
1376.421298,-14211.954086,2604.724693,1850.514855
1376.421609,-8956.491898,2911.162892,-0.000000
1376.421921,-5477.523971,1072.533697,-1406.391290
1376.422232,-2146.597232,-1149.143247,-1480.411884
1376.422544,-1850.514855,-3217.601092,-2738.761985
1376.422855,-3775.050304,-459.657299,-2812.782580
1376.423167,-7328.038826,3140.991542,-2442.679609
1376.423478,-11473.192101,3294.210641,-888.247130
1376.423790,-14211.954086,229.828649,1406.391290
1376.424101,-16136.489536,-1378.971896,2960.823768
1376.424412,-15618.345376,-459.657299,3627.009116
1376.424724,-12879.583391,2681.334243,2368.659014
1376.425035,-8216.285956,4213.525239,962.267725
1376.425347,-3923.091493,2681.334243,-814.226536
1376.425658,-2146.597232,-1225.752797,-2072.576638
1376.425970,-1628.453072,-3140.991542,-1702.473667
1376.426281,-3404.947333,-1225.752797,-1036.288319
1376.426593,-6365.771101,1378.971896,-74.020594
1376.426904,-9474.636058,229.828649,1258.350101
1376.427216,-13175.665768,-2681.334243,2442.679609
1376.427527,-14582.057057,-3217.601092,3923.091493
1376.427838,-13915.871710,-2068.457845,3923.091493
1376.428150,-11991.336260,842.705048,2590.720797
1376.428461,-8808.450710,2834.553343,1406.391290
1376.428773,-5625.565159,536.266849,740.205942
1376.429084,-1554.432478,-3370.820191,222.061783
1376.429396,-2664.741391,-5132.839837,-592.164754
1376.429707,-4293.194464,-3140.991542,296.082377
1376.430019,-6587.832884,383.047749,-0.000000
1376.430330,-10658.965565,1225.752797,962.267725
1376.430642,-13841.851115,-995.924147,2516.700203
1376.430953,-15618.345376,-2451.505594,3108.864956
1376.431265,-15766.386565,-1072.533697,3404.947333
1376.431576,-13545.768739,1991.848295,3034.844362
1376.431887,-9474.636058,3753.867940,814.226536
1376.432199,-6809.894666,1762.019645,-592.164754
1376.432510,-3997.112087,-1685.410096,-370.102971
1376.432822,-2368.659014,-3753.867940,-814.226536
1376.433133,-3923.091493,-2221.676944,-592.164754
1376.433445,-6735.874072,612.876398,-740.205942
1376.433756,-9622.677246,1302.362347,-740.205942
1376.434068,-11843.295072,-229.828649,888.247130
1376.434379,-14063.912898,-2681.334243,2664.741391
1376.434691,-15544.324782,-3370.820191,2442.679609
1376.435002,-14508.036463,-229.828649,2368.659014
1376.435313,-11473.192101,1532.190996,1332.370696
1376.435625,-7994.224174,1072.533697,-0.000000
1376.435936,-4811.338623,-1302.362347,-666.185348
1376.436248,-2738.761985,-2374.896044,-1998.556043
1376.436559,-2960.823768,-1608.800546,-2886.803174
1376.436871,-4885.359217,1991.848295,-2072.576638
1376.437182,-8586.388927,3983.696590,-962.267725
1376.437494,-12287.418637,2757.943793,1036.288319
1376.437805,-15692.365970,76.609550,2516.700203
1376.438117,-16062.468941,0.000000,3478.967927
1376.438428,-13989.892304,2834.553343,1924.535449
1376.438739,-9252.574275,5669.106685,-0.000000
1376.439051,-4663.297435,4749.792088,-2146.597232
1376.439362,-2146.597232,842.705048,-2590.720797
1376.439674,-1628.453072,-2451.505594,-3404.947333
1376.439985,-3627.009116,-1225.752797,-2886.803174
1376.440297,-6513.812290,2451.505594,-1776.494261
1376.440608,-9696.697840,3294.210641,-0.000000
1376.440920,-13175.665768,689.485948,1480.411884
1376.441231,-14730.098246,-2068.457845,2664.741391
1376.441543,-14508.036463,-1455.581446,3034.844362
1376.441854,-12657.521608,1072.533697,2368.659014
1376.442166,-9104.533087,3447.429741,1332.370696
1376.442477,-5995.668130,1455.581446,-740.205942
1376.442789,-3923.091493,-2374.896044,-1480.411884
1376.443100,-2368.659014,-4366.744339,-1184.329507
1376.443412,-3552.988522,-2604.724693,-1036.288319
1376.443723,-6735.874072,689.485948,-666.185348
1376.444035,-10140.821405,1225.752797,666.185348
1376.444346,-12879.583391,-1149.143247,2368.659014
1376.444658,-15396.283594,-1991.848295,3701.029710
1376.444969,-15692.365970,-1225.752797,4367.215058
1376.445281,-13101.645173,1149.143247,2812.782580
1376.445592,-9844.739029,3140.991542,1184.329507
1376.445904,-5403.503377,2757.943793,666.185348
1376.446215,-2738.761985,-1302.362347,-740.205942
1376.446527,-2442.679609,-3753.867940,-740.205942
1376.446838,-2960.823768,-3370.820191,-222.061783
1376.447150,-5995.668130,-1455.581446,-0.000000
1376.447461,-10140.821405,-306.438199,666.185348
1376.447773,-13175.665768,-1225.752797,1702.473667
1376.448084,-15100.201217,-2374.896044,2368.659014
1376.448396,-15840.407159,-1149.143247,3256.906145
1376.448707,-14285.974681,459.657299,3034.844362
1376.449019,-11177.109724,1991.848295,2146.597232
1376.449330,-7105.977043,153.219100,1184.329507
1376.449642,-3775.050304,-2451.505594,740.205942
1376.449953,-1480.411884,-4136.915689,222.061783
1376.450265,-2072.576638,-3753.867940,-444.123565
1376.450576,-4071.132681,-1838.629195,-962.267725
1376.450888,-7328.038826,689.485948,-1184.329507
1376.451199,-11621.233289,-153.219100,592.164754
1376.451511,-14508.036463,-1072.533697,1850.514855
1376.451823,-16950.716072,-1762.019645,2812.782580
1376.452134,-15692.365970,1302.362347,2886.803174
1376.452446,-11917.315666,3907.087040,1998.556043
1376.452757,-7624.121203,4213.525239,-740.205942
1376.453069,-4367.215058,919.314598,-1480.411884
1376.453380,-1110.308913,-1302.362347,-2590.720797
1376.453692,-1258.350101,-1608.800546,-3108.864956
1376.454003,-3923.091493,153.219100,-2442.679609
1376.454315,-7254.018232,1532.190996,-1184.329507
1376.454626,-12139.377449,995.924147,-148.041188
1376.454938,-15322.262999,-689.485948,1776.494261
1376.455249,-16432.571912,-383.047749,3330.926739
1376.455561,-16136.489536,1072.533697,2590.720797
1376.455872,-13027.624579,4213.525239,1998.556043
1376.456184,-7920.203579,4443.353888,148.041188
1376.456495,-3478.967927,1838.629195,-1332.370696
1376.456807,-1258.350101,-153.219100,-2368.659014
1376.457118,-2072.576638,-689.485948,-2960.823768
1376.457430,-3849.070898,1532.190996,-2146.597232
1376.457741,-7994.224174,3294.210641,-1110.308913
1376.458053,-11843.295072,2604.724693,962.267725
1376.458364,-15544.324782,0.000000,2664.741391
1376.458676,-17542.880825,-1685.410096,3330.926739
1376.458987,-15988.448347,-766.095498,2294.638420
1376.459299,-11325.150913,3370.820191,1332.370696
1376.459610,-6291.750507,4443.353888,518.144159
1376.459922,-3849.070898,229.828649,-740.205942
1376.460233,-2220.617826,-3064.381992,-1036.288319
1376.460545,-2960.823768,-3830.477490,-592.164754
1376.460856,-4441.235652,-229.828649,-0.000000
1376.461168,-7254.018232,1762.019645,814.226536
1376.461479,-11251.130318,229.828649,1184.329507
1376.461791,-13249.686362,-2528.115143,2368.659014
1376.462102,-13989.892304,-2987.772442,3404.947333
1376.462414,-13693.809927,-1149.143247,3256.906145
1376.462726,-12435.459826,1608.800546,2442.679609
1376.463037,-9326.594869,1455.581446,1332.370696
1376.463349,-5033.400406,-919.314598,962.267725
1376.463660,-2886.803174,-3370.820191,-148.041188
1376.463972,-2738.761985,-4366.744339,-518.144159
1376.464283,-4219.173869,-2451.505594,-222.061783
1376.464595,-7476.080014,0.000000,-0.000000
1376.464906,-10436.903782,153.219100,1332.370696
1376.465218,-12953.603985,-1838.629195,2368.659014
1376.465529,-14878.139434,-2374.896044,3552.988522
1376.465841,-14359.995275,-1072.533697,2960.823768
1376.466152,-11325.150913,1532.190996,2294.638420
1376.466464,-7402.059420,2451.505594,370.102971
1376.466775,-5403.503377,459.657299,-740.205942
1376.467087,-3552.988522,-3677.258390,-1036.288319
1376.467398,-2886.803174,-4673.182538,-1554.432478
1376.467710,-4589.276840,-2451.505594,-1110.308913
1376.468021,-7402.059420,-229.828649,-814.226536
1376.468333,-10881.027347,-459.657299,148.041188
1376.468644,-14211.954086,-2145.067394,740.205942
1376.468956,-16062.468941,-2374.896044,2294.638420
1376.469267,-15914.427753,-1072.533697,2516.700203
1376.469579,-14359.995275,1838.629195,1998.556043
1376.469890,-10807.006753,3217.601092,518.144159
1376.470202,-6217.729913,459.657299,-518.144159
1376.470513,-1776.494261,-2451.505594,-1554.432478
1376.470825,-2072.576638,-2757.943793,-2664.741391
1376.471136,-3256.906145,-229.828649,-2368.659014
1376.471448,-6661.853478,2451.505594,-1850.514855
1376.471759,-10584.944971,3064.381992,-1036.288319
1376.472071,-13693.809927,1532.190996,1036.288319
1376.472382,-16432.571912,0.000000,2220.617826
1376.472694,-16876.695478,842.705048,2072.576638
1376.473005,-13915.871710,4903.011187,1184.329507
1376.473317,-8734.430116,6435.202183,-148.041188
1376.473629,-4737.318029,3983.696590,-1184.329507
1376.473940,-2220.617826,-383.047749,-1850.514855
1376.474252,-1406.391290,-2451.505594,-2294.638420
1376.474563,-2516.700203,-306.438199,-2146.597232
1376.474875,-5847.626942,3370.820191,-1480.411884
1376.475186,-10436.903782,4213.525239,-1110.308913
1376.475498,-14063.912898,1225.752797,962.267725
1376.475809,-15100.201217,-995.924147,2812.782580
1376.476121,-14582.057057,-1149.143247,2960.823768
1376.476432,-12361.439231,1225.752797,2738.761985
1376.476744,-8882.471304,2145.067394,1776.494261
1376.477055,-5995.668130,0.000000,-222.061783
1376.477367,-3404.947333,-3064.381992,-518.144159
1376.477678,-1850.514855,-4366.744339,-888.247130
1376.477990,-3330.926739,-2221.676944,-0.000000
1376.478301,-6735.874072,-536.266849,-0.000000
1376.478613,-9696.697840,153.219100,1406.391290
1376.478924,-12287.418637,-1149.143247,2368.659014
1376.479236,-14508.036463,-1838.629195,3330.926739
1376.479547,-14952.160028,-383.047749,3256.906145
1376.479859,-12879.583391,2374.896044,2368.659014
1376.480170,-9400.615463,3753.867940,1258.350101
1376.480482,-6217.729913,842.705048,-0.000000
1376.480793,-3330.926739,-2145.067394,-0.000000
1376.481105,-3478.967927,-3983.696590,148.041188
1376.481416,-4515.256246,-3600.648841,518.144159
1376.481728,-6439.791695,-1608.800546,592.164754
1376.482039,-8364.327145,-1072.533697,962.267725
1376.482351,-11399.171507,-2451.505594,1850.514855
1376.482662,-13989.892304,-3447.429741,1850.514855
1376.482974,-14508.036463,-1608.800546,2516.700203
1376.483285,-14137.933492,612.876398,2220.617826
1376.483597,-11843.295072,1455.581446,1776.494261
1376.483908,-8216.285956,-229.828649,592.164754
1376.484220,-5107.421000,-2911.162892,296.082377
1376.484532,-3404.947333,-4136.915689,-666.185348
1376.484843,-2220.617826,-2911.162892,-814.226536
1376.485155,-4145.153275,-536.266849,-666.185348
1376.485466,-8734.430116,306.438199,-370.102971
1376.485778,-11843.295072,-383.047749,1184.329507
1376.486089,-14878.139434,-1838.629195,1702.473667
1376.486401,-16284.530724,-842.705048,2072.576638
1376.486712,-14878.139434,2451.505594,1480.411884
1376.487024,-10658.965565,3983.696590,370.102971
1376.487335,-6883.915261,2068.457845,-888.247130
1376.487647,-4737.318029,-1149.143247,-1406.391290
1376.487958,-2886.803174,-2221.676944,-1628.453072
1376.488270,-3478.967927,-1378.971896,-2368.659014
1376.488581,-5033.400406,1455.581446,-2146.597232
1376.488893,-8216.285956,2451.505594,-1628.453072
1376.489204,-10436.903782,995.924147,222.061783
1376.489516,-14211.954086,-1149.143247,1406.391290
1376.489827,-16876.695478,-612.876398,2368.659014
1376.490139,-15692.365970,3294.210641,1332.370696
1376.490450,-12879.583391,6128.763984,222.061783
1376.490762,-8438.347739,4290.134789,-814.226536
1376.491073,-3775.050304,-536.266849,-1924.535449
1376.491385,-1258.350101,-2604.724693,-2368.659014
1376.491696,-1406.391290,-2145.067394,-1924.535449
1376.492008,-4589.276840,76.609550,-1776.494261
1376.492319,-8438.347739,2757.943793,296.082377
1376.492631,-13249.686362,919.314598,1850.514855
1376.492942,-15840.407159,-1608.800546,3404.947333
1376.493254,-15840.407159,-1225.752797,3701.029710
1376.493565,-13915.871710,2528.115143,2368.659014
1376.493877,-9030.512492,5209.449386,444.123565
1376.494188,-4515.256246,3447.429741,-296.082377
1376.494500,-2516.700203,-842.705048,-888.247130
1376.494811,-1998.556043,-3447.429741,-740.205942
1376.495123,-4219.173869,-2834.553343,-666.185348
1376.495435,-6143.709319,-689.485948,296.082377
1376.495746,-8438.347739,842.705048,962.267725
1376.496058,-11029.068536,-536.266849,1702.473667
1376.496369,-13915.871710,-3217.601092,2812.782580
1376.496681,-14508.036463,-3140.991542,4145.153275
1376.496992,-14359.995275,919.314598,3182.885551
1376.497304,-11991.336260,1302.362347,2664.741391
1376.497615,-7994.224174,842.705048,1332.370696
1376.497927,-4293.194464,-1685.410096,444.123565
1376.498238,-1850.514855,-3447.429741,-222.061783
1376.498550,-2368.659014,-3294.210641,-148.041188
1376.498861,-4811.338623,-1225.752797,-296.082377
1376.499173,-8586.388927,1302.362347,370.102971
1376.499484,-11843.295072,459.657299,1850.514855
1376.499796,-15100.201217,-1838.629195,2664.741391
1376.500107,-16654.633695,-1991.848295,3478.967927
1376.500419,-15026.180623,919.314598,2442.679609
1376.500730,-11695.253884,2911.162892,1036.288319
1376.501042,-8068.244768,3217.601092,-0.000000
1376.501353,-4663.297435,-766.095498,-148.041188
1376.501665,-1702.473667,-4519.963438,-518.144159
1376.501976,-1332.370696,-4826.401637,-814.226536
1376.502288,-3849.070898,-2068.457845,-962.267725
1376.502599,-6883.915261,1072.533697,-1110.308913
1376.502911,-10732.986159,612.876398,148.041188
1376.503222,-13915.871710,-1915.238745,1110.308913
1376.503534,-16284.530724,-1991.848295,1998.556043
1376.503845,-15544.324782,1302.362347,2146.597232
1376.504157,-12805.562797,4290.134789,1332.370696
1376.504468,-8438.347739,3064.381992,-148.041188
1376.504780,-4737.318029,0.000000,-1554.432478
1376.505091,-2146.597232,-2374.896044,-1776.494261
1376.505403,-1480.411884,-2987.772442,-2812.782580
1376.505714,-4589.276840,229.828649,-2738.761985
1376.506026,-7846.182985,3600.648841,-1702.473667
1376.506338,-10732.986159,3447.429741,-370.102971
1376.506649,-14211.954086,383.047749,740.205942
1376.506961,-16358.551318,-306.438199,2220.617826
1376.507272,-16062.468941,1915.238745,1850.514855
1376.507584,-13027.624579,4519.963438,1184.329507
1376.507895,-8660.409521,4903.011187,-74.020594
1376.508207,-5255.462188,1685.410096,-1110.308913
1376.508518,-2812.782580,-2145.067394,-1776.494261
1376.508830,-2664.741391,-3524.039291,-2072.576638
1376.509141,-3627.009116,-153.219100,-2220.617826
1376.509453,-6735.874072,2298.286494,-1702.473667
1376.509764,-10881.027347,1149.143247,370.102971
1376.510076,-15174.221811,-1838.629195,1776.494261
1376.510387,-16580.613101,-2604.724693,3330.926739
1376.510699,-15618.345376,-919.314598,3404.947333
1376.511010,-12287.418637,2374.896044,3034.844362
1376.511322,-7328.038826,2757.943793,888.247130
1376.511633,-3849.070898,229.828649,222.061783
1376.511945,-1184.329507,-3524.039291,-0.000000
1376.512256,-1480.411884,-4749.792088,-814.226536
1376.512568,-4441.235652,-1532.190996,-1036.288319
1376.512879,-7328.038826,1838.629195,-370.102971
1376.513191,-10584.944971,1532.190996,666.185348
1376.513502,-13397.727550,-1149.143247,2516.700203
1376.513814,-15470.304188,-1838.629195,3478.967927
1376.514125,-15618.345376,153.219100,3404.947333
1376.514437,-13397.727550,2834.553343,2960.823768
1376.514748,-9030.512492,3524.039291,2220.617826
1376.515060,-5625.565159,0.000000,888.247130
1376.515371,-2220.617826,-3677.258390,222.061783
1376.515683,-1776.494261,-5132.839837,-666.185348
1376.515994,-3108.864956,-2911.162892,-962.267725
1376.516306,-6957.935855,306.438199,-518.144159
1376.516617,-9622.677246,842.705048,1184.329507
1376.516929,-13175.665768,-1302.362347,2146.597232
1376.517241,-15988.448347,-2757.943793,4145.153275
1376.517552,-15322.262999,-612.876398,3923.091493
1376.517864,-13027.624579,2451.505594,2294.638420
1376.518175,-7402.059420,3677.258390,1184.329507
1376.518487,-5181.441594,842.705048,-74.020594
1376.518798,-2886.803174,-2604.724693,-1110.308913
1376.519110,-2220.617826,-4290.134789,-1110.308913
1376.519421,-4811.338623,-2298.286494,-1258.350101
1376.519733,-7772.162391,1455.581446,-74.020594
1376.520044,-11621.233289,2145.067394,518.144159
1376.520356,-13619.789333,-689.485948,1628.453072
1376.520667,-15692.365970,-1838.629195,2072.576638
1376.520979,-14137.933492,0.000000,2516.700203
1376.521290,-11917.315666,3524.039291,1480.411884
1376.521602,-9030.512492,3983.696590,-370.102971
1376.521913,-5699.585753,1915.238745,-1184.329507
1376.522225,-2886.803174,-1225.752797,-1628.453072
1376.522536,-1850.514855,-2757.943793,-1924.535449
1376.522848,-3552.988522,-1302.362347,-2294.638420
1376.523159,-6587.832884,1838.629195,-2146.597232
1376.523471,-10066.800811,2528.115143,-814.226536
1376.523782,-12139.377449,-459.657299,1406.391290
1376.524094,-15840.407159,-1838.629195,2368.659014
1376.524405,-16802.674883,-1378.971896,2516.700203
1376.524717,-14952.160028,2068.457845,1776.494261
1376.525028,-10214.842000,3217.601092,222.061783
1376.525340,-5625.565159,1915.238745,-1998.556043
1376.525651,-2960.823768,-995.924147,-2738.761985
1376.525963,-1554.432478,-3217.601092,-2442.679609
1376.526274,-3775.050304,-3447.429741,-2146.597232
1376.526586,-6957.935855,153.219100,-592.164754
1376.526897,-11769.274478,1685.410096,444.123565
1376.527209,-14434.015869,0.000000,2294.638420
1376.527520,-16136.489536,-689.485948,2812.782580
1376.527832,-15988.448347,306.438199,2368.659014
1376.528143,-12731.542202,3140.991542,1406.391290
1376.528455,-9104.533087,4903.011187,-740.205942
1376.528767,-5403.503377,2987.772442,-1110.308913
1376.529078,-3330.926739,-383.047749,-1850.514855
1376.529390,-2368.659014,-3600.648841,-1850.514855
1376.529701,-3478.967927,-2987.772442,-1036.288319
1376.530013,-6365.771101,0.000000,222.061783
1376.530324,-10584.944971,383.047749,666.185348
1376.530636,-12953.603985,-1608.800546,2590.720797
1376.530947,-15766.386565,-2528.115143,3701.029710
1376.531259,-15470.304188,-1915.238745,4515.256246
1376.531570,-13027.624579,1378.971896,3701.029710
1376.531882,-8512.368333,2451.505594,2664.741391
1376.532193,-4293.194464,1072.533697,888.247130
1376.532505,-1924.535449,-2528.115143,-148.041188
1376.532816,-740.205942,-4213.525239,-518.144159
1376.533128,-2664.741391,-1915.238745,-592.164754
1376.533439,-5995.668130,536.266849,-740.205942
1376.533751,-9918.759623,1915.238745,370.102971
1376.534062,-13323.706956,383.047749,1776.494261
1376.534374,-15470.304188,-383.047749,3182.885551
1376.534685,-14952.160028,76.609550,4071.132681
1376.534997,-13323.706956,2528.115143,3552.988522
1376.535308,-10140.821405,2757.943793,2886.803174
1376.535620,-6735.874072,1915.238745,1184.329507
1376.535931,-3256.906145,-1225.752797,-0.000000
1376.536243,-518.144159,-2987.772442,-1406.391290
1376.536554,-1998.556043,-2987.772442,-2294.638420
1376.536866,-5181.441594,-766.095498,-1702.473667
1376.537177,-8142.265362,459.657299,-222.061783
1376.537489,-13027.624579,-1608.800546,1036.288319
1376.537800,-16062.468941,-3447.429741,2960.823768
1376.538112,-16876.695478,-3370.820191,3478.967927
1376.538423,-15026.180623,766.095498,2442.679609
1376.538735,-11251.130318,2604.724693,1110.308913
1376.539046,-5995.668130,2298.286494,-814.226536
1376.539358,-2960.823768,-1225.752797,-1332.370696
1376.539670,-2146.597232,-3294.210641,-1924.535449
1376.539981,-3552.988522,-3140.991542,-1998.556043
1376.540293,-6291.750507,306.438199,-2146.597232
1376.540604,-9474.636058,3600.648841,-1258.350101
1376.540916,-12583.501014,1685.410096,-222.061783
1376.541227,-15322.262999,-383.047749,444.123565
1376.541539,-15914.427753,919.314598,1776.494261
1376.541850,-14285.974681,3370.820191,1850.514855
1376.542161,-11621.233289,4366.744339,592.164754
1376.542473,-8512.368333,2681.334243,-592.164754
1376.542784,-5551.544565,383.047749,-1924.535449
1376.543095,-3478.967927,-1378.971896,-2516.700203
1376.543407,-2146.597232,-1915.238745,-2738.761985
1376.543718,-4959.379811,612.876398,-2368.659014
1376.544029,-8882.471304,1532.190996,-1406.391290
1376.544341,-11547.212695,76.609550,740.205942
1376.544652,-14211.954086,-2834.553343,1406.391290
1376.544964,-16062.468941,-1532.190996,2664.741391
1376.545275,-15470.304188,995.924147,1924.535449
1376.545586,-11547.212695,2757.943793,1184.329507
1376.545898,-6809.894666,2681.334243,444.123565
1376.546209,-4145.153275,-995.924147,-74.020594
1376.546520,-2516.700203,-3753.867940,-0.000000
1376.546832,-3552.988522,-3677.258390,-0.000000
1376.547143,-5329.482782,-153.219100,370.102971
1376.547454,-7402.059420,2068.457845,592.164754
1376.547766,-9548.656652,1149.143247,814.226536
1376.548077,-11991.336260,-995.924147,1924.535449
1376.548388,-13397.727550,-1762.019645,2886.803174
1376.548700,-13397.727550,612.876398,3034.844362
1376.549011,-11547.212695,3524.039291,2960.823768
1376.549323,-8364.327145,2757.943793,1776.494261
1376.549634,-5921.647536,-1378.971896,518.144159
1376.549945,-2738.761985,-4366.744339,296.082377
1376.550257,-1184.329507,-3217.601092,-518.144159
1376.550568,-3552.988522,-459.657299,-962.267725
1376.550879,-7476.080014,612.876398,-148.041188
1376.551191,-11177.109724,-306.438199,1628.453072
1376.551502,-13249.686362,-2528.115143,2960.823768
1376.551813,-15100.201217,-3600.648841,4293.194464
1376.552125,-13989.892304,-1072.533697,3627.009116
1376.552436,-11991.336260,1302.362347,2146.597232
1376.552747,-8882.471304,1608.800546,296.082377
1376.553059,-5329.482782,-1532.190996,-0.000000
1376.553370,-4441.235652,-3600.648841,-740.205942
1376.553682,-5033.400406,-3064.381992,-518.144159
1376.553993,-5995.668130,-459.657299,-222.061783
1376.554304,-7698.141797,1149.143247,-74.020594
1376.554616,-10436.903782,459.657299,222.061783
1376.554927,-12435.459826,0.000000,1480.411884
1376.555238,-14508.036463,-1072.533697,2220.617826
1376.555550,-14508.036463,1532.190996,2072.576638
1376.555861,-12213.398043,4136.915689,1480.411884
1376.556172,-8364.327145,3983.696590,-444.123565
1376.556484,-5995.668130,766.095498,-1406.391290
1376.556795,-3256.906145,-2298.286494,-2294.638420
1376.557106,-2072.576638,-2451.505594,-2812.782580
1376.557418,-3627.009116,-612.876398,-2664.741391
1376.557729,-7846.182985,1378.971896,-1332.370696
1376.558041,-11251.130318,612.876398,148.041188
1376.558352,-13693.809927,-995.924147,1702.473667
1376.558663,-15988.448347,-2221.676944,2812.782580
1376.558975,-15988.448347,0.000000,2368.659014
1376.559286,-13693.809927,3907.087040,888.247130
1376.559597,-9326.594869,5669.106685,-518.144159
1376.559909,-5033.400406,2145.067394,-1776.494261
1376.560220,-2368.659014,-1532.190996,-1998.556043
1376.560531,-2442.679609,-3064.381992,-2442.679609
1376.560843,-4145.153275,76.609550,-2146.597232
1376.561154,-6957.935855,3907.087040,-1776.494261
1376.561465,-10288.862594,4290.134789,-296.082377
1376.561777,-13323.706956,1685.410096,1184.329507
1376.562088,-15026.180623,-2068.457845,2738.761985
1376.562400,-14063.912898,-306.438199,3330.926739
1376.562711,-11991.336260,3140.991542,1776.494261
1376.563022,-8660.409521,3753.867940,592.164754
1376.563334,-5699.585753,0.000000,-1110.308913
1376.563645,-2886.803174,-3140.991542,-962.267725
1376.563956,-2516.700203,-4290.134789,-1258.350101
1376.564268,-4885.359217,-2298.286494,-1332.370696
1376.564579,-7476.080014,306.438199,148.041188
1376.564890,-10510.924376,0.000000,1332.370696
1376.565202,-13323.706956,-3064.381992,2738.761985
1376.565513,-15470.304188,-3830.477490,4293.194464
1376.565824,-15840.407159,-1072.533697,3701.029710
1376.566136,-13175.665768,3294.210641,2812.782580
1376.566447,-8956.491898,4213.525239,814.226536
1376.566759,-4737.318029,995.924147,-148.041188
1376.567070,-2072.576638,-2604.724693,222.061783
1376.567381,-2812.782580,-4979.620737,-148.041188
1376.567693,-4145.153275,-3370.820191,370.102971
1376.568004,-6809.894666,612.876398,-0.000000
1376.568315,-10140.821405,1455.581446,222.061783
1376.568627,-13249.686362,-919.314598,1776.494261
1376.568938,-13915.871710,-1991.848295,2886.803174
1376.569249,-13841.851115,-612.876398,3849.070898
1376.569561,-12583.501014,459.657299,3330.926739
1376.569872,-9844.739029,1991.848295,2146.597232
1376.570183,-7624.121203,995.924147,518.144159
1376.570495,-3404.947333,-919.314598,148.041188
1376.570806,-2368.659014,-3370.820191,-740.205942
1376.571118,-2664.741391,-2604.724693,-814.226536
1376.571429,-6069.688724,229.828649,-1036.288319
1376.571740,-9326.594869,1149.143247,296.082377
1376.572052,-12953.603985,-1149.143247,1406.391290
1376.572363,-15396.283594,-2068.457845,2368.659014
1376.572674,-15470.304188,-383.047749,2442.679609
1376.572986,-13767.830521,1838.629195,2442.679609
1376.573297,-9326.594869,2681.334243,1258.350101
1376.573608,-5921.647536,1685.410096,-296.082377
1376.573920,-3478.967927,-1838.629195,-962.267725
1376.574231,-2368.659014,-3983.696590,-2294.638420
1376.574542,-3775.050304,-1378.971896,-2516.700203
1376.574854,-6365.771101,2298.286494,-2442.679609
1376.575165,-7846.182985,2528.115143,-1702.473667
1376.575477,-11399.171507,306.438199,-74.020594
1376.575788,-15026.180623,-1532.190996,1406.391290
1376.576099,-16210.510130,229.828649,2664.741391
1376.576411,-15026.180623,3753.867940,1850.514855
1376.576722,-11991.336260,5898.935335,962.267725
1376.577033,-7550.100608,3524.039291,-1184.329507
1376.577345,-3775.050304,-919.314598,-2220.617826
1376.577656,-2294.638420,-1532.190996,-2886.803174
1376.577967,-2368.659014,-612.876398,-3108.864956
1376.578279,-4811.338623,1532.190996,-2220.617826
1376.578590,-9030.512492,1838.629195,-592.164754
1376.578901,-13323.706956,-459.657299,1184.329507
1376.579213,-15692.365970,-1915.238745,2294.638420
1376.579524,-15914.427753,-536.266849,2664.741391
1376.579836,-14211.954086,2681.334243,2368.659014
1376.580147,-10510.924376,4136.915689,740.205942
1376.580458,-6217.729913,1532.190996,-222.061783
1376.580770,-3404.947333,-2374.896044,296.082377
1376.581081,-2886.803174,-4749.792088,-518.144159
1376.581392,-3478.967927,-3983.696590,-518.144159
1376.581704,-5255.462188,0.000000,-222.061783
1376.582015,-8660.409521,842.705048,-222.061783
1376.582326,-11769.274478,-612.876398,666.185348
1376.582638,-15322.262999,-2221.676944,1998.556043
1376.582949,-16358.551318,-1072.533697,3627.009116
1376.583260,-15026.180623,1378.971896,3478.967927
1376.583572,-11029.068536,3677.258390,3552.988522
1376.583883,-7994.224174,2757.943793,888.247130
1376.584195,-3701.029710,-689.485948,888.247130
1376.584506,-592.164754,-2681.334243,-148.041188
1376.584817,-1776.494261,-2604.724693,-148.041188
1376.585129,-3849.070898,612.876398,-148.041188
1376.585440,-7920.203579,1302.362347,222.061783
1376.585751,-11251.130318,-1149.143247,2294.638420
1376.586063,-14137.933492,-3294.210641,3182.885551
1376.586374,-15248.242405,-2221.676944,3923.091493
1376.586685,-14285.974681,995.924147,2886.803174
1376.586997,-12287.418637,3524.039291,2294.638420
1376.587308,-8290.306550,2145.067394,1036.288319
1376.587619,-4589.276840,-1685.410096,518.144159
1376.587931,-1480.411884,-3830.477490,-222.061783
1376.588242,-1036.288319,-3600.648841,-592.164754
1376.588554,-3997.112087,-1072.533697,-1036.288319
1376.588865,-6661.853478,2374.896044,-592.164754
1376.589176,-10881.027347,-229.828649,592.164754
1376.589488,-13693.809927,-1991.848295,1924.535449
1376.589799,-16062.468941,-1991.848295,3034.844362
1376.590110,-16062.468941,689.485948,2516.700203
1376.590422,-13175.665768,3140.991542,1850.514855
1376.590733,-9622.677246,2911.162892,-222.061783
1376.591044,-4811.338623,76.609550,-1184.329507
1376.591356,-2886.803174,-1915.238745,-2368.659014
1376.591667,-1702.473667,-1915.238745,-2294.638420
1376.591978,-3997.112087,153.219100,-2442.679609
1376.592290,-7328.038826,2298.286494,-1628.453072
1376.592601,-10362.883188,2068.457845,-0.000000
1376.592913,-14656.077652,-229.828649,962.267725
1376.593224,-16358.551318,-1072.533697,1776.494261
1376.593535,-15618.345376,2221.676944,2442.679609
1376.593847,-12213.398043,4213.525239,1332.370696
1376.594158,-8512.368333,3370.820191,-518.144159
1376.594469,-5699.585753,-766.095498,-1332.370696
1376.594781,-3627.009116,-3753.867940,-2220.617826
1376.595092,-3330.926739,-2834.553343,-2516.700203
1376.595403,-4219.173869,842.705048,-2664.741391
1376.595715,-7402.059420,3370.820191,-1628.453072
1376.596026,-11177.109724,612.876398,-0.000000
1376.596337,-13767.830521,-1915.238745,2738.761985
1376.596649,-15692.365970,-1608.800546,3552.988522
1376.596960,-14952.160028,459.657299,3478.967927
1376.597272,-12213.398043,3677.258390,2590.720797
1376.597583,-8512.368333,2911.162892,-74.020594
1376.597894,-5033.400406,306.438199,-1110.308913
1376.598206,-2072.576638,-2221.676944,-2146.597232
1376.598517,-1850.514855,-1532.190996,-1258.350101
1376.598828,-4737.318029,383.047749,-1184.329507
1376.599140,-8364.327145,1455.581446,148.041188
1376.599451,-10955.047942,-689.485948,1702.473667
1376.599762,-12953.603985,-2298.286494,2886.803174
1376.600074,-14434.015869,-1915.238745,3849.070898
1376.600385,-14137.933492,153.219100,2738.761985
1376.600696,-11473.192101,1838.629195,1998.556043
1376.601008,-7179.997637,1532.190996,1628.453072
1376.601319,-4441.235652,-1838.629195,814.226536
1376.601631,-3330.926739,-4213.525239,-0.000000
1376.601942,-2960.823768,-4060.306139,-222.061783
1376.602253,-4737.318029,-1685.410096,-74.020594
1376.602565,-6883.915261,842.705048,740.205942
1376.602876,-10807.006753,536.266849,1406.391290
1376.603187,-13915.871710,-1838.629195,2886.803174
1376.603499,-15766.386565,-2528.115143,3701.029710
1376.603810,-15692.365970,995.924147,2738.761985
1376.604121,-12731.542202,4979.620737,1998.556043
1376.604433,-9030.512492,5286.058936,-222.061783
1376.604744,-5477.523971,1149.143247,-1110.308913
1376.605055,-1776.494261,-2068.457845,-1036.288319
1376.605367,-1776.494261,-3753.867940,-1628.453072
1376.605678,-3997.112087,-1378.971896,-1110.308913
1376.605990,-7476.080014,995.924147,-370.102971
1376.606301,-10510.924376,-306.438199,1036.288319
1376.606612,-12805.562797,-2681.334243,1406.391290
1376.606924,-14656.077652,-3294.210641,2220.617826
1376.607235,-14211.954086,-1072.533697,2516.700203
1376.607546,-12509.480420,2068.457845,2146.597232
1376.607858,-9252.574275,2068.457845,1110.308913
1376.608169,-6217.729913,-995.924147,-0.000000
1376.608480,-3182.885551,-4136.915689,-592.164754
1376.608792,-2516.700203,-4519.963438,-1702.473667
1376.609103,-3108.864956,-766.095498,-1998.556043
1376.609414,-6587.832884,1991.848295,-2368.659014
1376.609726,-10362.883188,1991.848295,-666.185348
1376.610037,-14508.036463,0.000000,814.226536
1376.610349,-16876.695478,0.000000,2738.761985
1376.610660,-16654.633695,2068.457845,3034.844362
1376.610971,-14137.933492,5286.058936,1702.473667
1376.611283,-8290.306550,5286.058936,-148.041188
1376.611594,-4885.359217,2604.724693,-2220.617826
1376.611905,-1332.370696,0.000000,-2664.741391
1376.612217,-666.185348,-1149.143247,-3330.926739
1376.612528,-3478.967927,-536.266849,-2442.679609
1376.612839,-7846.182985,995.924147,-1110.308913
1376.613151,-11103.089130,1532.190996,-0.000000
1376.613462,-14211.954086,-306.438199,1036.288319
1376.613773,-16580.613101,-1455.581446,2960.823768
1376.614085,-15692.365970,-459.657299,3256.906145
1376.614396,-13915.871710,1532.190996,2368.659014
1376.614708,-9548.656652,2221.676944,888.247130
1376.615019,-5329.482782,76.609550,148.041188
1376.615330,-3256.906145,-3677.258390,-1332.370696
1376.615642,-2072.576638,-4366.744339,-1036.288319
1376.615953,-3108.864956,-2145.067394,-962.267725
1376.616264,-5847.626942,76.609550,-296.082377
1376.616576,-9326.594869,459.657299,962.267725
1376.616887,-13249.686362,-1608.800546,2738.761985
1376.617198,-15322.262999,-2221.676944,3775.050304
1376.617510,-15396.283594,306.438199,3552.988522
1376.617821,-12953.603985,3753.867940,2220.617826
1376.618132,-8660.409521,5132.839837,-0.000000
1376.618444,-4589.276840,2528.115143,-1184.329507
1376.618755,-1628.453072,-689.485948,-962.267725
1376.619067,-1036.288319,-2757.943793,-1110.308913
1376.619378,-2590.720797,-1991.848295,-518.144159
1376.619689,-6513.812290,-153.219100,222.061783
1376.620001,-10288.862594,-306.438199,962.267725
1376.620312,-12805.562797,-1838.629195,2220.617826
1376.620623,-15618.345376,-2681.334243,2664.741391
1376.620935,-16580.613101,-995.924147,2664.741391
1376.621246,-14730.098246,1838.629195,2294.638420
1376.621557,-11473.192101,2451.505594,1332.370696
1376.621869,-7031.956449,306.438199,814.226536
1376.622180,-4145.153275,-2757.943793,-0.000000
1376.622492,-3330.926739,-4290.134789,-518.144159
1376.622803,-2294.638420,-1532.190996,-518.144159
1376.623114,-4441.235652,1378.971896,-888.247130
1376.623426,-7698.141797,1378.971896,444.123565
1376.623737,-11769.274478,-1532.190996,1628.453072
1376.624048,-14952.160028,-3524.039291,2516.700203
1376.624360,-16136.489536,-2068.457845,3182.885551
1376.624671,-14804.118840,2145.067394,2664.741391
1376.624982,-10881.027347,4060.306139,1332.370696
1376.625294,-7846.182985,2145.067394,-592.164754
1376.625605,-4441.235652,-1762.019645,-1036.288319
1376.625916,-2368.659014,-3524.039291,-2072.576638
1376.626228,-3182.885551,-1608.800546,-1924.535449
1376.626539,-5403.503377,2068.457845,-1924.535449
1376.626851,-8956.491898,2221.676944,-1184.329507
1376.627162,-11177.109724,0.000000,444.123565
1376.627473,-13101.645173,-1149.143247,1702.473667
1376.627785,-15174.221811,-459.657299,2368.659014
1376.628096,-14804.118840,2528.115143,2146.597232
1376.628407,-11843.295072,4519.963438,1850.514855
1376.628719,-8290.306550,2911.162892,-148.041188
1376.629030,-4663.297435,-842.705048,-1110.308913
1376.629341,-2516.700203,-2834.553343,-2738.761985
1376.629653,-2072.576638,-1455.581446,-2960.823768
1376.629964,-4071.132681,1532.190996,-2368.659014
1376.630275,-8216.285956,2374.896044,-1184.329507
1376.630587,-13101.645173,229.828649,666.185348
1376.630898,-16062.468941,-1608.800546,2960.823768
1376.631210,-16432.571912,-1455.581446,4441.235652
1376.631521,-14137.933492,1608.800546,3034.844362
1376.631832,-9918.759623,3677.258390,1702.473667
1376.632144,-5995.668130,1838.629195,-814.226536
1376.632455,-2664.741391,-919.314598,-1036.288319
1376.632766,-1998.556043,-2374.896044,-2146.597232
1376.633078,-2738.761985,-1685.410096,-1110.308913
1376.633389,-6217.729913,229.828649,-370.102971
1376.633700,-9992.780217,536.266849,740.205942
1376.634012,-12731.542202,-995.924147,1776.494261
1376.634323,-14508.036463,-2298.286494,2368.659014
1376.634634,-14211.954086,-689.485948,3478.967927
1376.634946,-14656.077652,306.438199,1850.514855
1376.635257,-11325.150913,2145.067394,2072.576638
1376.635569,-7328.038826,1991.848295,-0.000000
1376.635880,-3923.091493,-1378.971896,-592.164754
1376.636191,-1924.535449,-2834.553343,-370.102971
1376.636503,-2960.823768,-2528.115143,-888.247130
1376.636814,-4737.318029,0.000000,-518.144159
1376.637125,-8364.327145,1072.533697,-0.000000
1376.637437,-11991.336260,0.000000,2368.659014
1376.637748,-14656.077652,-1762.019645,3256.906145
1376.638059,-16284.530724,-1685.410096,3923.091493
1376.638371,-14804.118840,383.047749,2812.782580
1376.638682,-11177.109724,3294.210641,1850.514855
1376.638993,-7402.059420,3140.991542,-0.000000
1376.639305,-4737.318029,76.609550,-814.226536
1376.639616,-2738.761985,-2451.505594,-740.205942
1376.639928,-2812.782580,-3447.429741,-1406.391290
1376.640239,-4515.256246,0.000000,-222.061783
1376.640550,-7994.224174,2298.286494,-888.247130
1376.640862,-10510.924376,1149.143247,148.041188
1376.641173,-12361.439231,-1838.629195,1332.370696
1376.641484,-14063.912898,-2757.943793,2886.803174
1376.641796,-13693.809927,-766.095498,2886.803174
1376.642107,-12435.459826,2145.067394,2368.659014
1376.642418,-9770.718434,306.438199,1554.432478
1376.642730,-6365.771101,-2451.505594,-74.020594
1376.643041,-3627.009116,-4366.744339,-1184.329507
1376.643352,-2294.638420,-3600.648841,-2146.597232
1376.643664,-3775.050304,-612.876398,-2146.597232
1376.643975,-6809.894666,2451.505594,-1850.514855
1376.644287,-10140.821405,1685.410096,-518.144159
1376.644598,-13915.871710,0.000000,666.185348
1376.644909,-16950.716072,1149.143247,2442.679609
1376.645221,-16284.530724,3524.039291,2368.659014
1376.645532,-12953.603985,5822.325785,962.267725
1376.645843,-8364.327145,5592.497135,-592.164754
1376.646155,-4737.318029,2298.286494,-1554.432478
1376.646466,-1998.556043,-1149.143247,-1776.494261
1376.646777,-1110.308913,-2374.896044,-2072.576638
1376.647089,-3997.112087,-995.924147,-1776.494261
1376.647400,-8364.327145,1149.143247,-814.226536
1376.647711,-10288.862594,1302.362347,-296.082377
1376.648023,-13249.686362,-842.705048,1036.288319
1376.648334,-15544.324782,-2374.896044,2590.720797
1376.648645,-15840.407159,-1225.752797,2368.659014
1376.648957,-13841.851115,2145.067394,2294.638420
1376.649268,-8882.471304,3370.820191,1480.411884
1376.649579,-6587.832884,-383.047749,-0.000000
1376.649891,-3478.967927,-2911.162892,-888.247130
1376.650202,-1554.432478,-3294.210641,-666.185348
1376.650513,-2368.659014,-1302.362347,-814.226536
1376.650825,-5921.647536,1072.533697,-222.061783
1376.651136,-10807.006753,1302.362347,888.247130
1376.651447,-14211.954086,-766.095498,2368.659014
1376.651759,-15840.407159,-2221.676944,3849.070898
1376.652070,-15692.365970,76.609550,3478.967927
1376.652381,-13693.809927,3830.477490,1554.432478
1376.652693,-8364.327145,4060.306139,296.082377
1376.653004,-4663.297435,995.924147,-518.144159
1376.653315,-1924.535449,-1762.019645,-370.102971
1376.653627,-1258.350101,-1915.238745,-740.205942
1376.653938,-3627.009116,-995.924147,-296.082377
1376.654249,-6513.812290,612.876398,444.123565
1376.654561,-10140.821405,1302.362347,222.061783
1376.654872,-12879.583391,-612.876398,2072.576638
1376.655183,-15100.201217,-2221.676944,3182.885551
1376.655495,-14952.160028,-1685.410096,3404.947333
1376.655806,-13915.871710,306.438199,2886.803174
1376.656117,-9696.697840,383.047749,1998.556043
1376.656429,-6217.729913,-1685.410096,-0.000000
1376.656740,-4441.235652,-3753.867940,-518.144159
1376.657051,-2812.782580,-4596.572988,-518.144159
1376.657363,-3923.091493,-2145.067394,-222.061783
1376.657674,-6957.935855,-153.219100,-0.000000
1376.657985,-9622.677246,76.609550,1480.411884
1376.658297,-11769.274478,-1532.190996,2368.659014
1376.658608,-13471.748144,-1378.971896,1554.432478
1376.658919,-12953.603985,689.485948,2146.597232
1376.659231,-11843.295072,3370.820191,740.205942
1376.659542,-9030.512492,4136.915689,-296.082377
1376.659853,-6661.853478,2145.067394,-740.205942
1376.660165,-5033.400406,-1685.410096,-888.247130
1376.660476,-4145.153275,-3140.991542,-1332.370696
1376.660788,-5329.482782,-1608.800546,-1258.350101
1376.661099,-7031.956449,536.266849,-1480.411884
1376.661410,-9252.574275,766.095498,-1036.288319
1376.661722,-12287.418637,-1532.190996,-296.082377
1376.662033,-14285.974681,-1915.238745,1554.432478
1376.662344,-14508.036463,229.828649,1924.535449
1376.662656,-14063.912898,3294.210641,1406.391290
1376.662967,-11325.150913,4060.306139,1110.308913
1376.663278,-7105.977043,1378.971896,-222.061783
1376.663590,-3849.070898,-919.314598,-814.226536
1376.663901,-2664.741391,-2451.505594,-1998.556043
1376.664212,-3256.906145,-612.876398,-2146.597232
1376.664524,-7105.977043,1455.581446,-1702.473667
1376.664835,-10658.965565,2834.553343,-888.247130
1376.665146,-13915.871710,1378.971896,1036.288319
1376.665458,-16062.468941,-229.828649,2146.597232
1376.665769,-16284.530724,1532.190996,2886.803174
1376.666080,-13545.768739,3907.087040,2072.576638
1376.666392,-8956.491898,4366.744339,-0.000000
1376.666703,-5403.503377,1762.019645,-814.226536
1376.667014,-2072.576638,-1455.581446,-888.247130
1376.667326,-1554.432478,-3753.867940,-1776.494261
1376.667637,-3330.926739,-2681.334243,-1332.370696
1376.667948,-5995.668130,0.000000,-740.205942
1376.668260,-9326.594869,1302.362347,222.061783
1376.668571,-11917.315666,-842.705048,1998.556043
1376.668882,-14656.077652,-2528.115143,2812.782580
1376.669194,-14804.118840,-1915.238745,3923.091493
1376.669505,-13323.706956,1149.143247,3182.885551
1376.669816,-9844.739029,2911.162892,1628.453072
1376.670128,-5847.626942,1532.190996,-518.144159
1376.670439,-2664.741391,-1302.362347,-962.267725
1376.670750,-1332.370696,-3140.991542,-1628.453072
1376.671062,-2072.576638,-2681.334243,-1036.288319
1376.671373,-5773.606348,-229.828649,-0.000000
1376.671684,-9992.780217,766.095498,1702.473667
1376.671996,-13545.768739,-1225.752797,2812.782580
1376.672307,-16136.489536,-2451.505594,3552.988522
1376.672618,-16210.510130,-766.095498,4293.194464
1376.672930,-13619.789333,1532.190996,2516.700203
1376.673241,-9474.636058,2528.115143,1110.308913
1376.673552,-5551.544565,1685.410096,-148.041188
1376.673864,-3256.906145,-2451.505594,-814.226536
1376.674175,-1776.494261,-4443.353888,-666.185348
1376.674486,-2738.761985,-3524.039291,-666.185348
1376.674798,-6217.729913,-1149.143247,296.082377
1376.675109,-9474.636058,0.000000,592.164754
1376.675420,-12509.480420,-1838.629195,1924.535449
1376.675732,-15026.180623,-3217.601092,2220.617826
1376.676043,-15988.448347,-2451.505594,3182.885551
1376.676354,-14656.077652,612.876398,2146.597232
1376.676666,-10881.027347,2451.505594,1184.329507
1376.676977,-7254.018232,1685.410096,-74.020594
1376.677289,-3478.967927,-1302.362347,-740.205942
1376.677600,-1998.556043,-3064.381992,-1480.411884
1376.677911,-2664.741391,-1915.238745,-1406.391290
1376.678223,-5403.503377,842.705048,-1258.350101
1376.678534,-9474.636058,2834.553343,-666.185348
1376.678845,-11991.336260,2298.286494,666.185348
1376.679157,-14285.974681,842.705048,1184.329507
1376.679468,-15470.304188,689.485948,1924.535449
1376.679779,-14211.954086,2987.772442,1480.411884
1376.680091,-11177.109724,4826.401637,370.102971
1376.680402,-8142.265362,3677.258390,-518.144159
1376.680713,-4441.235652,689.485948,-1480.411884
1376.681025,-2368.659014,-1225.752797,-2294.638420
1376.681336,-2886.803174,-1378.971896,-2442.679609
1376.681647,-4959.379811,1378.971896,-2516.700203
1376.681959,-8216.285956,2757.943793,-1998.556043
1376.682270,-10955.047942,1455.581446,-0.000000
1376.682581,-14211.954086,-1455.581446,1850.514855
1376.682893,-15544.324782,-2528.115143,3256.906145
1376.683204,-15322.262999,-306.438199,3701.029710
1376.683515,-12065.356855,2451.505594,2146.597232
1376.683827,-7476.080014,2757.943793,-666.185348
1376.684138,-3701.029710,-229.828649,-1554.432478
1376.684449,-1924.535449,-3294.210641,-2146.597232
1376.684761,-2146.597232,-3447.429741,-1776.494261
1376.685072,-4959.379811,-612.876398,-1332.370696
1376.685383,-9326.594869,1302.362347,148.041188
1376.685695,-12287.418637,536.266849,2220.617826
1376.686006,-14730.098246,-2221.676944,2664.741391
1376.686317,-15322.262999,-1838.629195,4219.173869
1376.686629,-14211.954086,0.000000,3404.947333
1376.686940,-9992.780217,1608.800546,2590.720797
1376.687251,-6365.771101,1685.410096,814.226536
1376.687563,-3849.070898,-612.876398,-444.123565
1376.687874,-1406.391290,-2757.943793,-888.247130
1376.688185,-2886.803174,-3217.601092,-1554.432478
1376.688497,-5255.462188,-612.876398,-0.000000
1376.688808,-8734.430116,995.924147,296.082377
1376.689119,-12657.521608,153.219100,1480.411884
1376.689431,-15174.221811,-1532.190996,2442.679609
1376.689742,-15174.221811,-1762.019645,3330.926739
1376.690053,-14211.954086,-153.219100,2442.679609
1376.690365,-10658.965565,689.485948,1628.453072
1376.690676,-6587.832884,612.876398,888.247130
1376.690987,-4145.153275,-2757.943793,-0.000000
1376.691299,-3034.844362,-4903.011187,666.185348
1376.691610,-4219.173869,-5209.449386,592.164754
1376.691921,-6365.771101,-2145.067394,666.185348
1376.692233,-8808.450710,306.438199,666.185348
1376.692544,-10881.027347,536.266849,1258.350101
1376.692855,-13619.789333,-995.924147,740.205942
1376.693167,-15544.324782,-919.314598,1776.494261
1376.693478,-14211.954086,2221.676944,1776.494261
1376.693789,-11769.274478,4443.353888,1480.411884
1376.694101,-8290.306550,4519.963438,370.102971
1376.694412,-5033.400406,612.876398,-74.020594
1376.694724,-2516.700203,-2374.896044,-962.267725
1376.695035,-1554.432478,-2145.067394,-1628.453072
1376.695346,-3478.967927,1072.533697,-1998.556043
1376.695658,-6957.935855,2068.457845,-1776.494261
1376.695969,-11399.171507,1149.143247,-518.144159
1376.696280,-14508.036463,229.828649,444.123565
1376.696592,-15322.262999,-153.219100,1998.556043
1376.696903,-15248.242405,1608.800546,1998.556043
1376.697214,-11917.315666,3217.601092,1480.411884
1376.697526,-7550.100608,3524.039291,-370.102971
1376.697837,-3923.091493,766.095498,-1332.370696
1376.698148,-1406.391290,-1225.752797,-962.267725
1376.698460,-2738.761985,-2987.772442,-2146.597232
1376.698771,-5255.462188,-383.047749,-1998.556043
1376.699082,-8882.471304,2911.162892,-888.247130
1376.699394,-11843.295072,3370.820191,518.144159
1376.699705,-14878.139434,612.876398,1554.432478
1376.700016,-16062.468941,-1302.362347,2664.741391
1376.700328,-14730.098246,0.000000,2368.659014
1376.700639,-11991.336260,3217.601092,1924.535449
1376.700950,-7476.080014,3677.258390,-0.000000
1376.701262,-4811.338623,612.876398,-1554.432478
1376.701573,-2072.576638,-1915.238745,-1332.370696
1376.701884,-1776.494261,-3140.991542,-1258.350101
1376.702196,-4071.132681,-1838.629195,-1110.308913
1376.702507,-7698.141797,1302.362347,-296.082377
1376.702818,-11695.253884,229.828649,962.267725
1376.703130,-13841.851115,-2298.286494,2664.741391
1376.703441,-15766.386565,-2987.772442,3701.029710
1376.703752,-15100.201217,-2068.457845,3404.947333
1376.704064,-12287.418637,76.609550,2516.700203
1376.704375,-8142.265362,842.705048,1036.288319
1376.704686,-4219.173869,-1302.362347,-370.102971
1376.704998,-2664.741391,-3983.696590,-1036.288319
1376.705309,-3330.926739,-5209.449386,-814.226536
1376.705620,-5329.482782,-1991.848295,222.061783
1376.705932,-8660.409521,995.924147,1258.350101
1376.706243,-11251.130318,919.314598,1776.494261
1376.706554,-13693.809927,-995.924147,2960.823768
1376.706866,-15544.324782,-1762.019645,3552.988522
1376.707177,-14211.954086,76.609550,3404.947333
1376.707488,-11769.274478,2528.115143,1776.494261
1376.707800,-8068.244768,2834.553343,666.185348
1376.708111,-5181.441594,842.705048,-444.123565
1376.708422,-2812.782580,-2451.505594,-666.185348
1376.708734,-2368.659014,-3830.477490,-888.247130
1376.709045,-3849.070898,-2374.896044,-222.061783
1376.709356,-7105.977043,0.000000,592.164754
1376.709668,-10436.903782,612.876398,444.123565
1376.709979,-12583.501014,-689.485948,1332.370696
1376.710290,-14211.954086,-2374.896044,2072.576638
1376.710602,-13767.830521,-1532.190996,2516.700203
1376.710913,-12213.398043,919.314598,1998.556043
1376.711225,-8882.471304,1991.848295,740.205942
1376.711536,-6291.750507,-153.219100,-370.102971
1376.711847,-3627.009116,-2451.505594,-814.226536
1376.712159,-2072.576638,-2834.553343,-1776.494261
1376.712470,-4071.132681,-306.438199,-1850.514855
1376.712781,-6735.874072,2298.286494,-1184.329507
1376.713093,-9844.739029,3370.820191,-444.123565
1376.713404,-13101.645173,1991.848295,518.144159
1376.713715,-15692.365970,1072.533697,1850.514855
1376.714027,-15322.262999,1762.019645,2146.597232
1376.714338,-13027.624579,4290.134789,592.164754
1376.714649,-8660.409521,4290.134789,-74.020594
1376.714961,-4959.379811,1915.238745,-1850.514855
1376.715272,-3108.864956,-1532.190996,-2664.741391
1376.715583,-2738.761985,-3753.867940,-2738.761985
1376.715895,-4293.194464,-3140.991542,-1776.494261
1376.716206,-8364.327145,-1455.581446,-592.164754
1376.716517,-11251.130318,-1072.533697,370.102971
1376.716829,-13027.624579,-2451.505594,1110.308913
1376.717140,-14434.015869,-4519.963438,2738.761985
1376.717451,-14434.015869,-4519.963438,2590.720797
1376.717763,-12953.603985,-2528.115143,1628.453072
1376.718074,-9474.636058,-842.705048,592.164754
1376.718385,-6365.771101,-1532.190996,148.041188
1376.718697,-3552.988522,-3983.696590,-370.102971
1376.719008,-2812.782580,-6741.640382,-518.144159
1376.719319,-4145.153275,-5822.325785,-222.061783
1376.719631,-7254.018232,-3600.648841,-0.000000
1376.719942,-9992.780217,-612.876398,518.144159
1376.720253,-13027.624579,229.828649,1110.308913
1376.720565,-13841.851115,-1225.752797,2442.679609
1376.720876,-14434.015869,-2681.334243,2960.823768
1376.721187,-13027.624579,-995.924147,2294.638420
1376.721499,-10140.821405,1455.581446,1184.329507
1376.721810,-7254.018232,-689.485948,-0.000000
1376.722121,-3997.112087,-3370.820191,370.102971
1376.722433,-2368.659014,-5975.544884,-148.041188
1376.722744,-2516.700203,-7967.393179,-814.226536
1376.723055,-4071.132681,-7507.735880,-592.164754
1376.723367,-6883.915261,-5745.716235,296.082377
1376.723678,-11251.130318,-5439.278036,592.164754
1376.723989,-14211.954086,-4903.011187,1554.432478
1376.724301,-16432.571912,-4060.306139,3552.988522
1376.724612,-15396.283594,-3753.867940,5107.421000
1376.724923,-13397.727550,-2757.943793,4071.132681
1376.725235,-10807.006753,-2528.115143,2738.761985
1376.725546,-6291.750507,-2528.115143,888.247130
1376.725857,-2960.823768,-2528.115143,-148.041188
1376.726169,-1258.350101,-2451.505594,-1184.329507
1376.726480,-1258.350101,-2451.505594,-1850.514855
1376.726791,-3256.906145,-2834.553343,-1480.411884
1376.727103,-6291.750507,-2757.943793,-518.144159
1376.727414,-9770.718434,-2451.505594,-0.000000
1376.727726,-12657.521608,-1455.581446,888.247130
1376.728037,-14211.954086,-1685.410096,1480.411884
1376.728348,-14730.098246,-2374.896044,1998.556043
1376.728660,-13989.892304,-1378.971896,1628.453072
1376.728971,-11917.315666,-1915.238745,1628.453072
1376.729282,-8142.265362,-3370.820191,1258.350101
1376.729594,-5329.482782,-6052.154434,1924.535449
1376.729905,-3552.988522,-7660.954980,444.123565
1376.730216,-3182.885551,-7431.126331,-740.205942
1376.730528,-4885.359217,-5669.106685,-2072.576638
1376.730839,-6439.791695,-3447.429741,-2146.597232
1376.731150,-10066.800811,-1225.752797,-2368.659014
1376.731462,-11991.336260,-153.219100,-1332.370696
1376.731773,-14730.098246,229.828649,-0.000000
1376.732084,-14878.139434,153.219100,1036.288319
1376.732396,-13841.851115,-459.657299,1628.453072
1376.732707,-10955.047942,-919.314598,1258.350101
1376.733018,-8068.244768,-2068.457845,518.144159
1376.733330,-7031.956449,-2911.162892,-0.000000
1376.733641,-5699.585753,-2987.772442,-222.061783
1376.733952,-6069.688724,-1762.019645,-592.164754
1376.734264,-6439.791695,-995.924147,-888.247130
1376.734575,-7105.977043,-1225.752797,-962.267725
1376.734886,-7402.059420,-2298.286494,-740.205942
1376.735198,-7402.059420,-2681.334243,-592.164754
1376.735509,-7994.224174,-3447.429741,-222.061783
1376.735820,-9252.574275,-4213.525239,222.061783
1376.736132,-10955.047942,-4596.572988,740.205942
1376.736443,-12139.377449,-4979.620737,2368.659014
1376.736754,-11991.336260,-5592.497135,2812.782580
1376.737066,-11325.150913,-5056.230287,2516.700203
1376.737377,-9844.739029,-4519.963438,2146.597232
1376.737688,-8142.265362,-4060.306139,888.247130
1376.738000,-6883.915261,-2757.943793,222.061783
1376.738311,-5403.503377,-919.314598,-814.226536
1376.738622,-4663.297435,-459.657299,-1110.308913
1376.738934,-5329.482782,612.876398,-1332.370696
1376.739245,-7105.977043,-842.705048,-1036.288319
1376.739556,-8586.388927,-2374.896044,-0.000000
1376.739868,-9622.677246,-3753.867940,1628.453072
1376.740179,-11473.192101,-5132.839837,2516.700203
1376.740490,-12213.398043,-6128.763984,2960.823768
1376.740802,-12583.501014,-6665.030833,2368.659014
1376.741113,-10955.047942,-5132.839837,2146.597232
1376.741424,-10436.903782,-4136.915689,1184.329507
1376.741736,-8438.347739,-1915.238745,888.247130
1376.742047,-7105.977043,-1149.143247,-0.000000
1376.742358,-6513.812290,-612.876398,-0.000000
1376.742670,-5329.482782,-306.438199,-0.000000
1376.742981,-6291.750507,-1072.533697,-0.000000
1376.743292,-7402.059420,-1991.848295,-0.000000
1376.743604,-8734.430116,-2757.943793,518.144159
1376.743915,-10066.800811,-3140.991542,888.247130
1376.744227,-11251.130318,-3600.648841,814.226536
1376.744538,-11917.315666,-4673.182538,1184.329507
1376.744850,-11843.295072,-5439.278036,1628.453072
1376.745161,-10881.027347,-5439.278036,1480.411884
1376.745472,-9030.512492,-4673.182538,1332.370696
1376.745784,-7476.080014,-3677.258390,148.041188
1376.746095,-6513.812290,-2681.334243,-74.020594
1376.746407,-5699.585753,-1685.410096,-518.144159
1376.746718,-7031.956449,-1072.533697,-814.226536
1376.747030,-7772.162391,-612.876398,-444.123565
1376.747341,-9104.533087,-689.485948,-222.061783
1376.747653,-9844.739029,-2451.505594,148.041188
1376.747964,-10807.006753,-3524.039291,444.123565
1376.748275,-9400.615463,-3753.867940,962.267725
1376.748587,-10066.800811,-4366.744339,296.082377
1376.748898,-8586.388927,-3907.087040,296.082377
1376.749210,-8364.327145,-3830.477490,-0.000000
1376.749521,-9030.512492,-4136.915689,-222.061783
1376.749833,-6809.894666,-2834.553343,-0.000000
1376.750144,-7179.997637,-3064.381992,-888.247130
1376.750456,-8068.244768,-3753.867940,666.185348
1376.750767,-10658.965565,-3830.477490,592.164754
1376.751078,-10584.944971,-3294.210641,1184.329507
1376.751390,-9104.533087,-1991.848295,2072.576638
1376.751701,-8956.491898,-2987.772442,2516.700203
1376.752013,-9622.677246,-4673.182538,1776.494261
1376.752324,-9252.574275,-4673.182538,1332.370696
1376.752636,-8586.388927,-2834.553343,1850.514855
1376.752947,-9252.574275,-1302.362347,1406.391290
1376.753259,-11843.295072,0.000000,962.267725
1376.753570,-11621.233289,536.266849,1554.432478
1376.753881,-9844.739029,-383.047749,1258.350101
1376.754193,-8290.306550,-536.266849,1776.494261
1376.754504,-6809.894666,229.828649,1924.535449
1376.754816,-7698.141797,-1608.800546,1480.411884
1376.755127,-7031.956449,-3907.087040,3627.009116
1376.755439,-8808.450710,-5056.230287,3997.112087
1376.755750,-8660.409521,-2374.896044,5625.565159
1376.756062,-11621.233289,-1915.238745,5107.421000
1376.756373,-12731.542202,-1991.848295,6069.688724
1376.756685,-9474.636058,-1532.190996,4663.297435
1376.756996,-7698.141797,919.314598,3849.070898
1376.757307,-6735.874072,2145.067394,2886.803174
1376.757619,-5921.647536,1225.752797,1998.556043
1376.757930,-7402.059420,383.047749,1628.453072
1376.758242,-5551.544565,1991.848295,3478.967927
1376.758553,-7476.080014,1072.533697,3182.885551
1376.758865,-10584.944971,766.095498,5033.400406
1376.759176,-10732.986159,919.314598,6883.915261
1376.759488,-9770.718434,-842.705048,5773.606348
1376.759799,-7994.224174,-1915.238745,7105.977043
1376.760110,-8956.491898,-1302.362347,5033.400406
1376.760422,-7772.162391,0.000000,4737.318029
1376.760733,-6661.853478,766.095498,3701.029710
1376.761045,-6513.812290,306.438199,3552.988522
1376.761356,-7476.080014,1762.019645,3034.844362
1376.761668,-9178.553681,1608.800546,3775.050304
1376.761979,-9178.553681,766.095498,4441.235652
1376.762291,-7920.203579,-306.438199,4737.318029
1376.762602,-7920.203579,-1225.752797,4885.359217
1376.762913,-8216.285956,-1072.533697,5107.421000
1376.763225,-8734.430116,-2374.896044,5477.523971
1376.763536,-8734.430116,-1072.533697,4663.297435
1376.763848,-8956.491898,153.219100,5847.626942
1376.764159,-9770.718434,1072.533697,4293.194464
1376.764471,-10955.047942,766.095498,4515.256246
1376.764782,-9770.718434,1532.190996,3997.112087
1376.765094,-7772.162391,2145.067394,3849.070898
1376.765405,-7031.956449,1532.190996,3330.926739
1376.765717,-6587.832884,383.047749,2738.761985
1376.766028,-6809.894666,0.000000,2368.659014
1376.766339,-5847.626942,0.000000,2590.720797
1376.766651,-6513.812290,-1072.533697,2812.782580
1376.766962,-8290.306550,-1838.629195,3627.009116
1376.767274,-10140.821405,-2145.067394,4441.235652
1376.767585,-11103.089130,-2374.896044,5107.421000
1376.767897,-11473.192101,-2374.896044,4737.318029
1376.768208,-11621.233289,-842.705048,4441.235652
1376.768520,-10362.883188,0.000000,3182.885551
1376.768831,-9622.677246,-306.438199,2072.576638
1376.769142,-8142.265362,383.047749,1406.391290
1376.769454,-7994.224174,1072.533697,1332.370696
1376.769765,-9252.574275,153.219100,1776.494261
1376.770077,-9474.636058,-766.095498,3404.947333
1376.770388,-9104.533087,-1838.629195,3997.112087
1376.770700,-8808.450710,-1838.629195,4071.132681
1376.771011,-8660.409521,-1225.752797,4219.173869
1376.771323,-8438.347739,-995.924147,2738.761985
1376.771634,-6957.935855,612.876398,2072.576638
1376.771945,-6217.729913,1915.238745,592.164754
1376.772257,-7476.080014,2068.457845,-0.000000
1376.772568,-9474.636058,2298.286494,-0.000000
1376.772880,-11325.150913,2757.943793,1184.329507
1376.773191,-12287.418637,2528.115143,2368.659014
1376.773503,-12065.356855,1378.971896,2812.782580
1376.773814,-11769.274478,-229.828649,3701.029710
1376.774126,-9770.718434,-1302.362347,3701.029710
1376.774437,-6735.874072,-1838.629195,2960.823768
1376.774749,-3849.070898,-2298.286494,2294.638420
1376.775060,-3182.885551,-2298.286494,1850.514855
1376.775371,-5551.544565,-1991.848295,1998.556043
1376.775683,-8956.491898,-2068.457845,2368.659014
1376.775994,-11399.171507,-536.266849,4293.194464
1376.776306,-14285.974681,995.924147,5255.462188
1376.776617,-15322.262999,1455.581446,5921.647536
1376.776929,-13693.809927,0.000000,5551.544565
1376.777240,-9104.533087,0.000000,4515.256246
1376.777552,-5329.482782,536.266849,2812.782580
1376.777863,-3552.988522,1149.143247,1406.391290
1376.778174,-3256.906145,612.876398,1110.308913
1376.778486,-4589.276840,919.314598,1554.432478
1376.778797,-7698.141797,995.924147,2886.803174
1376.779109,-11621.233289,766.095498,4589.276840
1376.779420,-13989.892304,919.314598,5625.565159
1376.779732,-13027.624579,1225.752797,5773.606348
1376.780043,-10066.800811,689.485948,4811.338623
1376.780355,-7772.162391,-536.266849,4293.194464
1376.780666,-6661.853478,-1302.362347,3627.009116
1376.780977,-5995.668130,-1072.533697,3627.009116
1376.781289,-6439.791695,-689.485948,4441.235652
1376.781600,-8586.388927,-536.266849,5699.585753
1376.781912,-10807.006753,0.000000,6809.894666
1376.782223,-10807.006753,-383.047749,6957.935855
1376.782535,-9770.718434,-306.438199,5847.626942
1376.782846,-7179.997637,766.095498,4219.173869
1376.783158,-5329.482782,2145.067394,2442.679609
1376.783469,-5107.421000,3370.820191,740.205942
1376.783780,-6439.791695,2834.553343,1036.288319
1376.784092,-8734.430116,2374.896044,2294.638420
1376.784403,-10881.027347,1225.752797,3849.070898
1376.784715,-11843.295072,383.047749,5995.668130
1376.785026,-12731.542202,-1608.800546,7402.059420
1376.785338,-11917.315666,-2451.505594,8290.306550
1376.785649,-10140.821405,-2834.553343,8290.306550
1376.785961,-8364.327145,-1915.238745,7402.059420
1376.786272,-7031.956449,-766.095498,5551.544565
1376.786584,-5773.606348,842.705048,3775.050304
1376.786895,-4145.153275,1991.848295,2368.659014
1376.787206,-3552.988522,2911.162892,1702.473667
1376.787518,-6439.791695,2604.724693,2220.617826
1376.787829,-7624.121203,1378.971896,3404.947333
1376.788141,-7846.182985,-459.657299,2960.823768
1376.788452,-8808.450710,-1685.410096,2886.803174
1376.788764,-9918.759623,-1225.752797,3923.091493
1376.789075,-12287.418637,-1072.533697,4663.297435
1376.789387,-13471.748144,-1072.533697,4737.318029
1376.789698,-12731.542202,-766.095498,5033.400406
1376.790009,-10584.944971,-766.095498,5403.503377
1376.790321,-7846.182985,-766.095498,4737.318029
1376.790632,-4515.256246,-459.657299,2442.679609
1376.790944,-1480.411884,229.828649,222.061783
1376.791255,-1406.391290,1455.581446,-1776.494261
1376.791567,-1554.432478,2068.457845,-2516.700203
1376.791878,-3478.967927,1225.752797,-3701.029710
1376.792190,-8364.327145,536.266849,-2812.782580
1376.792501,-13397.727550,459.657299,-666.185348
1376.792812,-17394.839637,0.000000,1554.432478
1376.793124,-19393.395680,76.609550,3775.050304
1376.793435,-18949.272115,0.000000,4293.194464
1376.793747,-15100.201217,-612.876398,3034.844362
1376.794058,-9178.553681,-306.438199,814.226536
1376.794370,-3552.988522,1072.533697,-2368.659014
1376.794681,0.000000,2068.457845,-5107.421000
1376.794993,1702.473667,1915.238745,-7031.956449
1376.795304,0.000000,1762.019645,-7031.956449
1376.795616,-5773.606348,229.828649,-5403.503377
1376.795927,-12435.459826,-1225.752797,-2146.597232
1376.796238,-17987.004391,-2451.505594,1184.329507
1376.796550,-21984.116477,-2451.505594,3849.070898
1376.796861,-22206.178260,-2604.724693,4515.256246
1376.797173,-19615.457463,-2911.162892,4441.235652
1376.797484,-14508.036463,-1991.848295,3034.844362
1376.797796,-7846.182985,-842.705048,444.123565
1376.798107,-2368.659014,-536.266849,-1406.391290
1376.798419,1184.329507,306.438199,-3256.906145
1376.798730,1554.432478,1455.581446,-4367.215058
1376.799041,-962.267725,1455.581446,-4441.235652
1376.799353,-5625.565159,766.095498,-3034.844362
1376.799664,-11325.150913,-153.219100,-1850.514855
1376.799976,-15988.448347,0.000000,1110.308913
1376.800287,-19541.436869,0.000000,3034.844362
1376.800599,-19985.560434,0.000000,4663.297435
1376.800910,-17320.819043,0.000000,5181.441594
1376.801222,-11695.253884,-919.314598,5255.462188
1376.801533,-5033.400406,-995.924147,3997.112087
1376.801844,592.164754,-153.219100,1924.535449
1376.802156,3701.029710,995.924147,-1480.411884
1376.802467,5033.400406,1302.362347,-3701.029710
1376.802779,1850.514855,1149.143247,-3849.070898
1376.803090,-3404.947333,766.095498,-3108.864956
1376.803402,-9326.594869,1149.143247,-1332.370696
1376.803713,-15988.448347,1072.533697,1628.453072
1376.804025,-20651.745782,76.609550,4589.276840
1376.804336,-23168.445985,-383.047749,6957.935855
1376.804648,-19023.292709,-306.438199,8438.347739
1376.804959,-11843.295072,-842.705048,8142.265362
1376.805270,-5255.462188,-1378.971896,5033.400406
1376.805582,1184.329507,0.000000,962.267725
1376.805893,5477.523971,1532.190996,-3256.906145
1376.806205,6291.750507,3370.820191,-5625.565159
1376.806516,1110.308913,2911.162892,-4885.359217
1376.806828,-6957.935855,1608.800546,-3108.864956
1376.807139,-15174.221811,919.314598,222.061783
1376.807451,-21539.992912,1072.533697,3849.070898
1376.807762,-24870.919651,306.438199,6661.853478
1376.808073,-21910.095883,-1685.410096,8068.244768
1376.808385,-15248.242405,-3677.258390,7328.038826
1376.808696,-7550.100608,-4213.525239,5329.482782
1376.809008,-592.164754,-3447.429741,1110.308913
1376.809319,4219.173869,-842.705048,-2146.597232
1376.809631,3849.070898,995.924147,-4959.379811
1376.809942,0.000000,1378.971896,-4219.173869
1376.810254,-6513.812290,1072.533697,-2812.782580
1376.810565,-13619.789333,1149.143247,-592.164754
1376.810876,-18357.107362,2451.505594,1924.535449
1376.811188,-20355.663405,1378.971896,3849.070898
1376.811499,-17764.942608,-1378.971896,5255.462188
1376.811811,-13323.706956,-3907.087040,4589.276840
1376.812122,-8142.265362,-3753.867940,3849.070898
1376.812434,-2516.700203,-2681.334243,1628.453072
1376.812745,740.205942,-1685.410096,-666.185348
1376.813057,1110.308913,-229.828649,-3108.864956
1376.813368,-1258.350101,612.876398,-4293.194464
1376.813679,-5477.523971,1532.190996,-4145.153275
1376.813991,-10807.006753,2451.505594,-3775.050304
1376.814302,-14804.118840,4213.525239,-3034.844362
1376.814614,-17098.757260,4443.353888,-1924.535449
1376.814925,-16876.695478,2145.067394,296.082377
1376.815237,-14878.139434,-1225.752797,1332.370696
1376.815548,-11103.089130,-2068.457845,2738.761985
1376.815860,-7031.956449,-3370.820191,2516.700203
1376.816171,-3627.009116,-3064.381992,-0.000000
1376.816483,-1258.350101,-2298.286494,-1850.514855
1376.816794,-1036.288319,-2068.457845,-4145.153275
1376.817105,-3330.926739,-153.219100,-3330.926739
1376.817417,-9548.656652,1532.190996,-3701.029710
1376.817728,-15618.345376,2911.162892,-2812.782580
1376.818040,-17912.983796,4596.572988,-1406.391290
1376.818351,-16506.592507,2681.334243,296.082377
1376.818663,-12583.501014,-766.095498,-0.000000
1376.818974,-7476.080014,-2451.505594,-148.041188
1376.819286,-3627.009116,-2451.505594,-666.185348
1376.819597,-1480.411884,-2604.724693,-1554.432478
1376.819908,-3108.864956,-3677.258390,-296.082377
1376.820220,-8734.430116,-3370.820191,-296.082377
1376.820531,-12805.562797,-2604.724693,592.164754
1376.820843,-15396.283594,-153.219100,-444.123565
1376.821154,-15988.448347,3140.991542,-1480.411884
1376.821466,-13175.665768,4979.620737,-3478.967927
1376.821777,-9474.636058,2145.067394,-3108.864956
1376.822089,-7328.038826,-995.924147,-1924.535449
1376.822400,-5551.544565,-2987.772442,-370.102971
1376.822711,-5033.400406,-2834.553343,1184.329507
1376.823023,-6513.812290,-3294.210641,1924.535449
1376.823334,-7402.059420,-3064.381992,2442.679609
1376.823646,-9178.553681,-3600.648841,1850.514855
1376.823957,-11251.130318,-2221.676944,1998.556043
1376.824269,-12805.562797,229.828649,1554.432478
1376.824580,-13767.830521,2528.115143,518.144159
1376.824892,-13101.645173,3907.087040,-370.102971
1376.825203,-11029.068536,3600.648841,-666.185348
1376.825515,-7772.162391,2145.067394,-518.144159
1376.825826,-4071.132681,919.314598,296.082377
1376.826137,-962.267725,-153.219100,222.061783
1376.826449,0.000000,-1302.362347,814.226536
1376.826760,-2886.803174,-2911.162892,2368.659014
1376.827072,-7105.977043,-3983.696590,2886.803174
1376.827383,-11547.212695,-3370.820191,4367.215058
1376.827695,-15026.180623,-1532.190996,4515.256246
1376.828006,-15766.386565,536.266849,2960.823768
1376.828318,-14211.954086,2834.553343,1480.411884
1376.828629,-10658.965565,3600.648841,-0.000000
1376.828940,-6365.771101,2604.724693,-370.102971
1376.829252,-3849.070898,919.314598,-592.164754
1376.829563,-2960.823768,459.657299,-444.123565
1376.829875,-3404.947333,0.000000,-148.041188
1376.830186,-4811.338623,-842.705048,1332.370696
1376.830498,-7550.100608,-2374.896044,1924.535449
1376.830809,-9474.636058,-2987.772442,2590.720797
1376.831121,-12583.501014,-2298.286494,3404.947333
1376.831432,-14952.160028,-842.705048,3701.029710
1376.831743,-15766.386565,1378.971896,3108.864956
1376.832055,-13693.809927,1915.238745,2072.576638
1376.832366,-9252.574275,1225.752797,518.144159
1376.832678,-5329.482782,995.924147,-592.164754
1376.832989,-2368.659014,1302.362347,-2368.659014
1376.833301,0.000000,1532.190996,-2886.803174
1376.833612,-1184.329507,229.828649,-2072.576638
1376.833924,-4737.318029,-2834.553343,-740.205942
1376.834235,-9844.739029,-3830.477490,740.205942
1376.834546,-14434.015869,-2451.505594,2516.700203
1376.834858,-17987.004391,-153.219100,2960.823768
1376.835169,-19097.313304,1225.752797,3108.864956
1376.835481,-15914.427753,1072.533697,1554.432478
1376.835792,-10807.006753,0.000000,370.102971
1376.836104,-5699.585753,-689.485948,-1628.453072
1376.836415,-1776.494261,0.000000,-2590.720797
1376.836727,-814.226536,459.657299,-3775.050304
1376.837038,-2294.638420,0.000000,-3923.091493
1376.837350,-4811.338623,-1149.143247,-3108.864956
1376.837661,-8660.409521,-1762.019645,-1480.411884
1376.837972,-12657.521608,-1225.752797,370.102971
1376.838284,-16136.489536,-995.924147,1554.432478
1376.838595,-17912.983796,0.000000,2368.659014
1376.838907,-16876.695478,459.657299,2294.638420
1376.839218,-14063.912898,536.266849,2294.638420
1376.839530,-9992.780217,689.485948,1332.370696
1376.839841,-5477.523971,459.657299,-148.041188
1376.840153,-1110.308913,919.314598,-2368.659014
1376.840464,1628.453072,153.219100,-4737.318029
1376.840775,666.185348,229.828649,-4663.297435
1376.841087,-4441.235652,-612.876398,-3034.844362
1376.841398,-11843.295072,-1072.533697,222.061783
1376.841710,-18357.107362,-842.705048,2886.803174
1376.842021,-21984.116477,383.047749,5403.503377
1376.842333,-19911.539840,766.095498,5699.585753
1376.842644,-13323.706956,-766.095498,4293.194464
1376.842956,-5921.647536,-1838.629195,1480.411884
1376.843267,740.205942,-689.485948,-1332.370696
1376.843578,3849.070898,1072.533697,-3701.029710
1376.843890,2738.761985,1072.533697,-3775.050304
1376.844201,-3552.988522,689.485948,-2072.576638
1376.844513,-10362.883188,0.000000,592.164754
1376.844824,-15470.304188,-1149.143247,2368.659014
1376.845136,-17764.942608,-229.828649,3552.988522
1376.845447,-16728.654289,689.485948,3923.091493
1376.845759,-13027.624579,0.000000,2960.823768
1376.846070,-9178.553681,-1915.238745,2442.679609
1376.846382,-6587.832884,-1991.848295,2368.659014
1376.846693,-4811.338623,-995.924147,2294.638420
1376.847004,-4515.256246,229.828649,1850.514855
1376.847316,-4737.318029,383.047749,888.247130
1376.847627,-4811.338623,0.000000,222.061783
1376.847939,-6069.688724,-383.047749,-296.082377
1376.848250,-8882.471304,306.438199,-888.247130
1376.848562,-11843.295072,2221.676944,-592.164754
1376.848873,-14508.036463,2681.334243,962.267725
1376.849185,-15988.448347,1685.410096,2368.659014
1376.849496,-14359.995275,0.000000,4071.132681
1376.849807,-10955.047942,-919.314598,4367.215058
1376.850119,-6069.688724,-766.095498,3849.070898
1376.850430,-2220.617826,-459.657299,1110.308913
1376.850742,-1332.370696,76.609550,-222.061783
1376.851053,-2590.720797,-306.438199,-1036.288319
1376.851365,-6883.915261,-766.095498,-592.164754
1376.851676,-11029.068536,0.000000,-370.102971
1376.851988,-13767.830521,2068.457845,-0.000000
1376.852299,-15100.201217,2911.162892,444.123565
1376.852610,-15174.221811,1532.190996,1258.350101
1376.852922,-11621.233289,-229.828649,2664.741391
1376.853233,-8290.306550,-1608.800546,3108.864956
1376.853545,-6291.750507,-1762.019645,3775.050304
1376.853856,-5625.565159,-1838.629195,3182.885551
1376.854168,-4737.318029,-995.924147,1110.308913
1376.854479,-4737.318029,-229.828649,-0.000000
1376.854791,-6587.832884,0.000000,-962.267725
1376.855102,-8290.306550,-459.657299,-1702.473667
1376.855414,-10584.944971,1455.581446,-1998.556043
1376.855725,-12583.501014,2604.724693,-444.123565
1376.856036,-13915.871710,2068.457845,962.267725
1376.856348,-12805.562797,0.000000,2590.720797
1376.856659,-10362.883188,-995.924147,3627.009116
1376.856971,-7476.080014,-1225.752797,3404.947333
1376.857282,-3552.988522,-919.314598,1702.473667
1376.857594,-962.267725,76.609550,-1332.370696
1376.857905,-1924.535449,459.657299,-3108.864956
1376.858217,-4145.153275,0.000000,-3330.926739
1376.858528,-9104.533087,-229.828649,-1702.473667
1376.858839,-14582.057057,1455.581446,-296.082377
1376.859151,-19171.333898,2374.896044,1110.308913
1376.859462,-19393.395680,2528.115143,2220.617826
1376.859774,-15396.283594,1302.362347,2516.700203
1376.860085,-9474.636058,0.000000,2516.700203
1376.860397,-4515.256246,-1762.019645,1554.432478
1376.860708,-1332.370696,-1685.410096,666.185348
1376.861020,-740.205942,-1685.410096,-0.000000
1376.861331,-3108.864956,-1378.971896,-148.041188
1376.861642,-7920.203579,-1532.190996,296.082377
1376.861954,-11621.233289,-1685.410096,518.144159
1376.862265,-14359.995275,229.828649,962.267725
1376.862577,-15248.242405,995.924147,1036.288319
1376.862888,-14211.954086,1762.019645,1406.391290
1376.863200,-12435.459826,229.828649,518.144159
1376.863511,-9252.574275,-919.314598,1998.556043
1376.863823,-6661.853478,-1072.533697,2294.638420
1376.864134,-4737.318029,-306.438199,1776.494261
1376.864445,-3478.967927,536.266849,666.185348
1376.864757,-3627.009116,0.000000,518.144159
1376.865068,-4959.379811,-1302.362347,-0.000000
1376.865380,-6883.915261,-1991.848295,-148.041188
1376.865691,-10732.986159,0.000000,-222.061783
1376.866003,-13915.871710,2451.505594,592.164754
1376.866314,-16580.613101,2681.334243,740.205942
1376.866626,-15174.221811,1838.629195,1184.329507
1376.866937,-10955.047942,995.924147,740.205942
1376.867249,-6217.729913,536.266849,1036.288319
1376.867560,-888.247130,919.314598,370.102971
1376.867871,222.061783,0.000000,-1184.329507
1376.868183,-1924.535449,-229.828649,-1258.350101
1376.868494,-5847.626942,-1225.752797,-592.164754
1376.868806,-11177.109724,-766.095498,-0.000000
1376.869117,-15174.221811,1072.533697,962.267725
1376.869429,-16580.613101,1532.190996,444.123565
1376.869740,-15766.386565,1838.629195,-0.000000
1376.870052,-12731.542202,1072.533697,-74.020594
1376.870363,-8290.306550,-689.485948,962.267725
1376.870674,-5403.503377,-2221.676944,1406.391290
1376.870986,-4589.276840,-2681.334243,1332.370696
1376.871297,-4737.318029,-1762.019645,1036.288319
1376.871609,-5329.482782,-842.705048,-74.020594
1376.871920,-6439.791695,0.000000,444.123565
1376.872232,-8586.388927,0.000000,-444.123565
1376.872543,-10955.047942,0.000000,-592.164754
1376.872855,-13989.892304,1378.971896,-0.000000
1376.873166,-15100.201217,2145.067394,740.205942
1376.873477,-14063.912898,1991.848295,1110.308913
1376.873789,-11325.150913,306.438199,1850.514855
1376.874100,-8512.368333,-689.485948,1776.494261
1376.874412,-5329.482782,-383.047749,1184.329507
1376.874723,-2294.638420,229.828649,-0.000000
1376.875035,-1332.370696,0.000000,-1036.288319
1376.875346,-4367.215058,-995.924147,-1036.288319
1376.875658,-8142.265362,-1915.238745,-518.144159
1376.875969,-12139.377449,-842.705048,296.082377
1376.876281,-15396.283594,1149.143247,1332.370696
1376.876592,-16136.489536,1685.410096,1924.535449
1376.876903,-14211.954086,1225.752797,2146.597232
1376.877215,-10732.986159,-459.657299,2590.720797
1376.877526,-7550.100608,-1225.752797,2368.659014
1376.877838,-4737.318029,-842.705048,1480.411884
1376.878149,-2516.700203,229.828649,296.082377
1376.878461,-1110.308913,0.000000,-1258.350101
1376.878772,-3330.926739,-229.828649,-2294.638420
1376.879084,-6809.894666,153.219100,-1554.432478
1376.879395,-10658.965565,1149.143247,-370.102971
1376.879706,-14878.139434,1378.971896,1702.473667
1376.880018,-17320.819043,1378.971896,2738.761985
1376.880329,-16062.468941,229.828649,3330.926739
1376.880641,-11399.171507,-536.266849,2368.659014
1376.880952,-7105.977043,-1532.190996,1184.329507
1376.881264,-2516.700203,-1149.143247,-370.102971
1376.881575,148.041188,-383.047749,-2590.720797
1376.881887,-518.144159,-612.876398,-3701.029710
1376.882198,-5033.400406,-766.095498,-2738.761985
1376.882509,-9992.780217,-919.314598,-1850.514855
1376.882821,-14508.036463,0.000000,-0.000000
1376.883132,-17912.983796,1149.143247,1406.391290
1376.883444,-18727.210333,1762.019645,1554.432478
1376.883755,-15544.324782,1685.410096,1184.329507
1376.884067,-10881.027347,536.266849,222.061783
1376.884378,-5921.647536,-766.095498,-0.000000
1376.884690,-3182.885551,-1225.752797,-1036.288319
1376.885001,-1998.556043,0.000000,-1998.556043
1376.885313,-2442.679609,-536.266849,-1924.535449
1376.885624,-4885.359217,-2145.067394,-2146.597232
1376.885935,-8142.265362,-2451.505594,-1258.350101
1376.886247,-11251.130318,-842.705048,-1332.370696
1376.886558,-14063.912898,919.314598,-74.020594
1376.886870,-15840.407159,995.924147,518.144159
1376.887181,-15026.180623,612.876398,962.267725
1376.887493,-12805.562797,0.000000,1332.370696
1376.887804,-10288.862594,-919.314598,1924.535449
1376.888116,-6513.812290,-842.705048,1850.514855
1376.888427,-3997.112087,-306.438199,296.082377
1376.888738,-2146.597232,-1072.533697,-1406.391290
1376.889050,-1776.494261,-2068.457845,-2368.659014
1376.889361,-4737.318029,-1915.238745,-2886.803174
1376.889673,-8882.471304,-306.438199,-1184.329507
1376.889984,-14211.954086,842.705048,-0.000000
1376.890296,-18135.045579,1532.190996,1480.411884
1376.890607,-17987.004391,1302.362347,2368.659014
1376.890919,-14434.015869,766.095498,3256.906145
1376.891230,-8882.471304,306.438199,3182.885551
1376.891541,-3849.070898,383.047749,1406.391290
1376.891853,-740.205942,0.000000,-1332.370696
1376.892164,1036.288319,0.000000,-2220.617826
1376.892476,-1036.288319,0.000000,-2738.761985
1376.892787,-5921.647536,0.000000,-1554.432478
1376.893099,-11473.192101,0.000000,-0.000000
1376.893410,-16506.592507,1072.533697,1924.535449
1376.893722,-18505.148550,1455.581446,3330.926739
1376.894033,-16580.613101,1302.362347,4071.132681
1376.894344,-12213.398043,-612.876398,4071.132681
1376.894656,-8216.285956,-2834.553343,3775.050304
1376.894967,-3108.864956,-2451.505594,2664.741391
1376.895279,0.000000,-2068.457845,-0.000000
1376.895590,148.041188,-1685.410096,-666.185348
1376.895902,-2146.597232,-1915.238745,-1702.473667
1376.896213,-6883.915261,-995.924147,-296.082377
1376.896525,-11621.233289,-76.609550,296.082377
1376.896836,-16062.468941,383.047749,2220.617826
1376.897148,-18357.107362,1302.362347,2442.679609
1376.897459,-16580.613101,1302.362347,2664.741391
1376.897770,-11991.336260,229.828649,1998.556043
1376.898082,-6809.894666,-1455.581446,1184.329507
1376.898393,-3108.864956,-842.705048,-148.041188
1376.898705,-1036.288319,76.609550,-1628.453072
1376.899016,-962.267725,306.438199,-1998.556043
1376.899328,-3552.988522,-1225.752797,-1702.473667
1376.899639,-8364.327145,-1378.971896,-1184.329507
1376.899951,-11695.253884,-766.095498,-0.000000
1376.900262,-14804.118840,0.000000,518.144159
1376.900573,-16358.551318,919.314598,1036.288319
1376.900885,-15100.201217,1685.410096,814.226536
1376.901196,-12287.418637,536.266849,740.205942
1376.901508,-8882.471304,-383.047749,1184.329507
1376.901819,-5033.400406,-536.266849,814.226536
1376.902131,-2738.761985,-306.438199,-592.164754
1376.902442,-2146.597232,0.000000,-1998.556043
1376.902754,-3775.050304,-536.266849,-1998.556043
1376.903065,-6735.874072,-766.095498,-2220.617826
1376.903376,-10658.965565,-842.705048,-888.247130
1376.903688,-14730.098246,76.609550,-0.000000
1376.903999,-17690.922014,1149.143247,666.185348
1376.904311,-16062.468941,1455.581446,1850.514855
1376.904622,-12583.501014,-306.438199,1258.350101
1376.904934,-8290.306550,-2298.286494,1036.288319
1376.905245,-4441.235652,-2681.334243,222.061783
1376.905557,-3627.009116,-1532.190996,-592.164754
1376.905868,-3256.906145,-459.657299,-1480.411884
1376.906180,-4959.379811,-1072.533697,-1554.432478
1376.906491,-8512.368333,-1072.533697,-1924.535449
1376.906802,-10881.027347,-229.828649,-888.247130
1376.907114,-13323.706956,229.828649,-518.144159
1376.907425,-14952.160028,1149.143247,-0.000000
1376.907737,-15026.180623,2145.067394,1110.308913
1376.908048,-13767.830521,612.876398,1776.494261
1376.908360,-9844.739029,-766.095498,2812.782580
1376.908671,-6883.915261,-1225.752797,2812.782580
1376.908983,-3849.070898,-153.219100,1850.514855
1376.909294,-1332.370696,-306.438199,-0.000000
1376.909605,-962.267725,-536.266849,-1184.329507
1376.909917,-3404.947333,-995.924147,-1776.494261
1376.910228,-7254.018232,-383.047749,-888.247130
1376.910540,-11399.171507,689.485948,592.164754
1376.910851,-15396.283594,1455.581446,1332.370696
1376.911163,-16506.592507,1838.629195,3108.864956
1376.911474,-15100.201217,689.485948,3775.050304
1376.911786,-11621.233289,-689.485948,4145.153275
1376.912097,-6809.894666,-1608.800546,3627.009116
1376.912408,-2886.803174,-1302.362347,2368.659014
1376.912720,-592.164754,-1072.533697,-0.000000
1376.913031,-1184.329507,-1302.362347,-1110.308913
1376.913343,-3923.091493,-1608.800546,-1332.370696
1376.913654,-9622.677246,-383.047749,518.144159
1376.913966,-14952.160028,995.924147,2146.597232
1376.914277,-18431.127956,1991.848295,3478.967927
1376.914589,-19023.292709,2298.286494,4589.276840
1376.914900,-15174.221811,919.314598,4737.318029
1376.915212,-8956.491898,-842.705048,3404.947333
1376.915523,-2960.823768,-842.705048,1406.391290
1376.915834,0.000000,766.095498,814.226536
1376.916146,74.020594,842.705048,-518.144159
1376.916457,-2368.659014,-612.876398,-740.205942
1376.916769,-6883.915261,-995.924147,296.082377
1376.917080,-10955.047942,-842.705048,1998.556043
1376.917392,-14285.974681,-153.219100,2664.741391
1376.917703,-16580.613101,1149.143247,2516.700203
1376.918015,-16210.510130,1685.410096,2368.659014
1376.918326,-11917.315666,76.609550,2294.638420
1376.918637,-7254.018232,-1149.143247,2368.659014
1376.918949,-4515.256246,-689.485948,1850.514855
1376.919260,-2738.761985,-536.266849,814.226536
1376.919572,-1406.391290,-459.657299,-518.144159
1376.919883,-2072.576638,76.609550,-1184.329507
1376.920195,-4811.338623,-383.047749,-1480.411884
1376.920506,-8808.450710,-1149.143247,-740.205942
1376.920817,-12213.398043,0.000000,-370.102971
1376.921129,-16210.510130,1532.190996,-666.185348
1376.921440,-17098.757260,2528.115143,296.082377
1376.921752,-14582.057057,1838.629195,222.061783
1376.922063,-10732.986159,0.000000,814.226536
1376.922375,-7105.977043,-1072.533697,518.144159
1376.922686,-4515.256246,-1225.752797,-222.061783
1376.922997,-2960.823768,-842.705048,-1036.288319
1376.923309,-3627.009116,-766.095498,-1406.391290
1376.923620,-5847.626942,-1608.800546,-1480.411884
1376.923932,-9030.512492,-2068.457845,-1776.494261
1376.924243,-12509.480420,-842.705048,-1406.391290
1376.924555,-15988.448347,536.266849,-814.226536
1376.924866,-17172.777854,1991.848295,-0.000000
1376.925177,-16210.510130,1532.190996,1036.288319
1376.925489,-12583.501014,-919.314598,2664.741391
