#time,accel_x,accel_y,accel_z
1294.629084,-9030.512492,689.485948,222.061783
1294.629396,-9178.553681,-306.438199,370.102971
1294.629707,-9030.512492,0.000000,666.185348
1294.630018,-8734.430116,0.000000,592.164754
1294.630330,-8660.409521,-153.219100,592.164754
1294.630641,-8956.491898,0.000000,370.102971
1294.630952,-9030.512492,-383.047749,444.123565
1294.631264,-8290.306550,-229.828649,518.144159
1294.631575,-9104.533087,-766.095498,740.205942
1294.631886,-8734.430116,-229.828649,666.185348
1294.632198,-8956.491898,-153.219100,592.164754
1294.632509,-9030.512492,0.000000,518.144159
1294.632820,-9030.512492,-229.828649,444.123565
1294.633132,-8734.430116,229.828649,518.144159
1294.633443,-9030.512492,306.438199,592.164754
1294.633754,-8956.491898,76.609550,740.205942
1294.634066,-8956.491898,306.438199,666.185348
1294.634377,-8956.491898,0.000000,370.102971
1294.634688,-8808.450710,0.000000,666.185348
1294.635000,-8882.471304,0.000000,592.164754
1294.635311,-8808.450710,0.000000,444.123565
1294.635622,-9104.533087,-229.828649,148.041188
1294.635934,-9030.512492,0.000000,444.123565
1294.636245,-8660.409521,-689.485948,740.205942
1294.636556,-8882.471304,0.000000,222.061783
1294.636868,-8956.491898,-153.219100,592.164754
1294.637179,-8956.491898,0.000000,740.205942
1294.637490,-8956.491898,-153.219100,592.164754
1294.637802,-8808.450710,0.000000,444.123565
1294.638113,-8660.409521,306.438199,518.144159
1294.638424,-8956.491898,689.485948,370.102971
1294.638736,-8734.430116,-229.828649,814.226536
1294.639047,-8882.471304,-229.828649,592.164754
1294.639358,-9030.512492,0.000000,518.144159
1294.639670,-9030.512492,76.609550,592.164754
1294.639981,-9030.512492,-153.219100,296.082377
1294.640292,-8956.491898,-229.828649,592.164754
1294.640604,-8438.347739,0.000000,444.123565
1294.640915,-8660.409521,0.000000,370.102971
1294.641226,-8808.450710,-306.438199,370.102971
1294.641538,-8882.471304,0.000000,592.164754
1294.641849,-9030.512492,-153.219100,444.123565
1294.642160,-9030.512492,-229.828649,518.144159
1294.642472,-8808.450710,0.000000,592.164754
1294.642783,-8956.491898,0.000000,444.123565
1294.643094,-9030.512492,0.000000,296.082377
1294.643406,-8882.471304,306.438199,888.247130
1294.643717,-8734.430116,0.000000,444.123565
1294.644029,-8882.471304,-153.219100,444.123565
1294.644340,-8882.471304,0.000000,518.144159
1294.644651,-8956.491898,0.000000,518.144159
1294.644963,-8956.491898,-153.219100,740.205942
1294.645274,-8512.368333,-229.828649,370.102971
1294.645585,-8734.430116,0.000000,222.061783
1294.645897,-9178.553681,0.000000,370.102971
1294.646208,-8882.471304,383.047749,518.144159
1294.646519,-8882.471304,0.000000,518.144159
1294.646831,-8956.491898,0.000000,370.102971
1294.647142,-8808.450710,0.000000,518.144159
1294.647453,-8882.471304,0.000000,370.102971
1294.647765,-8734.430116,0.000000,518.144159
1294.648076,-8882.471304,612.876398,518.144159
1294.648387,-8734.430116,-229.828649,370.102971
1294.648699,-8956.491898,0.000000,740.205942
1294.649010,-9030.512492,0.000000,740.205942
1294.649321,-8882.471304,153.219100,666.185348
1294.649633,-8882.471304,0.000000,444.123565
1294.649944,-9030.512492,-383.047749,370.102971
1294.650255,-8734.430116,229.828649,814.226536
1294.650567,-8660.409521,0.000000,518.144159
1294.650878,-8734.430116,-306.438199,592.164754
1294.651189,-8808.450710,-153.219100,592.164754
1294.651501,-9030.512492,-229.828649,444.123565
1294.651812,-8956.491898,0.000000,370.102971
1294.652123,-8882.471304,0.000000,518.144159
1294.652435,-8734.430116,-383.047749,444.123565
1294.652746,-9104.533087,306.438199,370.102971
1294.653057,-8882.471304,0.000000,814.226536
1294.653369,-9030.512492,0.000000,148.041188
1294.653680,-9104.533087,0.000000,592.164754
1294.653991,-8808.450710,0.000000,370.102971
1294.654303,-8808.450710,-153.219100,518.144159
1294.654614,-8808.450710,0.000000,444.123565
1294.654925,-8660.409521,0.000000,370.102971
1294.655237,-8808.450710,229.828649,666.185348
1294.655548,-8660.409521,0.000000,518.144159
1294.655859,-9178.553681,-153.219100,296.082377
1294.656171,-8882.471304,-153.219100,740.205942
1294.656482,-8734.430116,-229.828649,518.144159
1294.656793,-8808.450710,0.000000,592.164754
1294.657105,-8882.471304,229.828649,518.144159
1294.657416,-8660.409521,-612.876398,740.205942
1294.657727,-8956.491898,-229.828649,296.082377
1294.658039,-8882.471304,459.657299,222.061783
1294.658350,-8808.450710,229.828649,296.082377
1294.658662,-8956.491898,153.219100,444.123565
1294.658973,-8808.450710,0.000000,518.144159
1294.659284,-8956.491898,0.000000,444.123565
1294.659596,-9030.512492,229.828649,370.102971
1294.659907,-8808.450710,612.876398,962.267725
1294.660218,-8808.450710,76.609550,296.082377
1294.660530,-8660.409521,-459.657299,592.164754
1294.660841,-8956.491898,-153.219100,296.082377
1294.661152,-8660.409521,-229.828649,518.144159
1294.661464,-8808.450710,0.000000,592.164754
1294.661775,-9104.533087,0.000000,444.123565
1294.662086,-8882.471304,0.000000,518.144159
1294.662398,-9178.553681,383.047749,518.144159
1294.662709,-8364.327145,0.000000,444.123565
1294.663020,-8586.388927,76.609550,296.082377
1294.663332,-8882.471304,-153.219100,592.164754
1294.663643,-8956.491898,-383.047749,518.144159
1294.663954,-9104.533087,0.000000,518.144159
1294.664266,-9104.533087,-153.219100,444.123565
1294.664577,-9030.512492,0.000000,-0.000000
1294.664888,-8586.388927,229.828649,740.205942
1294.665200,-8734.430116,0.000000,444.123565
1294.665511,-8734.430116,0.000000,444.123565
1294.665822,-8808.450710,-229.828649,592.164754
1294.666134,-9548.656652,0.000000,740.205942
1294.666445,-11843.295072,1072.533697,222.061783
1294.666756,-10362.883188,3677.258390,814.226536
1294.667068,-8216.285956,5132.839837,740.205942
1294.667379,-7254.018232,2987.772442,1036.288319
1294.667690,-6143.709319,229.828649,962.267725
1294.668002,-7031.956449,-1072.533697,-0.000000
1294.668313,-7179.997637,-766.095498,-74.020594
1294.668624,-8808.450710,-612.876398,-518.144159
1294.668936,-12879.583391,-842.705048,-1332.370696
1294.669247,-11991.336260,459.657299,370.102971
1294.669558,-9548.656652,995.924147,666.185348
1294.669870,-8068.244768,-76.609550,2738.761985
1294.670181,-10510.924376,-536.266849,2146.597232
1294.670492,-11177.109724,1991.848295,1776.494261
1294.670804,-6439.791695,5209.449386,2442.679609
1294.671115,-6143.709319,4443.353888,1628.453072
1294.671426,-8142.265362,2528.115143,148.041188
1294.671738,-7179.997637,3370.820191,-1184.329507
1294.672049,-7920.203579,2987.772442,-2220.617826
1294.672360,-9326.594869,3217.601092,-370.102971
1294.672672,-9844.739029,3677.258390,-888.247130
1294.672983,-14359.995275,995.924147,-814.226536
1294.673295,-11621.233289,-1149.143247,2590.720797
1294.673606,-8882.471304,-919.314598,1628.453072
1294.673917,-10436.903782,2604.724693,1332.370696
1294.674229,-7254.018232,6894.859482,2590.720797
1294.674540,-8438.347739,4443.353888,1332.370696
1294.674851,-7105.977043,2528.115143,2590.720797
1294.675163,-5921.647536,5822.325785,1332.370696
1294.675474,-7920.203579,7048.078582,-74.020594
1294.675785,-8882.471304,6128.763984,-1184.329507
1294.676097,-9844.739029,4749.792088,-592.164754
1294.676408,-9326.594869,4903.011187,-1776.494261
1294.676719,-10732.986159,6205.373534,-518.144159
1294.677031,-11251.130318,4596.572988,370.102971
1294.677342,-10881.027347,3907.087040,1776.494261
1294.677653,-11399.171507,3753.867940,2220.617826
1294.677965,-8142.265362,5286.058936,2368.659014
1294.678276,-6365.771101,5362.668486,888.247130
1294.678587,-5847.626942,5056.230287,888.247130
1294.678899,-4737.318029,5056.230287,518.144159
1294.679210,-5551.544565,4826.401637,-1110.308913
1294.679521,-6883.915261,4596.572988,-592.164754
1294.679833,-9030.512492,3753.867940,-592.164754
1294.680144,-10288.862594,2451.505594,-518.144159
1294.680455,-11251.130318,1532.190996,666.185348
1294.680767,-10807.006753,536.266849,1480.411884
1294.681078,-11251.130318,-459.657299,1480.411884
1294.681389,-9992.780217,1762.019645,2146.597232
1294.681701,-8660.409521,3140.991542,1702.473667
1294.682012,-7105.977043,3907.087040,814.226536
1294.682323,-6069.688724,2911.162892,740.205942
1294.682635,-7031.956449,3524.039291,-740.205942
1294.682946,-6735.874072,3907.087040,-444.123565
1294.683257,-6883.915261,3370.820191,-1480.411884
1294.683569,-8364.327145,995.924147,-1036.288319
1294.683880,-10436.903782,-1225.752797,-74.020594
1294.684191,-11769.274478,-1378.971896,592.164754
1294.684503,-13175.665768,-2374.896044,1184.329507
1294.684814,-14359.995275,-1915.238745,1258.350101
1294.685125,-13545.768739,-153.219100,1480.411884
1294.685437,-11991.336260,1455.581446,592.164754
1294.685748,-9474.636058,3370.820191,148.041188
1294.686059,-6957.935855,3983.696590,-74.020594
1294.686371,-6217.729913,4443.353888,-0.000000
1294.686682,-5847.626942,5132.839837,1110.308913
1294.686993,-6513.812290,4060.306139,888.247130
1294.687305,-8734.430116,2528.115143,-222.061783
1294.687616,-10732.986159,1455.581446,-0.000000
1294.687928,-11991.336260,536.266849,-518.144159
1294.688239,-13323.706956,0.000000,-444.123565
1294.688550,-13545.768739,-612.876398,-0.000000
1294.688862,-12435.459826,919.314598,518.144159
1294.689173,-10066.800811,2145.067394,1480.411884
1294.689484,-7624.121203,2451.505594,2294.638420
1294.689796,-6291.750507,2757.943793,2442.679609
1294.690107,-3478.967927,3753.867940,1110.308913
1294.690418,-1258.350101,5209.449386,222.061783
1294.690730,-1628.453072,4366.744339,-1332.370696
1294.691041,-4145.153275,2068.457845,-1406.391290
1294.691352,-8290.306550,612.876398,-1406.391290
1294.691664,-12139.377449,766.095498,-370.102971
1294.691975,-14730.098246,919.314598,1406.391290
1294.692286,-15692.365970,766.095498,3330.926739
1294.692598,-14063.912898,76.609550,3552.988522
1294.692909,-10214.842000,306.438199,3108.864956
1294.693220,-6439.791695,1532.190996,2294.638420
1294.693532,-3330.926739,3370.820191,666.185348
1294.693843,-1776.494261,5362.668486,-444.123565
1294.694154,-1776.494261,5132.839837,-2146.597232
1294.694466,-4811.338623,3140.991542,-1924.535449
1294.694777,-7772.162391,1149.143247,-888.247130
1294.695088,-10362.883188,0.000000,222.061783
1294.695400,-11917.315666,-1685.410096,888.247130
1294.695711,-12583.501014,-4136.915689,2294.638420
1294.696022,-12731.542202,-5898.935335,2072.576638
1294.696334,-11251.130318,-5898.935335,2072.576638
1294.696645,-10214.842000,-4596.572988,1036.288319
1294.696956,-9918.759623,-2451.505594,148.041188
1294.697268,-9844.739029,153.219100,-0.000000
1294.697579,-9400.615463,2451.505594,-518.144159
1294.697890,-9474.636058,2834.553343,-148.041188
1294.698202,-8882.471304,2451.505594,-370.102971
1294.698513,-8512.368333,842.705048,296.082377
1294.698824,-7920.203579,229.828649,-0.000000
1294.699136,-8364.327145,-536.266849,-0.000000
1294.699447,-9030.512492,-2221.676944,222.061783
1294.699758,-9918.759623,-3140.991542,444.123565
1294.700070,-11325.150913,-3370.820191,1184.329507
1294.700381,-12731.542202,-2451.505594,740.205942
1294.700692,-12361.439231,612.876398,296.082377
1294.701004,-10955.047942,2681.334243,-74.020594
1294.701315,-9252.574275,2911.162892,-814.226536
1294.701626,-7179.997637,3524.039291,-2220.617826
1294.701938,-5921.647536,3140.991542,-2516.700203
1294.702249,-5403.503377,2987.772442,-2220.617826
1294.702561,-6809.894666,2374.896044,-962.267725
1294.702872,-8438.347739,919.314598,518.144159
1294.703183,-10362.883188,-689.485948,1628.453072
1294.703495,-10658.965565,-1991.848295,3404.947333
1294.703806,-11399.171507,-1915.238745,3552.988522
1294.704117,-11843.295072,-1762.019645,3404.947333
1294.704429,-9474.636058,-1072.533697,2368.659014
1294.704740,-6365.771101,536.266849,148.041188
1294.705051,-5329.482782,1149.143247,-962.267725
1294.705363,-5995.668130,1991.848295,-1924.535449
1294.705674,-6291.750507,2604.724693,-2294.638420
1294.705985,-6143.709319,3447.429741,-1258.350101
1294.706297,-6735.874072,2451.505594,-0.000000
1294.706608,-7105.977043,766.095498,1406.391290
1294.706919,-8660.409521,-1225.752797,2738.761985
1294.707231,-8808.450710,-3600.648841,3478.967927
1294.707542,-8956.491898,-4136.915689,3330.926739
1294.707853,-9400.615463,-2604.724693,2442.679609
1294.708165,-10214.842000,-229.828649,370.102971
1294.708476,-10584.944971,229.828649,-518.144159
1294.708787,-10362.883188,1991.848295,-444.123565
1294.709099,-10214.842000,3140.991542,-518.144159
1294.709410,-8808.450710,3064.381992,-74.020594
1294.709721,-7920.203579,1455.581446,-148.041188
1294.710033,-6735.874072,-383.047749,1184.329507
1294.710344,-6143.709319,-1225.752797,1850.514855
1294.710656,-6809.894666,-4136.915689,1776.494261
1294.710967,-7994.224174,-3140.991542,1850.514855
1294.711279,-11473.192101,-2451.505594,1702.473667
1294.711590,-12805.562797,-612.876398,1406.391290
1294.711901,-13693.809927,306.438199,1110.308913
1294.712213,-13471.748144,919.314598,-0.000000
1294.712524,-11473.192101,1225.752797,-296.082377
1294.712836,-8808.450710,919.314598,-1332.370696
1294.713147,-6661.853478,1072.533697,-1776.494261
1294.713459,-5995.668130,766.095498,-1628.453072
1294.713770,-6957.935855,-229.828649,-1332.370696
1294.714082,-8512.368333,-919.314598,-0.000000
1294.714393,-9696.697840,-1072.533697,2368.659014
1294.714705,-11177.109724,-1608.800546,3108.864956
1294.715016,-11695.253884,-2451.505594,4441.235652
1294.715328,-10807.006753,-3140.991542,3256.906145
1294.715639,-9326.594869,-2298.286494,2072.576638
1294.715950,-7402.059420,-1072.533697,296.082377
1294.716262,-6809.894666,76.609550,-888.247130
1294.716573,-7179.997637,1685.410096,-2072.576638
1294.716885,-7920.203579,3140.991542,-2442.679609
1294.717196,-8142.265362,3677.258390,-1776.494261
1294.717508,-7846.182985,2911.162892,-740.205942
1294.717819,-8586.388927,1762.019645,148.041188
1294.718131,-7550.100608,-153.219100,740.205942
1294.718442,-5773.606348,-1455.581446,1702.473667
1294.718754,-6217.729913,-2068.457845,2072.576638
1294.719065,-7254.018232,-2298.286494,1258.350101
1294.719376,-9400.615463,-1072.533697,592.164754
1294.719688,-10732.986159,0.000000,518.144159
1294.719999,-11917.315666,1072.533697,666.185348
1294.720311,-12287.418637,1762.019645,666.185348
1294.720622,-10362.883188,1072.533697,-0.000000
1294.720934,-7402.059420,229.828649,-0.000000
1294.721245,-5699.585753,-1225.752797,-592.164754
1294.721557,-4589.276840,-1608.800546,-666.185348
1294.721868,-4737.318029,-1915.238745,-592.164754
1294.722180,-7105.977043,-2528.115143,296.082377
1294.722491,-9918.759623,-2374.896044,1258.350101
1294.722803,-12435.459826,-1302.362347,1110.308913
1294.723114,-14137.933492,76.609550,1332.370696
1294.723425,-13915.871710,0.000000,1406.391290
1294.723737,-12065.356855,229.828649,888.247130
1294.724048,-10436.903782,383.047749,-74.020594
1294.724360,-8438.347739,612.876398,-1332.370696
1294.724671,-6735.874072,1072.533697,-1924.535449
1294.724983,-7476.080014,1302.362347,-1628.453072
1294.725294,-8290.306550,1685.410096,-962.267725
1294.725606,-9178.553681,1072.533697,518.144159
1294.725917,-9326.594869,76.609550,1702.473667
1294.726229,-9992.780217,-995.924147,2812.782580
1294.726540,-10658.965565,-2221.676944,3330.926739
1294.726852,-8956.491898,-2145.067394,2442.679609
1294.727163,-8068.244768,-1915.238745,1332.370696
1294.727474,-8438.347739,-1532.190996,-0.000000
1294.727786,-8882.471304,-842.705048,-444.123565
1294.728097,-9400.615463,766.095498,-1036.288319
1294.728409,-9548.656652,1991.848295,-370.102971
1294.728720,-8586.388927,459.657299,-74.020594
1294.729032,-8364.327145,306.438199,-74.020594
1294.729343,-6661.853478,-612.876398,814.226536
1294.729655,-4959.379811,-1991.848295,1110.308913
1294.729966,-5181.441594,-2757.943793,1850.514855
1294.730278,-6735.874072,-2528.115143,1702.473667
1294.730589,-8512.368333,-1302.362347,1702.473667
1294.730901,-10362.883188,-459.657299,1480.411884
1294.731212,-11991.336260,1072.533697,1850.514855
1294.731523,-11991.336260,2221.676944,1776.494261
1294.731835,-10140.821405,1608.800546,1332.370696
1294.732146,-8142.265362,153.219100,592.164754
1294.732458,-4663.297435,-383.047749,-0.000000
1294.732769,-3775.050304,0.000000,-814.226536
1294.733081,-5403.503377,-689.485948,-666.185348
1294.733392,-7179.997637,-459.657299,-296.082377
1294.733704,-9252.574275,536.266849,148.041188
1294.734015,-10955.047942,1378.971896,962.267725
1294.734327,-12435.459826,1915.238745,888.247130
1294.734638,-12879.583391,1455.581446,1110.308913
1294.734950,-11547.212695,689.485948,888.247130
1294.735261,-8512.368333,306.438199,666.185348
1294.735572,-7105.977043,1072.533697,-518.144159
1294.735884,-7772.162391,229.828649,-1332.370696
1294.736195,-8808.450710,842.705048,-1628.453072
1294.736507,-9104.533087,1302.362347,-888.247130
1294.736818,-9622.677246,1991.848295,-0.000000
1294.737130,-9918.759623,1225.752797,1406.391290
1294.737441,-10066.800811,-2068.457845,1850.514855
1294.737753,-8290.306550,-2374.896044,2368.659014
1294.738064,-7254.018232,-2068.457845,1998.556043
1294.738376,-8364.327145,-1455.581446,888.247130
1294.738687,-9992.780217,-1072.533697,-74.020594
1294.738999,-10881.027347,-306.438199,-1036.288319
1294.739310,-10510.924376,919.314598,-666.185348
1294.739621,-9252.574275,1532.190996,-518.144159
1294.739933,-9104.533087,842.705048,-296.082377
1294.740244,-7624.121203,-766.095498,-148.041188
1294.740556,-6217.729913,-1991.848295,-74.020594
1294.740867,-5625.565159,-2451.505594,666.185348
1294.741179,-6735.874072,-2528.115143,740.205942
1294.741490,-9030.512492,-2298.286494,1184.329507
1294.741802,-10807.006753,-1762.019645,1554.432478
1294.742113,-11843.295072,-842.705048,1702.473667
1294.742425,-11325.150913,153.219100,2072.576638
1294.742736,-11103.089130,0.000000,1554.432478
1294.743047,-10436.903782,-459.657299,1776.494261
1294.743359,-7476.080014,-1149.143247,1184.329507
1294.743670,-5033.400406,-919.314598,-0.000000
1294.743982,-4515.256246,0.000000,-888.247130
1294.744293,-6143.709319,153.219100,-1850.514855
1294.744605,-7550.100608,612.876398,-814.226536
1294.744916,-9178.553681,689.485948,-518.144159
1294.745228,-11251.130318,383.047749,296.082377
1294.745539,-12435.459826,536.266849,1332.370696
1294.745851,-12065.356855,0.000000,1776.494261
1294.746162,-10584.944971,-536.266849,1850.514855
1294.746474,-8660.409521,-842.705048,1258.350101
1294.746785,-7328.038826,-459.657299,444.123565
1294.747096,-8068.244768,153.219100,-592.164754
1294.747408,-8216.285956,1225.752797,-296.082377
1294.747719,-8586.388927,2068.457845,-222.061783
1294.748031,-9104.533087,995.924147,370.102971
1294.748342,-9252.574275,229.828649,1036.288319
1294.748654,-9474.636058,-995.924147,740.205942
1294.748965,-8438.347739,-1225.752797,1332.370696
1294.749277,-7846.182985,-1302.362347,1406.391290
1294.749588,-9030.512492,-1072.533697,518.144159
1294.749900,-9622.677246,-1072.533697,518.144159
1294.750211,-10066.800811,-229.828649,592.164754
1294.750523,-9548.656652,842.705048,962.267725
1294.750834,-8660.409521,919.314598,222.061783
1294.751145,-8438.347739,459.657299,-74.020594
1294.751457,-7254.018232,0.000000,-444.123565
1294.751768,-5403.503377,919.314598,-814.226536
1294.752080,-4737.318029,-612.876398,-444.123565
1294.752391,-6735.874072,-1149.143247,-222.061783
1294.752703,-9918.759623,-995.924147,296.082377
1294.753014,-11843.295072,0.000000,592.164754
1294.753326,-12509.480420,995.924147,1554.432478
1294.753637,-12731.542202,1455.581446,1850.514855
1294.753949,-10955.047942,612.876398,2294.638420
1294.754260,-9030.512492,-612.876398,1702.473667
1294.754572,-6217.729913,-1378.971896,1184.329507
1294.754883,-4663.297435,-1149.143247,-0.000000
1294.755194,-5847.626942,-1149.143247,-962.267725
1294.755506,-7846.182985,-612.876398,-1258.350101
1294.755817,-9474.636058,536.266849,-1406.391290
1294.756129,-10362.883188,1762.019645,-666.185348
1294.756440,-11399.171507,1991.848295,74.020594
1294.756752,-12213.398043,306.438199,888.247130
1294.757063,-10955.047942,-536.266849,1776.494261
1294.757375,-8808.450710,0.000000,1702.473667
1294.757686,-7402.059420,-536.266849,1258.350101
1294.757998,-7402.059420,-229.828649,444.123565
1294.758309,-8068.244768,383.047749,-148.041188
1294.758621,-8290.306550,766.095498,-296.082377
1294.758932,-8956.491898,1991.848295,-592.164754
1294.759243,-9474.636058,2068.457845,222.061783
1294.759555,-9622.677246,1302.362347,814.226536
1294.759866,-9178.553681,0.000000,1184.329507
1294.760178,-7846.182985,-995.924147,1628.453072
1294.760489,-7179.997637,-536.266849,1110.308913
1294.760801,-8216.285956,-229.828649,740.205942
1294.761112,-9252.574275,0.000000,592.164754
1294.761424,-9622.677246,1225.752797,-0.000000
1294.761735,-9030.512492,2145.067394,-0.000000
1294.762047,-8438.347739,2528.115143,518.144159
1294.762358,-9178.553681,842.705048,-0.000000
1294.762670,-7105.977043,-229.828649,-0.000000
1294.762981,-5551.544565,-919.314598,-222.061783
1294.763292,-5847.626942,-1072.533697,-74.020594
1294.763604,-8142.265362,-919.314598,-74.020594
1294.763915,-10658.965565,-536.266849,592.164754
1294.764227,-11991.336260,306.438199,1554.432478
1294.764538,-11325.150913,842.705048,2590.720797
1294.764850,-10881.027347,1378.971896,2368.659014
1294.765161,-10362.883188,229.828649,2368.659014
1294.765473,-8438.347739,-919.314598,2072.576638
1294.765784,-5551.544565,-1915.238745,1480.411884
1294.766096,-4811.338623,-1608.800546,-0.000000
1294.766407,-5921.647536,-459.657299,-740.205942
1294.766718,-7254.018232,766.095498,-1850.514855
1294.767030,-9030.512492,766.095498,-1406.391290
1294.767341,-10658.965565,1072.533697,-296.082377
1294.767653,-11917.315666,689.485948,740.205942
1294.767964,-12509.480420,0.000000,1554.432478
1294.768276,-11177.109724,-1149.143247,2220.617826
1294.768587,-9030.512492,-2145.067394,1776.494261
1294.768899,-7105.977043,-1225.752797,1332.370696
1294.769210,-6809.894666,-536.266849,222.061783
1294.769522,-7698.141797,-153.219100,-148.041188
1294.769833,-8882.471304,1149.143247,-370.102971
1294.770145,-9992.780217,1685.410096,-0.000000
1294.770456,-10436.903782,1455.581446,296.082377
1294.770767,-10066.800811,459.657299,962.267725
1294.771079,-9030.512492,-689.485948,962.267725
1294.771390,-7994.224174,-1302.362347,814.226536
1294.771702,-7031.956449,-1149.143247,592.164754
1294.772013,-7994.224174,-689.485948,888.247130
1294.772325,-9622.677246,-229.828649,592.164754
1294.772636,-9844.739029,229.828649,518.144159
1294.772948,-9252.574275,995.924147,888.247130
1294.773259,-9252.574275,766.095498,592.164754
1294.773571,-8734.430116,0.000000,-0.000000
1294.773882,-8216.285956,0.000000,370.102971
1294.774194,-6957.935855,-1149.143247,-222.061783
1294.774505,-6809.894666,0.000000,-518.144159
1294.774816,-8734.430116,153.219100,-592.164754
1294.775128,-10658.965565,459.657299,-0.000000
1294.775439,-11177.109724,689.485948,888.247130
1294.775751,-11251.130318,1378.971896,1628.453072
1294.776062,-9992.780217,1608.800546,2368.659014
1294.776374,-9400.615463,76.609550,2072.576638
1294.776685,-7550.100608,-1225.752797,1924.535449
1294.776997,-5847.626942,-1455.581446,1110.308913
1294.777308,-4811.338623,-1072.533697,-0.000000
1294.777620,-6365.771101,-383.047749,-1184.329507
1294.777931,-8660.409521,459.657299,-1776.494261
1294.778243,-9622.677246,842.705048,-1184.329507
1294.778554,-10732.986159,1838.629195,-296.082377
1294.778865,-11399.171507,153.219100,1036.288319
1294.779177,-11769.274478,0.000000,1258.350101
1294.779488,-10436.903782,-612.876398,1776.494261
1294.779800,-7254.018232,-766.095498,1850.514855
1294.780111,-6069.688724,-689.485948,666.185348
1294.780423,-6883.915261,-689.485948,-296.082377
1294.780734,-7920.203579,0.000000,-814.226536
1294.781046,-8734.430116,766.095498,-370.102971
1294.781357,-9326.594869,1302.362347,148.041188
1294.781669,-10140.821405,306.438199,888.247130
1294.781980,-10436.903782,-1532.190996,1110.308913
1294.782292,-9326.594869,-1915.238745,1406.391290
1294.782603,-7846.182985,-2068.457845,1184.329507
1294.782914,-8216.285956,-1455.581446,444.123565
1294.783226,-9548.656652,-229.828649,-518.144159
1294.783537,-9918.759623,995.924147,-370.102971
1294.783849,-10436.903782,1685.410096,-518.144159
1294.784160,-9622.677246,1685.410096,-0.000000
1294.784472,-9918.759623,766.095498,-0.000000
1294.784783,-8586.388927,0.000000,222.061783
1294.785095,-7179.997637,-919.314598,-74.020594
1294.785406,-6957.935855,-919.314598,-0.000000
1294.785718,-7846.182985,-1225.752797,-444.123565
1294.786029,-9696.697840,-1225.752797,222.061783
1294.786341,-12287.418637,0.000000,444.123565
1294.786652,-12139.377449,536.266849,1406.391290
1294.786963,-11251.130318,1225.752797,1850.514855
1294.787275,-10362.883188,0.000000,2220.617826
1294.787586,-8216.285956,-919.314598,2294.638420
1294.787898,-5773.606348,-842.705048,1776.494261
1294.788209,-4293.194464,-766.095498,370.102971
1294.788521,-4959.379811,-306.438199,-296.082377
1294.788832,-6957.935855,76.609550,-1184.329507
1294.789144,-9178.553681,919.314598,-814.226536
1294.789455,-10140.821405,1991.848295,-518.144159
1294.789767,-11029.068536,1685.410096,148.041188
1294.790078,-12065.356855,612.876398,1406.391290
1294.790389,-11325.150913,0.000000,1998.556043
1294.790701,-8882.471304,-612.876398,2294.638420
1294.791012,-6513.812290,-1302.362347,1554.432478
1294.791324,-5699.585753,-1149.143247,888.247130
1294.791635,-6809.894666,-766.095498,296.082377
1294.791947,-8068.244768,459.657299,-0.000000
1294.792258,-8586.388927,2145.067394,-0.000000
1294.792570,-9696.697840,1532.190996,148.041188
1294.792881,-10584.944971,842.705048,814.226536
1294.793193,-10510.924376,-612.876398,888.247130
1294.793504,-9474.636058,-1378.971896,740.205942
1294.793816,-8068.244768,-459.657299,740.205942
1294.794127,-8512.368333,-383.047749,814.226536
1294.794438,-8808.450710,-612.876398,-0.000000
1294.794750,-9548.656652,-306.438199,-0.000000
1294.795061,-9252.574275,76.609550,814.226536
1294.795373,-8882.471304,459.657299,296.082377
1294.795684,-9252.574275,306.438199,370.102971
1294.795996,-8290.306550,-536.266849,-0.000000
1294.796307,-7550.100608,-1915.238745,-222.061783
1294.796619,-7328.038826,-1762.019645,-370.102971
1294.796930,-7920.203579,-689.485948,-0.000000
1294.797242,-10362.883188,-459.657299,444.123565
1294.797553,-11843.295072,-306.438199,666.185348
1294.797865,-12139.377449,766.095498,1406.391290
1294.798176,-10288.862594,766.095498,1924.535449
1294.798487,-8882.471304,0.000000,1628.453072
1294.798799,-7920.203579,-1302.362347,1924.535449
1294.799110,-5921.647536,-2298.286494,1332.370696
1294.799422,-4959.379811,-2221.676944,-0.000000
1294.799733,-6513.812290,-1532.190996,-740.205942
1294.800045,-8734.430116,-536.266849,-1480.411884
1294.800356,-10807.006753,919.314598,-1480.411884
1294.800668,-11325.150913,1378.971896,-740.205942
1294.800979,-11917.315666,1072.533697,-0.000000
1294.801291,-12065.356855,153.219100,1332.370696
1294.801602,-10214.842000,-383.047749,2072.576638
1294.801914,-7846.182985,-1762.019645,2220.617826
1294.802225,-5773.606348,-1838.629195,1924.535449
1294.802536,-5625.565159,-1072.533697,-0.000000
1294.802848,-6291.750507,383.047749,-740.205942
1294.803159,-7846.182985,842.705048,-1184.329507
1294.803471,-9252.574275,1532.190996,-444.123565
1294.803782,-11177.109724,1302.362347,296.082377
1294.804094,-12139.377449,306.438199,1184.329507
1294.804405,-11103.089130,-995.924147,2294.638420
1294.804717,-9770.718434,-2068.457845,2146.597232
1294.805028,-7550.100608,-1532.190996,1332.370696
1294.805340,-7031.956449,-1072.533697,-74.020594
1294.805651,-7698.141797,229.828649,-370.102971
1294.805963,-7105.977043,1072.533697,-370.102971
1294.806274,-7994.224174,1302.362347,-222.061783
1294.806585,-9400.615463,689.485948,148.041188
1294.806897,-9548.656652,76.609550,444.123565
1294.807208,-8734.430116,-306.438199,-148.041188
1294.807520,-7254.018232,-383.047749,-296.082377
1294.807831,-6883.915261,-1378.971896,-0.000000
1294.808143,-8660.409521,-1762.019645,370.102971
1294.808454,-10658.965565,-919.314598,740.205942
1294.808766,-11399.171507,383.047749,1184.329507
1294.809077,-11917.315666,995.924147,1628.453072
1294.809389,-11177.109724,306.438199,2220.617826
1294.809700,-9548.656652,-1149.143247,2590.720797
1294.810011,-7254.018232,-2451.505594,1776.494261
1294.810323,-4959.379811,-1378.971896,1258.350101
1294.810634,-5551.544565,-1149.143247,-518.144159
1294.810946,-7105.977043,0.000000,-1332.370696
1294.811257,-9252.574275,459.657299,-1332.370696
1294.811568,-10214.842000,1455.581446,-814.226536
1294.811880,-11251.130318,1991.848295,-74.020594
1294.812191,-11843.295072,1838.629195,592.164754
1294.812502,-11251.130318,919.314598,1480.411884
1294.812814,-8438.347739,-153.219100,1480.411884
1294.813125,-6513.812290,-842.705048,1628.453072
1294.813437,-5699.585753,-1149.143247,888.247130
1294.813748,-6809.894666,-536.266849,-222.061783
1294.814059,-8882.471304,612.876398,-1036.288319
1294.814371,-9770.718434,2374.896044,-1184.329507
1294.814682,-11103.089130,2145.067394,-814.226536
1294.814994,-11917.315666,1532.190996,814.226536
1294.815305,-10732.986159,0.000000,1628.453072
1294.815616,-9178.553681,-1378.971896,1702.473667
1294.815928,-6957.935855,-1608.800546,2294.638420
1294.816239,-6587.832884,-1225.752797,1036.288319
1294.816550,-7105.977043,-383.047749,444.123565
1294.816862,-8364.327145,0.000000,-148.041188
1294.817173,-8808.450710,1455.581446,-296.082377
1294.817485,-9178.553681,1762.019645,-0.000000
1294.817796,-10362.883188,1149.143247,-814.226536
1294.818107,-9548.656652,229.828649,444.123565
1294.818419,-8734.430116,-612.876398,-74.020594
1294.818730,-7698.141797,-536.266849,-0.000000
1294.819041,-7994.224174,-306.438199,-74.020594
1294.819353,-9178.553681,229.828649,296.082377
1294.819664,-9696.697840,766.095498,518.144159
1294.819976,-9770.718434,1072.533697,1184.329507
1294.820287,-9770.718434,612.876398,1850.514855
1294.820598,-9622.677246,-536.266849,2220.617826
1294.820910,-8734.430116,-1378.971896,2146.597232
1294.821221,-7105.977043,-1915.238745,1628.453072
1294.821533,-6513.812290,-1838.629195,296.082377
1294.821844,-7179.997637,-995.924147,-1036.288319
1294.822155,-8290.306550,306.438199,-1480.411884
1294.822467,-10436.903782,383.047749,-1406.391290
1294.822778,-10732.986159,1685.410096,-0.000000
1294.823089,-11103.089130,1685.410096,1406.391290
1294.823401,-11325.150913,536.266849,1850.514855
1294.823712,-9992.780217,-766.095498,2294.638420
1294.824024,-7476.080014,-1225.752797,1776.494261
1294.824335,-5403.503377,-1072.533697,962.267725
1294.824646,-5625.565159,-919.314598,-592.164754
1294.824958,-7698.141797,153.219100,-888.247130
1294.825269,-9474.636058,229.828649,-962.267725
1294.825580,-10807.006753,842.705048,-0.000000
1294.825892,-11769.274478,842.705048,592.164754
1294.826203,-11399.171507,459.657299,2072.576638
1294.826515,-10066.800811,-1149.143247,2146.597232
1294.826826,-7920.203579,-1915.238745,1924.535449
1294.827137,-5699.585753,-842.705048,1998.556043
1294.827449,-5551.544565,-383.047749,518.144159
1294.827760,-6957.935855,459.657299,-296.082377
1294.828072,-8290.306550,536.266849,-370.102971
1294.828383,-9252.574275,1225.752797,-222.061783
1294.828694,-9992.780217,1072.533697,-0.000000
1294.829006,-10510.924376,536.266849,370.102971
1294.829317,-9844.739029,-612.876398,296.082377
1294.829628,-7994.224174,-536.266849,148.041188
1294.829940,-7994.224174,-842.705048,148.041188
1294.830251,-8512.368333,-689.485948,-148.041188
1294.830563,-9252.574275,0.000000,592.164754
1294.830874,-10214.842000,153.219100,962.267725
1294.831185,-9770.718434,229.828649,1776.494261
1294.831497,-9696.697840,153.219100,1924.535449
1294.831808,-8882.471304,-536.266849,1702.473667
1294.832119,-7698.141797,-995.924147,962.267725
1294.832431,-7254.018232,-1991.848295,740.205942
1294.832742,-7031.956449,-2221.676944,74.020594
1294.833054,-8142.265362,-536.266849,-888.247130
1294.833365,-9622.677246,383.047749,-1406.391290
1294.833676,-10807.006753,1532.190996,-518.144159
1294.833988,-10436.903782,1915.238745,-0.000000
1294.834299,-10214.842000,1225.752797,296.082377
1294.834611,-9696.697840,842.705048,1628.453072
1294.834922,-8586.388927,-536.266849,1406.391290
1294.835233,-7031.956449,-689.485948,1406.391290
1294.835545,-6365.771101,-766.095498,-0.000000
1294.835856,-7105.977043,-766.095498,-666.185348
1294.836167,-8956.491898,-153.219100,-1406.391290
1294.836479,-10807.006753,842.705048,-888.247130
1294.836790,-11177.109724,1762.019645,-518.144159
1294.837102,-11399.171507,1608.800546,592.164754
1294.837413,-11325.150913,0.000000,1850.514855
1294.837724,-9622.677246,-459.657299,2220.617826
1294.838036,-7254.018232,-1225.752797,1776.494261
1294.838347,-5995.668130,-995.924147,962.267725
1294.838658,-6661.853478,0.000000,-222.061783
1294.838970,-7846.182985,995.924147,-1110.308913
1294.839281,-8808.450710,1455.581446,-1110.308913
1294.839593,-9474.636058,1378.971896,-518.144159
1294.839904,-9770.718434,612.876398,148.041188
1294.840215,-11103.089130,-76.609550,370.102971
1294.840527,-10436.903782,0.000000,740.205942
1294.840838,-8290.306550,-842.705048,814.226536
1294.841150,-7105.977043,-612.876398,888.247130
1294.841461,-7476.080014,-842.705048,518.144159
1294.841772,-8808.450710,-612.876398,-0.000000
1294.842084,-9474.636058,383.047749,740.205942
1294.842395,-10288.862594,1838.629195,1332.370696
1294.842706,-10214.842000,1838.629195,1184.329507
1294.843018,-9918.759623,229.828649,1406.391290
1294.843329,-8586.388927,-1225.752797,1036.288319
1294.843641,-6883.915261,-1378.971896,592.164754
1294.843952,-6735.874072,-612.876398,-592.164754
1294.844263,-7402.059420,-229.828649,-1110.308913
1294.844575,-8956.491898,153.219100,-962.267725
1294.844886,-10140.821405,919.314598,-0.000000
1294.845197,-10510.924376,1762.019645,666.185348
1294.845509,-10584.944971,1149.143247,1184.329507
1294.845820,-9770.718434,76.609550,1332.370696
1294.846132,-7624.121203,-153.219100,1406.391290
1294.846443,-5255.462188,-689.485948,1110.308913
1294.846754,-5551.544565,-1225.752797,-0.000000
1294.847066,-7254.018232,-1608.800546,296.082377
1294.847377,-9918.759623,-1072.533697,-0.000000
1294.847689,-10807.006753,0.000000,518.144159
1294.848000,-12287.418637,612.876398,1036.288319
1294.848311,-12731.542202,76.609550,2220.617826
1294.848623,-10955.047942,-1225.752797,2664.741391
1294.848934,-8512.368333,-2757.943793,2960.823768
1294.849245,-6143.709319,-1608.800546,2146.597232
1294.849557,-5773.606348,-766.095498,296.082377
1294.849868,-6661.853478,0.000000,-444.123565
1294.850180,-7698.141797,1072.533697,-1036.288319
1294.850491,-8512.368333,1149.143247,-1036.288319
1294.850802,-9770.718434,1532.190996,-148.041188
1294.851114,-11103.089130,689.485948,296.082377
1294.851425,-10807.006753,-306.438199,888.247130
1294.851736,-9992.780217,-612.876398,1036.288319
1294.852048,-7994.224174,-1608.800546,1110.308913
1294.852359,-7179.997637,-1072.533697,592.164754
1294.852671,-8512.368333,-536.266849,-222.061783
1294.852982,-9918.759623,306.438199,-74.020594
1294.853293,-10510.924376,1608.800546,296.082377
1294.853605,-11103.089130,1378.971896,666.185348
1294.853916,-10140.821405,459.657299,1924.535449
1294.854228,-9252.574275,-1762.019645,1850.514855
1294.854539,-7476.080014,-2757.943793,2072.576638
1294.854850,-5847.626942,-2681.334243,1184.329507
1294.855162,-6809.894666,-1991.848295,296.082377
1294.855473,-8364.327145,-229.828649,-740.205942
1294.855784,-9104.533087,1072.533697,-1406.391290
1294.856096,-9696.697840,2987.772442,-74.020594
1294.856407,-9770.718434,1838.629195,666.185348
1294.856719,-10140.821405,1225.752797,962.267725
1294.857030,-9030.512492,842.705048,740.205942
1294.857341,-7031.956449,0.000000,814.226536
1294.857653,-5625.565159,-995.924147,370.102971
1294.857964,-5181.441594,-995.924147,-444.123565
1294.858275,-7920.203579,-766.095498,-740.205942
1294.858587,-9474.636058,0.000000,-814.226536
1294.858898,-10807.006753,842.705048,444.123565
1294.859210,-11843.295072,1455.581446,1554.432478
1294.859521,-11991.336260,689.485948,2368.659014
1294.859832,-10140.821405,-1225.752797,2738.761985
1294.860144,-7698.141797,-2298.286494,2368.659014
1294.860455,-5551.544565,-2068.457845,962.267725
1294.860767,-5699.585753,-1838.629195,-666.185348
1294.861078,-6883.915261,-383.047749,-1998.556043
1294.861389,-8364.327145,1072.533697,-1776.494261
1294.861701,-10288.862594,919.314598,-1184.329507
1294.862012,-11547.212695,0.000000,296.082377
1294.862323,-12287.418637,-919.314598,1184.329507
1294.862635,-11177.109724,-766.095498,1628.453072
1294.862946,-8808.450710,-995.924147,1480.411884
1294.863258,-7550.100608,-919.314598,740.205942
1294.863569,-7105.977043,-1838.629195,222.061783
1294.863880,-8216.285956,0.000000,-592.164754
1294.864192,-9474.636058,689.485948,-296.082377
1294.864503,-10584.944971,1685.410096,148.041188
1294.864814,-10955.047942,1072.533697,888.247130
1294.865126,-10807.006753,-995.924147,1554.432478
1294.865437,-9548.656652,-2068.457845,1628.453072
1294.865749,-7920.203579,-2298.286494,1480.411884
1294.866060,-7328.038826,-995.924147,962.267725
1294.866371,-7402.059420,-612.876398,-148.041188
1294.866683,-8364.327145,153.219100,-370.102971
1294.866994,-9326.594869,1225.752797,-0.000000
1294.867306,-9178.553681,1915.238745,592.164754
1294.867617,-9474.636058,1991.848295,888.247130
1294.867928,-9474.636058,842.705048,666.185348
1294.868240,-8290.306550,-459.657299,148.041188
1294.868551,-6957.935855,-153.219100,148.041188
1294.868862,-6439.791695,-536.266849,-74.020594
1294.869174,-7179.997637,-229.828649,-222.061783
1294.869485,-8882.471304,-459.657299,148.041188
1294.869797,-11177.109724,0.000000,592.164754
1294.870108,-12139.377449,689.485948,1332.370696
1294.870419,-10658.965565,2451.505594,1850.514855
1294.870731,-9622.677246,2068.457845,1998.556043
1294.871042,-8068.244768,153.219100,1850.514855
1294.871353,-5255.462188,-995.924147,1554.432478
1294.871665,-4811.338623,-1302.362347,296.082377
1294.871976,-5625.565159,-536.266849,-0.000000
1294.872288,-7846.182985,383.047749,-1406.391290
1294.872599,-9992.780217,1302.362347,-1850.514855
1294.872910,-10214.842000,1685.410096,-814.226536
1294.873222,-11473.192101,1302.362347,-370.102971
1294.873533,-11547.212695,306.438199,444.123565
1294.873845,-10881.027347,-306.438199,1332.370696
1294.874156,-8808.450710,-842.705048,1628.453072
1294.874467,-7105.977043,-1225.752797,1480.411884
1294.874779,-7105.977043,-1532.190996,666.185348
1294.875090,-7550.100608,-842.705048,296.082377
1294.875401,-8512.368333,0.000000,-148.041188
1294.875713,-9474.636058,766.095498,370.102971
1294.876024,-9918.759623,536.266849,888.247130
1294.876336,-10955.047942,-1149.143247,1702.473667
1294.876647,-10436.903782,-2911.162892,2072.576638
1294.876958,-9178.553681,-3140.991542,1924.535449
1294.877270,-7772.162391,-1838.629195,592.164754
1294.877581,-7476.080014,-766.095498,-222.061783
1294.877892,-8734.430116,-383.047749,-740.205942
1294.878204,-9030.512492,459.657299,-296.082377
1294.878515,-9252.574275,1378.971896,222.061783
1294.878827,-9770.718434,1072.533697,962.267725
1294.879138,-8882.471304,229.828649,962.267725
1294.879449,-8660.409521,-1072.533697,888.247130
1294.879761,-6661.853478,-1302.362347,296.082377
1294.880072,-6439.791695,-842.705048,-222.061783
1294.880384,-8660.409521,-229.828649,-222.061783
1294.880695,-10436.903782,-153.219100,-0.000000
1294.881006,-11769.274478,536.266849,592.164754
1294.881318,-11917.315666,1225.752797,1554.432478
1294.881629,-10658.965565,1685.410096,2368.659014
1294.881940,-9400.615463,612.876398,1998.556043
1294.882252,-6735.874072,-306.438199,1850.514855
1294.882563,-5181.441594,-383.047749,1258.350101
1294.882875,-5033.400406,-1072.533697,148.041188
1294.883186,-7031.956449,229.828649,-1036.288319
1294.883497,-8956.491898,1149.143247,-1628.453072
1294.883809,-9548.656652,1378.971896,-1184.329507
1294.884120,-10436.903782,995.924147,-444.123565
1294.884431,-11177.109724,229.828649,666.185348
1294.884743,-11029.068536,76.609550,1110.308913
1294.885054,-9400.615463,-1149.143247,2146.597232
1294.885366,-7179.997637,-766.095498,1776.494261
1294.885677,-6217.729913,-1072.533697,1332.370696
1294.885988,-7031.956449,-919.314598,148.041188
1294.886300,-8290.306550,-306.438199,-74.020594
1294.886611,-8364.327145,383.047749,-222.061783
1294.886923,-9252.574275,459.657299,296.082377
1294.887234,-9474.636058,0.000000,1036.288319
1294.887545,-11103.089130,-1762.019645,1258.350101
1294.887857,-9548.656652,-3217.601092,2368.659014
1294.888168,-8660.409521,-2987.772442,1480.411884
1294.888479,-8068.244768,-1378.971896,592.164754
1294.888791,-8438.347739,0.000000,-296.082377
1294.889102,-9178.553681,766.095498,-740.205942
1294.889414,-8956.491898,1685.410096,-740.205942
1294.889725,-8512.368333,1838.629195,-0.000000
1294.890036,-8956.491898,995.924147,-0.000000
1294.890348,-9030.512492,-229.828649,296.082377
1294.890659,-8956.491898,-842.705048,-74.020594
1294.890970,-7698.141797,-995.924147,-370.102971
1294.891282,-7550.100608,-612.876398,-814.226536
1294.891593,-9844.739029,-536.266849,-518.144159
1294.891905,-11399.171507,-459.657299,-0.000000
1294.892216,-12213.398043,229.828649,888.247130
1294.892527,-11917.315666,1149.143247,2812.782580
1294.892839,-10658.965565,612.876398,2812.782580
1294.893150,-9104.533087,-153.219100,1850.514855
1294.893462,-6439.791695,-689.485948,1480.411884
1294.893773,-5625.565159,-536.266849,-444.123565
1294.894084,-6365.771101,-306.438199,-1332.370696
1294.894396,-8438.347739,76.609550,-2072.576638
1294.894707,-10510.924376,2068.457845,-2146.597232
1294.895018,-11029.068536,1991.848295,-962.267725
1294.895330,-11399.171507,1302.362347,-0.000000
1294.895641,-11029.068536,1149.143247,1480.411884
1294.895953,-9918.759623,766.095498,2072.576638
1294.896264,-7624.121203,459.657299,2072.576638
1294.896575,-5477.523971,766.095498,1776.494261
1294.896887,-5625.565159,383.047749,518.144159
1294.897198,-6069.688724,766.095498,-74.020594
1294.897509,-7772.162391,1149.143247,-666.185348
1294.897821,-9178.553681,1915.238745,-666.185348
1294.898132,-9548.656652,1608.800546,370.102971
1294.898444,-11029.068536,383.047749,1110.308913
1294.898755,-10584.944971,-1149.143247,2072.576638
1294.899066,-9474.636058,-2145.067394,2220.617826
1294.899378,-8068.244768,-1838.629195,1998.556043
1294.899689,-7105.977043,0.000000,1036.288319
1294.900001,-7550.100608,383.047749,-222.061783
1294.900312,-7624.121203,1225.752797,-0.000000
1294.900623,-8068.244768,1302.362347,1110.308913
1294.900935,-8882.471304,919.314598,1036.288319
1294.901246,-9326.594869,-229.828649,1332.370696
1294.901557,-8956.491898,-1225.752797,1036.288319
1294.901869,-7698.141797,-1915.238745,-74.020594
1294.902180,-7031.956449,-1225.752797,-222.061783
1294.902492,-8734.430116,-536.266849,-740.205942
1294.902803,-10732.986159,-842.705048,-222.061783
1294.903114,-11991.336260,0.000000,814.226536
1294.903426,-12509.480420,1225.752797,2146.597232
1294.903737,-11695.253884,1225.752797,2664.741391
1294.904048,-9770.718434,76.609550,2516.700203
1294.904360,-7402.059420,-919.314598,1998.556043
1294.904671,-4589.276840,-1608.800546,1184.329507
1294.904983,-5403.503377,-1991.848295,-888.247130
1294.905294,-7179.997637,-1378.971896,-1554.432478
1294.905605,-9474.636058,-306.438199,-1998.556043
1294.905917,-11103.089130,306.438199,-1702.473667
1294.906228,-11325.150913,612.876398,-222.061783
1294.906540,-12139.377449,0.000000,-0.000000
1294.906851,-12361.439231,842.705048,1332.370696
1294.907162,-10436.903782,-766.095498,2294.638420
1294.907474,-7476.080014,-153.219100,1480.411884
1294.907785,-5699.585753,0.000000,1184.329507
1294.908096,-6291.750507,0.000000,-0.000000
1294.908408,-7179.997637,76.609550,-814.226536
1294.908719,-8068.244768,995.924147,-814.226536
1294.909031,-9326.594869,1532.190996,-296.082377
1294.909342,-10362.883188,995.924147,148.041188
1294.909653,-11325.150913,-229.828649,444.123565
1294.909965,-10510.924376,-1991.848295,1850.514855
1294.910276,-9030.512492,-1991.848295,1776.494261
1294.910587,-8068.244768,-1302.362347,1628.453072
1294.910899,-7994.224174,0.000000,518.144159
1294.911210,-8290.306550,1378.971896,-222.061783
1294.911522,-7550.100608,1915.238745,666.185348
1294.911833,-8142.265362,2068.457845,148.041188
1294.912144,-8068.244768,1302.362347,296.082377
1294.912456,-8438.347739,459.657299,-0.000000
1294.912767,-7846.182985,-612.876398,-0.000000
1294.913079,-7254.018232,-1225.752797,-148.041188
1294.913390,-7105.977043,-612.876398,-0.000000
1294.913702,-8956.491898,-459.657299,-444.123565
1294.914013,-10510.924376,-842.705048,814.226536
1294.914324,-11325.150913,459.657299,1628.453072
1294.914636,-11177.109724,2145.067394,2072.576638
1294.914947,-10214.842000,995.924147,2960.823768
1294.915259,-9178.553681,153.219100,2368.659014
1294.915570,-6661.853478,-842.705048,1850.514855
1294.915882,-4515.256246,-1302.362347,222.061783
1294.916193,-4737.318029,-1225.752797,-592.164754
1294.916504,-6809.894666,-1302.362347,-1554.432478
1294.916816,-9474.636058,0.000000,-1850.514855
1294.917127,-10955.047942,0.000000,-1184.329507
1294.917439,-11177.109724,76.609550,296.082377
1294.917750,-12361.439231,76.609550,1110.308913
1294.918062,-12435.459826,-383.047749,1924.535449
1294.918373,-9844.739029,-229.828649,2072.576638
1294.918685,-7105.977043,-153.219100,1332.370696
1294.918996,-5699.585753,-383.047749,888.247130
1294.919307,-6809.894666,-766.095498,-370.102971
1294.919619,-8734.430116,-842.705048,-1036.288319
1294.919930,-9400.615463,0.000000,-740.205942
1294.920242,-10214.842000,919.314598,-444.123565
1294.920553,-11399.171507,229.828649,592.164754
1294.920865,-12065.356855,-1378.971896,1480.411884
1294.921176,-10658.965565,-2604.724693,2146.597232
1294.921487,-9548.656652,-2374.896044,1628.453072
1294.921799,-8290.306550,229.828649,1184.329507
1294.922110,-8364.327145,1685.410096,-0.000000
1294.922422,-8512.368333,2221.676944,-1110.308913
1294.922733,-7402.059420,2911.162892,-370.102971
1294.923045,-7402.059420,2757.943793,-666.185348
1294.923356,-7994.224174,2374.896044,-370.102971
1294.923668,-8808.450710,995.924147,-148.041188
1294.923979,-9252.574275,-612.876398,-444.123565
1294.924290,-7920.203579,-1072.533697,-0.000000
1294.924602,-8068.244768,-766.095498,-370.102971
1294.924913,-9696.697840,-689.485948,-74.020594
1294.925225,-10955.047942,0.000000,518.144159
1294.925536,-10732.986159,1149.143247,1554.432478
1294.925848,-9696.697840,2298.286494,2368.659014
1294.926159,-8660.409521,1149.143247,2516.700203
1294.926471,-7179.997637,-612.876398,1924.535449
1294.926782,-4811.338623,-1072.533697,1480.411884
1294.927093,-4071.132681,-1838.629195,-0.000000
1294.927405,-5107.421000,-689.485948,-1406.391290
1294.927716,-7994.224174,76.609550,-1998.556043
1294.928028,-10658.965565,229.828649,-2072.576638
1294.928339,-10732.986159,689.485948,-740.205942
1294.928651,-11325.150913,995.924147,518.144159
1294.928962,-12213.398043,153.219100,1850.514855
1294.929273,-11177.109724,-766.095498,1998.556043
1294.929585,-9178.553681,-995.924147,1850.514855
1294.929896,-6143.709319,-229.828649,1776.494261
1294.930208,-5921.647536,-689.485948,740.205942
1294.930519,-6513.812290,-1378.971896,-0.000000
1294.930831,-8364.327145,-995.924147,-222.061783
1294.931142,-9918.759623,-153.219100,-148.041188
1294.931454,-11325.150913,0.000000,1036.288319
1294.931765,-13397.727550,-995.924147,1702.473667
1294.932076,-12879.583391,-2145.067394,2590.720797
1294.932388,-11621.233289,-2681.334243,2220.617826
1294.932699,-9918.759623,-1608.800546,1924.535449
1294.933011,-8586.388927,306.438199,740.205942
1294.933322,-7994.224174,1608.800546,-740.205942
1294.933634,-8216.285956,2911.162892,-222.061783
1294.933945,-7328.038826,2221.676944,-0.000000
1294.934256,-7402.059420,1915.238745,-74.020594
1294.934568,-8142.265362,1072.533697,666.185348
1294.934879,-8290.306550,0.000000,148.041188
1294.935191,-7476.080014,-1225.752797,-0.000000
1294.935502,-7031.956449,-1685.410096,222.061783
1294.935814,-8068.244768,-1762.019645,-0.000000
1294.936125,-9770.718434,-1838.629195,592.164754
1294.936437,-11547.212695,-306.438199,1332.370696
1294.936748,-10658.965565,536.266849,2516.700203
1294.937059,-10140.821405,842.705048,2664.741391
1294.937371,-8808.450710,459.657299,2368.659014
1294.937682,-6587.832884,-536.266849,1924.535449
1294.937994,-4145.153275,-1302.362347,666.185348
1294.938305,-3775.050304,-995.924147,-444.123565
1294.938617,-5477.523971,-536.266849,-1554.432478
1294.938928,-7920.203579,76.609550,-1480.411884
1294.939239,-10362.883188,0.000000,-666.185348
1294.939551,-11399.171507,459.657299,666.185348
1294.939862,-11843.295072,919.314598,1036.288319
1294.940174,-11621.233289,459.657299,1554.432478
1294.940485,-9696.697840,0.000000,1480.411884
1294.940797,-6883.915261,0.000000,666.185348
1294.941108,-5107.421000,383.047749,-74.020594
1294.941420,-5551.544565,-153.219100,-888.247130
1294.941731,-6957.935855,-612.876398,-1332.370696
1294.942042,-9104.533087,-153.219100,-740.205942
1294.942354,-10955.047942,536.266849,-74.020594
1294.942665,-12583.501014,0.000000,444.123565
1294.942977,-13545.768739,-1532.190996,1406.391290
1294.943288,-12065.356855,-3140.991542,1924.535449
1294.943600,-10214.842000,-2757.943793,1258.350101
1294.943911,-9178.553681,-1991.848295,888.247130
1294.944222,-8808.450710,-766.095498,-148.041188
1294.944534,-9178.553681,689.485948,-962.267725
1294.944845,-8882.471304,1455.581446,-592.164754
1294.945157,-8364.327145,1608.800546,-666.185348
1294.945468,-9474.636058,919.314598,-296.082377
1294.945780,-9030.512492,153.219100,-444.123565
1294.946091,-8586.388927,-536.266849,-148.041188
1294.946403,-7920.203579,-1685.410096,-222.061783
1294.946714,-7920.203579,-1838.629195,-74.020594
1294.947025,-8956.491898,-1225.752797,-0.000000
1294.947337,-10214.842000,-919.314598,518.144159
1294.947648,-11029.068536,0.000000,1628.453072
1294.947960,-10658.965565,766.095498,2220.617826
1294.948271,-10510.924376,766.095498,2368.659014
1294.948583,-8586.388927,842.705048,1998.556043
1294.948894,-6513.812290,229.828649,1406.391290
1294.949206,-4737.318029,-76.609550,370.102971
1294.949517,-4811.338623,-689.485948,-666.185348
1294.949828,-6365.771101,229.828649,-1258.350101
1294.950140,-8216.285956,1225.752797,-888.247130
1294.950451,-10214.842000,1149.143247,-0.000000
1294.950763,-10732.986159,919.314598,1184.329507
1294.951074,-11029.068536,459.657299,1480.411884
1294.951386,-10436.903782,153.219100,2368.659014
1294.951697,-7698.141797,0.000000,2146.597232
1294.952008,-5625.565159,229.828649,1036.288319
1294.952320,-5329.482782,0.000000,-0.000000
1294.952631,-6143.709319,-383.047749,-740.205942
1294.952943,-8364.327145,306.438199,-1554.432478
1294.953254,-9400.615463,1838.629195,-0.000000
1294.953566,-10881.027347,1532.190996,222.061783
1294.953877,-12287.418637,-383.047749,1776.494261
1294.954189,-11917.315666,-1378.971896,2812.782580
1294.954500,-10510.924376,-1915.238745,2738.761985
1294.954811,-8216.285956,-1225.752797,2368.659014
1294.955123,-6809.894666,0.000000,814.226536
1294.955434,-7402.059420,0.000000,-296.082377
1294.955746,-7920.203579,1302.362347,-1332.370696
1294.956057,-8438.347739,2681.334243,-740.205942
1294.956369,-9622.677246,2451.505594,-370.102971
1294.956680,-9992.780217,1838.629195,-0.000000
1294.956991,-9770.718434,306.438199,296.082377
1294.957303,-8586.388927,-919.314598,-0.000000
1294.957614,-7179.997637,-1378.971896,-0.000000
1294.957926,-7550.100608,-766.095498,-74.020594
1294.958237,-8882.471304,-1072.533697,-0.000000
1294.958549,-10658.965565,-383.047749,1036.288319
1294.958860,-11325.150913,766.095498,1258.350101
1294.959172,-11251.130318,919.314598,1702.473667
1294.959483,-10066.800811,689.485948,1776.494261
1294.959794,-8216.285956,-153.219100,1850.514855
1294.960106,-6661.853478,-2068.457845,-0.000000
1294.960417,-6069.688724,-2145.067394,-444.123565
1294.960729,-7031.956449,-2451.505594,-740.205942
1294.961040,-8956.491898,-1762.019645,-1036.288319
1294.961352,-10807.006753,-919.314598,-592.164754
1294.961663,-11547.212695,-919.314598,222.061783
1294.961974,-11325.150913,-306.438199,1184.329507
1294.962286,-10510.924376,-766.095498,1406.391290
1294.962597,-9178.553681,0.000000,1702.473667
1294.962909,-7105.977043,-1149.143247,2294.638420
1294.963220,-5625.565159,-1762.019645,1480.411884
1294.963532,-6069.688724,-689.485948,-0.000000
1294.963843,-7328.038826,153.219100,-1110.308913
1294.964155,-8734.430116,919.314598,-1406.391290
1294.964466,-10214.842000,1532.190996,-666.185348
1294.964777,-11473.192101,1302.362347,148.041188
1294.965089,-11769.274478,153.219100,1776.494261
1294.965400,-11399.171507,-1532.190996,2442.679609
1294.965712,-9326.594869,-2604.724693,2886.803174
1294.966023,-7476.080014,-1991.848295,1850.514855
1294.966335,-6143.709319,-153.219100,444.123565
1294.966646,-6735.874072,689.485948,-666.185348
1294.966958,-7105.977043,2145.067394,-888.247130
1294.967269,-7772.162391,2757.943793,-740.205942
1294.967580,-9844.739029,1991.848295,-518.144159
1294.967892,-10510.924376,1225.752797,814.226536
1294.968203,-10584.944971,459.657299,222.061783
1294.968515,-9326.594869,-229.828649,-0.000000
1294.968826,-7994.224174,-612.876398,370.102971
1294.969138,-7698.141797,-995.924147,518.144159
1294.969449,-8808.450710,-689.485948,222.061783
1294.969760,-10140.821405,306.438199,1110.308913
1294.970072,-9844.739029,1378.971896,1702.473667
1294.970383,-10732.986159,1915.238745,2072.576638
1294.970695,-9474.636058,766.095498,2220.617826
1294.971006,-7179.997637,-536.266849,1406.391290
1294.971318,-6217.729913,-1225.752797,518.144159
1294.971629,-5551.544565,-1302.362347,-148.041188
1294.971941,-7105.977043,-536.266849,-1924.535449
1294.972252,-9252.574275,-689.485948,-1480.411884
1294.972563,-10510.924376,-229.828649,-444.123565
1294.972875,-10732.986159,0.000000,1036.288319
1294.973186,-10955.047942,536.266849,1702.473667
1294.973498,-10436.903782,-459.657299,1998.556043
1294.973809,-8364.327145,-1149.143247,1406.391290
1294.974121,-6439.791695,-689.485948,1036.288319
1294.974432,-5329.482782,-153.219100,444.123565
1294.974743,-6439.791695,-1072.533697,-370.102971
1294.975055,-9252.574275,-995.924147,-666.185348
1294.975366,-10881.027347,-383.047749,-222.061783
1294.975678,-11473.192101,536.266849,-0.000000
1294.975989,-11917.315666,383.047749,1184.329507
1294.976301,-11695.253884,-689.485948,2220.617826
1294.976612,-10584.944971,-2451.505594,2368.659014
1294.976924,-7920.203579,-2604.724693,2368.659014
1294.977235,-5699.585753,-995.924147,1850.514855
1294.977546,-6217.729913,1072.533697,-518.144159
1294.977858,-7698.141797,1149.143247,-1628.453072
1294.978169,-8808.450710,1685.410096,-1258.350101
1294.978481,-9474.636058,2298.286494,-1110.308913
1294.978792,-10584.944971,2298.286494,-222.061783
1294.979104,-11325.150913,842.705048,-0.000000
1294.979415,-10510.924376,0.000000,148.041188
1294.979726,-9030.512492,-306.438199,296.082377
1294.980038,-7402.059420,-536.266849,592.164754
1294.980349,-7550.100608,-229.828649,296.082377
1294.980661,-9104.533087,153.219100,592.164754
1294.980972,-10066.800811,1762.019645,1184.329507
1294.981284,-9548.656652,1762.019645,1850.514855
1294.981595,-9030.512492,1149.143247,1332.370696
1294.981907,-8586.388927,612.876398,1332.370696
1294.982218,-7105.977043,-153.219100,-0.000000
1294.982529,-5847.626942,-306.438199,-370.102971
1294.982841,-6587.832884,0.000000,-740.205942
1294.983152,-8290.306550,306.438199,-592.164754
1294.983464,-10066.800811,306.438199,-518.144159
1294.983775,-10807.006753,383.047749,592.164754
1294.984087,-10362.883188,1149.143247,1184.329507
1294.984398,-9992.780217,1608.800546,1554.432478
1294.984709,-9104.533087,536.266849,1480.411884
1294.985021,-7254.018232,-612.876398,962.267725
1294.985332,-5625.565159,-1072.533697,370.102971
1294.985644,-5625.565159,-1225.752797,-0.000000
1294.985955,-7698.141797,-1378.971896,-222.061783
1294.986267,-9844.739029,-766.095498,-222.061783
1294.986578,-11325.150913,-842.705048,296.082377
1294.986890,-11769.274478,536.266849,1110.308913
1294.987201,-11547.212695,153.219100,1406.391290
1294.987512,-11029.068536,-919.314598,2146.597232
1294.987824,-9252.574275,-2298.286494,2368.659014
1294.988135,-6883.915261,-2145.067394,1554.432478
1294.988447,-5921.647536,-1302.362347,222.061783
1294.988758,-6735.874072,0.000000,-592.164754
1294.989070,-8364.327145,612.876398,-814.226536
1294.989381,-9030.512492,995.924147,-592.164754
1294.989693,-10140.821405,153.219100,-518.144159
1294.990004,-11325.150913,-536.266849,592.164754
1294.990315,-11547.212695,-1072.533697,1036.288319
1294.990627,-10140.821405,-1225.752797,1258.350101
1294.990938,-8142.265362,-1685.410096,1184.329507
1294.991250,-7105.977043,-1915.238745,740.205942
1294.991561,-7994.224174,0.000000,518.144159
1294.991873,-9326.594869,306.438199,814.226536
1294.992184,-10362.883188,1608.800546,1184.329507
1294.992495,-10584.944971,1915.238745,1850.514855
1294.992807,-10066.800811,1532.190996,1924.535449
1294.993118,-8808.450710,536.266849,1110.308913
1294.993430,-6883.915261,76.609550,592.164754
1294.993741,-5625.565159,0.000000,-518.144159
1294.994053,-6143.709319,459.657299,-1406.391290
1294.994364,-7994.224174,459.657299,-666.185348
1294.994676,-10362.883188,153.219100,-518.144159
1294.994987,-10436.903782,842.705048,814.226536
1294.995298,-10214.842000,689.485948,1554.432478
1294.995610,-9992.780217,0.000000,1628.453072
1294.995921,-8512.368333,-536.266849,1332.370696
1294.996233,-6365.771101,-306.438199,888.247130
1294.996544,-5033.400406,0.000000,-74.020594
1294.996856,-6143.709319,-766.095498,-962.267725
1294.997167,-8882.471304,-842.705048,-740.205942
1294.997478,-10732.986159,-306.438199,-370.102971
1294.997790,-11843.295072,842.705048,222.061783
1294.998101,-12213.398043,1072.533697,1332.370696
1294.998413,-11843.295072,0.000000,2072.576638
1294.998724,-10584.944971,-1072.533697,2664.741391
1294.999036,-7772.162391,-1685.410096,2072.576638
1294.999347,-5551.544565,-1149.143247,1184.329507
1294.999659,-4885.359217,0.000000,-518.144159
1294.999970,-6513.812290,459.657299,-1776.494261
1295.000281,-8142.265362,612.876398,-2146.597232
1295.000593,-9104.533087,1302.362347,-1406.391290
1295.000904,-10807.006753,2145.067394,-444.123565
1295.001216,-11621.233289,689.485948,370.102971
1295.001527,-11251.130318,-1915.238745,1406.391290
1295.001839,-9918.759623,-2298.286494,1036.288319
1295.002150,-8068.244768,-2221.676944,592.164754
1295.002461,-7846.182985,-1302.362347,-0.000000
1295.002773,-9030.512492,-459.657299,-0.000000
1295.003084,-9622.677246,0.000000,296.082377
1295.003396,-10436.903782,76.609550,1036.288319
1295.003707,-10807.006753,-229.828649,1702.473667
1295.004019,-10584.944971,842.705048,1554.432478
1295.004330,-9474.636058,0.000000,814.226536
1295.004642,-8142.265362,-995.924147,444.123565
1295.004953,-6809.894666,-689.485948,-666.185348
1295.005264,-7624.121203,0.000000,-1258.350101
1295.005576,-8808.450710,766.095498,-740.205942
1295.005887,-9548.656652,612.876398,-74.020594
1295.006199,-10140.821405,459.657299,962.267725
1295.006510,-9622.677246,0.000000,1776.494261
1295.006822,-9918.759623,0.000000,1110.308913
1295.007133,-7698.141797,306.438199,1110.308913
1295.007445,-5255.462188,0.000000,-0.000000
1295.007756,-4663.297435,-919.314598,-444.123565
1295.008067,-6217.729913,-383.047749,-666.185348
1295.008379,-9252.574275,-459.657299,-370.102971
1295.008690,-10881.027347,1378.971896,148.041188
1295.009002,-12805.562797,2145.067394,1110.308913
1295.009313,-12065.356855,1378.971896,2368.659014
1295.009625,-11029.068536,76.609550,2516.700203
1295.009936,-8882.471304,-612.876398,2590.720797
1295.010247,-5995.668130,-919.314598,1702.473667
1295.010559,-4589.276840,-766.095498,444.123565
1295.010870,-5403.503377,153.219100,-296.082377
1295.011182,-7550.100608,0.000000,-1406.391290
1295.011493,-9178.553681,2298.286494,-1480.411884
1295.011805,-9548.656652,2987.772442,-962.267725
1295.012116,-10732.986159,1762.019645,-0.000000
1295.012429,-11103.089130,153.219100,1036.288319
1295.012740,-10436.903782,-1072.533697,1554.432478
1295.013052,-8438.347739,-1455.581446,1628.453072
1295.013363,-7105.977043,-459.657299,814.226536
1295.013675,-7402.059420,-306.438199,888.247130
1295.013986,-8290.306550,0.000000,-0.000000
1295.014298,-8956.491898,766.095498,370.102971
1295.014609,-9400.615463,689.485948,1036.288319
1295.014921,-10140.821405,0.000000,1702.473667
1295.015232,-10288.862594,-995.924147,1850.514855
1295.015544,-9770.718434,-1915.238745,1184.329507
1295.015855,-8438.347739,-1838.629195,740.205942
1295.016167,-7772.162391,-1149.143247,-370.102971
1295.016478,-8216.285956,-766.095498,-370.102971
1295.016790,-9326.594869,-383.047749,-592.164754
1295.017101,-9474.636058,229.828649,148.041188
1295.017413,-9400.615463,229.828649,1036.288319
1295.017724,-9992.780217,0.000000,1258.350101
1295.018036,-8660.409521,-536.266849,1184.329507
1295.018347,-7254.018232,-689.485948,518.144159
1295.018659,-5773.606348,-1302.362347,370.102971
1295.018971,-6883.915261,-1302.362347,-592.164754
1295.019282,-8882.471304,-919.314598,-518.144159
1295.019594,-10807.006753,-689.485948,-444.123565
1295.019905,-11843.295072,0.000000,666.185348
1295.020217,-12139.377449,0.000000,1406.391290
1295.020528,-11843.295072,-306.438199,1998.556043
1295.020840,-10288.862594,-1302.362347,1924.535449
1295.021151,-7550.100608,-2221.676944,2072.576638
1295.021463,-5921.647536,-1991.848295,1184.329507
1295.021774,-5625.565159,-1378.971896,592.164754
1295.022086,-6883.915261,-612.876398,-740.205942
1295.022397,-8068.244768,459.657299,-1702.473667
1295.022709,-9252.574275,1608.800546,-1184.329507
1295.023020,-10807.006753,2298.286494,-962.267725
1295.023332,-11991.336260,1532.190996,-74.020594
1295.023643,-11695.253884,766.095498,1406.391290
1295.023955,-9400.615463,306.438199,1332.370696
1295.024266,-7550.100608,-383.047749,1258.350101
1295.024578,-6661.853478,-919.314598,888.247130
1295.024889,-6809.894666,-612.876398,148.041188
1295.025201,-7550.100608,1072.533697,-0.000000
1295.025512,-7994.224174,2298.286494,222.061783
1295.025824,-9770.718434,1685.410096,518.144159
1295.026135,-10658.965565,612.876398,740.205942
1295.026447,-10140.821405,-306.438199,1554.432478
1295.026758,-8512.368333,-842.705048,1110.308913
1295.027070,-7179.997637,-1149.143247,592.164754
1295.027381,-7624.121203,-536.266849,-518.144159
1295.027693,-7994.224174,0.000000,-518.144159
1295.028004,-7920.203579,459.657299,-740.205942
1295.028316,-8216.285956,536.266849,444.123565
1295.028627,-8586.388927,229.828649,1036.288319
1295.028939,-9696.697840,-842.705048,1480.411884
1295.029250,-8882.471304,-1225.752797,1332.370696
1295.029562,-7402.059420,-1225.752797,888.247130
1295.029873,-7105.977043,-1378.971896,-0.000000
1295.030185,-8142.265362,-2221.676944,-296.082377
1295.030497,-9992.780217,-1532.190996,-666.185348
1295.030808,-11177.109724,-383.047749,148.041188
1295.031120,-11843.295072,689.485948,888.247130
1295.031431,-12065.356855,536.266849,1628.453072
1295.031743,-11177.109724,459.657299,2368.659014
1295.032054,-8586.388927,-229.828649,2294.638420
1295.032366,-6513.812290,-1149.143247,1332.370696
1295.032677,-5255.462188,-1072.533697,592.164754
1295.032989,-5329.482782,229.828649,-666.185348
1295.033300,-7624.121203,1225.752797,-1628.453072
1295.033612,-9474.636058,1225.752797,-1554.432478
1295.033923,-11177.109724,2068.457845,-1184.329507
1295.034235,-12435.459826,2145.067394,-148.041188
1295.034546,-12731.542202,1225.752797,666.185348
1295.034858,-10881.027347,76.609550,1480.411884
1295.035169,-9104.533087,-766.095498,1110.308913
1295.035481,-6735.874072,0.000000,1554.432478
1295.035792,-6365.771101,-612.876398,666.185348
1295.036104,-7550.100608,153.219100,222.061783
1295.036415,-8734.430116,1838.629195,296.082377
1295.036727,-9104.533087,2681.334243,296.082377
1295.037038,-9622.677246,2145.067394,666.185348
1295.037350,-9992.780217,766.095498,1480.411884
1295.037661,-9252.574275,-229.828649,1110.308913
1295.037973,-7846.182985,-612.876398,1258.350101
1295.038284,-7105.977043,-459.657299,444.123565
1295.038596,-7179.997637,0.000000,-0.000000
1295.038907,-8290.306550,689.485948,-518.144159
1295.039219,-8216.285956,1072.533697,-74.020594
1295.039530,-7920.203579,1072.533697,518.144159
1295.039842,-8512.368333,383.047749,1332.370696
1295.040153,-8438.347739,0.000000,740.205942
1295.040465,-7846.182985,153.219100,296.082377
1295.040776,-6809.894666,-536.266849,370.102971
1295.041088,-6809.894666,-1455.581446,444.123565
1295.041399,-9252.574275,-1685.410096,-0.000000
1295.041711,-10584.944971,-766.095498,296.082377
1295.042022,-11843.295072,76.609550,740.205942
1295.042334,-11695.253884,612.876398,1628.453072
1295.042646,-11029.068536,612.876398,2368.659014
1295.042957,-10066.800811,-1149.143247,2368.659014
1295.043269,-7920.203579,-1915.238745,2146.597232
1295.043580,-6143.709319,-1838.629195,1554.432478
1295.043892,-5773.606348,-1302.362347,-0.000000
1295.044203,-7105.977043,-536.266849,-592.164754
1295.044515,-9326.594869,-459.657299,-1480.411884
1295.044826,-9844.739029,383.047749,-740.205942
1295.045138,-11843.295072,919.314598,-814.226536
1295.045449,-11695.253884,842.705048,148.041188
1295.045761,-11695.253884,-229.828649,444.123565
1295.046072,-10436.903782,-1149.143247,1184.329507
1295.046384,-8364.327145,-995.924147,1480.411884
1295.046695,-6957.935855,-1225.752797,1184.329507
1295.047007,-6809.894666,-689.485948,592.164754
1295.047318,-8290.306550,0.000000,370.102971
1295.047630,-8438.347739,383.047749,-0.000000
1295.047941,-9474.636058,919.314598,148.041188
1295.048253,-10732.986159,1225.752797,518.144159
1295.048564,-11103.089130,383.047749,814.226536
1295.048876,-9992.780217,-919.314598,962.267725
1295.049187,-8290.306550,-1225.752797,518.144159
1295.049499,-7179.997637,-612.876398,296.082377
1295.049810,-7698.141797,-153.219100,-296.082377
1295.050122,-8364.327145,383.047749,-0.000000
1295.050433,-9178.553681,995.924147,-296.082377
1295.050745,-8586.388927,1608.800546,296.082377
1295.051056,-8364.327145,1149.143247,592.164754
1295.051368,-8512.368333,306.438199,518.144159
1295.051679,-7402.059420,-306.438199,370.102971
1295.051991,-6069.688724,-459.657299,-222.061783
1295.052302,-6883.915261,-229.828649,-148.041188
1295.052614,-8808.450710,-383.047749,222.061783
1295.052925,-10214.842000,-536.266849,1110.308913
1295.053237,-10732.986159,-612.876398,1406.391290
1295.053548,-10732.986159,153.219100,2368.659014
1295.053860,-10436.903782,0.000000,2664.741391
1295.054172,-9326.594869,-689.485948,2738.761985
1295.054483,-7476.080014,-1455.581446,1924.535449
1295.054795,-5773.606348,-1991.848295,1184.329507
1295.055106,-5477.523971,-1378.971896,740.205942
1295.055418,-7105.977043,-612.876398,-296.082377
1295.055729,-9030.512492,383.047749,-888.247130
1295.056041,-9770.718434,995.924147,-296.082377
1295.056352,-10436.903782,1072.533697,148.041188
1295.056664,-11473.192101,306.438199,1554.432478
1295.056975,-10732.986159,-536.266849,1406.391290
1295.057287,-8956.491898,-766.095498,1702.473667
1295.057598,-7328.038826,-612.876398,1036.288319
1295.057910,-6809.894666,-383.047749,518.144159
1295.058221,-7476.080014,0.000000,-296.082377
1295.058533,-9030.512492,306.438199,-444.123565
1295.058844,-10066.800811,1072.533697,-74.020594
1295.059156,-10584.944971,1072.533697,296.082377
1295.059467,-11843.295072,1378.971896,518.144159
1295.059779,-10881.027347,229.828649,1036.288319
1295.060090,-9548.656652,-842.705048,1036.288319
1295.060402,-8068.244768,-1149.143247,1036.288319
1295.060713,-7994.224174,-995.924147,148.041188
1295.061025,-8216.285956,229.828649,-296.082377
1295.061336,-8956.491898,1532.190996,-592.164754
1295.061648,-9178.553681,1608.800546,-222.061783
1295.061959,-9030.512492,1225.752797,-148.041188
1295.062271,-9030.512492,919.314598,148.041188
1295.062582,-8438.347739,689.485948,222.061783
1295.062894,-7179.997637,766.095498,-370.102971
1295.063205,-6735.874072,0.000000,-444.123565
1295.063517,-7328.038826,-306.438199,-370.102971
1295.063828,-8956.491898,-229.828649,-74.020594
1295.064140,-9918.759623,0.000000,888.247130
1295.064451,-10140.821405,766.095498,1406.391290
1295.064763,-10658.965565,919.314598,1332.370696
1295.065074,-9696.697840,76.609550,1480.411884
1295.065386,-8216.285956,-1149.143247,1406.391290
1295.065697,-6513.812290,-1991.848295,962.267725
1295.066009,-6365.771101,-1532.190996,-0.000000
1295.066321,-7179.997637,-1302.362347,-518.144159
1295.066632,-8734.430116,-306.438199,-666.185348
1295.066944,-9474.636058,689.485948,-444.123565
1295.067255,-9844.739029,1302.362347,-0.000000
1295.067567,-10288.862594,842.705048,148.041188
1295.067878,-10140.821405,459.657299,814.226536
1295.068190,-9474.636058,153.219100,740.205942
1295.068501,-8068.244768,0.000000,814.226536
1295.068813,-6883.915261,0.000000,444.123565
1295.069124,-7254.018232,-383.047749,-0.000000
1295.069436,-8512.368333,-306.438199,-74.020594
1295.069747,-9770.718434,-306.438199,-222.061783
1295.070059,-10288.862594,1302.362347,592.164754
1295.070370,-11473.192101,459.657299,888.247130
1295.070682,-11473.192101,-383.047749,1480.411884
1295.070993,-9918.759623,-1302.362347,1628.453072
1295.071305,-8364.327145,-2068.457845,1406.391290
1295.071616,-7624.121203,-1991.848295,1998.556043
1295.071928,-7846.182985,-1991.848295,888.247130
1295.072239,-8660.409521,-1149.143247,666.185348
1295.072551,-9474.636058,76.609550,518.144159
1295.072862,-9548.656652,306.438199,592.164754
1295.073174,-9770.718434,536.266849,370.102971
1295.073485,-9696.697840,229.828649,518.144159
1295.073797,-8364.327145,-229.828649,222.061783
1295.074108,-6957.935855,-536.266849,592.164754
1295.074420,-7105.977043,-153.219100,370.102971
1295.074731,-8068.244768,-459.657299,666.185348
1295.075043,-9474.636058,-842.705048,740.205942
1295.075354,-10214.842000,153.219100,1110.308913
1295.075666,-10140.821405,1838.629195,740.205942
1295.075977,-9622.677246,1838.629195,1184.329507
1295.076289,-9030.512492,76.609550,1554.432478
1295.076600,-7772.162391,-1302.362347,1480.411884
1295.076912,-5699.585753,-995.924147,814.226536
1295.077223,-6217.729913,-1225.752797,592.164754
1295.077535,-7402.059420,-689.485948,-0.000000
1295.077847,-8882.471304,-306.438199,-444.123565
1295.078158,-9844.739029,76.609550,-0.000000
1295.078470,-9696.697840,1838.629195,-0.000000
1295.078781,-10658.965565,1532.190996,666.185348
1295.079093,-9918.759623,919.314598,1554.432478
1295.079404,-8438.347739,-536.266849,1036.288319
1295.079716,-7328.038826,-1455.581446,740.205942
1295.080027,-6513.812290,-766.095498,148.041188
1295.080339,-7254.018232,-229.828649,-444.123565
1295.080650,-8586.388927,0.000000,-1036.288319
1295.080962,-9474.636058,919.314598,-444.123565
1295.081273,-10214.842000,383.047749,-148.041188
1295.081585,-11103.089130,76.609550,444.123565
1295.081896,-10881.027347,-306.438199,1628.453072
1295.082208,-9474.636058,-1532.190996,1554.432478
1295.082519,-7994.224174,-2145.067394,888.247130
1295.082831,-7402.059420,-1991.848295,-0.000000
1295.083142,-7920.203579,-919.314598,-1110.308913
1295.083454,-8364.327145,0.000000,-1036.288319
1295.083765,-8808.450710,1225.752797,-1036.288319
1295.084077,-10066.800811,306.438199,-592.164754
1295.084388,-10658.965565,-229.828649,444.123565
1295.084700,-11251.130318,-459.657299,814.226536
1295.085011,-9770.718434,-153.219100,1110.308913
1295.085323,-8438.347739,-459.657299,370.102971
1295.085634,-7994.224174,-689.485948,-0.000000
1295.085946,-8512.368333,-153.219100,-444.123565
1295.086257,-9622.677246,-229.828649,-444.123565
1295.086569,-10066.800811,995.924147,148.041188
1295.086880,-11103.089130,689.485948,518.144159
1295.087192,-10658.965565,383.047749,1480.411884
1295.087503,-9696.697840,-842.705048,1480.411884
1295.087815,-7846.182985,-1225.752797,1702.473667
1295.088126,-5847.626942,-689.485948,814.226536
1295.088438,-5995.668130,153.219100,-0.000000
1295.088749,-7179.997637,612.876398,-666.185348
1295.089061,-9326.594869,459.657299,-740.205942
1295.089373,-10288.862594,1915.238745,-222.061783
1295.089684,-10288.862594,2528.115143,666.185348
1295.089996,-10658.965565,1225.752797,1184.329507
1295.090307,-9770.718434,0.000000,1332.370696
1295.090619,-7402.059420,-383.047749,1258.350101
1295.090930,-5625.565159,-766.095498,1184.329507
1295.091242,-5699.585753,-612.876398,148.041188
1295.091553,-7254.018232,153.219100,-148.041188
1295.091865,-9178.553681,842.705048,-222.061783
1295.092176,-10288.862594,1762.019645,814.226536
1295.092488,-10288.862594,2451.505594,1332.370696
1295.092799,-10436.903782,1991.848295,2072.576638
1295.093111,-8808.450710,766.095498,2220.617826
1295.093422,-7105.977043,-612.876398,1628.453072
1295.093734,-5699.585753,-919.314598,1184.329507
1295.094045,-5921.647536,153.219100,-0.000000
1295.094357,-7698.141797,536.266849,-962.267725
1295.094668,-8586.388927,766.095498,-814.226536
1295.094980,-9326.594869,766.095498,-370.102971
1295.095291,-10066.800811,0.000000,592.164754
1295.095603,-10436.903782,306.438199,1110.308913
1295.095914,-10214.842000,-383.047749,2146.597232
1295.096226,-8808.450710,-612.876398,740.205942
1295.096537,-7624.121203,-995.924147,666.185348
1295.096849,-7772.162391,-1455.581446,296.082377
1295.097160,-9030.512492,-1149.143247,-0.000000
1295.097472,-10214.842000,-306.438199,-0.000000
1295.097783,-10881.027347,536.266849,740.205942
1295.098095,-10732.986159,-766.095498,1702.473667
1295.098406,-11251.130318,-1608.800546,1184.329507
1295.098718,-10214.842000,-3064.381992,2220.617826
1295.099029,-7994.224174,-2757.943793,1332.370696
1295.099341,-7179.997637,-1608.800546,296.082377
1295.099652,-7328.038826,0.000000,-518.144159
1295.099964,-8512.368333,536.266849,-1258.350101
1295.100275,-10066.800811,1072.533697,-888.247130
1295.100587,-10066.800811,1685.410096,-0.000000
1295.100898,-10066.800811,1915.238745,222.061783
1295.101210,-10214.842000,1072.533697,222.061783
1295.101522,-9178.553681,0.000000,1184.329507
1295.101833,-7550.100608,-1149.143247,296.082377
1295.102145,-6365.771101,-1302.362347,148.041188
1295.102456,-6735.874072,-1302.362347,-148.041188
1295.102768,-8882.471304,-1149.143247,-518.144159
1295.103079,-10807.006753,-612.876398,-0.000000
1295.103391,-10140.821405,1838.629195,888.247130
1295.103702,-11103.089130,1149.143247,1184.329507
1295.104014,-10807.006753,612.876398,2146.597232
1295.104325,-8808.450710,0.000000,1998.556043
1295.104637,-6957.935855,-459.657299,1628.453072
1295.104948,-5477.523971,-459.657299,962.267725
1295.105260,-5995.668130,-612.876398,-74.020594
1295.105571,-7105.977043,0.000000,-1036.288319
1295.105883,-7920.203579,306.438199,-666.185348
1295.106194,-8586.388927,536.266849,-444.123565
1295.106506,-9844.739029,229.828649,-0.000000
1295.106817,-10658.965565,0.000000,666.185348
1295.107129,-10066.800811,-306.438199,1110.308913
1295.107440,-8438.347739,-995.924147,740.205942
1295.107752,-7328.038826,-689.485948,444.123565
1295.108063,-7698.141797,-919.314598,444.123565
1295.108375,-8882.471304,-306.438199,148.041188
1295.108686,-9474.636058,-306.438199,296.082377
1295.108998,-9918.759623,0.000000,1184.329507
1295.109309,-10436.903782,-229.828649,1776.494261
1295.109621,-10807.006753,-1378.971896,1850.514855
1295.109932,-9400.615463,-1608.800546,1702.473667
1295.110244,-8142.265362,-1608.800546,592.164754
1295.110555,-6587.832884,-689.485948,-518.144159
1295.110867,-7328.038826,459.657299,-1406.391290
1295.111178,-9326.594869,766.095498,-1258.350101
1295.111490,-10214.842000,1685.410096,-592.164754
1295.111801,-10362.883188,2528.115143,222.061783
1295.112113,-10658.965565,1685.410096,1332.370696
1295.112424,-9844.739029,-306.438199,1406.391290
1295.112736,-8142.265362,-689.485948,1110.308913
1295.113048,-6809.894666,-2298.286494,592.164754
1295.113359,-5699.585753,-2145.067394,518.144159
1295.113671,-7550.100608,-2374.896044,370.102971
1295.113982,-10807.006753,-1532.190996,148.041188
1295.114294,-11473.192101,0.000000,814.226536
1295.114605,-11769.274478,1149.143247,1332.370696
1295.114917,-11843.295072,1838.629195,1628.453072
1295.115228,-10288.862594,1378.971896,2072.576638
1295.115539,-8586.388927,153.219100,1406.391290
1295.115851,-6217.729913,-306.438199,1628.453072
1295.116162,-5329.482782,459.657299,592.164754
1295.116474,-6735.874072,306.438199,-148.041188
1295.116785,-8068.244768,919.314598,-814.226536
1295.117097,-8586.388927,1762.019645,-888.247130
1295.117408,-8438.347739,1838.629195,-666.185348
1295.117719,-9474.636058,1838.629195,-148.041188
1295.118031,-10214.842000,1378.971896,296.082377
1295.118342,-9178.553681,383.047749,1258.350101
1295.118654,-7550.100608,0.000000,1480.411884
1295.118965,-7105.977043,0.000000,888.247130
1295.119277,-7994.224174,76.609550,222.061783
1295.119588,-8586.388927,842.705048,-148.041188
1295.119899,-8586.388927,1225.752797,296.082377
1295.120211,-9252.574275,1302.362347,444.123565
1295.120522,-9696.697840,-153.219100,1110.308913
1295.120834,-10658.965565,-1685.410096,1554.432478
1295.121145,-9548.656652,-2528.115143,1850.514855
1295.121457,-7994.224174,-1991.848295,1258.350101
1295.121768,-7698.141797,-919.314598,-0.000000
1295.122079,-8364.327145,383.047749,-592.164754
1295.122391,-9400.615463,612.876398,-888.247130
1295.122702,-9400.615463,2374.896044,-1036.288319
1295.123014,-8956.491898,2451.505594,-148.041188
1295.123325,-9770.718434,1149.143247,370.102971
1295.123636,-9104.533087,0.000000,-0.000000
1295.123948,-7846.182985,-1225.752797,296.082377
1295.124259,-6439.791695,-1915.238745,-0.000000
1295.124571,-6513.812290,-2451.505594,-148.041188
1295.124882,-9548.656652,-2451.505594,-74.020594
1295.125194,-11399.171507,-766.095498,148.041188
1295.125505,-11843.295072,76.609550,370.102971
1295.125816,-12509.480420,383.047749,1480.411884
1295.126128,-11695.253884,76.609550,2146.597232
1295.126439,-10436.903782,-612.876398,1702.473667
1295.126751,-7994.224174,-1149.143247,1480.411884
1295.127062,-6143.709319,-459.657299,666.185348
1295.127374,-6439.791695,-1072.533697,-0.000000
1295.127685,-7328.038826,-612.876398,-370.102971
1295.127996,-8438.347739,-612.876398,-444.123565
1295.128308,-9474.636058,76.609550,-666.185348
1295.128619,-10288.862594,383.047749,-0.000000
1295.128931,-11029.068536,536.266849,296.082377
1295.129242,-10732.986159,306.438199,444.123565
1295.129554,-8956.491898,-153.219100,1480.411884
1295.129865,-7105.977043,-229.828649,1258.350101
1295.130176,-7328.038826,-459.657299,444.123565
1295.130488,-8290.306550,0.000000,296.082377
1295.130799,-8956.491898,459.657299,370.102971
1295.131111,-9104.533087,1225.752797,518.144159
1295.131422,-9770.718434,689.485948,1554.432478
1295.131734,-10288.862594,-995.924147,1554.432478
1295.132045,-9770.718434,-1685.410096,2072.576638
1295.132356,-8142.265362,-1225.752797,2072.576638
1295.132668,-6883.915261,-1072.533697,962.267725
1295.132979,-7698.141797,-766.095498,296.082377
1295.133291,-7846.182985,-306.438199,444.123565
1295.133602,-8438.347739,1072.533697,-0.000000
1295.133914,-8216.285956,2221.676944,666.185348
1295.134225,-8586.388927,2221.676944,518.144159
1295.134536,-9844.739029,306.438199,518.144159
1295.134848,-8068.244768,612.876398,1036.288319
1295.135159,-6587.832884,0.000000,-0.000000
1295.135471,-5773.606348,-536.266849,-0.000000
1295.135782,-6735.874072,-612.876398,-74.020594
1295.136093,-8808.450710,-995.924147,-0.000000
1295.136405,-10955.047942,0.000000,222.061783
1295.136716,-11547.212695,1302.362347,1332.370696
1295.137028,-11843.295072,2911.162892,1776.494261
1295.137339,-11325.150913,689.485948,1998.556043
1295.137651,-8734.430116,459.657299,1776.494261
1295.137962,-6291.750507,-612.876398,444.123565
1295.138273,-4737.318029,-1378.971896,-296.082377
1295.138585,-6143.709319,-1685.410096,-1036.288319
1295.138896,-8882.471304,-1915.238745,-1628.453072
1295.139208,-9696.697840,-536.266849,-740.205942
1295.139519,-10881.027347,-612.876398,-148.041188
1295.139831,-12065.356855,-1225.752797,444.123565
1295.140142,-12805.562797,-1072.533697,740.205942
1295.140453,-11251.130318,-689.485948,1332.370696
1295.140765,-8364.327145,-536.266849,814.226536
1295.141076,-7105.977043,-612.876398,444.123565
1295.141388,-7550.100608,-1072.533697,-962.267725
1295.141699,-8808.450710,229.828649,-1258.350101
1295.142011,-8882.471304,76.609550,-518.144159
1295.142322,-9844.739029,1149.143247,-296.082377
1295.142633,-10732.986159,766.095498,518.144159
1295.142945,-11103.089130,-995.924147,1332.370696
1295.143256,-10362.883188,-2528.115143,1776.494261
1295.143568,-8290.306550,-2374.896044,1480.411884
1295.143879,-7550.100608,-919.314598,-0.000000
1295.144191,-7920.203579,766.095498,-148.041188
1295.144502,-8956.491898,1378.971896,-592.164754
1295.144813,-9252.574275,1762.019645,-0.000000
1295.145125,-8882.471304,2451.505594,296.082377
1295.145436,-9252.574275,1608.800546,592.164754
1295.145748,-8882.471304,766.095498,518.144159
1295.146059,-7254.018232,459.657299,-0.000000
1295.146370,-6291.750507,-459.657299,-518.144159
1295.146682,-5033.400406,-1149.143247,-518.144159
1295.146993,-7402.059420,-995.924147,-444.123565
1295.147305,-9992.780217,-689.485948,740.205942
1295.147616,-11473.192101,536.266849,1406.391290
1295.147928,-11473.192101,2221.676944,1998.556043
1295.148239,-11103.089130,2145.067394,2664.741391
1295.148550,-9548.656652,995.924147,2812.782580
1295.148862,-7254.018232,-536.266849,1628.453072
1295.149173,-4885.359217,0.000000,592.164754
1295.149485,-4441.235652,0.000000,-592.164754
1295.149796,-6513.812290,76.609550,-1628.453072
1295.150108,-8290.306550,536.266849,-1702.473667
1295.150419,-9104.533087,1072.533697,-740.205942
1295.150730,-10066.800811,383.047749,444.123565
1295.151042,-11547.212695,-229.828649,1258.350101
1295.151353,-11769.274478,-459.657299,2220.617826
1295.151665,-10510.924376,-919.314598,2516.700203
1295.151976,-7846.182985,-1838.629195,1776.494261
1295.152288,-6883.915261,-842.705048,1332.370696
1295.152599,-7624.121203,-995.924147,-0.000000
1295.152910,-8290.306550,-153.219100,-666.185348
1295.153222,-8808.450710,919.314598,-740.205942
1295.153533,-9992.780217,1762.019645,222.061783
1295.153845,-10732.986159,-306.438199,1480.411884
1295.154156,-11621.233289,-1991.848295,2072.576638
1295.154468,-10436.903782,-3140.991542,2590.720797
1295.154779,-8808.450710,-2604.724693,2072.576638
1295.155090,-7994.224174,-1225.752797,1184.329507
1295.155402,-8364.327145,0.000000,-0.000000
1295.155713,-8956.491898,1608.800546,-444.123565
1295.156025,-8586.388927,919.314598,-296.082377
1295.156336,-8438.347739,1608.800546,444.123565
1295.156648,-9400.615463,306.438199,370.102971
1295.156959,-9030.512492,-536.266849,518.144159
1295.157270,-7846.182985,-1762.019645,222.061783
1295.157582,-6883.915261,-2068.457845,-0.000000
1295.157893,-7476.080014,-1685.410096,-0.000000
1295.158205,-9104.533087,-1532.190996,222.061783
1295.158516,-10955.047942,-153.219100,666.185348
1295.158827,-11621.233289,0.000000,2072.576638
1295.159139,-10807.006753,919.314598,1554.432478
1295.159450,-11251.130318,1072.533697,2294.638420
1295.159762,-8808.450710,612.876398,1776.494261
1295.160073,-6217.729913,76.609550,1184.329507
1295.160385,-4293.194464,-229.828649,-296.082377
1295.160696,-4737.318029,-459.657299,-962.267725
1295.161007,-7402.059420,-459.657299,-1924.535449
1295.161319,-8364.327145,689.485948,-1480.411884
1295.161630,-9622.677246,1455.581446,-666.185348
1295.161942,-10807.006753,1072.533697,592.164754
1295.162253,-12065.356855,229.828649,1110.308913
1295.162565,-11251.130318,-153.219100,1850.514855
1295.162876,-8586.388927,0.000000,1628.453072
1295.163187,-6661.853478,229.828649,814.226536
1295.163499,-6735.874072,229.828649,148.041188
1295.163810,-7328.038826,-383.047749,-888.247130
1295.164122,-8438.347739,153.219100,-1258.350101
1295.164433,-8956.491898,1532.190996,-666.185348
1295.164745,-10214.842000,1225.752797,222.061783
1295.165056,-11029.068536,-306.438199,1406.391290
1295.165367,-11547.212695,-2451.505594,2146.597232
1295.165679,-9992.780217,-3217.601092,1924.535449
1295.165990,-7698.141797,-2068.457845,1702.473667
1295.166302,-7476.080014,-842.705048,666.185348
1295.166613,-8660.409521,-153.219100,-518.144159
1295.166925,-8808.450710,995.924147,-962.267725
1295.167236,-8364.327145,2068.457845,-0.000000
1295.167547,-8808.450710,1302.362347,-0.000000
1295.167859,-9252.574275,0.000000,592.164754
1295.168170,-9400.615463,-1225.752797,222.061783
1295.168482,-8068.244768,-2145.067394,-0.000000
1295.168793,-6143.709319,-1991.848295,74.020594
1295.169105,-7994.224174,-1762.019645,-148.041188
1295.169416,-10658.965565,-1225.752797,-0.000000
1295.169727,-12287.418637,-689.485948,888.247130
1295.170039,-12065.356855,1225.752797,1924.535449
1295.170350,-11547.212695,2451.505594,2516.700203
1295.170662,-9844.739029,1302.362347,1702.473667
1295.170973,-7772.162391,0.000000,1406.391290
1295.171284,-4959.379811,-1378.971896,666.185348
1295.171596,-4219.173869,-995.924147,-444.123565
1295.171907,-5773.606348,-459.657299,-1480.411884
1295.172219,-7698.141797,229.828649,-1554.432478
1295.172530,-10140.821405,153.219100,-1332.370696
1295.172842,-10288.862594,306.438199,-222.061783
1295.173153,-10881.027347,612.876398,740.205942
1295.173464,-11991.336260,306.438199,1628.453072
1295.173776,-10214.842000,306.438199,2368.659014
1295.174087,-8290.306550,-383.047749,1628.453072
1295.174399,-6365.771101,-536.266849,1406.391290
1295.174710,-6069.688724,-306.438199,814.226536
1295.175022,-7254.018232,0.000000,-148.041188
1295.175333,-8364.327145,766.095498,-148.041188
1295.175644,-9770.718434,1225.752797,-444.123565
1295.175956,-11547.212695,1378.971896,1184.329507
1295.176267,-12213.398043,-153.219100,1258.350101
1295.176579,-10955.047942,-1532.190996,2294.638420
1295.176890,-9178.553681,-1302.362347,1850.514855
1295.177202,-7254.018232,0.000000,1332.370696
1295.177513,-6661.853478,1762.019645,148.041188
1295.177824,-7476.080014,2374.896044,-666.185348
1295.178136,-7920.203579,3217.601092,-0.000000
1295.178447,-7772.162391,2834.553343,296.082377
1295.178759,-8734.430116,2528.115143,222.061783
1295.179070,-9030.512492,1072.533697,148.041188
1295.179382,-8660.409521,0.000000,-444.123565
1295.179693,-7476.080014,-1072.533697,-370.102971
1295.180004,-7105.977043,-1532.190996,-148.041188
1295.180316,-8882.471304,-1915.238745,-148.041188
1295.180627,-10658.965565,-842.705048,962.267725
1295.180939,-12805.562797,0.000000,1406.391290
1295.181250,-11769.274478,995.924147,2516.700203
1295.181562,-10807.006753,919.314598,2516.700203
1295.181873,-9326.594869,229.828649,2664.741391
1295.182184,-7105.977043,-919.314598,1850.514855
1295.182496,-5033.400406,-1149.143247,518.144159
1295.182807,-4515.256246,-612.876398,-296.082377
1295.183119,-6957.935855,-1685.410096,-1776.494261
1295.183430,-9622.677246,-689.485948,-2368.659014
1295.183741,-9918.759623,229.828649,-1258.350101
1295.184053,-11103.089130,0.000000,-148.041188
1295.184364,-11177.109724,-306.438199,1110.308913
1295.184676,-11251.130318,-689.485948,1406.391290
1295.184987,-9992.780217,-766.095498,1702.473667
1295.185299,-7105.977043,-919.314598,1554.432478
1295.185610,-6069.688724,-612.876398,740.205942
1295.185921,-7031.956449,-766.095498,-518.144159
1295.186233,-7550.100608,0.000000,-740.205942
1295.186544,-9030.512492,306.438199,-518.144159
1295.186856,-10436.903782,459.657299,370.102971
1295.187167,-11399.171507,76.609550,888.247130
1295.187479,-11769.274478,-919.314598,1480.411884
1295.187790,-11251.130318,-2451.505594,2146.597232
1295.188101,-9104.533087,-1378.971896,1406.391290
1295.188413,-8068.244768,-459.657299,740.205942
1295.188724,-7698.141797,153.219100,-148.041188
1295.189036,-8364.327145,842.705048,-74.020594
1295.189347,-8216.285956,1838.629195,-74.020594
1295.189659,-8660.409521,2451.505594,222.061783
1295.189970,-9696.697840,1685.410096,-74.020594
1295.190281,-9474.636058,1149.143247,-518.144159
1295.190593,-8142.265362,-689.485948,-518.144159
1295.190904,-6883.915261,-536.266849,-518.144159
1295.191216,-7254.018232,-1072.533697,-296.082377
1295.191527,-9474.636058,-1225.752797,-0.000000
1295.191839,-10732.986159,-383.047749,1184.329507
1295.192150,-11473.192101,1072.533697,1998.556043
1295.192461,-11251.130318,1455.581446,2146.597232
1295.192773,-9844.739029,1455.581446,2220.617826
1295.193084,-7920.203579,306.438199,1776.494261
1295.193396,-6143.709319,-995.924147,814.226536
1295.193707,-4811.338623,-1455.581446,-444.123565
1295.194019,-5625.565159,-1302.362347,-666.185348
1295.194330,-7920.203579,-842.705048,-1406.391290
1295.194641,-9178.553681,0.000000,-962.267725
1295.194953,-9844.739029,229.828649,-74.020594
1295.195264,-10955.047942,306.438199,1110.308913
1295.195576,-11399.171507,-689.485948,1850.514855
1295.195887,-10807.006753,0.000000,1776.494261
1295.196198,-8438.347739,612.876398,1258.350101
1295.196510,-6217.729913,383.047749,666.185348
1295.196821,-6735.874072,-459.657299,-296.082377
1295.197133,-7772.162391,-1072.533697,-1258.350101
1295.197444,-8660.409521,153.219100,-1258.350101
1295.197756,-9696.697840,842.705048,-518.144159
1295.198067,-10436.903782,1072.533697,1110.308913
1295.198378,-11843.295072,-919.314598,1924.535449
1295.198690,-11177.109724,-2681.334243,2442.679609
1295.199001,-9400.615463,-2987.772442,2516.700203
1295.199313,-7920.203579,-1532.190996,1998.556043
1295.199624,-7550.100608,1072.533697,962.267725
1295.199936,-8216.285956,919.314598,-0.000000
1295.200247,-9030.512492,1455.581446,-888.247130
1295.200558,-8956.491898,1838.629195,-222.061783
1295.200870,-9548.656652,2221.676944,-296.082377
1295.201181,-10066.800811,1149.143247,222.061783
1295.201493,-9474.636058,0.000000,222.061783
1295.201804,-8142.265362,-995.924147,-222.061783
1295.202116,-7031.956449,0.000000,-0.000000
1295.202427,-7920.203579,0.000000,-0.000000
1295.202738,-9030.512492,0.000000,1110.308913
1295.203050,-10807.006753,1072.533697,1702.473667
1295.203361,-10362.883188,2298.286494,2072.576638
1295.203673,-9770.718434,2451.505594,2220.617826
1295.203984,-8660.409521,1991.848295,1776.494261
1295.204296,-6365.771101,1532.190996,1184.329507
1295.204607,-4885.359217,-536.266849,-296.082377
1295.204918,-4959.379811,-459.657299,-1036.288319
1295.205230,-6587.832884,-689.485948,-1110.308913
1295.205541,-8808.450710,-612.876398,-1480.411884
1295.205853,-10066.800811,-306.438199,-222.061783
1295.206164,-10807.006753,-459.657299,740.205942
1295.206476,-11399.171507,-536.266849,1998.556043
1295.206787,-11251.130318,-76.609550,2072.576638
1295.207098,-9474.636058,0.000000,1702.473667
1295.207410,-7698.141797,-536.266849,1110.308913
1295.207721,-5699.585753,-1072.533697,370.102971
1295.208033,-6439.791695,-689.485948,-0.000000
1295.208344,-7550.100608,-612.876398,-888.247130
1295.208655,-9104.533087,-459.657299,-740.205942
1295.208967,-10066.800811,-229.828649,-222.061783
1295.209278,-11547.212695,-383.047749,444.123565
1295.209590,-12657.521608,-1532.190996,1554.432478
1295.209901,-12139.377449,-3294.210641,2368.659014
1295.210213,-10658.965565,-3064.381992,2368.659014
1295.210524,-8438.347739,-1378.971896,1554.432478
1295.210835,-7624.121203,0.000000,148.041188
1295.211147,-7772.162391,612.876398,-296.082377
1295.211458,-7328.038826,842.705048,-74.020594
1295.211770,-7105.977043,995.924147,-0.000000
1295.212081,-8512.368333,76.609550,370.102971
1295.212393,-9326.594869,0.000000,-0.000000
1295.212704,-9770.718434,-689.485948,-518.144159
1295.213015,-8882.471304,-766.095498,-370.102971
1295.213327,-8660.409521,-689.485948,-296.082377
1295.213638,-9178.553681,-1149.143247,-0.000000
1295.213950,-10066.800811,-612.876398,666.185348
1295.214261,-11177.109724,76.609550,1554.432478
1295.214573,-9696.697840,1378.971896,2368.659014
1295.214884,-9252.574275,842.705048,2294.638420
1295.215195,-8068.244768,383.047749,1924.535449
1295.215507,-6069.688724,-229.828649,888.247130
1295.215818,-4737.318029,-536.266849,-148.041188
1295.216129,-5255.462188,-612.876398,-1036.288319
1295.216441,-7328.038826,-919.314598,-1554.432478
1295.216752,-9696.697840,-612.876398,-1258.350101
1295.217064,-11177.109724,-536.266849,-0.000000
1295.217375,-11399.171507,0.000000,962.267725
1295.217686,-11621.233289,306.438199,1702.473667
1295.217998,-11029.068536,0.000000,1850.514855
1295.218309,-8290.306550,229.828649,1702.473667
1295.218620,-6069.688724,153.219100,1258.350101
1295.218932,-5033.400406,689.485948,-0.000000
1295.219243,-5995.668130,612.876398,-888.247130
1295.219555,-7920.203579,229.828649,-1184.329507
1295.219866,-9400.615463,536.266849,-444.123565
1295.220177,-10510.924376,536.266849,-0.000000
1295.220489,-11843.295072,0.000000,740.205942
1295.220800,-11843.295072,-1608.800546,1924.535449
1295.221111,-10807.006753,-2451.505594,2442.679609
1295.221423,-8660.409521,-1762.019645,1998.556043
1295.221734,-7254.018232,-536.266849,1110.308913
1295.222046,-7328.038826,-383.047749,-0.000000
1295.222357,-7476.080014,612.876398,-814.226536
1295.222668,-7994.224174,1608.800546,-518.144159
1295.222980,-8882.471304,1991.848295,-592.164754
1295.223291,-9992.780217,1072.533697,-0.000000
1295.223602,-10288.862594,0.000000,444.123565
1295.223914,-9252.574275,-1302.362347,222.061783
1295.224225,-7994.224174,-1838.629195,-0.000000
1295.224537,-7994.224174,-1608.800546,370.102971
1295.224848,-9918.759623,-1762.019645,148.041188
1295.225159,-11103.089130,-536.266849,740.205942
1295.225471,-10584.944971,1455.581446,1776.494261
1295.225782,-10214.842000,1455.581446,2368.659014
1295.226093,-9474.636058,1608.800546,2294.638420
1295.226405,-8142.265362,306.438199,1110.308913
1295.226716,-6069.688724,229.828649,-0.000000
1295.227028,-4071.132681,0.000000,-148.041188
1295.227339,-6143.709319,-536.266849,-1554.432478
1295.227650,-8364.327145,-459.657299,-1332.370696
1295.227962,-10584.944971,-459.657299,-1184.329507
1295.228273,-11325.150913,-306.438199,444.123565
1295.228584,-10807.006753,459.657299,1776.494261
1295.228896,-11621.233289,0.000000,1406.391290
1295.229207,-10881.027347,-76.609550,1702.473667
1295.229519,-8216.285956,-536.266849,1184.329507
1295.229830,-6143.709319,0.000000,1036.288319
1295.230141,-6143.709319,842.705048,-444.123565
1295.230453,-7179.997637,919.314598,-1258.350101
1295.230764,-8142.265362,1225.752797,-1480.411884
1295.231075,-9622.677246,1838.629195,-666.185348
1295.231387,-10807.006753,1838.629195,-0.000000
1295.231698,-11621.233289,842.705048,1258.350101
1295.232010,-11769.274478,-536.266849,2072.576638
1295.232321,-9622.677246,-1455.581446,2072.576638
1295.232632,-7402.059420,-1302.362347,1332.370696
1295.232944,-6513.812290,-153.219100,370.102971
1295.233255,-6883.915261,612.876398,-74.020594
1295.233566,-7402.059420,919.314598,-518.144159
1295.233878,-8290.306550,2298.286494,-518.144159
1295.234189,-9622.677246,2221.676944,-148.041188
1295.234501,-10288.862594,842.705048,518.144159
1295.234812,-9696.697840,-459.657299,814.226536
1295.235123,-8364.327145,-842.705048,740.205942
1295.235435,-7624.121203,-1455.581446,814.226536
1295.235746,-8438.347739,-1608.800546,740.205942
1295.236057,-9992.780217,-2068.457845,1332.370696
1295.236369,-11251.130318,-536.266849,1924.535449
1295.236680,-10584.944971,689.485948,1702.473667
1295.236992,-10436.903782,1302.362347,2516.700203
1295.237303,-9252.574275,919.314598,1924.535449
1295.237614,-7031.956449,229.828649,1184.329507
1295.237926,-5255.462188,-612.876398,222.061783
1295.238237,-4885.359217,-842.705048,-148.041188
1295.238548,-6735.874072,-612.876398,-370.102971
1295.238860,-9400.615463,-995.924147,-592.164754
1295.239171,-10807.006753,76.609550,-222.061783
1295.239483,-10881.027347,306.438199,962.267725
1295.239794,-10436.903782,0.000000,1628.453072
1295.240105,-10658.965565,-536.266849,1776.494261
1295.240417,-8882.471304,-1225.752797,1850.514855
1295.240728,-6883.915261,-1302.362347,814.226536
1295.241039,-5773.606348,-995.924147,518.144159
1295.241351,-7031.956449,-842.705048,-666.185348
1295.241662,-8660.409521,-459.657299,-888.247130
1295.241974,-10140.821405,0.000000,-666.185348
1295.242285,-11325.150913,383.047749,296.082377
1295.242596,-11695.253884,0.000000,1628.453072
1295.242908,-11917.315666,-1302.362347,2072.576638
1295.243219,-10658.965565,-1532.190996,2368.659014
1295.243531,-7624.121203,-1915.238745,1776.494261
1295.243842,-6735.874072,-1072.533697,592.164754
1295.244153,-6661.853478,76.609550,-370.102971
1295.244465,-7402.059420,995.924147,-1628.453072
1295.244776,-7624.121203,2451.505594,-1258.350101
1295.245087,-8142.265362,2681.334243,-740.205942
1295.245399,-9844.739029,1608.800546,-444.123565
1295.245710,-10881.027347,766.095498,-444.123565
1295.246022,-9918.759623,-229.828649,-148.041188
1295.246333,-7994.224174,-306.438199,148.041188
1295.246644,-7772.162391,-612.876398,-0.000000
1295.246956,-8956.491898,-1149.143247,-0.000000
1295.247267,-9992.780217,-1225.752797,518.144159
1295.247578,-10584.944971,-229.828649,1332.370696
1295.247890,-10214.842000,766.095498,1850.514855
1295.248201,-10214.842000,1302.362347,1776.494261
1295.248513,-9400.615463,0.000000,1480.411884
1295.248824,-6735.874072,-766.095498,962.267725
1295.249135,-5403.503377,-842.705048,-0.000000
1295.249447,-5625.565159,-306.438199,-962.267725
1295.249758,-7994.224174,-536.266849,-1480.411884
1295.250069,-9770.718434,-536.266849,-888.247130
1295.250381,-10288.862594,0.000000,222.061783
1295.250692,-10807.006753,612.876398,1480.411884
1295.251004,-11177.109724,0.000000,2146.597232
1295.251315,-10436.903782,-1532.190996,1998.556043
1295.251626,-7624.121203,-1149.143247,1998.556043
1295.251938,-5551.544565,-536.266849,518.144159
1295.252249,-5403.503377,-689.485948,-222.061783
1295.252560,-7105.977043,-919.314598,-962.267725
1295.252872,-9252.574275,-536.266849,-1184.329507
1295.253183,-10807.006753,1072.533697,-296.082377
1295.253495,-12065.356855,995.924147,444.123565
1295.253806,-13101.645173,0.000000,1924.535449
1295.254117,-12213.398043,-1915.238745,2738.761985
1295.254429,-9400.615463,-2604.724693,2738.761985
1295.254740,-6513.812290,-1608.800546,1924.535449
1295.255051,-5699.585753,-536.266849,444.123565
1295.255363,-6513.812290,995.924147,-0.000000
1295.255674,-7772.162391,1378.971896,-1110.308913
1295.255986,-8216.285956,2757.943793,-740.205942
1295.256297,-9326.594869,2374.896044,-518.144159
1295.256608,-10658.965565,1685.410096,148.041188
1295.256920,-11473.192101,306.438199,370.102971
1295.257231,-9918.759623,-612.876398,444.123565
1295.257542,-7994.224174,0.000000,296.082377
1295.257854,-7698.141797,0.000000,518.144159
1295.258165,-8660.409521,0.000000,-0.000000
1295.258477,-9474.636058,153.219100,1258.350101
1295.258788,-9548.656652,995.924147,1332.370696
1295.259099,-9696.697840,1838.629195,1702.473667
1295.259411,-9918.759623,1685.410096,1036.288319
1295.259722,-8734.430116,1149.143247,1036.288319
1295.260033,-6809.894666,0.000000,592.164754
1295.260345,-5477.523971,-689.485948,-0.000000
1295.260656,-6883.915261,-306.438199,-1110.308913
1295.260968,-9178.553681,76.609550,-1332.370696
1295.261279,-10214.842000,1149.143247,-666.185348
1295.261590,-10510.924376,1685.410096,148.041188
1295.261902,-10510.924376,1378.971896,1110.308913
1295.262213,-10066.800811,459.657299,1480.411884
1295.262524,-9104.533087,-459.657299,1258.350101
1295.262836,-6143.709319,-229.828649,888.247130
1295.263147,-5181.441594,0.000000,296.082377
1295.263459,-5921.647536,-689.485948,-666.185348
1295.263770,-8734.430116,-1455.581446,-888.247130
1295.264081,-10288.862594,-766.095498,-370.102971
1295.264393,-11325.150913,383.047749,222.061783
1295.264704,-12213.398043,1072.533697,1554.432478
1295.265015,-11843.295072,-612.876398,2294.638420
1295.265327,-11325.150913,-2681.334243,2516.700203
1295.265638,-8660.409521,-3447.429741,3034.844362
1295.265950,-6365.771101,-2145.067394,1406.391290
1295.266261,-5699.585753,-919.314598,-0.000000
1295.266572,-7105.977043,-153.219100,-962.267725
1295.266884,-8142.265362,76.609550,-1332.370696
1295.267195,-8586.388927,995.924147,-1480.411884
1295.267506,-10140.821405,1991.848295,-148.041188
1295.267818,-11621.233289,229.828649,370.102971
1295.268129,-11399.171507,-1072.533697,666.185348
1295.268441,-9992.780217,-1378.971896,814.226536
1295.268752,-7772.162391,-1455.581446,740.205942
1295.269063,-7328.038826,-1532.190996,148.041188
1295.269375,-8734.430116,-612.876398,-0.000000
1295.269686,-10214.842000,536.266849,518.144159
1295.269997,-9844.739029,1149.143247,1924.535449
1295.270309,-10214.842000,766.095498,1554.432478
1295.270620,-9770.718434,919.314598,2146.597232
1295.270932,-8512.368333,-229.828649,1332.370696
1295.271243,-6661.853478,-1685.410096,518.144159
1295.271554,-5921.647536,-1225.752797,-222.061783
1295.271866,-7179.997637,76.609550,-1036.288319
1295.272177,-9326.594869,1149.143247,-1110.308913
1295.272488,-9992.780217,842.705048,-0.000000
1295.272800,-9844.739029,995.924147,1184.329507
1295.273111,-9844.739029,919.314598,1702.473667
1295.273423,-9252.574275,306.438199,1924.535449
1295.273734,-8068.244768,0.000000,1184.329507
1295.274045,-5995.668130,0.000000,518.144159
1295.274357,-5107.421000,-459.657299,-814.226536
1295.274668,-5995.668130,-689.485948,-1776.494261
1295.274979,-8438.347739,-306.438199,-1480.411884
1295.275291,-11177.109724,0.000000,-592.164754
1295.275602,-11843.295072,459.657299,518.144159
1295.275914,-12879.583391,0.000000,2368.659014
1295.276225,-11917.315666,-1532.190996,2960.823768
1295.276536,-10362.883188,-2374.896044,3034.844362
1295.276848,-7550.100608,-2145.067394,2220.617826
1295.277159,-4737.318029,-1302.362347,1258.350101
1295.277470,-5773.606348,-995.924147,-592.164754
1295.277782,-6809.894666,306.438199,-1258.350101
1295.278093,-8290.306550,612.876398,-1184.329507
1295.278405,-9474.636058,995.924147,-1036.288319
1295.278716,-11399.171507,1072.533697,-0.000000
1295.279027,-12583.501014,153.219100,370.102971
1295.279339,-11695.253884,-229.828649,666.185348
1295.279650,-9030.512492,-1072.533697,888.247130
1295.279961,-7550.100608,-1072.533697,296.082377
1295.280273,-7476.080014,-383.047749,-0.000000
1295.280584,-8734.430116,306.438199,-74.020594
1295.280896,-9178.553681,1455.581446,444.123565
1295.281207,-9622.677246,1838.629195,1258.350101
1295.281518,-10066.800811,1149.143247,1628.453072
1295.281830,-9770.718434,0.000000,814.226536
1295.282141,-8290.306550,-689.485948,666.185348
1295.282452,-6735.874072,-1072.533697,370.102971
1295.282764,-7105.977043,-1762.019645,-592.164754
1295.283075,-8660.409521,-1455.581446,-740.205942
1295.283387,-10584.944971,-1149.143247,-370.102971
1295.283698,-10807.006753,-383.047749,814.226536
1295.284009,-10955.047942,612.876398,1776.494261
1295.284321,-10510.924376,306.438199,1924.535449
1295.284632,-8734.430116,-153.219100,1850.514855
1295.284943,-7179.997637,-536.266849,1036.288319
1295.285255,-4589.276840,76.609550,222.061783
1295.285566,-4885.359217,536.266849,-962.267725
1295.285878,-7254.018232,536.266849,-1332.370696
1295.286189,-9770.718434,1072.533697,-1184.329507
1295.286500,-11473.192101,2068.457845,-0.000000
1295.286812,-12287.418637,2145.067394,1110.308913
1295.287123,-12287.418637,1302.362347,2368.659014
1295.287434,-10732.986159,-229.828649,2738.761985
1295.287746,-8438.347739,-1302.362347,2738.761985
1295.288057,-5625.565159,-1378.971896,1776.494261
1295.288369,-4737.318029,-689.485948,-0.000000
1295.288680,-5847.626942,-229.828649,-1184.329507
1295.288991,-6883.915261,153.219100,-1628.453072
1295.289303,-8364.327145,1302.362347,-1184.329507
1295.289614,-10140.821405,1685.410096,-222.061783
1295.289925,-11843.295072,0.000000,1036.288319
1295.290237,-13027.624579,-306.438199,962.267725
1295.290548,-11547.212695,-459.657299,1036.288319
1295.290860,-8734.430116,76.609550,592.164754
1295.291171,-7624.121203,0.000000,-148.041188
1295.291482,-7624.121203,536.266849,-0.000000
1295.291794,-7920.203579,766.095498,-518.144159
1295.292105,-8808.450710,1149.143247,296.082377
1295.292416,-9474.636058,1302.362347,1184.329507
1295.292728,-9844.739029,842.705048,1702.473667
1295.293039,-9770.718434,-766.095498,1480.411884
1295.293351,-8216.285956,-2451.505594,888.247130
1295.293662,-7105.977043,-2298.286494,148.041188
1295.293973,-7698.141797,-1991.848295,-296.082377
1295.294285,-9030.512492,-306.438199,-740.205942
1295.294596,-9474.636058,-766.095498,148.041188
1295.294907,-10362.883188,-1149.143247,1258.350101
1295.295219,-10436.903782,-689.485948,2368.659014
1295.295530,-10436.903782,-842.705048,2146.597232
1295.295842,-8956.491898,-689.485948,1480.411884
1295.296153,-6661.853478,-689.485948,962.267725
1295.296464,-5329.482782,-1225.752797,-74.020594
1295.296776,-6291.750507,-1302.362347,-740.205942
1295.297087,-9622.677246,-1532.190996,-518.144159
1295.297399,-11399.171507,-536.266849,-148.041188
1295.297710,-12139.377449,1149.143247,962.267725
1295.298021,-12657.521608,1378.971896,1924.535449
1295.298333,-11473.192101,229.828649,2368.659014
1295.298644,-9696.697840,-1532.190996,2368.659014
1295.298955,-6661.853478,-995.924147,1776.494261
1295.299267,-4219.173869,-306.438199,1480.411884
1295.299578,-4885.359217,229.828649,-740.205942
1295.299890,-6365.771101,995.924147,-1332.370696
1295.300201,-8216.285956,1455.581446,-1850.514855
1295.300512,-9178.553681,1991.848295,-1036.288319
1295.300824,-10807.006753,1685.410096,-0.000000
1295.301135,-12213.398043,1302.362347,666.185348
1295.301446,-11917.315666,-1225.752797,1036.288319
1295.301758,-10510.924376,-459.657299,1480.411884
1295.302069,-7624.121203,-1225.752797,1258.350101
1295.302381,-6365.771101,-766.095498,962.267725
1295.302692,-7550.100608,-842.705048,370.102971
1295.303003,-8364.327145,153.219100,148.041188
1295.303315,-8660.409521,1685.410096,740.205942
1295.303626,-9252.574275,1685.410096,814.226536
1295.303937,-9474.636058,842.705048,888.247130
1295.304249,-8512.368333,229.828649,222.061783
1295.304560,-6957.935855,-229.828649,-0.000000
1295.304872,-6143.709319,-383.047749,-296.082377
1295.305183,-7476.080014,-536.266849,-962.267725
1295.305494,-8660.409521,-306.438199,-888.247130
1295.305806,-9696.697840,306.438199,-222.061783
1295.306117,-10140.821405,383.047749,814.226536
1295.306428,-10066.800811,-383.047749,1332.370696
1295.306740,-10584.944971,-1072.533697,814.226536
1295.307051,-8956.491898,-1225.752797,518.144159
1295.307363,-6883.915261,-1378.971896,-0.000000
1295.307674,-6217.729913,-1685.410096,-518.144159
1295.307985,-7698.141797,-1762.019645,-740.205942
1295.308297,-10510.924376,-1608.800546,-370.102971
1295.308608,-11843.295072,0.000000,-74.020594
1295.308919,-12953.603985,612.876398,1036.288319
1295.309231,-13101.645173,1072.533697,2220.617826
1295.309542,-11991.336260,-919.314598,2516.700203
1295.309854,-9400.615463,-1532.190996,2368.659014
1295.310165,-6291.750507,-1685.410096,1480.411884
1295.310476,-4367.215058,-1378.971896,666.185348
1295.310788,-5403.503377,-459.657299,-888.247130
1295.311099,-7402.059420,0.000000,-1480.411884
1295.311410,-7846.182985,1532.190996,-1480.411884
1295.311722,-9622.677246,1915.238745,-1036.288319
1295.312033,-11695.253884,1991.848295,370.102971
1295.312345,-12805.562797,1302.362347,962.267725
1295.312656,-11843.295072,229.828649,1110.308913
1295.312967,-8660.409521,153.219100,1628.453072
1295.313279,-7105.977043,383.047749,1258.350101
1295.313590,-7105.977043,0.000000,592.164754
1295.313901,-7105.977043,612.876398,962.267725
1295.314213,-7254.018232,1225.752797,740.205942
1295.314524,-8438.347739,1685.410096,740.205942
1295.314836,-10362.883188,1532.190996,1110.308913
1295.315147,-10584.944971,612.876398,1258.350101
1295.315459,-9326.594869,-153.219100,1110.308913
1295.315770,-6957.935855,-766.095498,1406.391290
1295.316082,-6661.853478,-536.266849,370.102971
1295.316393,-7698.141797,-689.485948,-74.020594
1295.316705,-8290.306550,-459.657299,296.082377
1295.317016,-7846.182985,1149.143247,814.226536
1295.317328,-8364.327145,2374.896044,888.247130
1295.317639,-9178.553681,1838.629195,1110.308913
1295.317951,-8660.409521,459.657299,740.205942
1295.318262,-6661.853478,76.609550,666.185348
1295.318574,-5181.441594,0.000000,-0.000000
1295.318885,-6439.791695,-306.438199,-814.226536
1295.319197,-9104.533087,-689.485948,-444.123565
1295.319508,-11621.233289,-766.095498,-0.000000
1295.319820,-12509.480420,0.000000,1110.308913
1295.320131,-12657.521608,459.657299,2072.576638
1295.320443,-13175.665768,-536.266849,2368.659014
1295.320754,-11103.089130,-1302.362347,2664.741391
1295.321066,-7328.038826,-2145.067394,2590.720797
1295.321378,-5255.462188,-2528.115143,1554.432478
1295.321689,-5033.400406,-2145.067394,444.123565
1295.322001,-6957.935855,-1378.971896,-740.205942
1295.322312,-8586.388927,0.000000,-1628.453072
1295.322624,-9696.697840,1455.581446,-1258.350101
1295.322935,-11399.171507,1685.410096,-1110.308913
1295.323247,-12583.501014,1455.581446,-0.000000
1295.323558,-12731.542202,76.609550,740.205942
1295.323870,-10362.883188,-306.438199,1036.288319
1295.324181,-8216.285956,-1455.581446,592.164754
1295.324493,-7105.977043,-842.705048,518.144159
1295.324804,-7920.203579,-1532.190996,148.041188
1295.325116,-7994.224174,-766.095498,370.102971
1295.325427,-8586.388927,306.438199,1110.308913
1295.325739,-9548.656652,689.485948,1110.308913
1295.326050,-10658.965565,612.876398,1258.350101
1295.326362,-10510.924376,306.438199,962.267725
1295.326673,-8660.409521,-229.828649,740.205942
1295.326985,-6587.832884,-995.924147,592.164754
1295.327296,-6661.853478,-1072.533697,-222.061783
1295.327608,-7994.224174,-459.657299,-148.041188
1295.327919,-8808.450710,536.266849,-74.020594
1295.328231,-9326.594869,689.485948,148.041188
1295.328542,-9252.574275,1225.752797,1406.391290
1295.328854,-9178.553681,919.314598,962.267725
1295.329165,-8882.471304,-612.876398,592.164754
1295.329477,-7105.977043,-842.705048,444.123565
1295.329788,-5921.647536,-459.657299,-74.020594
1295.330100,-6439.791695,-383.047749,-222.061783
1295.330411,-8586.388927,-306.438199,-0.000000
1295.330723,-10955.047942,-766.095498,592.164754
1295.331034,-11103.089130,536.266849,1924.535449
1295.331346,-11621.233289,1378.971896,1850.514855
1295.331657,-10807.006753,689.485948,2368.659014
1295.331969,-9252.574275,-229.828649,2072.576638
1295.332280,-7105.977043,-1838.629195,1628.453072
1295.332592,-4885.359217,-1915.238745,592.164754
1295.332903,-5255.462188,-1149.143247,-592.164754
1295.333215,-6809.894666,-229.828649,-1184.329507
1295.333526,-9178.553681,306.438199,-1776.494261
1295.333838,-10214.842000,689.485948,-666.185348
1295.334149,-11177.109724,842.705048,222.061783
1295.334461,-12065.356855,153.219100,1258.350101
1295.334772,-11695.253884,-766.095498,1332.370696
1295.335084,-9992.780217,-995.924147,1332.370696
1295.335395,-7254.018232,-842.705048,740.205942
1295.335707,-6365.771101,-612.876398,-0.000000
1295.336018,-7772.162391,-1225.752797,-222.061783
1295.336330,-8216.285956,-383.047749,74.020594
1295.336641,-9844.739029,153.219100,222.061783
1295.336953,-10140.821405,1149.143247,666.185348
1295.337265,-11325.150913,995.924147,1036.288319
1295.337576,-11473.192101,-842.705048,888.247130
1295.337888,-9252.574275,-1762.019645,1184.329507
1295.338199,-7920.203579,-1455.581446,74.020594
1295.338511,-8290.306550,-612.876398,-0.000000
1295.338822,-9030.512492,459.657299,-0.000000
1295.339134,-9622.677246,766.095498,-148.041188
1295.339445,-9030.512492,1225.752797,518.144159
1295.339757,-8734.430116,1072.533697,888.247130
1295.340068,-8438.347739,766.095498,296.082377
1295.340380,-8364.327145,842.705048,-444.123565
1295.340691,-6365.771101,612.876398,-148.041188
1295.341003,-6217.729913,229.828649,-518.144159
1295.341314,-8068.244768,-536.266849,-592.164754
1295.341626,-10658.965565,-612.876398,-0.000000
1295.341937,-11769.274478,153.219100,740.205942
1295.342249,-11695.253884,1455.581446,1850.514855
1295.342560,-11103.089130,1072.533697,2294.638420
1295.342872,-9622.677246,153.219100,2294.638420
1295.343183,-7920.203579,-1991.848295,1924.535449
1295.343495,-4589.276840,-1225.752797,1702.473667
1295.343806,-3997.112087,-1072.533697,-0.000000
1295.344118,-5773.606348,-383.047749,-1184.329507
1295.344429,-8290.306550,0.000000,-1554.432478
1295.344741,-9844.739029,995.924147,-1184.329507
1295.345052,-9992.780217,1378.971896,-0.000000
1295.345364,-11325.150913,1915.238745,814.226536
1295.345675,-12361.439231,1225.752797,1110.308913
1295.345987,-11029.068536,229.828649,1480.411884
1295.346298,-7920.203579,153.219100,1110.308913
1295.346610,-5699.585753,383.047749,518.144159
1295.346921,-5921.647536,0.000000,148.041188
1295.347233,-7328.038826,-383.047749,-592.164754
1295.347544,-8364.327145,766.095498,296.082377
1295.347856,-10140.821405,1378.971896,-74.020594
1295.348167,-11399.171507,612.876398,962.267725
1295.348479,-12139.377449,-536.266849,1406.391290
1295.348790,-11251.130318,-2068.457845,1924.535449
1295.349102,-9474.636058,-2221.676944,1406.391290
1295.349413,-8512.368333,-1149.143247,296.082377
1295.349725,-8290.306550,689.485948,-296.082377
1295.350036,-8364.327145,1072.533697,-740.205942
1295.350348,-9030.512492,995.924147,-444.123565
1295.350659,-8808.450710,536.266849,222.061783
1295.350971,-8586.388927,153.219100,370.102971
1295.351282,-9104.533087,-306.438199,518.144159
1295.351594,-8364.327145,-995.924147,740.205942
1295.351905,-7105.977043,-1838.629195,-148.041188
1295.352217,-6809.894666,-1915.238745,-370.102971
1295.352528,-8142.265362,-1685.410096,444.123565
1295.352840,-10510.924376,-1455.581446,962.267725
1295.353151,-11621.233289,-383.047749,1554.432478
1295.353463,-11843.295072,689.485948,2220.617826
1295.353775,-11325.150913,229.828649,2886.803174
1295.354086,-9548.656652,-842.705048,2368.659014
1295.354398,-7105.977043,-1149.143247,2294.638420
1295.354709,-4071.132681,-1225.752797,962.267725
1295.355021,-3997.112087,-1532.190996,-296.082377
1295.355332,-6217.729913,536.266849,-1036.288319
1295.355644,-8142.265362,229.828649,-1036.288319
1295.355955,-10066.800811,919.314598,-444.123565
1295.356267,-11325.150913,1149.143247,666.185348
1295.356578,-12435.459826,842.705048,1184.329507
1295.356890,-12065.356855,919.314598,1480.411884
1295.357201,-9844.739029,306.438199,1258.350101
1295.357513,-7105.977043,0.000000,1776.494261
1295.357824,-5181.441594,-306.438199,814.226536
1295.358136,-6217.729913,-459.657299,222.061783
1295.358447,-7179.997637,306.438199,-222.061783
1295.358759,-7920.203579,1685.410096,-148.041188
1295.359070,-9104.533087,1915.238745,222.061783
1295.359382,-10584.944971,1225.752797,666.185348
1295.359693,-11991.336260,306.438199,740.205942
1295.360005,-10584.944971,-842.705048,962.267725
1295.360316,-9252.574275,-612.876398,1036.288319
1295.360628,-8438.347739,-766.095498,962.267725
1295.360939,-8882.471304,-1072.533697,-0.000000
1295.361251,-8586.388927,-842.705048,296.082377
1295.361562,-7772.162391,0.000000,518.144159
1295.361874,-7846.182985,0.000000,296.082377
1295.362185,-8660.409521,-383.047749,-74.020594
1295.362497,-8808.450710,-229.828649,-370.102971
1295.362808,-7550.100608,-306.438199,-666.185348
1295.363120,-6883.915261,-612.876398,-148.041188
1295.363431,-7402.059420,-766.095498,-148.041188
1295.363743,-9844.739029,-1149.143247,-0.000000
1295.364054,-11547.212695,-1149.143247,-0.000000
1295.364366,-11843.295072,612.876398,740.205942
1295.364677,-11325.150913,2068.457845,962.267725
1295.364989,-10955.047942,1608.800546,1332.370696
1295.365300,-9252.574275,-919.314598,1480.411884
1295.365612,-6735.874072,-2145.067394,1332.370696
1295.365923,-5255.462188,-1532.190996,296.082377
1295.366235,-5477.523971,-919.314598,-296.082377
1295.366546,-7550.100608,-766.095498,-1184.329507
1295.366858,-9696.697840,153.219100,-1554.432478
1295.367169,-10584.944971,842.705048,-666.185348
1295.367481,-11177.109724,1608.800546,-0.000000
1295.367792,-12953.603985,1225.752797,-0.000000
1295.368104,-11991.336260,1302.362347,1258.350101
1295.368415,-8808.450710,383.047749,888.247130
1295.368727,-6661.853478,-536.266849,814.226536
1295.369038,-5625.565159,0.000000,518.144159
1295.369350,-6513.812290,-383.047749,-148.041188
1295.369661,-8364.327145,766.095498,-592.164754
1295.369973,-8808.450710,1915.238745,296.082377
1295.370285,-11103.089130,1685.410096,814.226536
1295.370596,-12065.356855,536.266849,1776.494261
1295.370908,-11621.233289,-612.876398,1998.556043
1295.371219,-9252.574275,-1302.362347,1702.473667
1295.371531,-6883.915261,-919.314598,962.267725
1295.371842,-6513.812290,0.000000,-148.041188
1295.372154,-7179.997637,459.657299,-222.061783
1295.372465,-7846.182985,1455.581446,296.082377
1295.372777,-8438.347739,1225.752797,666.185348
1295.373088,-8956.491898,1915.238745,962.267725
1295.373400,-9770.718434,1378.971896,592.164754
1295.373711,-8660.409521,612.876398,888.247130
1295.374023,-7402.059420,459.657299,-296.082377
1295.374334,-6365.771101,-229.828649,-222.061783
1295.374646,-7624.121203,-1072.533697,-296.082377
1295.374957,-9992.780217,-995.924147,-74.020594
1295.375269,-10955.047942,-459.657299,1332.370696
1295.375580,-11251.130318,76.609550,2072.576638
1295.375892,-11103.089130,0.000000,2812.782580
1295.376203,-10362.883188,-766.095498,2590.720797
1295.376515,-8068.244768,-1762.019645,2146.597232
1295.376826,-5329.482782,-1608.800546,1480.411884
1295.377138,-4885.359217,-1302.362347,-74.020594
1295.377449,-5699.585753,-689.485948,-592.164754
1295.377761,-7994.224174,-153.219100,-814.226536
1295.378072,-9770.718434,689.485948,-296.082377
1295.378384,-10807.006753,1455.581446,222.061783
1295.378695,-12065.356855,1302.362347,1110.308913
1295.379007,-12731.542202,842.705048,1480.411884
1295.379318,-10658.965565,-766.095498,1480.411884
1295.379630,-7550.100608,-842.705048,666.185348
1295.379941,-5995.668130,-1455.581446,370.102971
1295.380253,-6365.771101,-1378.971896,-222.061783
1295.380564,-8290.306550,-1072.533697,-296.082377
1295.380876,-9844.739029,0.000000,222.061783
1295.381187,-10807.006753,766.095498,518.144159
1295.381499,-11547.212695,1149.143247,1110.308913
1295.381810,-11991.336260,689.485948,1332.370696
1295.382122,-10510.924376,-153.219100,1184.329507
1295.382433,-8068.244768,-1225.752797,962.267725
1295.382745,-6883.915261,-766.095498,666.185348
1295.383056,-6513.812290,0.000000,222.061783
1295.383368,-7994.224174,0.000000,-518.144159
1295.383679,-8882.471304,536.266849,-444.123565
1295.383991,-8734.430116,919.314598,-296.082377
1295.384302,-9992.780217,1072.533697,222.061783
1295.384614,-10066.800811,229.828649,-148.041188
1295.384925,-9400.615463,-153.219100,-0.000000
1295.385237,-7698.141797,-995.924147,222.061783
1295.385548,-7105.977043,-1149.143247,-0.000000
1295.385860,-8438.347739,-1225.752797,-0.000000
1295.386171,-9326.594869,-1149.143247,296.082377
1295.386483,-9474.636058,689.485948,1036.288319
1295.386795,-9918.759623,766.095498,1924.535449
1295.387106,-9622.677246,612.876398,1924.535449
1295.387418,-9178.553681,-842.705048,1998.556043
1295.387729,-7846.182985,-1302.362347,1776.494261
1295.388041,-6439.791695,-1302.362347,962.267725
1295.388352,-6365.771101,-1455.581446,-592.164754
1295.388664,-8068.244768,-153.219100,-1036.288319
1295.388975,-9030.512492,0.000000,-1258.350101
1295.389287,-9696.697840,1149.143247,-222.061783
1295.389598,-10658.965565,1302.362347,444.123565
1295.389910,-11325.150913,995.924147,1406.391290
1295.390221,-11103.089130,459.657299,1702.473667
1295.390533,-8882.471304,383.047749,888.247130
1295.390844,-6661.853478,842.705048,-0.000000
1295.391156,-5181.441594,229.828649,-592.164754
1295.391467,-6143.709319,-612.876398,-740.205942
1295.391779,-8512.368333,-1072.533697,-1036.288319
1295.392090,-9696.697840,612.876398,-0.000000
1295.392402,-11177.109724,1302.362347,592.164754
1295.392713,-12583.501014,1072.533697,1480.411884
1295.393025,-11843.295072,-689.485948,1998.556043
1295.393336,-9474.636058,-1302.362347,1998.556043
1295.393648,-7328.038826,-1225.752797,1332.370696
1295.393959,-6957.935855,-612.876398,74.020594
1295.394271,-8068.244768,-306.438199,-296.082377
1295.394582,-8734.430116,0.000000,-814.226536
1295.394894,-9178.553681,612.876398,-222.061783
1295.395205,-9622.677246,919.314598,-148.041188
1295.395517,-10214.842000,766.095498,-0.000000
1295.395828,-10066.800811,229.828649,-0.000000
1295.396140,-8882.471304,-919.314598,518.144159
1295.396451,-7031.956449,-459.657299,444.123565
1295.396763,-7772.162391,-612.876398,296.082377
1295.397074,-8882.471304,-383.047749,296.082377
1295.397386,-10214.842000,536.266849,-0.000000
1295.397697,-9770.718434,1532.190996,740.205942
1295.398009,-9844.739029,2374.896044,888.247130
1295.398320,-9474.636058,766.095498,1924.535449
1295.398632,-7920.203579,-383.047749,1702.473667
