#time,accel_x,accel_y,accel_z
1244.480223,-8734.430116,153.219100,444.123565
1244.480534,-8956.491898,229.828649,370.102971
1244.480846,-8660.409521,0.000000,740.205942
1244.481158,-8882.471304,0.000000,444.123565
1244.481469,-8734.430116,-306.438199,592.164754
1244.481781,-9104.533087,0.000000,222.061783
1244.482093,-8882.471304,-153.219100,592.164754
1244.482404,-8882.471304,0.000000,518.144159
1244.482716,-9104.533087,0.000000,592.164754
1244.483028,-9252.574275,-153.219100,222.061783
1244.483339,-8808.450710,-229.828649,518.144159
1244.483651,-8734.430116,153.219100,592.164754
1244.483963,-8734.430116,459.657299,592.164754
1244.484274,-8956.491898,0.000000,518.144159
1244.484586,-9030.512492,0.000000,592.164754
1244.484898,-9030.512492,76.609550,592.164754
1244.485209,-8808.450710,0.000000,592.164754
1244.485521,-8660.409521,76.609550,148.041188
1244.485833,-8808.450710,229.828649,296.082377
1244.486144,-8734.430116,153.219100,370.102971
1244.486456,-8438.347739,0.000000,740.205942
1244.486768,-8956.491898,0.000000,444.123565
1244.487079,-8882.471304,0.000000,592.164754
1244.487391,-8882.471304,-153.219100,592.164754
1244.487703,-8808.450710,-229.828649,740.205942
1244.488014,-8734.430116,-306.438199,592.164754
1244.488326,-9104.533087,-306.438199,592.164754
1244.488638,-9252.574275,-306.438199,814.226536
1244.488949,-9252.574275,0.000000,222.061783
1244.489261,-9104.533087,0.000000,592.164754
1244.489573,-8956.491898,0.000000,592.164754
1244.489884,-8808.450710,0.000000,592.164754
1244.490196,-8808.450710,0.000000,666.185348
1244.490508,-9104.533087,-306.438199,370.102971
1244.490819,-8956.491898,306.438199,888.247130
1244.491131,-8734.430116,76.609550,814.226536
1244.491443,-8808.450710,-306.438199,740.205942
1244.491754,-8808.450710,0.000000,444.123565
1244.492066,-8808.450710,-229.828649,666.185348
1244.492378,-8956.491898,0.000000,666.185348
1244.492689,-8808.450710,229.828649,370.102971
1244.493001,-8882.471304,0.000000,518.144159
1244.493313,-8734.430116,0.000000,370.102971
1244.493624,-8808.450710,76.609550,296.082377
1244.493936,-8882.471304,0.000000,666.185348
1244.494248,-8882.471304,-229.828649,592.164754
1244.494559,-8808.450710,0.000000,444.123565
1244.494871,-8734.430116,-459.657299,666.185348
1244.495183,-8882.471304,-229.828649,592.164754
1244.495494,-8734.430116,-153.219100,666.185348
1244.495806,-8882.471304,306.438199,592.164754
1244.496118,-8660.409521,76.609550,592.164754
1244.496429,-9030.512492,0.000000,592.164754
1244.496741,-8956.491898,0.000000,666.185348
1244.497053,-9030.512492,-383.047749,296.082377
1244.497364,-8882.471304,153.219100,518.144159
1244.497676,-8808.450710,0.000000,148.041188
1244.497988,-8734.430116,229.828649,296.082377
1244.498299,-9030.512492,383.047749,370.102971
1244.498611,-9104.533087,0.000000,370.102971
1244.498923,-8808.450710,76.609550,592.164754
1244.499234,-8882.471304,0.000000,740.205942
1244.499546,-8956.491898,0.000000,518.144159
1244.499858,-8808.450710,76.609550,444.123565
1244.500169,-9104.533087,-383.047749,444.123565
1244.500481,-8808.450710,689.485948,1110.308913
1244.500793,-8882.471304,-612.876398,740.205942
1244.501104,-8882.471304,306.438199,666.185348
1244.501416,-8882.471304,-76.609550,444.123565
1244.501728,-8882.471304,0.000000,592.164754
1244.502039,-9104.533087,-383.047749,370.102971
1244.502351,-8438.347739,0.000000,370.102971
1244.502663,-8660.409521,153.219100,518.144159
1244.502974,-8808.450710,-383.047749,740.205942
1244.503286,-9104.533087,0.000000,740.205942
1244.503598,-9104.533087,0.000000,518.144159
1244.503909,-8808.450710,0.000000,592.164754
1244.504221,-8808.450710,0.000000,518.144159
1244.504533,-9030.512492,0.000000,518.144159
1244.504844,-9178.553681,-153.219100,148.041188
1244.505156,-8660.409521,-229.828649,592.164754
1244.505468,-8734.430116,306.438199,222.061783
1244.505779,-9178.553681,0.000000,518.144159
1244.506091,-8956.491898,-229.828649,518.144159
1244.506403,-8808.450710,0.000000,740.205942
1244.506714,-9548.656652,153.219100,518.144159
1244.507026,-11843.295072,1532.190996,222.061783
1244.507338,-9992.780217,3753.867940,888.247130
1244.507649,-8216.285956,4596.572988,666.185348
1244.507961,-7476.080014,2757.943793,1110.308913
1244.508273,-6439.791695,-459.657299,1036.288319
1244.508584,-7328.038826,-1532.190996,-222.061783
1244.508896,-7105.977043,-842.705048,-148.041188
1244.509208,-8956.491898,-459.657299,-888.247130
1244.509519,-13101.645173,-1149.143247,-1184.329507
1244.509831,-11325.150913,536.266849,592.164754
1244.510143,-9770.718434,229.828649,666.185348
1244.510454,-9030.512492,0.000000,2294.638420
1244.510766,-10510.924376,-306.438199,2516.700203
1244.511078,-11177.109724,2374.896044,1628.453072
1244.511389,-5551.544565,5439.278036,2664.741391
1244.511701,-5551.544565,4519.963438,1554.432478
1244.512013,-8216.285956,2987.772442,-0.000000
1244.512324,-7105.977043,3064.381992,-1406.391290
1244.512636,-8512.368333,3600.648841,-2368.659014
1244.512948,-9178.553681,4136.915689,-518.144159
1244.513259,-9992.780217,3677.258390,-1110.308913
1244.513571,-14656.077652,689.485948,-888.247130
1244.513883,-11251.130318,-1302.362347,2516.700203
1244.514194,-8734.430116,-766.095498,1702.473667
1244.514506,-10140.821405,2987.772442,1258.350101
1244.514818,-6957.935855,7354.516781,2812.782580
1244.515129,-8216.285956,4903.011187,1332.370696
1244.515441,-6069.688724,2911.162892,3108.864956
1244.515753,-6513.812290,5669.106685,1110.308913
1244.516064,-7624.121203,7124.688131,-444.123565
1244.516376,-8438.347739,6511.811733,-1406.391290
1244.516688,-10732.986159,5056.230287,-592.164754
1244.516999,-9252.574275,4826.401637,-1480.411884
1244.517311,-11547.212695,5592.497135,-518.144159
1244.517623,-11325.150913,4213.525239,296.082377
1244.517934,-10658.965565,3447.429741,1406.391290
1244.518246,-10214.842000,4290.134789,2072.576638
1244.518558,-7994.224174,5362.668486,2368.659014
1244.518869,-6291.750507,4979.620737,1184.329507
1244.519181,-5699.585753,4979.620737,814.226536
1244.519493,-5107.421000,4903.011187,296.082377
1244.519804,-5329.482782,5286.058936,-1036.288319
1244.520116,-7031.956449,3907.087040,-1258.350101
1244.520428,-9178.553681,3524.039291,-370.102971
1244.520739,-10140.821405,2068.457845,-74.020594
1244.521051,-10955.047942,995.924147,444.123565
1244.521363,-11103.089130,842.705048,1554.432478
1244.521674,-11473.192101,0.000000,1628.453072
1244.521986,-9844.739029,1762.019645,2220.617826
1244.522298,-8142.265362,2451.505594,2146.597232
1244.522609,-6365.771101,3524.039291,740.205942
1244.522921,-6291.750507,2298.286494,592.164754
1244.523233,-7105.977043,2145.067394,-666.185348
1244.523544,-6587.832884,2834.553343,-518.144159
1244.523856,-6809.894666,1991.848295,-1184.329507
1244.524168,-8290.306550,-1072.533697,-1184.329507
1244.524479,-9992.780217,-3983.696590,-222.061783
1244.524791,-10658.965565,-3830.477490,1184.329507
1244.525103,-11843.295072,-3830.477490,1776.494261
1244.525414,-12805.562797,-3983.696590,2146.597232
1244.525726,-12879.583391,-2757.943793,1702.473667
1244.526038,-11991.336260,-536.266849,740.205942
1244.526349,-9548.656652,1915.238745,-444.123565
1244.526661,-7254.018232,3524.039291,-370.102971
1244.526973,-6883.915261,3677.258390,-1110.308913
1244.527284,-7402.059420,3524.039291,-518.144159
1244.527596,-7402.059420,2145.067394,-0.000000
1244.527908,-8586.388927,995.924147,296.082377
1244.528219,-9548.656652,-306.438199,1258.350101
1244.528531,-10807.006753,-2451.505594,666.185348
1244.528843,-11991.336260,-4060.306139,370.102971
1244.529154,-12213.398043,-4213.525239,296.082377
1244.529466,-12435.459826,-2374.896044,-0.000000
1244.529778,-12065.356855,76.609550,444.123565
1244.530089,-11399.171507,1455.581446,148.041188
1244.530401,-9326.594869,2221.676944,592.164754
1244.530713,-6513.812290,2911.162892,888.247130
1244.531024,-4367.215058,3370.820191,814.226536
1244.531336,-2368.659014,3217.601092,222.061783
1244.531648,-2368.659014,2221.676944,-0.000000
1244.531959,-4737.318029,306.438199,222.061783
1244.532271,-7328.038826,0.000000,296.082377
1244.532583,-11029.068536,-1149.143247,148.041188
1244.532894,-12805.562797,-1225.752797,666.185348
1244.533206,-13249.686362,-1378.971896,1406.391290
1244.533518,-12583.501014,-766.095498,1184.329507
1244.533829,-11325.150913,612.876398,-0.000000
1244.534141,-9104.533087,2681.334243,-74.020594
1244.534453,-6513.812290,3907.087040,-0.000000
1244.534764,-4367.215058,5132.839837,-0.000000
1244.535076,-3034.844362,4596.572988,296.082377
1244.535388,-2812.782580,1915.238745,962.267725
1244.535699,-3997.112087,-766.095498,1924.535449
1244.536011,-6661.853478,-2604.724693,1628.453072
1244.536323,-9770.718434,-3983.696590,1554.432478
1244.536634,-12731.542202,-4826.401637,962.267725
1244.536946,-14063.912898,-4519.963438,1332.370696
1244.537258,-14211.954086,-3524.039291,1332.370696
1244.537569,-14063.912898,-1838.629195,-0.000000
1244.537881,-12879.583391,229.828649,-370.102971
1244.538193,-10584.944971,2604.724693,-0.000000
1244.538504,-7328.038826,3753.867940,222.061783
1244.538816,-4885.359217,3524.039291,-592.164754
1244.539128,-3478.967927,2757.943793,-0.000000
1244.539439,-2738.761985,995.924147,370.102971
1244.539751,-2886.803174,-766.095498,1110.308913
1244.540063,-6809.894666,-2604.724693,370.102971
1244.540374,-10881.027347,-3600.648841,296.082377
1244.540686,-13767.830521,-4213.525239,592.164754
1244.540998,-15248.242405,-3753.867940,518.144159
1244.541309,-16284.530724,-2681.334243,370.102971
1244.541621,-16136.489536,-1378.971896,-0.000000
1244.541933,-13767.830521,536.266849,444.123565
1244.542244,-10140.821405,3217.601092,518.144159
1244.542556,-6365.771101,4673.182538,-74.020594
1244.542868,-4515.256246,3677.258390,-222.061783
1244.543179,-2738.761985,2604.724693,1554.432478
1244.543491,-2442.679609,1302.362347,1776.494261
1244.543803,-4885.359217,-1149.143247,444.123565
1244.544114,-8364.327145,-1149.143247,-444.123565
1244.544426,-12139.377449,-1991.848295,-592.164754
1244.544738,-13693.809927,-1378.971896,-0.000000
1244.545049,-14508.036463,-1072.533697,-74.020594
1244.545361,-15026.180623,-842.705048,-222.061783
1244.545673,-12879.583391,612.876398,296.082377
1244.545984,-8734.430116,2987.772442,592.164754
1244.546296,-4737.318029,4979.620737,296.082377
1244.546608,-2812.782580,4596.572988,814.226536
1244.546919,-592.164754,2681.334243,2072.576638
1244.547231,296.082377,1532.190996,1184.329507
1244.547543,-1776.494261,689.485948,296.082377
1244.547854,-6143.709319,-1302.362347,-740.205942
1244.548166,-11547.212695,-2298.286494,-666.185348
1244.548478,-14434.015869,-2528.115143,1110.308913
1244.548789,-15544.324782,-3294.210641,2220.617826
1244.549101,-16432.571912,-2987.772442,1776.494261
1244.549413,-15100.201217,-1149.143247,1258.350101
1244.549724,-11547.212695,2221.676944,740.205942
1244.550036,-6661.853478,4673.182538,-518.144159
1244.550348,-3478.967927,6435.202183,-222.061783
1244.550659,-1702.473667,5056.230287,-0.000000
1244.550971,-814.226536,2298.286494,1036.288319
1244.551283,-2146.597232,-612.876398,1554.432478
1244.551594,-6069.688724,-2911.162892,1480.411884
1244.551906,-10658.965565,-4673.182538,1184.329507
1244.552218,-14730.098246,-5439.278036,1702.473667
1244.552529,-16136.489536,-5439.278036,1554.432478
1244.552841,-16950.716072,-4596.572988,592.164754
1244.553152,-16358.551318,-2374.896044,-148.041188
1244.553463,-14285.974681,0.000000,-0.000000
1244.553775,-11103.089130,2834.553343,-0.000000
1244.554086,-6735.874072,4443.353888,666.185348
1244.554398,-2368.659014,3370.820191,-0.000000
1244.554709,-1110.308913,1455.581446,370.102971
1244.555021,296.082377,-536.266849,1332.370696
1244.555332,-2146.597232,-2221.676944,814.226536
1244.555644,-6883.915261,-4519.963438,-0.000000
1244.555955,-12213.398043,-4903.011187,-0.000000
1244.556266,-15248.242405,-5362.668486,1036.288319
1244.556578,-17468.860231,-4903.011187,666.185348
1244.556889,-18801.230927,-3217.601092,666.185348
1244.557201,-16654.633695,-536.266849,222.061783
1244.557512,-12805.562797,3370.820191,666.185348
1244.557824,-7328.038826,5209.449386,-0.000000
1244.558135,-2590.720797,5822.325785,-1036.288319
1244.558446,-740.205942,4826.401637,296.082377
1244.558758,0.000000,2987.772442,1258.350101
1244.559069,-1628.453072,1378.971896,-0.000000
1244.559381,-5699.585753,-1225.752797,-814.226536
1244.559692,-10436.903782,-2604.724693,-740.205942
1244.560004,-13989.892304,-3447.429741,148.041188
1244.560315,-16432.571912,-3140.991542,1628.453072
1244.560627,-16876.695478,-2528.115143,1628.453072
1244.560938,-16062.468941,-1225.752797,1776.494261
1244.561249,-12509.480420,842.705048,1998.556043
1244.561561,-7476.080014,4979.620737,222.061783
1244.561872,-3627.009116,6894.859482,-592.164754
1244.562184,592.164754,6511.811733,-222.061783
1244.562495,2442.679609,4060.306139,222.061783
1244.562807,1332.370696,1685.410096,-814.226536
1244.563118,-3256.906145,-383.047749,-518.144159
1244.563430,-8068.244768,-2604.724693,-592.164754
1244.563741,-13841.851115,-3140.991542,592.164754
1244.564052,-16950.716072,-4519.963438,2220.617826
1244.564364,-18505.148550,-4519.963438,3108.864956
1244.564675,-18135.045579,-3447.429741,3034.844362
1244.564987,-14359.995275,-229.828649,2812.782580
1244.565298,-9992.780217,4136.915689,888.247130
1244.565610,-5847.626942,5745.716235,-666.185348
1244.565921,-1628.453072,6971.469032,-1998.556043
1244.566232,592.164754,5362.668486,-370.102971
1244.566544,222.061783,1532.190996,-444.123565
1244.566855,-2590.720797,-2068.457845,1036.288319
1244.567167,-7624.121203,-4519.963438,666.185348
1244.567478,-12879.583391,-5515.887586,2072.576638
1244.567790,-15988.448347,-6741.640382,2738.761985
1244.568101,-17172.777854,-6358.592633,2442.679609
1244.568413,-17838.963202,-4903.011187,1332.370696
1244.568724,-15840.407159,-1838.629195,370.102971
1244.569035,-13101.645173,1302.362347,296.082377
1244.569347,-9252.574275,3753.867940,148.041188
1244.569658,-4071.132681,4903.011187,-814.226536
1244.569970,-518.144159,2757.943793,-888.247130
1244.570281,1406.391290,842.705048,-962.267725
1244.570593,962.267725,-459.657299,148.041188
1244.570904,-2886.803174,-3140.991542,-888.247130
1244.571215,-8808.450710,-4596.572988,-444.123565
1244.571527,-14285.974681,-5898.935335,1850.514855
1244.571838,-17690.922014,-6205.373534,2368.659014
1244.572150,-19467.416275,-4903.011187,2664.741391
1244.572461,-18653.189738,-2528.115143,1924.535449
1244.572773,-14656.077652,1072.533697,1554.432478
1244.573084,-10140.821405,3830.477490,-0.000000
1244.573396,-5107.421000,6588.421283,-1110.308913
1244.573707,-1554.432478,6435.202183,-1850.514855
1244.574018,962.267725,3983.696590,-1110.308913
1244.574330,740.205942,2298.286494,-518.144159
1244.574641,-3182.885551,-1225.752797,-962.267725
1244.574953,-7476.080014,-3600.648841,-592.164754
1244.575264,-12583.501014,-5209.449386,222.061783
1244.575576,-15988.448347,-4596.572988,1850.514855
1244.575887,-18283.086767,-3753.867940,3182.885551
1244.576199,-19319.375086,-2374.896044,1850.514855
1244.576510,-16062.468941,459.657299,1850.514855
1244.576821,-11325.150913,3983.696590,222.061783
1244.577133,-5477.523971,6818.249932,-2146.597232
1244.577444,-148.041188,8733.488677,-2960.823768
1244.577756,2590.720797,6128.763984,-1406.391290
1244.578067,2738.761985,2451.505594,-888.247130
1244.578379,518.144159,153.219100,-222.061783
1244.578690,-5477.523971,-2451.505594,-444.123565
1244.579001,-11399.171507,-3753.867940,888.247130
1244.579313,-16728.654289,-5515.887586,1850.514855
1244.579624,-19763.498651,-4903.011187,3627.009116
1244.579936,-19985.560434,-3983.696590,3775.050304
1244.580247,-17320.819043,-1072.533697,2664.741391
1244.580559,-12657.521608,2604.724693,1258.350101
1244.580870,-7698.141797,4903.011187,-666.185348
1244.581182,-2516.700203,6741.640382,-1184.329507
1244.581493,1480.411884,5745.716235,-1332.370696
1244.581804,2146.597232,2987.772442,-592.164754
1244.582116,222.061783,0.000000,296.082377
1244.582427,-4441.235652,-2987.772442,1036.288319
1244.582739,-9400.615463,-4366.744339,2294.638420
1244.583050,-14211.954086,-6128.763984,3034.844362
1244.583362,-16876.695478,-6128.763984,3701.029710
1244.583673,-18727.210333,-5209.449386,3478.967927
1244.583984,-17987.004391,-2757.943793,2442.679609
1244.584296,-14211.954086,153.219100,1184.329507
1244.584607,-10288.862594,3600.648841,370.102971
1244.584919,-5625.565159,5362.668486,-370.102971
1244.585230,-222.061783,7124.688131,-2294.638420
1244.585542,1776.494261,3217.601092,-2368.659014
1244.585853,1850.514855,842.705048,-1110.308913
1244.586165,-592.164754,-1532.190996,370.102971
1244.586476,-6143.709319,-3907.087040,148.041188
1244.586787,-11917.315666,-5592.497135,1702.473667
1244.587099,-16950.716072,-6588.421283,2738.761985
1244.587410,-19615.457463,-5056.230287,4219.173869
1244.587722,-20133.601622,-2604.724693,3256.906145
1244.588033,-16876.695478,153.219100,1554.432478
1244.588345,-12361.439231,4136.915689,296.082377
1244.588656,-7179.997637,6741.640382,-1702.473667
1244.588967,-1036.288319,8197.221829,-3627.009116
1244.589279,888.247130,5822.325785,-2738.761985
1244.589590,1110.308913,2451.505594,-1480.411884
1244.589902,-740.205942,76.609550,-370.102971
1244.590213,-5847.626942,-2068.457845,-222.061783
1244.590525,-11843.295072,-4979.620737,592.164754
1244.590836,-16358.551318,-5209.449386,1628.453072
1244.591148,-18727.210333,-4596.572988,2664.741391
1244.591459,-19023.292709,-2451.505594,2738.761985
1244.591770,-17172.777854,-383.047749,2220.617826
1244.592082,-13027.624579,3217.601092,1702.473667
1244.592393,-7254.018232,4290.134789,-222.061783
1244.592705,-2516.700203,7124.688131,-2146.597232
1244.593016,1480.411884,7048.078582,-2738.761985
1244.593328,3552.988522,4903.011187,-2442.679609
1244.593639,2368.659014,2068.457845,-2664.741391
1244.593951,-2516.700203,-1532.190996,-1554.432478
1244.594262,-9104.533087,-4060.306139,-0.000000
1244.594573,-15026.180623,-5515.887586,2516.700203
1244.594885,-18431.127956,-5898.935335,3923.091493
1244.595196,-20207.622217,-5822.325785,4441.235652
1244.595508,-19393.395680,-3064.381992,3627.009116
1244.595819,-14508.036463,842.705048,1998.556043
1244.596131,-9770.718434,3830.477490,-296.082377
1244.596442,-5921.647536,5898.935335,-814.226536
1244.596753,74.020594,7201.297681,-1480.411884
1244.597065,2516.700203,4519.963438,-1036.288319
1244.597376,1776.494261,536.266849,-962.267725
1244.597688,-2590.720797,-2374.896044,-74.020594
1244.597999,-7476.080014,-4826.401637,-0.000000
1244.598311,-13101.645173,-5209.449386,1776.494261
1244.598622,-17838.963202,-5822.325785,2738.761985
1244.598934,-19985.560434,-5745.716235,3923.091493
1244.599245,-19837.519246,-4673.182538,4145.153275
1244.599556,-17468.860231,-1455.581446,2812.782580
1244.599868,-12879.583391,1991.848295,2072.576638
1244.600179,-7402.059420,5286.058936,-74.020594
1244.600491,-1776.494261,6205.373534,-2146.597232
1244.600802,2368.659014,5286.058936,-2812.782580
1244.601114,3478.967927,2681.334243,-2738.761985
1244.601425,1628.453072,229.828649,-1258.350101
1244.601736,-3775.050304,-2528.115143,148.041188
1244.602048,-9918.759623,-4519.963438,1776.494261
1244.602359,-15988.448347,-5515.887586,3108.864956
1244.602671,-19763.498651,-5515.887586,4663.297435
1244.602982,-20207.622217,-3524.039291,4367.215058
1244.603294,-17912.983796,-383.047749,3034.844362
1244.603605,-13915.871710,3140.991542,1184.329507
1244.603917,-8882.471304,6435.202183,-1480.411884
1244.604228,-3330.926739,8197.221829,-2516.700203
1244.604539,222.061783,7277.907231,-2590.720797
1244.604851,1480.411884,5132.839837,-2072.576638
1244.605162,1110.308913,995.924147,-74.020594
1244.605474,-3923.091493,-2451.505594,-296.082377
1244.605785,-8660.409521,-3677.258390,814.226536
1244.606097,-13323.706956,-4596.572988,1480.411884
1244.606408,-16876.695478,-4826.401637,2368.659014
1244.606720,-18061.024985,-3294.210641,3108.864956
1244.607031,-17912.983796,-1838.629195,2442.679609
1244.607342,-15100.201217,1762.019645,2294.638420
1244.607654,-11103.089130,3907.087040,370.102971
1244.607965,-5921.647536,5592.497135,-888.247130
1244.608277,-1110.308913,5975.544884,-1406.391290
1244.608588,2368.659014,4826.401637,-1998.556043
1244.608900,3256.906145,2145.067394,-2664.741391
1244.609211,370.102971,-306.438199,-2072.576638
1244.609522,-5847.626942,-2604.724693,-1480.411884
1244.609834,-11547.212695,-3447.429741,740.205942
1244.610145,-17024.736666,-4903.011187,2738.761985
1244.610457,-20207.622217,-5286.058936,4071.132681
1244.610768,-20355.663405,-3447.429741,3775.050304
1244.611080,-16580.613101,0.000000,3034.844362
1244.611391,-11473.192101,3140.991542,888.247130
1244.611703,-7920.203579,4519.963438,-1998.556043
1244.612014,-2590.720797,6665.030833,-2886.803174
1244.612325,814.226536,5209.449386,-3034.844362
1244.612637,962.267725,2374.896044,-3404.947333
1244.612948,-1258.350101,-1149.143247,-1110.308913
1244.613260,-5847.626942,-4673.182538,370.102971
1244.613571,-10436.903782,-6205.373534,2368.659014
1244.613883,-14508.036463,-7507.735880,3256.906145
1244.614194,-17394.839637,-7967.393179,4367.215058
1244.614505,-19911.539840,-6358.592633,3330.926739
1244.614817,-18505.148550,-2451.505594,2590.720797
1244.615128,-14656.077652,1762.019645,962.267725
1244.615440,-10584.944971,3983.696590,-592.164754
1244.615751,-5477.523971,5056.230287,-1850.514855
1244.616063,148.041188,4979.620737,-2220.617826
1244.616374,2664.741391,3983.696590,-2590.720797
1244.616686,962.267725,612.876398,-1998.556043
1244.616997,-2294.638420,-2221.676944,-444.123565
1244.617308,-6513.812290,-3064.381992,518.144159
1244.617620,-11251.130318,-5056.230287,2294.638420
1244.617931,-16358.551318,-5592.497135,3256.906145
1244.618243,-19615.457463,-4596.572988,3997.112087
1244.618554,-19393.395680,-1225.752797,4071.132681
1244.618866,-16284.530724,2987.772442,2220.617826
1244.619177,-11029.068536,4979.620737,370.102971
1244.619488,-5921.647536,6741.640382,-1332.370696
1244.619800,-1184.329507,7354.516781,-2960.823768
1244.620111,2072.576638,6052.154434,-2146.597232
1244.620423,1776.494261,2911.162892,-1406.391290
1244.620734,-1998.556043,-689.485948,-222.061783
1244.621046,-7105.977043,-2987.772442,-296.082377
1244.621357,-12361.439231,-3600.648841,1258.350101
1244.621669,-16358.551318,-3830.477490,2146.597232
1244.621980,-17764.942608,-4136.915689,3256.906145
1244.622291,-18135.045579,-2757.943793,3775.050304
1244.622603,-15470.304188,0.000000,3330.926739
1244.622914,-11917.315666,2451.505594,2368.659014
1244.623226,-7476.080014,4213.525239,666.185348
1244.623537,-2368.659014,6435.202183,-1184.329507
1244.623849,1998.556043,7354.516781,-2220.617826
1244.624160,3701.029710,5669.106685,-3182.885551
1244.624472,1776.494261,1149.143247,-3182.885551
1244.624783,-3330.926739,-1991.848295,-1554.432478
1244.625094,-9178.553681,-3294.210641,-0.000000
1244.625406,-14878.139434,-4673.182538,2516.700203
1244.625717,-19097.313304,-5745.716235,4811.338623
1244.626029,-20725.766376,-5209.449386,4589.276840
1244.626340,-18505.148550,-2221.676944,4219.173869
1244.626652,-13693.809927,842.705048,2442.679609
1244.626963,-9474.636058,3140.991542,-0.000000
1244.627274,-4737.318029,5132.839837,-1480.411884
1244.627586,-814.226536,6128.763984,-3552.988522
1244.627897,518.144159,4290.134789,-2812.782580
1244.628209,222.061783,995.924147,-1776.494261
1244.628520,-3478.967927,-2681.334243,-444.123565
1244.628832,-7698.141797,-4290.134789,814.226536
1244.629143,-12509.480420,-6894.859482,2368.659014
1244.629455,-17098.757260,-6665.030833,2738.761985
1244.629766,-19171.333898,-5515.887586,2664.741391
1244.630077,-18357.107362,-3064.381992,2442.679609
1244.630389,-15988.448347,-229.828649,1850.514855
1244.630700,-12953.603985,1991.848295,888.247130
1244.631012,-8068.244768,3677.258390,-0.000000
1244.631323,-2516.700203,4060.306139,-1554.432478
1244.631635,1554.432478,3753.867940,-2220.617826
1244.631946,2368.659014,1225.752797,-2072.576638
1244.632257,-814.226536,-1685.410096,-1702.473667
1244.632569,-4737.318029,-3370.820191,-1110.308913
1244.632880,-9474.636058,-3830.477490,-0.000000
1244.633192,-15100.201217,-4596.572988,2368.659014
1244.633503,-19171.333898,-5286.058936,3256.906145
1244.633815,-21021.848753,-3064.381992,4441.235652
1244.634126,-18209.066173,-306.438199,3997.112087
1244.634438,-13767.830521,2987.772442,2368.659014
1244.634749,-8216.285956,4749.792088,-370.102971
1244.635060,-2072.576638,6358.592633,-2368.659014
1244.635372,1110.308913,6894.859482,-3108.864956
1244.635683,2368.659014,4366.744339,-2812.782580
1244.635995,0.000000,1532.190996,-1998.556043
1244.636306,-4219.173869,-1838.629195,-1184.329507
1244.636618,-9844.739029,-3370.820191,222.061783
1244.636929,-14434.015869,-4903.011187,2294.638420
1244.637241,-17616.901420,-4903.011187,3256.906145
1244.637552,-18505.148550,-3830.477490,3478.967927
1244.637863,-17024.736666,-1225.752797,3330.926739
1244.638175,-13693.809927,1378.971896,3034.844362
1244.638486,-9400.615463,3830.477490,1036.288319
1244.638798,-4293.194464,4979.620737,-296.082377
1244.639109,296.082377,5669.106685,-1258.350101
1244.639421,3256.906145,4826.401637,-1998.556043
1244.639732,2220.617826,1685.410096,-2812.782580
1244.640043,-2146.597232,-1455.581446,-2294.638420
1244.640355,-6957.935855,-2757.943793,-1184.329507
1244.640666,-11917.315666,-2757.943793,1850.514855
1244.640978,-16580.613101,-5056.230287,3701.029710
1244.641289,-19171.333898,-6128.763984,4219.173869
1244.641601,-18949.272115,-4060.306139,4663.297435
1244.641912,-15840.407159,-229.828649,3997.112087
1244.642224,-11325.150913,3140.991542,2072.576638
1244.642535,-7031.956449,5286.058936,148.041188
1244.642846,-1776.494261,6971.469032,-2072.576638
1244.643158,1036.288319,4366.744339,-2294.638420
1244.643469,1998.556043,2221.676944,-2368.659014
1244.643781,-1184.329507,-1302.362347,-1332.370696
1244.644092,-6365.771101,-3753.867940,-518.144159
1244.644404,-11695.253884,-5822.325785,1702.473667
1244.644715,-16358.551318,-7048.078582,2368.659014
1244.645026,-18505.148550,-6665.030833,3404.947333
1244.645338,-19467.416275,-4826.401637,3034.844362
1244.645649,-17098.757260,-1915.238745,2664.741391
1244.645961,-13989.892304,1225.752797,1924.535449
1244.646272,-9548.656652,3677.258390,1332.370696
1244.646584,-4663.297435,4366.744339,-666.185348
1244.646895,-222.061783,3983.696590,-1702.473667
1244.647207,2368.659014,2451.505594,-3256.906145
1244.647518,2294.638420,612.876398,-2886.803174
1244.647829,-1924.535449,-919.314598,-2886.803174
1244.648141,-7994.224174,-2681.334243,-814.226536
1244.648452,-13619.789333,-3983.696590,1332.370696
1244.648764,-18135.045579,-5362.668486,3034.844362
1244.649075,-20503.704593,-4979.620737,4293.194464
1244.649387,-19615.457463,-1991.848295,3775.050304
1244.649698,-15248.242405,1608.800546,2738.761985
1244.650009,-9696.697840,3907.087040,962.267725
1244.650321,-4737.318029,5439.278036,-518.144159
1244.650632,-518.144159,6281.983084,-2368.659014
1244.650944,1110.308913,5439.278036,-2442.679609
1244.651255,444.123565,2681.334243,-2368.659014
1244.651567,-2812.782580,-689.485948,-1776.494261
1244.651878,-7550.100608,-2757.943793,-1554.432478
1244.652190,-12287.418637,-4136.915689,296.082377
1244.652501,-15988.448347,-4060.306139,2516.700203
1244.652812,-18061.024985,-4213.525239,2960.823768
1244.653124,-19023.292709,-2604.724693,2738.761985
1244.653435,-15470.304188,0.000000,2664.741391
1244.653747,-11103.089130,2757.943793,2368.659014
1244.654058,-6883.915261,4060.306139,1036.288319
1244.654369,-1554.432478,4749.792088,-1184.329507
1244.654681,1628.453072,4213.525239,-1924.535449
1244.654992,2220.617826,2834.553343,-3108.864956
1244.655304,-222.061783,459.657299,-2664.741391
1244.655615,-4737.318029,-2298.286494,-2664.741391
1244.655927,-10362.883188,-4443.353888,-518.144159
1244.656238,-14952.160028,-4596.572988,2516.700203
1244.656549,-18283.086767,-5975.544884,3997.112087
1244.656861,-19911.539840,-4903.011187,3923.091493
1244.657172,-17987.004391,-1685.410096,4219.173869
1244.657484,-13175.665768,1685.410096,2960.823768
1244.657795,-8660.409521,4749.792088,1110.308913
1244.658107,-4145.153275,6052.154434,-962.267725
1244.658418,0.000000,4903.011187,-1628.453072
1244.658729,666.185348,3447.429741,-2294.638420
1244.659041,-148.041188,1149.143247,-1850.514855
1244.659352,-4811.338623,-1455.581446,-2590.720797
1244.659664,-9548.656652,-3217.601092,-814.226536
1244.659975,-13323.706956,-4979.620737,1554.432478
1244.660286,-17024.736666,-5286.058936,2960.823768
1244.660598,-18653.189738,-5669.106685,3256.906145
1244.660909,-18653.189738,-3370.820191,3108.864956
1244.661221,-15470.304188,153.219100,2886.803174
1244.661532,-11251.130318,3600.648841,1776.494261
1244.661844,-6291.750507,4826.401637,148.041188
1244.662155,-1628.453072,4136.915689,-962.267725
1244.662466,2368.659014,2987.772442,-1702.473667
1244.662778,2664.741391,2298.286494,-2294.638420
1244.663089,0.000000,306.438199,-2516.700203
1244.663401,-6365.771101,-2834.553343,-2072.576638
1244.663712,-11695.253884,-3830.477490,-74.020594
1244.664023,-16580.613101,-3447.429741,2368.659014
1244.664335,-19097.313304,-3370.820191,3552.988522
1244.664646,-19393.395680,-2451.505594,3701.029710
1244.664958,-16802.674883,76.609550,3330.926739
1244.665269,-11769.274478,2987.772442,2072.576638
1244.665581,-6217.729913,5515.887586,962.267725
1244.665892,-1554.432478,5822.325785,-592.164754
1244.666203,1110.308913,4290.134789,-1406.391290
1244.666515,1850.514855,2451.505594,-2220.617826
1244.666826,0.000000,995.924147,-1776.494261
1244.667138,-4737.318029,-1455.581446,-1924.535449
1244.667449,-10807.006753,-2834.553343,-888.247130
1244.667760,-15840.407159,-3830.477490,888.247130
1244.668072,-17987.004391,-3370.820191,2664.741391
1244.668383,-19023.292709,-2604.724693,3256.906145
1244.668695,-17690.922014,-1072.533697,3182.885551
1244.669006,-14137.933492,1915.238745,2590.720797
1244.669318,-8808.450710,4136.915689,1480.411884
1244.669629,-3108.864956,4749.792088,296.082377
1244.669940,1036.288319,3830.477490,-962.267725
1244.670252,2368.659014,2451.505594,-1924.535449
1244.670563,1406.391290,766.095498,-2146.597232
1244.670875,-2368.659014,-1302.362347,-2368.659014
1244.671186,-7772.162391,-3140.991542,-1776.494261
1244.671498,-13471.748144,-4060.306139,518.144159
1244.671809,-17987.004391,-5056.230287,3034.844362
1244.672120,-19763.498651,-4903.011187,3404.947333
1244.672432,-19615.457463,-2604.724693,4515.256246
1244.672743,-16136.489536,919.314598,3627.009116
1244.673055,-11103.089130,4060.306139,1628.453072
1244.673366,-5847.626942,5745.716235,444.123565
1244.673677,-666.185348,5209.449386,-1628.453072
1244.673989,1776.494261,4060.306139,-2072.576638
1244.674300,1258.350101,2451.505594,-2294.638420
1244.674612,-1776.494261,536.266849,-1702.473667
1244.674923,-6365.771101,-2528.115143,-1110.308913
1244.675235,-12731.542202,-4903.011187,-0.000000
1244.675546,-16876.695478,-5286.058936,1998.556043
1244.675857,-18505.148550,-4749.792088,2664.741391
1244.676169,-18949.272115,-3753.867940,2664.741391
1244.676480,-16432.571912,-1302.362347,2664.741391
1244.676792,-12361.439231,1532.190996,1850.514855
1244.677103,-8216.285956,3370.820191,814.226536
1244.677414,-2886.803174,4136.915689,-1332.370696
1244.677726,1036.288319,3294.210641,-666.185348
1244.678037,2886.803174,1532.190996,-1554.432478
1244.678349,1406.391290,-459.657299,-1480.411884
1244.678660,-2886.803174,-2221.676944,-1850.514855
1244.678972,-9178.553681,-3753.867940,-888.247130
1244.679283,-14582.057057,-3830.477490,1110.308913
1244.679594,-18727.210333,-4290.134789,3108.864956
1244.679906,-20355.663405,-3524.039291,3923.091493
1244.680217,-18875.251521,-1991.848295,3404.947333
1244.680529,-14804.118840,1225.752797,2960.823768
1244.680840,-9104.533087,3983.696590,1332.370696
1244.681152,-3404.947333,5132.839837,-296.082377
1244.681463,592.164754,4673.182538,-1110.308913
1244.681774,1850.514855,3064.381992,-2072.576638
1244.682086,888.247130,1838.629195,-2294.638420
1244.682397,-3256.906145,-383.047749,-2294.638420
1244.682709,-8068.244768,-2757.943793,-1110.308913
1244.683020,-13693.809927,-3753.867940,-0.000000
1244.683331,-17912.983796,-3217.601092,1702.473667
1244.683643,-19541.436869,-2987.772442,2664.741391
1244.683954,-18875.251521,-1762.019645,3552.988522
1244.684266,-15322.262999,919.314598,3478.967927
1244.684577,-10658.965565,3064.381992,2368.659014
1244.684889,-6069.688724,3907.087040,1332.370696
1244.685200,-444.123565,4290.134789,-0.000000
1244.685511,2072.576638,3753.867940,-1406.391290
1244.685823,2072.576638,2681.334243,-2590.720797
1244.686134,-888.247130,842.705048,-2516.700203
1244.686446,-5847.626942,-1608.800546,-2294.638420
1244.686757,-11621.233289,-3217.601092,-666.185348
1244.687068,-16580.613101,-4519.963438,1258.350101
1244.687380,-19467.416275,-3830.477490,3108.864956
1244.687691,-19615.457463,-3217.601092,4071.132681
1244.688003,-17098.757260,-995.924147,3701.029710
1244.688314,-12139.377449,2221.676944,2886.803174
1244.688626,-7031.956449,4519.963438,1406.391290
1244.688937,-1924.535449,4903.011187,-148.041188
1244.689248,1110.308913,3753.867940,-814.226536
1244.689560,1702.473667,2911.162892,-1850.514855
1244.689871,-148.041188,306.438199,-1702.473667
1244.690183,-5107.421000,-2451.505594,-1702.473667
1244.690494,-10066.800811,-4903.011187,-740.205942
1244.690805,-14434.015869,-4903.011187,370.102971
1244.691117,-16876.695478,-4903.011187,2368.659014
1244.691428,-17987.004391,-4673.182538,3108.864956
1244.691740,-17246.798449,-3370.820191,2886.803174
1244.692051,-14137.933492,306.438199,2368.659014
1244.692363,-9770.718434,2528.115143,1998.556043
1244.692674,-5033.400406,3983.696590,518.144159
1244.692985,-814.226536,3217.601092,-222.061783
1244.693297,1628.453072,2221.676944,-1776.494261
1244.693608,2738.761985,995.924147,-1480.411884
1244.693920,-1036.288319,-1302.362347,-2368.659014
1244.694231,-6513.812290,-2604.724693,-2442.679609
1244.694543,-12435.459826,-3983.696590,-444.123565
1244.694854,-17320.819043,-4136.915689,1258.350101
1244.695165,-19763.498651,-4136.915689,2812.782580
1244.695477,-20725.766376,-3370.820191,3108.864956
1244.695788,-17912.983796,-612.876398,2960.823768
1244.696100,-13101.645173,2374.896044,1702.473667
1244.696411,-7328.038826,4213.525239,444.123565
1244.696722,-2072.576638,4060.306139,-888.247130
1244.697034,1332.370696,3524.039291,-1702.473667
1244.697345,1776.494261,2068.457845,-1924.535449
1244.697657,-888.247130,-459.657299,-1776.494261
1244.697968,-5921.647536,-2145.067394,-2220.617826
1244.698280,-11251.130318,-2911.162892,-814.226536
1244.698591,-15840.407159,-2604.724693,222.061783
1244.698902,-19023.292709,-2451.505594,1850.514855
1244.699214,-19097.313304,-1915.238745,2590.720797
1244.699525,-17246.798449,-229.828649,2738.761985
1244.699837,-13471.748144,2145.067394,2738.761985
1244.700148,-8216.285956,3907.087040,1924.535449
1244.700459,-2442.679609,4596.572988,592.164754
1244.700771,1332.370696,4366.744339,-518.144159
1244.701082,2738.761985,3370.820191,-1850.514855
1244.701394,1184.329507,1225.752797,-2368.659014
1244.701705,-2590.720797,-383.047749,-2590.720797
1244.702017,-8956.491898,-2145.067394,-1924.535449
1244.702328,-14211.954086,-2451.505594,444.123565
1244.702639,-17542.880825,-2528.115143,2812.782580
1244.702951,-18949.272115,-3294.210641,4219.173869
1244.703262,-17912.983796,-2528.115143,4515.256246
1244.703574,-14137.933492,612.876398,4071.132681
1244.703885,-8956.491898,4903.011187,2368.659014
1244.704197,-3997.112087,5669.106685,740.205942
1244.704508,0.000000,4673.182538,-888.247130
1244.704819,1776.494261,3140.991542,-1702.473667
1244.705131,444.123565,1378.971896,-1850.514855
1244.705442,-2442.679609,-1149.143247,-1110.308913
1244.705754,-7920.203579,-3677.258390,-1110.308913
1244.706065,-12731.542202,-4749.792088,-0.000000
1244.706376,-16580.613101,-4519.963438,1998.556043
1244.706688,-18209.066173,-4979.620737,3404.947333
1244.706999,-17912.983796,-4213.525239,2960.823768
1244.707311,-15988.448347,-1608.800546,2812.782580
1244.707622,-12731.542202,2374.896044,1776.494261
1244.707934,-8290.306550,4519.963438,1036.288319
1244.708245,-2442.679609,3983.696590,-518.144159
1244.708556,1184.329507,2604.724693,-962.267725
1244.708868,2294.638420,1532.190996,-1480.411884
1244.709179,814.226536,-612.876398,-1628.453072
1244.709491,-4293.194464,-2681.334243,-2220.617826
1244.709802,-10066.800811,-3830.477490,-1258.350101
1244.710113,-15692.365970,-3983.696590,444.123565
1244.710425,-19245.354492,-4060.306139,2516.700203
1244.710736,-20947.828159,-3983.696590,2812.782580
1244.711048,-19985.560434,-1302.362347,2442.679609
1244.711359,-15914.427753,1608.800546,2220.617826
1244.711671,-10214.842000,4213.525239,1184.329507
1244.711982,-4145.153275,4366.744339,-296.082377
1244.712293,-148.041188,2987.772442,-740.205942
1244.712605,2072.576638,1915.238745,-888.247130
1244.712916,1406.391290,842.705048,-1332.370696
1244.713228,-3627.009116,-995.924147,-2442.679609
1244.713539,-8734.430116,-1915.238745,-1998.556043
1244.713850,-14804.118840,-2451.505594,-1850.514855
1244.714162,-17764.942608,-1685.410096,666.185348
1244.714473,-18949.272115,-1915.238745,2664.741391
1244.714785,-17912.983796,-1991.848295,2886.803174
1244.715096,-14730.098246,153.219100,3108.864956
1244.715408,-9992.780217,3217.601092,2516.700203
1244.715719,-4515.256246,4213.525239,1702.473667
1244.716030,148.041188,4596.572988,-370.102971
1244.716342,2220.617826,4060.306139,-1924.535449
1244.716653,2146.597232,1838.629195,-2960.823768
1244.716965,-1110.308913,459.657299,-3256.906145
1244.717276,-6143.709319,-1455.581446,-2738.761985
1244.717588,-11843.295072,-2757.943793,-518.144159
1244.717899,-16432.571912,-3600.648841,2294.638420
1244.718210,-18579.169144,-4060.306139,4515.256246
1244.718522,-18875.251521,-3677.258390,4663.297435
1244.718833,-16284.530724,-1072.533697,4145.153275
1244.719145,-11621.233289,2834.553343,2738.761985
1244.719456,-5773.606348,5669.106685,1332.370696
1244.719767,-740.205942,5056.230287,-888.247130
1244.720079,1184.329507,3447.429741,-1332.370696
1244.720390,1258.350101,1915.238745,-1998.556043
1244.720702,-1776.494261,306.438199,-1554.432478
1244.721013,-6587.832884,-2604.724693,-1628.453072
1244.721325,-11769.274478,-4290.134789,-444.123565
1244.721636,-15914.427753,-4596.572988,888.247130
1244.721947,-17246.798449,-4903.011187,2516.700203
1244.722259,-17764.942608,-4519.963438,2960.823768
1244.722570,-16654.633695,-3064.381992,2812.782580
1244.722882,-13989.892304,919.314598,2442.679609
1244.723193,-9622.677246,2681.334243,2442.679609
1244.723504,-4737.318029,4213.525239,444.123565
1244.723816,-296.082377,2451.505594,740.205942
1244.724127,1628.453072,1225.752797,-1036.288319
1244.724439,1036.288319,0.000000,-1554.432478
1244.724750,-3108.864956,-1225.752797,-2886.803174
1244.725062,-8956.491898,-2528.115143,-2664.741391
1244.725373,-13841.851115,-2987.772442,-1036.288319
1244.725684,-16802.674883,-3217.601092,1480.411884
1244.725996,-18949.272115,-3830.477490,3330.926739
1244.726307,-18949.272115,-3294.210641,3627.009116
1244.726619,-16432.571912,0.000000,3404.947333
1244.726930,-11325.150913,3447.429741,2442.679609
1244.727242,-5847.626942,4903.011187,962.267725
1244.727553,-814.226536,4443.353888,-444.123565
1244.727864,1702.473667,2757.943793,-1110.308913
1244.728176,1628.453072,1532.190996,-2368.659014
1244.728487,-1702.473667,-1149.143247,-3256.906145
1244.728799,-7105.977043,-1685.410096,-2886.803174
1244.729110,-12065.356855,-2451.505594,-1036.288319
1244.729421,-16950.716072,-2681.334243,740.205942
1244.729733,-18875.251521,-3294.210641,2960.823768
1244.730044,-18283.086767,-2451.505594,3478.967927
1244.730356,-15840.407159,-1455.581446,3330.926739
1244.730667,-11399.171507,2221.676944,3108.864956
1244.730979,-5773.606348,4443.353888,2146.597232
1244.731290,-1110.308913,3677.258390,296.082377
1244.731601,1332.370696,2834.553343,-888.247130
1244.731913,1850.514855,2604.724693,-2590.720797
1244.732224,-518.144159,2451.505594,-3256.906145
1244.732536,-5107.421000,-153.219100,-3923.091493
1244.732847,-10288.862594,-2604.724693,-2294.638420
1244.733158,-15248.242405,-3064.381992,518.144159
1244.733470,-17616.901420,-3753.867940,3256.906145
1244.733781,-18727.210333,-4136.915689,3849.070898
1244.734093,-17246.798449,-2221.676944,3478.967927
1244.734404,-13767.830521,2145.067394,2664.741391
1244.734716,-8216.285956,5132.839837,1924.535449
1244.735027,-3182.885551,5286.058936,222.061783
1244.735338,0.000000,2987.772442,-518.144159
1244.735650,0.000000,1838.629195,-1332.370696
1244.735961,-1184.329507,536.266849,-1258.350101
1244.736273,-5107.421000,-1532.190996,-2368.659014
1244.736584,-9844.739029,-3140.991542,-2072.576638
1244.736895,-14063.912898,-4366.744339,-370.102971
1244.737207,-16580.613101,-4596.572988,1850.514855
1244.737518,-18135.045579,-4596.572988,2886.803174
1244.737830,-18135.045579,-3447.429741,2812.782580
1244.738141,-15988.448347,-919.314598,3701.029710
1244.738453,-11621.233289,2451.505594,2886.803174
1244.738764,-5921.647536,3983.696590,1776.494261
1244.739075,-1184.329507,3217.601092,740.205942
1244.739387,1998.556043,2451.505594,-740.205942
1244.739698,3034.844362,2145.067394,-1480.411884
1244.740010,-814.226536,153.219100,-2886.803174
1244.740321,-6291.750507,-1532.190996,-2738.761985
1244.740633,-11547.212695,-2451.505594,-1776.494261
1244.740944,-15988.448347,-2604.724693,1480.411884
1244.741255,-17912.983796,-3830.477490,3404.947333
1244.741567,-18875.251521,-3753.867940,3775.050304
1244.741878,-17024.736666,-1302.362347,3182.885551
1244.742190,-12731.542202,1991.848295,2220.617826
1244.742501,-7624.121203,5515.887586,1036.288319
1244.742812,-2516.700203,5132.839837,-0.000000
1244.743124,740.205942,2757.943793,-0.000000
1244.743435,1776.494261,1302.362347,-814.226536
1244.743747,-740.205942,0.000000,-1258.350101
1244.744058,-5551.544565,-1225.752797,-2590.720797
1244.744370,-10658.965565,-1532.190996,-2294.638420
1244.744681,-15766.386565,-1225.752797,-666.185348
1244.744992,-18061.024985,-1302.362347,1036.288319
1244.745304,-18061.024985,-1455.581446,2294.638420
1244.745615,-16506.592507,-1072.533697,2368.659014
1244.745927,-12805.562797,1838.629195,2590.720797
1244.746238,-8216.285956,3600.648841,2664.741391
1244.746549,-2960.823768,4136.915689,1924.535449
1244.746861,1110.308913,2987.772442,666.185348
1244.747172,1776.494261,1991.848295,-1406.391290
1244.747484,592.164754,919.314598,-2368.659014
1244.747795,-3256.906145,0.000000,-3108.864956
1244.748107,-8438.347739,-1991.848295,-3182.885551
1244.748418,-14063.912898,-2681.334243,-666.185348
1244.748729,-17616.901420,-3217.601092,2368.659014
1244.749041,-18949.272115,-3983.696590,4515.256246
1244.749352,-18357.107362,-4366.744339,4145.153275
1244.749664,-15100.201217,-459.657299,3404.947333
1244.749975,-10436.903782,3600.648841,1406.391290
1244.750287,-4737.318029,4979.620737,1258.350101
1244.750598,0.000000,3600.648841,-222.061783
1244.750909,814.226536,1532.190996,-444.123565
1244.751221,0.000000,383.047749,-1110.308913
1244.751532,-3256.906145,-1302.362347,-1258.350101
1244.751844,-7550.100608,-2451.505594,-1998.556043
1244.752155,-12583.501014,-3140.991542,-666.185348
1244.752466,-15692.365970,-4213.525239,666.185348
1244.752778,-16728.654289,-4596.572988,2516.700203
1244.753089,-17616.901420,-3294.210641,2590.720797
1244.753400,-16654.633695,-919.314598,2368.659014
1244.753712,-13175.665768,2528.115143,2146.597232
1244.754023,-8512.368333,4519.963438,1628.453072
1244.754334,-2738.761985,3524.039291,296.082377
1244.754646,962.267725,2068.457845,-0.000000
1244.754957,2812.782580,536.266849,-444.123565
1244.755268,740.205942,0.000000,-1332.370696
1244.755580,-4071.132681,-2145.067394,-2294.638420
1244.755891,-10362.883188,-2987.772442,-1850.514855
1244.756202,-15618.345376,-3294.210641,-148.041188
1244.756514,-18135.045579,-2987.772442,1776.494261
1244.756825,-18875.251521,-2987.772442,3849.070898
1244.757136,-17764.942608,-2221.676944,3182.885551
1244.757448,-14285.974681,1608.800546,3330.926739
1244.757759,-9030.512492,3677.258390,2368.659014
1244.758071,-3256.906145,4136.915689,1406.391290
1244.758382,296.082377,3677.258390,-0.000000
1244.758693,1480.411884,2604.724693,-1332.370696
1244.759005,0.000000,1072.533697,-2664.741391
1244.759316,-3701.029710,0.000000,-3108.864956
1244.759627,-8512.368333,-1302.362347,-2294.638420
1244.759939,-13101.645173,-2298.286494,-1036.288319
1244.760250,-17098.757260,-2451.505594,1702.473667
1244.760561,-18653.189738,-3140.991542,3256.906145
1244.760873,-17690.922014,-2221.676944,3330.926739
1244.761184,-14434.015869,153.219100,3182.885551
1244.761495,-9474.636058,3753.867940,2294.638420
1244.761807,-4441.235652,3294.210641,1702.473667
1244.762118,0.000000,2987.772442,-148.041188
1244.762429,1480.411884,2298.286494,-1184.329507
1244.762741,222.061783,1225.752797,-2368.659014
1244.763052,-2590.720797,153.219100,-2516.700203
1244.763363,-7254.018232,-1915.238745,-2516.700203
1244.763675,-12213.398043,-3447.429741,-814.226536
1244.763986,-16284.530724,-3830.477490,1332.370696
1244.764297,-18061.024985,-3447.429741,3256.906145
1244.764609,-18579.169144,-3370.820191,3627.009116
1244.764920,-16506.592507,-995.924147,3256.906145
1244.765232,-12361.439231,2834.553343,2146.597232
1244.765543,-7476.080014,4749.792088,1554.432478
1244.765854,-2146.597232,4366.744339,222.061783
1244.766166,370.102971,3294.210641,-518.144159
1244.766477,74.020594,1455.581446,-1702.473667
1244.766788,-1628.453072,-766.095498,-2220.617826
1244.767100,-6217.729913,-2757.943793,-3034.844362
1244.767411,-10732.986159,-3524.039291,-1702.473667
1244.767722,-14656.077652,-3907.087040,-0.000000
1244.768034,-17468.860231,-4596.572988,1850.514855
1244.768345,-18209.066173,-4443.353888,3701.029710
1244.768656,-17542.880825,-2834.553343,3552.988522
1244.768968,-14359.995275,0.000000,3923.091493
1244.769279,-9844.739029,2451.505594,2590.720797
1244.769590,-4589.276840,3753.867940,1184.329507
1244.769902,0.000000,3064.381992,-74.020594
1244.770213,2886.803174,2374.896044,-1258.350101
1244.770524,2516.700203,1072.533697,-2146.597232
1244.770836,-1850.514855,-459.657299,-2960.823768
1244.771147,-7179.997637,-1838.629195,-2812.782580
1244.771459,-13101.645173,-2681.334243,-666.185348
1244.771770,-17024.736666,-2757.943793,1776.494261
1244.772081,-19023.292709,-3140.991542,3034.844362
1244.772393,-18875.251521,-2221.676944,3404.947333
1244.772704,-16210.510130,0.000000,3034.844362
1244.773015,-11547.212695,2987.772442,2072.576638
1244.773327,-5847.626942,4596.572988,888.247130
1244.773638,-1110.308913,3907.087040,592.164754
1244.773949,1184.329507,2221.676944,-370.102971
1244.774261,518.144159,1378.971896,-1776.494261
1244.774572,-2442.679609,-229.828649,-1776.494261
1244.774883,-7105.977043,-1225.752797,-2368.659014
1244.775195,-11843.295072,-1838.629195,-1332.370696
1244.775506,-16432.571912,-2068.457845,592.164754
1244.775817,-18283.086767,-2681.334243,2886.803174
1244.776129,-18209.066173,-2528.115143,3034.844362
1244.776440,-15766.386565,-536.266849,3256.906145
1244.776751,-11843.295072,1838.629195,2960.823768
1244.777063,-6735.874072,3907.087040,1850.514855
1244.777374,-2072.576638,3983.696590,444.123565
1244.777686,888.247130,3064.381992,-666.185348
1244.777997,1480.411884,2451.505594,-2072.576638
1244.778308,-148.041188,1608.800546,-2886.803174
1244.778620,-4515.256246,-306.438199,-3182.885551
1244.778931,-9326.594869,-1991.848295,-1998.556043
1244.779242,-14359.995275,-3217.601092,148.041188
1244.779554,-17616.901420,-3524.039291,2960.823768
1244.779865,-18875.251521,-3907.087040,3923.091493
1244.780176,-17690.922014,-2451.505594,4071.132681
1244.780488,-14434.015869,919.314598,3034.844362
1244.780799,-9474.636058,3830.477490,1554.432478
1244.781110,-3997.112087,4903.011187,296.082377
1244.781422,0.000000,2987.772442,-296.082377
1244.781733,444.123565,1455.581446,-1554.432478
1244.782044,0.000000,0.000000,-1554.432478
1244.782356,-3701.029710,-1915.238745,-2220.617826
1244.782667,-8808.450710,-3294.210641,-1702.473667
1244.782978,-13175.665768,-3524.039291,-148.041188
1244.783290,-16876.695478,-4060.306139,1628.453072
1244.783601,-18357.107362,-3753.867940,2590.720797
1244.783912,-18801.230927,-2911.162892,3034.844362
1244.784224,-15988.448347,0.000000,2886.803174
1244.784535,-11399.171507,2451.505594,1998.556043
1244.784847,-6291.750507,3907.087040,888.247130
1244.785158,-1406.391290,2911.162892,444.123565
1244.785469,2442.679609,2374.896044,-962.267725
1244.785781,3404.947333,1532.190996,-1702.473667
1244.786092,296.082377,-306.438199,-2368.659014
1244.786403,-5329.482782,-2604.724693,-2368.659014
1244.786715,-11177.109724,-3217.601092,-1184.329507
1244.787026,-16284.530724,-2911.162892,1110.308913
1244.787337,-18875.251521,-2911.162892,3256.906145
1244.787649,-19541.436869,-3370.820191,3552.988522
1244.787960,-17616.901420,-1378.971896,3330.926739
1244.788271,-13471.748144,2298.286494,2368.659014
1244.788583,-8142.265362,4136.915689,888.247130
1244.788894,-2664.741391,4903.011187,-0.000000
1244.789205,740.205942,3677.258390,-222.061783
1244.789517,1702.473667,2068.457845,-1332.370696
1244.789828,-518.144159,306.438199,-1850.514855
1244.790139,-5033.400406,-919.314598,-2368.659014
1244.790451,-10140.821405,-1762.019645,-1628.453072
1244.790762,-14730.098246,-2451.505594,-148.041188
1244.791074,-17616.901420,-2451.505594,2146.597232
1244.791385,-18283.086767,-3370.820191,2812.782580
1244.791696,-16950.716072,-2374.896044,3256.906145
1244.792008,-13693.809927,459.657299,3034.844362
1244.792319,-8882.471304,2834.553343,2294.638420
1244.792630,-4071.132681,3753.867940,1406.391290
1244.792942,-148.041188,3140.991542,-0.000000
1244.793253,296.082377,2145.067394,-1628.453072
1244.793564,74.020594,2604.724693,-2738.761985
1244.793876,-2442.679609,612.876398,-2590.720797
1244.794187,-7402.059420,-1915.238745,-2220.617826
1244.794498,-12361.439231,-3447.429741,-296.082377
1244.794810,-16210.510130,-3064.381992,2368.659014
1244.795121,-18283.086767,-2834.553343,3923.091493
1244.795432,-18061.024985,-3217.601092,3701.029710
1244.795744,-15766.386565,0.000000,3775.050304
1244.796055,-11399.171507,3064.381992,1776.494261
1244.796366,-5921.647536,5209.449386,1036.288319
1244.796678,-1184.329507,4596.572988,-814.226536
1244.796989,888.247130,2987.772442,-1036.288319
1244.797300,296.082377,1455.581446,-1850.514855
1244.797612,-2072.576638,-919.314598,-1628.453072
1244.797923,-6513.812290,-2528.115143,-1998.556043
1244.798235,-11325.150913,-3600.648841,-666.185348
1244.798546,-15322.262999,-4443.353888,888.247130
1244.798857,-17838.963202,-4443.353888,2368.659014
1244.799169,-18283.086767,-3753.867940,3182.885551
1244.799480,-17320.819043,-2298.286494,3182.885551
1244.799791,-13619.789333,689.485948,2960.823768
1244.800103,-8808.450710,3217.601092,2072.576638
1244.800414,-3330.926739,3217.601092,370.102971
1244.800725,962.267725,2374.896044,148.041188
1244.801037,2516.700203,1455.581446,-1480.411884
1244.801348,814.226536,612.876398,-2220.617826
1244.801659,-3182.885551,-689.485948,-3182.885551
1244.801971,-8956.491898,-1685.410096,-2368.659014
1244.802282,-14508.036463,-2221.676944,-444.123565
1244.802593,-17542.880825,-2834.553343,1628.453072
1244.802905,-18801.230927,-3447.429741,3108.864956
1244.803216,-18357.107362,-2681.334243,3404.947333
1244.803527,-15026.180623,459.657299,2812.782580
1244.803839,-10510.924376,3524.039291,1258.350101
1244.804150,-5699.585753,4826.401637,222.061783
1244.804462,-1258.350101,3677.258390,-296.082377
1244.804773,962.267725,1608.800546,-814.226536
1244.805084,0.000000,459.657299,-1406.391290
1244.805396,-3034.844362,-1378.971896,-740.205942
1244.805707,-7920.203579,-1762.019645,-1850.514855
1244.806018,-12805.562797,-2757.943793,-444.123565
1244.806330,-16580.613101,-2604.724693,1258.350101
1244.806641,-18283.086767,-2911.162892,2294.638420
1244.806952,-17912.983796,-2681.334243,3108.864956
1244.807264,-15618.345376,-766.095498,3108.864956
1244.807575,-11325.150913,2681.334243,2220.617826
1244.807886,-6513.812290,4290.134789,1332.370696
1244.808198,-1850.514855,3600.648841,-0.000000
1244.808509,1110.308913,3064.381992,-888.247130
1244.808820,1850.514855,2451.505594,-2368.659014
1244.809132,-444.123565,1225.752797,-2442.679609
1244.809443,-5033.400406,-612.876398,-2738.761985
1244.809754,-10732.986159,-2068.457845,-1480.411884
1244.810066,-15692.365970,-2911.162892,962.267725
1244.810377,-17838.963202,-3064.381992,3627.009116
1244.810688,-18949.272115,-3064.381992,3627.009116
1244.811000,-16432.571912,-1378.971896,3552.988522
1244.811311,-12731.542202,1608.800546,2812.782580
1244.811623,-7698.141797,3830.477490,1850.514855
1244.811934,-2886.803174,4749.792088,518.144159
1244.812245,0.000000,3600.648841,-518.144159
1244.812557,148.041188,2528.115143,-1258.350101
1244.812868,-1628.453072,1149.143247,-1924.535449
1244.813179,-5403.503377,-1225.752797,-2368.659014
1244.813491,-9696.697840,-2834.553343,-1480.411884
1244.813802,-13989.892304,-3753.867940,-0.000000
1244.814113,-16802.674883,-3677.258390,2294.638420
1244.814425,-18209.066173,-3753.867940,3256.906145
1244.814736,-17172.777854,-2604.724693,3182.885551
1244.815047,-14211.954086,76.609550,2886.803174
1244.815359,-9400.615463,2374.896044,2368.659014
1244.815670,-3923.091493,4443.353888,1406.391290
1244.815981,-444.123565,3064.381992,-0.000000
1244.816293,1850.514855,2298.286494,-1110.308913
1244.816604,2146.597232,1532.190996,-1924.535449
1244.816915,-1258.350101,-459.657299,-2812.782580
1244.817227,-6735.874072,-2604.724693,-2368.659014
1244.817538,-12287.418637,-3753.867940,-1110.308913
1244.817850,-17616.901420,-3677.258390,1184.329507
1244.818161,-19393.395680,-3370.820191,3330.926739
1244.818472,-19689.478057,-3217.601092,3627.009116
1244.818784,-17616.901420,-995.924147,3478.967927
1244.819095,-12879.583391,2068.457845,2368.659014
1244.819406,-7105.977043,4060.306139,1184.329507
1244.819718,-2146.597232,4749.792088,370.102971
1244.820029,1332.370696,3217.601092,-296.082377
1244.820340,2072.576638,1915.238745,-1850.514855
1244.820652,-962.267725,612.876398,-2590.720797
1244.820963,-5699.585753,-689.485948,-2886.803174
1244.821274,-11177.109724,-1991.848295,-1776.494261
1244.821586,-15322.262999,-2145.067394,-74.020594
1244.821897,-18209.066173,-2681.334243,2146.597232
1244.822208,-18653.189738,-3294.210641,3330.926739
1244.822520,-16358.551318,-2757.943793,3627.009116
1244.822831,-13545.768739,766.095498,2812.782580
1244.823142,-8586.388927,3140.991542,2368.659014
1244.823454,-3330.926739,3753.867940,740.205942
1244.823765,888.247130,2834.553343,-74.020594
1244.824077,2368.659014,2757.943793,-1776.494261
1244.824388,740.205942,1762.019645,-2738.761985
1244.824699,-2960.823768,76.609550,-3108.864956
1244.825011,-8882.471304,-1378.971896,-2368.659014
1244.825322,-13619.789333,-2604.724693,-0.000000
1244.825633,-17098.757260,-3217.601092,3034.844362
1244.825945,-18875.251521,-3830.477490,4071.132681
1244.826256,-17912.983796,-2757.943793,4145.153275
1244.826567,-14804.118840,842.705048,3552.988522
1244.826879,-9770.718434,3677.258390,2220.617826
1244.827190,-4959.379811,4979.620737,814.226536
1244.827501,-518.144159,3830.477490,-370.102971
1244.827813,888.247130,2528.115143,-1554.432478
1244.828124,148.041188,1532.190996,-2072.576638
1244.828435,-2812.782580,-612.876398,-2442.679609
1244.828747,-7994.224174,-2528.115143,-2368.659014
1244.829058,-13027.624579,-3524.039291,-888.247130
1244.829369,-16506.592507,-3983.696590,1998.556043
1244.829681,-18209.066173,-4136.915689,2886.803174
1244.829992,-18135.045579,-3907.087040,3775.050304
1244.830303,-16506.592507,-1915.238745,3330.926739
1244.830615,-12065.356855,2068.457845,2664.741391
1244.830926,-6661.853478,3677.258390,1702.473667
1244.831238,-2294.638420,2757.943793,740.205942
1244.831549,1924.535449,1302.362347,-370.102971
1244.831860,2220.617826,536.266849,-1776.494261
1244.832172,0.000000,383.047749,-2590.720797
1244.832483,-4663.297435,-1762.019645,-3034.844362
1244.832794,-10510.924376,-3294.210641,-1998.556043
1244.833106,-15396.283594,-3600.648841,518.144159
1244.833417,-18135.045579,-3064.381992,2738.761985
1244.833728,-19319.375086,-3064.381992,3552.988522
1244.834040,-18357.107362,-1608.800546,3552.988522
1244.834351,-14359.995275,1302.362347,3256.906145
1244.834662,-9474.636058,3524.039291,1924.535449
1244.834974,-3701.029710,4749.792088,296.082377
1244.835285,0.000000,3370.820191,-74.020594
1244.835596,1480.411884,2068.457845,-1332.370696
1244.835908,296.082377,459.657299,-1332.370696
1244.836219,-3552.988522,-842.705048,-2812.782580
1244.836530,-9030.512492,-2068.457845,-2294.638420
1244.836842,-14063.912898,-2451.505594,-592.164754
1244.837153,-17912.983796,-3370.820191,1628.453072
1244.837465,-18801.230927,-3907.087040,3108.864956
1244.837776,-17764.942608,-2987.772442,3552.988522
1244.838087,-14878.139434,-76.609550,2960.823768
1244.838399,-10362.883188,3064.381992,2368.659014
1244.838710,-5255.462188,4596.572988,1628.453072
1244.839021,148.041188,3677.258390,-0.000000
1244.839333,1554.432478,3140.991542,-2146.597232
1244.839644,1776.494261,2451.505594,-2146.597232
1244.839955,-1480.411884,1378.971896,-3182.885551
1244.840267,-6217.729913,-995.924147,-3034.844362
1244.840578,-11769.274478,-2451.505594,-1184.329507
1244.840889,-15840.407159,-3140.991542,1628.453072
1244.841201,-18431.127956,-3370.820191,3108.864956
1244.841512,-18061.024985,-3524.039291,3923.091493
1244.841823,-16136.489536,-1455.581446,3256.906145
1244.842135,-12065.356855,2145.067394,2146.597232
1244.842446,-7698.141797,3907.087040,1702.473667
1244.842757,-3034.844362,3524.039291,-222.061783
1244.843069,0.000000,2528.115143,-888.247130
1244.843380,444.123565,1608.800546,-1702.473667
1244.843691,-1776.494261,0.000000,-1776.494261
1244.844003,-5403.503377,-2298.286494,-2812.782580
1244.844314,-9992.780217,-4060.306139,-1850.514855
1244.844626,-14359.995275,-4596.572988,370.102971
1244.844937,-17764.942608,-4826.401637,3034.844362
1244.845248,-19023.292709,-4213.525239,3330.926739
1244.845560,-18061.024985,-2834.553343,2516.700203
1244.845871,-14582.057057,306.438199,2442.679609
1244.846182,-9474.636058,2834.553343,1850.514855
1244.846494,-4589.276840,3294.210641,-0.000000
1244.846805,-222.061783,2145.067394,-148.041188
1244.847116,2146.597232,1455.581446,-962.267725
1244.847428,1998.556043,536.266849,-1406.391290
1244.847739,-2072.576638,-1072.533697,-2590.720797
1244.848050,-7550.100608,-2681.334243,-2664.741391
1244.848362,-12953.603985,-3294.210641,-1258.350101
1244.848673,-17098.757260,-2221.676944,1406.391290
1244.848984,-19393.395680,-1532.190996,2516.700203
1244.849296,-19615.457463,-1838.629195,2664.741391
1244.849607,-16876.695478,0.000000,2886.803174
1244.849918,-11769.274478,2374.896044,2146.597232
1244.850230,-6439.791695,4366.744339,740.205942
1244.850541,-1110.308913,4136.915689,296.082377
1244.850853,1702.473667,2451.505594,444.123565
1244.851164,1850.514855,536.266849,-222.061783
1244.851475,-1184.329507,-689.485948,-888.247130
1244.851787,-6587.832884,-1991.848295,-1776.494261
1244.852098,-12139.377449,-1915.238745,-1036.288319
1244.852409,-16136.489536,-995.924147,222.061783
1244.852721,-18653.189738,-1225.752797,1850.514855
1244.853032,-18431.127956,-1532.190996,2738.761985
1244.853343,-15618.345376,-306.438199,3108.864956
1244.853655,-11251.130318,1838.629195,3256.906145
1244.853966,-6365.771101,3983.696590,2664.741391
1244.854277,-1406.391290,3600.648841,1110.308913
1244.854589,2294.638420,3217.601092,-222.061783
1244.854900,1998.556043,1915.238745,-1776.494261
1244.855211,0.000000,1225.752797,-2590.720797
1244.855523,-4293.194464,229.828649,-2738.761985
1244.855834,-10066.800811,-1915.238745,-1702.473667
1244.856145,-14730.098246,-3447.429741,1110.308913
1244.856457,-17912.983796,-4213.525239,3404.947333
1244.856768,-19097.313304,-4213.525239,3923.091493
1244.857079,-17616.901420,-2298.286494,4219.173869
1244.857391,-14434.015869,612.876398,2442.679609
1244.857702,-9548.656652,4749.792088,1406.391290
1244.858013,-3552.988522,5592.497135,148.041188
1244.858325,0.000000,4519.963438,-1554.432478
1244.858636,444.123565,1838.629195,-1776.494261
1244.858947,-370.102971,1532.190996,-2072.576638
1244.859259,-3330.926739,-1225.752797,-1258.350101
1244.859570,-8808.450710,-3447.429741,-1332.370696
1244.859881,-13841.851115,-4596.572988,370.102971
1244.860193,-17172.777854,-4136.915689,1628.453072
1244.860504,-18135.045579,-3907.087040,2442.679609
1244.860815,-17616.901420,-2757.943793,2590.720797
1244.861127,-15174.221811,-689.485948,2812.782580
1244.861438,-11177.109724,1762.019645,1776.494261
1244.861749,-6217.729913,3217.601092,370.102971
1244.862061,-1998.556043,3064.381992,-74.020594
1244.862372,1406.391290,1838.629195,-814.226536
1244.862683,1776.494261,919.314598,-1628.453072
1244.862995,0.000000,-459.657299,-1998.556043
1244.863306,-4811.338623,-3140.991542,-1998.556043
1244.863617,-10436.903782,-3830.477490,-1258.350101
1244.863929,-15988.448347,-3677.258390,444.123565
1244.864240,-19541.436869,-3600.648841,2738.761985
1244.864551,-20651.745782,-3447.429741,3923.091493
1244.864863,-18727.210333,-1455.581446,3701.029710
1244.865174,-14804.118840,1762.019645,2590.720797
1244.865485,-9326.594869,4826.401637,444.123565
1244.865797,-2664.741391,4979.620737,-814.226536
1244.866108,1998.556043,4136.915689,-814.226536
1244.866419,2664.741391,2528.115143,-2072.576638
1244.866731,666.185348,995.924147,-2294.638420
1244.867042,-3701.029710,-842.705048,-2442.679609
1244.867353,-9548.656652,-1991.848295,-1628.453072
1244.867665,-14508.036463,-1838.629195,-0.000000
1244.867976,-17838.963202,-1685.410096,1924.535449
1244.868287,-19911.539840,-2604.724693,3552.988522
1244.868599,-17616.901420,-1838.629195,3849.070898
1244.868910,-13915.871710,383.047749,2960.823768
1244.869221,-9326.594869,2528.115143,2664.741391
1244.869533,-3627.009116,3600.648841,1036.288319
1244.869844,518.144159,3064.381992,-666.185348
1244.870155,2442.679609,2451.505594,-1850.514855
1244.870467,1110.308913,2757.943793,-2738.761985
1244.870778,-2516.700203,0.000000,-2664.741391
1244.871089,-7920.203579,-1685.410096,-1628.453072
1244.871400,-13249.686362,-3140.991542,592.164754
1244.871712,-16950.716072,-3830.477490,3256.906145
1244.872023,-18727.210333,-3600.648841,4219.173869
1244.872334,-17912.983796,-2987.772442,4441.235652
1244.872646,-15026.180623,-842.705048,3849.070898
1244.872957,-10658.965565,2834.553343,1850.514855
1244.873268,-5699.585753,4903.011187,962.267725
1244.873580,-814.226536,4673.182538,-1184.329507
1244.873891,592.164754,2987.772442,-1184.329507
1244.874202,370.102971,1532.190996,-1480.411884
1244.874514,-2442.679609,-689.485948,-1628.453072
1244.874825,-6291.750507,-2528.115143,-1554.432478
1244.875136,-11399.171507,-3600.648841,-370.102971
1244.875448,-15544.324782,-3600.648841,1258.350101
1244.875759,-18061.024985,-4596.572988,3182.885551
1244.876070,-18209.066173,-4136.915689,3849.070898
1244.876382,-16802.674883,-2374.896044,3701.029710
1244.876693,-13249.686362,383.047749,2960.823768
1244.877004,-8438.347739,2604.724693,1850.514855
1244.877316,-3404.947333,2834.553343,-74.020594
1244.877627,814.226536,2068.457845,-592.164754
1244.877938,1924.535449,1762.019645,-1850.514855
1244.878250,666.185348,459.657299,-2590.720797
1244.878561,-3404.947333,-1302.362347,-2664.741391
1244.878872,-9326.594869,-2604.724693,-1554.432478
1244.879184,-14656.077652,-2604.724693,-222.061783
1244.879495,-18283.086767,-2221.676944,1628.453072
1244.879806,-19689.478057,-2374.896044,3034.844362
1244.880118,-18505.148550,-1608.800546,3108.864956
1244.880429,-15396.283594,2068.457845,2886.803174
1244.880740,-10140.821405,4366.744339,1628.453072
1244.881052,-5107.421000,4443.353888,-222.061783
1244.881363,-444.123565,3600.648841,-370.102971
1244.881674,1480.411884,2374.896044,-1480.411884
1244.881986,666.185348,1225.752797,-2072.576638
1244.882297,-3478.967927,-459.657299,-2590.720797
1244.882608,-7994.224174,-1915.238745,-1702.473667
1244.882920,-12731.542202,-2298.286494,-592.164754
1244.883231,-16284.530724,-2221.676944,1776.494261
1244.883542,-18505.148550,-3294.210641,2812.782580
1244.883853,-17912.983796,-2987.772442,3775.050304
1244.884165,-15100.201217,-1302.362347,3330.926739
1244.884476,-10214.842000,2298.286494,2146.597232
1244.884787,-5625.565159,4903.011187,444.123565
1244.885099,-1406.391290,4826.401637,-888.247130
1244.885410,1110.308913,2911.162892,-1554.432478
1244.885721,2072.576638,2681.334243,-2590.720797
1244.886033,-666.185348,1149.143247,-2368.659014
1244.886344,-5551.544565,-1685.410096,-1850.514855
1244.886655,-10881.027347,-3677.258390,-74.020594
1244.886967,-15470.304188,-3983.696590,1406.391290
1244.887278,-17320.819043,-3753.867940,3775.050304
1244.887589,-17912.983796,-3907.087040,3775.050304
1244.887901,-16358.551318,-2221.676944,3775.050304
1244.888212,-13101.645173,153.219100,2664.741391
1244.888523,-8808.450710,3447.429741,1702.473667
1244.888835,-4071.132681,4213.525239,-222.061783
1244.889146,-1110.308913,3600.648841,-1036.288319
1244.889457,0.000000,2757.943793,-1776.494261
1244.889769,-518.144159,612.876398,-1406.391290
1244.890080,-4367.215058,-1838.629195,-1702.473667
1244.890391,-9030.512492,-2604.724693,-740.205942
1244.890703,-13767.830521,-3830.477490,666.185348
1244.891014,-17172.777854,-3524.039291,2220.617826
1244.891325,-18949.272115,-3600.648841,3256.906145
1244.891637,-17690.922014,-2298.286494,3552.988522
1244.891948,-14804.118840,0.000000,2738.761985
1244.892259,-10140.821405,3370.820191,1554.432478
1244.892571,-5107.421000,3983.696590,370.102971
1244.892882,-814.226536,3370.820191,-222.061783
1244.893193,2146.597232,2834.553343,-962.267725
1244.893505,1702.473667,1838.629195,-1776.494261
1244.893816,-1110.308913,-383.047749,-2146.597232
1244.894127,-6069.688724,-2681.334243,-1850.514855
1244.894439,-11621.233289,-3524.039291,-444.123565
1244.894750,-16580.613101,-3140.991542,1184.329507
1244.895061,-19171.333898,-3370.820191,2812.782580
1244.895373,-19763.498651,-2528.115143,3627.009116
1244.895684,-16876.695478,-766.095498,3627.009116
1244.895995,-12139.377449,2604.724693,2516.700203
1244.896306,-6661.853478,4826.401637,1110.308913
1244.896618,-1702.473667,4519.963438,-296.082377
1244.896929,1702.473667,3830.477490,-1258.350101
1244.897240,1776.494261,3064.381992,-2442.679609
1244.897552,-1184.329507,919.314598,-1998.556043
1244.897863,-5995.668130,-1225.752797,-2294.638420
1244.898174,-11399.171507,-2451.505594,-1110.308913
1244.898486,-15322.262999,-2374.896044,592.164754
1244.898797,-17246.798449,-2604.724693,2664.741391
1244.899108,-18357.107362,-3294.210641,3034.844362
1244.899420,-17024.736666,-1915.238745,3108.864956
1244.899731,-12953.603985,1149.143247,2442.679609
1244.900042,-8290.306550,3983.696590,1184.329507
1244.900354,-2960.823768,5132.839837,222.061783
1244.900665,74.020594,3830.477490,-1110.308913
1244.900976,1258.350101,2604.724693,-1998.556043
1244.901288,148.041188,1302.362347,-2368.659014
1244.901599,-3034.844362,-306.438199,-2146.597232
1244.901910,-9252.574275,-2374.896044,-1332.370696
1244.902222,-13767.830521,-4366.744339,888.247130
1244.902533,-17394.839637,-4060.306139,2516.700203
1244.902844,-18949.272115,-3907.087040,3256.906145
1244.903156,-18209.066173,-2528.115143,3775.050304
1244.903467,-14952.160028,0.000000,3108.864956
1244.903778,-10658.965565,2757.943793,1776.494261
1244.904090,-5403.503377,3830.477490,444.123565
1244.904401,-1628.453072,3294.210641,-888.247130
1244.904712,1036.288319,2604.724693,-1480.411884
1244.905024,0.000000,1685.410096,-1924.535449
1244.905335,-2590.720797,-1072.533697,-1628.453072
1244.905646,-7179.997637,-2987.772442,-1554.432478
1244.905958,-12287.418637,-3983.696590,-0.000000
1244.906269,-16062.468941,-4136.915689,1998.556043
1244.906580,-17468.860231,-4213.525239,3034.844362
1244.906892,-18135.045579,-4136.915689,3034.844362
1244.907203,-15840.407159,-2374.896044,3330.926739
1244.907514,-12065.356855,1149.143247,1924.535449
1244.907826,-7624.121203,3830.477490,518.144159
1244.908137,-3034.844362,4060.306139,-1184.329507
1244.908448,0.000000,2604.724693,-1110.308913
1244.908759,1480.411884,1685.410096,-1406.391290
1244.909071,148.041188,536.266849,-1332.370696
1244.909382,-3923.091493,-2145.067394,-2072.576638
1244.909693,-9474.636058,-3907.087040,-1110.308913
1244.910005,-14285.974681,-3064.381992,592.164754
1244.910316,-17542.880825,-2604.724693,2368.659014
1244.910627,-19097.313304,-2834.553343,3330.926739
1244.910939,-18209.066173,-1838.629195,3552.988522
1244.911250,-14508.036463,1455.581446,2812.782580
1244.911561,-8956.491898,3524.039291,1924.535449
1244.911873,-3701.029710,4213.525239,666.185348
1244.912184,0.000000,3677.258390,-74.020594
1244.912495,518.144159,2451.505594,-1998.556043
1244.912807,-222.061783,1378.971896,-2294.638420
1244.913118,-3701.029710,-229.828649,-2812.782580
1244.913429,-8808.450710,-1532.190996,-2294.638420
1244.913741,-13841.851115,-1991.848295,-370.102971
1244.914052,-16580.613101,-3217.601092,1924.535449
1244.914363,-17838.963202,-3830.477490,3256.906145
1244.914675,-17172.777854,-3524.039291,4293.194464
1244.914986,-14285.974681,-459.657299,3034.844362
1244.915297,-9696.697840,2757.943793,2368.659014
1244.915609,-4737.318029,4673.182538,1110.308913
1244.915920,-888.247130,4060.306139,-740.205942
1244.916231,1258.350101,4213.525239,-1776.494261
1244.916543,740.205942,2911.162892,-2812.782580
1244.916854,-1998.556043,1225.752797,-2516.700203
1244.917165,-6587.832884,-1838.629195,-2072.576638
1244.917477,-11843.295072,-2987.772442,-444.123565
1244.917788,-16358.551318,-3370.820191,1776.494261
1244.918099,-18579.169144,-4060.306139,3849.070898
1244.918411,-17912.983796,-3524.039291,4071.132681
1244.918722,-15470.304188,-1455.581446,3330.926739
1244.919033,-11843.295072,1608.800546,2368.659014
1244.919345,-7105.977043,3294.210641,1332.370696
1244.919656,-2738.761985,3447.429741,-592.164754
1244.919967,-148.041188,2911.162892,-962.267725
1244.920279,0.000000,1608.800546,-1776.494261
1244.920590,-1850.514855,-306.438199,-1702.473667
1244.920901,-5699.585753,-2298.286494,-2072.576638
1244.921213,-10214.842000,-3600.648841,-740.205942
1244.921524,-14359.995275,-4060.306139,962.267725
1244.921835,-17320.819043,-4826.401637,2664.741391
1244.922146,-18431.127956,-4443.353888,3404.947333
1244.922458,-17320.819043,-2987.772442,3404.947333
1244.922769,-14434.015869,383.047749,2812.782580
1244.923080,-9844.739029,3294.210641,1628.453072
1244.923392,-4811.338623,4519.963438,-814.226536
1244.923703,-962.267725,3294.210641,-1184.329507
1244.924014,2072.576638,2604.724693,-2072.576638
1244.924326,2146.597232,1455.581446,-1850.514855
1244.924637,-592.164754,-1225.752797,-2368.659014
1244.924948,-6735.874072,-3294.210641,-1924.535449
1244.925260,-12139.377449,-3524.039291,-0.000000
1244.925571,-16210.510130,-3064.381992,2220.617826
1244.925882,-19023.292709,-3370.820191,3404.947333
1244.926194,-19689.478057,-2451.505594,2960.823768
1244.926505,-17172.777854,153.219100,2960.823768
1244.926816,-11991.336260,2298.286494,1554.432478
1244.927128,-7031.956449,3983.696590,-444.123565
1244.927439,-2738.761985,3370.820191,-370.102971
1244.927750,0.000000,2145.067394,-962.267725
1244.928062,888.247130,1455.581446,-814.226536
1244.928373,-1998.556043,-153.219100,-1924.535449
1244.928684,-7105.977043,-2374.896044,-1332.370696
1244.928996,-11547.212695,-2221.676944,-1110.308913
1244.929307,-15396.283594,-2374.896044,592.164754
1244.929618,-17912.983796,-2298.286494,2072.576638
1244.929930,-17838.963202,-2145.067394,2886.803174
1244.930241,-16136.489536,-383.047749,3108.864956
1244.930552,-12139.377449,1991.848295,2664.741391
1244.930864,-7254.018232,4213.525239,1924.535449
1244.931175,-2738.761985,4979.620737,518.144159
1244.931486,444.123565,4060.306139,-1110.308913
1244.931798,1258.350101,3677.258390,-2220.617826
1244.932109,-518.144159,2068.457845,-2812.782580
1244.932420,-4145.153275,0.000000,-2664.741391
1244.932732,-9178.553681,-2528.115143,-1554.432478
1244.933043,-13915.871710,-3294.210641,1036.288319
1244.933354,-17098.757260,-3370.820191,3923.091493
1244.933666,-18209.066173,-3907.087040,4589.276840
1244.933977,-16580.613101,-2374.896044,4589.276840
1244.934288,-13619.789333,689.485948,3108.864956
1244.934599,-8882.471304,3830.477490,1924.535449
1244.934911,-3775.050304,5132.839837,592.164754
1244.935222,0.000000,4673.182538,-1406.391290
1244.935533,1110.308913,4366.744339,-1554.432478
1244.935845,-1110.308913,1455.581446,-2072.576638
1244.936156,-3775.050304,-536.266849,-1850.514855
1244.936467,-8586.388927,-2145.067394,-1628.453072
1244.936779,-13545.768739,-3830.477490,-0.000000
1244.937090,-15988.448347,-3753.867940,2368.659014
1244.937401,-17320.819043,-4749.792088,3034.844362
1244.937713,-17764.942608,-4290.134789,3108.864956
1244.938024,-15174.221811,-1838.629195,2664.741391
1244.938335,-11103.089130,1915.238745,2590.720797
1244.938647,-7105.977043,2987.772442,518.144159
1244.938958,-1998.556043,2298.286494,-0.000000
1244.939269,740.205942,1302.362347,-148.041188
1244.939581,1924.535449,459.657299,-592.164754
1244.939892,-222.061783,-1225.752797,-1110.308913
1244.940203,-5625.565159,-3140.991542,-1628.453072
1244.940515,-11251.130318,-4060.306139,-814.226536
1244.940826,-15322.262999,-2987.772442,1258.350101
1244.941137,-18653.189738,-2221.676944,2294.638420
1244.941449,-18949.272115,-2374.896044,2738.761985
1244.941760,-17764.942608,-459.657299,3182.885551
1244.942071,-13915.871710,2374.896044,2368.659014
1244.942383,-8808.450710,5056.230287,518.144159
1244.942694,-3997.112087,5669.106685,-962.267725
1244.943005,-444.123565,4519.963438,-814.226536
1244.943317,2220.617826,2757.943793,-1184.329507
1244.943628,148.041188,842.705048,-1776.494261
1244.943939,-4367.215058,-1915.238745,-2516.700203
1244.944251,-9992.780217,-2451.505594,-1480.411884
1244.944562,-14434.015869,-2221.676944,-0.000000
1244.944873,-17394.839637,-2604.724693,1554.432478
1244.945185,-18653.189738,-3830.477490,3108.864956
1244.945496,-17542.880825,-2604.724693,3478.967927
1244.945807,-14730.098246,0.000000,3256.906145
1244.946119,-9252.574275,2451.505594,2146.597232
1244.946430,-4441.235652,3983.696590,1480.411884
1244.946741,-666.185348,3217.601092,-0.000000
1244.947052,1110.308913,2451.505594,-1258.350101
1244.947364,592.164754,1915.238745,-2368.659014
1244.947675,-2442.679609,842.705048,-2812.782580
1244.947986,-6587.832884,-689.485948,-2368.659014
1244.948298,-11991.336260,-2451.505594,-1036.288319
1244.948609,-15988.448347,-2911.162892,2664.741391
1244.948920,-17468.860231,-3677.258390,4145.153275
1244.949232,-16728.654289,-2834.553343,4515.256246
1244.949543,-14730.098246,0.000000,3182.885551
1244.949854,-10732.986159,3370.820191,1554.432478
1244.950166,-5625.565159,5286.058936,-370.102971
1244.950477,-1850.514855,6128.763984,-1998.556043
1244.950788,148.041188,3907.087040,-1480.411884
1244.951100,296.082377,1455.581446,-1554.432478
1244.951411,-2368.659014,-1532.190996,-814.226536
1244.951722,-7105.977043,-4290.134789,-666.185348
1244.952034,-11843.295072,-4979.620737,370.102971
1244.952345,-15766.386565,-4519.963438,1628.453072
1244.952656,-18061.024985,-4903.011187,2812.782580
1244.952968,-18209.066173,-4673.182538,3701.029710
1244.953279,-16654.633695,-2068.457845,2886.803174
1244.953590,-13249.686362,459.657299,2368.659014
1244.953902,-8438.347739,2757.943793,1036.288319
1244.954213,-3849.070898,3064.381992,-222.061783
1244.954524,-518.144159,2681.334243,-666.185348
1244.954836,1480.411884,1378.971896,-1184.329507
1244.955147,1184.329507,0.000000,-1406.391290
1244.955458,-2664.741391,-1302.362347,-1702.473667
1244.955770,-8586.388927,-3217.601092,-1554.432478
1244.956081,-13249.686362,-3524.039291,296.082377
1244.956392,-17468.860231,-3217.601092,2072.576638
1244.956704,-18949.272115,-2681.334243,3182.885551
1244.957015,-18357.107362,-1302.362347,3108.864956
1244.957328,-15322.262999,1378.971896,2812.782580
1244.957640,-10807.006753,3830.477490,740.205942
1244.957951,-5699.585753,5056.230287,-0.000000
1244.958263,-1702.473667,4366.744339,-74.020594
1244.958574,592.164754,3140.991542,-962.267725
1244.958886,-148.041188,1532.190996,-1554.432478
1244.959197,-3330.926739,-919.314598,-2072.576638
1244.959509,-7698.141797,-2298.286494,-1924.535449
1244.959820,-11695.253884,-2528.115143,-888.247130
1244.960132,-15692.365970,-2451.505594,1332.370696
1244.960443,-17764.942608,-3677.258390,2738.761985
1244.960755,-17468.860231,-1991.848295,3182.885551
1244.961066,-15100.201217,0.000000,3404.947333
1244.961378,-11325.150913,2911.162892,1998.556043
1244.961689,-5847.626942,4826.401637,1184.329507
1244.962001,-962.267725,4596.572988,-222.061783
1244.962312,1628.453072,3907.087040,-1258.350101
1244.962624,2146.597232,2681.334243,-2368.659014
1244.962935,-148.041188,766.095498,-2516.700203
1244.963247,-5329.482782,-1072.533697,-2368.659014
1244.963558,-10807.006753,-2681.334243,-1110.308913
1244.963870,-15322.262999,-3370.820191,1332.370696
1244.964181,-18135.045579,-4290.134789,3256.906145
1244.964492,-18579.169144,-3830.477490,4145.153275
1244.964804,-16284.530724,-1991.848295,3478.967927
1244.965115,-13175.665768,1378.971896,2442.679609
1244.965427,-8364.327145,3907.087040,888.247130
1244.965738,-3923.091493,4749.792088,-740.205942
1244.966050,-518.144159,3983.696590,-888.247130
1244.966361,814.226536,2681.334243,-1332.370696
1244.966673,-592.164754,306.438199,-1480.411884
1244.966984,-4885.359217,-2221.676944,-1480.411884
1244.967296,-9252.574275,-3447.429741,-666.185348
1244.967607,-13027.624579,-3907.087040,518.144159
1244.967919,-16802.674883,-3907.087040,2442.679609
1244.968230,-18431.127956,-4136.915689,2738.761985
1244.968542,-17987.004391,-3294.210641,2738.761985
1244.968853,-15100.201217,76.609550,2516.700203
1244.969165,-10807.006753,2987.772442,1628.453072
1244.969476,-6809.894666,3830.477490,-444.123565
1244.969788,-2442.679609,3217.601092,-222.061783
1244.970099,1110.308913,1991.848295,-1036.288319
1244.970411,2294.638420,919.314598,-962.267725
1244.970722,-740.205942,-1685.410096,-1628.453072
1244.971034,-6439.791695,-3447.429741,-1332.370696
1244.971345,-11843.295072,-3907.087040,-222.061783
1244.971657,-16062.468941,-3294.210641,1480.411884
1244.971968,-18505.148550,-2604.724693,2664.741391
1244.972280,-18875.251521,-1991.848295,3182.885551
1244.972591,-16358.551318,-229.828649,2738.761985
1244.972903,-12583.501014,2757.943793,1406.391290
1244.973214,-7624.121203,5056.230287,-0.000000
1244.973526,-2886.803174,5209.449386,-444.123565
1244.973837,-148.041188,4136.915689,-740.205942
1244.974149,962.267725,2374.896044,-1036.288319
1244.974460,-1036.288319,76.609550,-1110.308913
1244.974772,-5107.421000,-1762.019645,-2072.576638
1244.975083,-9918.759623,-2681.334243,-1036.288319
1244.975395,-14137.933492,-1685.410096,148.041188
1244.975706,-17172.777854,-2451.505594,2220.617826
1244.976018,-18209.066173,-3217.601092,3330.926739
1244.976329,-16728.654289,-1838.629195,3478.967927
1244.976641,-13175.665768,1838.629195,2516.700203
1244.976952,-8364.327145,4366.744339,1406.391290
1244.977264,-3034.844362,4749.792088,296.082377
1244.977575,148.041188,3753.867940,-1554.432478
1244.977887,2368.659014,3064.381992,-1702.473667
1244.978198,888.247130,1532.190996,-2220.617826
1244.978510,-3182.885551,-766.095498,-2072.576638
1244.978821,-8438.347739,-2757.943793,-1406.391290
1244.979133,-13397.727550,-2911.162892,296.082377
1244.979444,-16876.695478,-2987.772442,2960.823768
1244.979756,-18209.066173,-3983.696590,4293.194464
1244.980067,-17987.004391,-2681.334243,3701.029710
1244.980379,-15026.180623,-229.828649,3256.906145
1244.980690,-10807.006753,2911.162892,1628.453072
1244.981002,-6291.750507,4443.353888,148.041188
1244.981313,-1998.556043,4519.963438,-1258.350101
1244.981625,370.102971,3294.210641,-666.185348
1244.981936,666.185348,612.876398,-962.267725
1244.982248,-2442.679609,-1915.238745,-296.082377
1244.982559,-7402.059420,-4136.915689,-296.082377
1244.982871,-11991.336260,-4673.182538,222.061783
1244.983182,-15396.283594,-4136.915689,1924.535449
1244.983494,-17912.983796,-4290.134789,2516.700203
1244.983805,-18061.024985,-3753.867940,2442.679609
1244.984117,-16580.613101,-1378.971896,2146.597232
1244.984428,-12731.542202,2068.457845,1776.494261
1244.984740,-8068.244768,3064.381992,148.041188
1244.985051,-3552.988522,3677.258390,-1554.432478
1244.985363,-370.102971,2528.115143,-1480.411884
1244.985674,1258.350101,1302.362347,-1332.370696
1244.985985,814.226536,-229.828649,-740.205942
1244.986297,-3256.906145,-3064.381992,-1184.329507
1244.986608,-9104.533087,-4290.134789,-148.041188
1244.986920,-14063.912898,-3830.477490,1332.370696
1244.987231,-17838.963202,-3600.648841,2368.659014
1244.987543,-18653.189738,-2528.115143,2960.823768
1244.987854,-18357.107362,-1225.752797,2442.679609
1244.988166,-15248.242405,1608.800546,1776.494261
1244.988477,-10140.821405,3753.867940,518.144159
1244.988789,-5329.482782,4519.963438,-1036.288319
1244.989100,-1406.391290,3907.087040,-666.185348
1244.989412,814.226536,2451.505594,-888.247130
1244.989723,74.020594,1225.752797,-1036.288319
1244.990035,-3775.050304,-1532.190996,-1924.535449
1244.990346,-8586.388927,-2451.505594,-1480.411884
1244.990658,-12583.501014,-2068.457845,-148.041188
1244.990969,-15100.201217,-1762.019645,1406.391290
1244.991281,-17468.860231,-2221.676944,2072.576638
1244.991592,-16580.613101,-2145.067394,3256.906145
1244.991904,-14878.139434,0.000000,2664.741391
1244.992215,-10436.903782,3064.381992,1850.514855
1244.992527,-5551.544565,4903.011187,1036.288319
1244.992838,-1628.453072,4903.011187,-148.041188
1244.993150,1184.329507,3830.477490,-1110.308913
1244.993461,1628.453072,2604.724693,-1850.514855
1244.993773,-1036.288319,995.924147,-2072.576638
1244.994084,-5921.647536,-1608.800546,-1850.514855
1244.994396,-11177.109724,-2834.553343,-814.226536
1244.994707,-15766.386565,-3294.210641,1554.432478
1244.995019,-18653.189738,-3830.477490,3478.967927
1244.995330,-18505.148550,-3600.648841,4293.194464
1244.995642,-16062.468941,-1072.533697,3775.050304
1244.995953,-12065.356855,1532.190996,2294.638420
1244.996265,-7179.997637,4136.915689,1036.288319
1244.996576,-2220.617826,5286.058936,-518.144159
1244.996888,814.226536,3983.696590,-814.226536
1244.997199,518.144159,1608.800546,-1480.411884
1244.997511,-1628.453072,-536.266849,-1332.370696
1244.997822,-5773.606348,-2451.505594,-1554.432478
1244.998134,-10288.862594,-3830.477490,-444.123565
1244.998445,-14285.974681,-4136.915689,1406.391290
1244.998757,-16654.633695,-5209.449386,3108.864956
1244.999068,-17912.983796,-5286.058936,2886.803174
1244.999380,-17098.757260,-3524.039291,2812.782580
1244.999691,-14285.974681,0.000000,2368.659014
1245.000003,-9992.780217,2681.334243,888.247130
1245.000314,-5329.482782,3524.039291,-814.226536
1245.000626,-2146.597232,2757.943793,-888.247130
1245.000937,370.102971,1991.848295,-1332.370696
1245.001249,1258.350101,766.095498,-666.185348
1245.001560,-2442.679609,-1915.238745,-2072.576638
1245.001872,-7031.956449,-3677.258390,-1406.391290
1245.002183,-12065.356855,-3677.258390,296.082377
1245.002495,-15618.345376,-3447.429741,1702.473667
1245.002806,-17987.004391,-2757.943793,2368.659014
1245.003118,-18949.272115,-1762.019645,2516.700203
1245.003429,-15988.448347,459.657299,2294.638420
1245.003741,-12139.377449,4213.525239,1110.308913
1245.004052,-7624.121203,4366.744339,-148.041188
1245.004364,-2886.803174,4213.525239,296.082377
1245.004675,0.000000,3447.429741,-740.205942
1245.004987,740.205942,2221.676944,-888.247130
1245.005298,-2738.761985,-383.047749,-2294.638420
1245.005610,-7698.141797,-1838.629195,-2442.679609
1245.005921,-11325.150913,-1685.410096,-1406.391290
1245.006233,-14359.995275,-1608.800546,592.164754
1245.006544,-16580.613101,-2604.724693,2590.720797
1245.006856,-17246.798449,-3064.381992,3627.009116
1245.007167,-15026.180623,-1532.190996,3997.112087
1245.007478,-11399.171507,1915.238745,3256.906145
1245.007790,-6587.832884,4749.792088,1924.535449
1245.008101,-2072.576638,5592.497135,370.102971
1245.008413,592.164754,5056.230287,-1776.494261
1245.008724,1258.350101,4519.963438,-2590.720797
1245.009036,-1184.329507,3140.991542,-3849.070898
1245.009347,-4663.297435,383.047749,-3034.844362
1245.009659,-10066.800811,-2068.457845,-1332.370696
1245.009970,-14434.015869,-3677.258390,1480.411884
1245.010282,-17246.798449,-4443.353888,4145.153275
1245.010593,-17838.963202,-4060.306139,4959.379811
1245.010905,-16580.613101,-2757.943793,4071.132681
1245.011216,-13693.809927,766.095498,2738.761985
1245.011528,-9104.533087,4366.744339,666.185348
1245.011839,-4515.256246,5515.887586,-518.144159
1245.012151,-962.267725,4366.744339,-592.164754
1245.012462,148.041188,2604.724693,-1110.308913
1245.012774,-1554.432478,0.000000,-1036.288319
1245.013085,-4959.379811,-2298.286494,-1702.473667
1245.013397,-9030.512492,-3447.429741,-592.164754
1245.013708,-12879.583391,-4366.744339,-0.000000
1245.014020,-15692.365970,-4443.353888,1998.556043
1245.014331,-17394.839637,-5209.449386,2738.761985
1245.014643,-17468.860231,-4366.744339,2738.761985
1245.014954,-15544.324782,-995.924147,2960.823768
1245.015266,-11917.315666,2221.676944,2294.638420
1245.015577,-7105.977043,3907.087040,444.123565
1245.015889,-2812.782580,3064.381992,-370.102971
1245.016200,74.020594,2298.286494,-1184.329507
1245.016512,1850.514855,1532.190996,-1258.350101
1245.016823,0.000000,-306.438199,-1776.494261
1245.017135,-5033.400406,-2757.943793,-2072.576638
1245.017446,-10584.944971,-4060.306139,-296.082377
1245.017758,-15174.221811,-4213.525239,1258.350101
1245.018069,-17690.922014,-3600.648841,2812.782580
1245.018381,-18875.251521,-2298.286494,3108.864956
1245.018692,-17468.860231,-612.876398,2368.659014
1245.019004,-13619.789333,2528.115143,1480.411884
1245.019315,-9030.512492,5209.449386,-222.061783
1245.019627,-4367.215058,5515.887586,-962.267725
1245.019938,-148.041188,4136.915689,-370.102971
1245.020250,814.226536,2528.115143,-888.247130
1245.020561,-370.102971,0.000000,-1628.453072
1245.020873,-4367.215058,-1915.238745,-2590.720797
1245.021184,-9474.636058,-2451.505594,-1850.514855
1245.021496,-13471.748144,-1685.410096,-74.020594
1245.021807,-16210.510130,-2374.896044,1776.494261
1245.022119,-17690.922014,-3753.867940,2886.803174
1245.022430,-16432.571912,-2451.505594,3478.967927
1245.022742,-13249.686362,1225.752797,2368.659014
1245.023053,-8512.368333,3524.039291,1702.473667
1245.023365,-3330.926739,4443.353888,962.267725
1245.023676,-962.267725,3524.039291,-444.123565
1245.023988,370.102971,3370.820191,-888.247130
1245.024299,-592.164754,2451.505594,-1554.432478
1245.024611,-3775.050304,153.219100,-2220.617826
1245.024922,-8068.244768,-2374.896044,-1184.329507
1245.025234,-12583.501014,-3447.429741,-0.000000
1245.025545,-15618.345376,-2681.334243,2368.659014
1245.025857,-17616.901420,-4443.353888,3404.947333
1245.026168,-17098.757260,-2757.943793,4367.215058
1245.026480,-15174.221811,0.000000,3478.967927
1245.026791,-11029.068536,2987.772442,2146.597232
1245.027103,-6439.791695,4903.011187,888.247130
1245.027414,-2146.597232,4903.011187,-666.185348
1245.027726,148.041188,4060.306139,-592.164754
1245.028037,148.041188,2068.457845,-1036.288319
1245.028349,-2220.617826,-1455.581446,-666.185348
1245.028660,-6957.935855,-3830.477490,-888.247130
1245.028971,-11325.150913,-4596.572988,222.061783
1245.029283,-14952.160028,-4749.792088,1554.432478
1245.029594,-17098.757260,-4979.620737,2664.741391
1245.029906,-17987.004391,-4673.182538,3034.844362
1245.030217,-16654.633695,-1762.019645,2590.720797
1245.030529,-12139.377449,919.314598,3404.947333
1245.030840,-7698.141797,3370.820191,1998.556043
1245.031152,-4071.132681,3140.991542,-296.082377
1245.031463,-444.123565,2757.943793,-296.082377
1245.031775,1628.453072,2298.286494,-1332.370696
1245.032086,814.226536,1302.362347,-1776.494261
1245.032398,-2960.823768,-1149.143247,-2220.617826
1245.032709,-8586.388927,-2911.162892,-1628.453072
1245.033021,-13619.789333,-3600.648841,-74.020594
1245.033332,-16580.613101,-3370.820191,1480.411884
1245.033644,-18727.210333,-2987.772442,2590.720797
1245.033955,-17690.922014,-2068.457845,2886.803174
1245.034267,-14285.974681,612.876398,2442.679609
1245.034578,-9992.780217,3064.381992,962.267725
1245.034890,-5181.441594,4060.306139,-740.205942
1245.035201,-1998.556043,4060.306139,-1258.350101
1245.035513,-814.226536,3140.991542,-2516.700203
1245.035824,-814.226536,1838.629195,-2072.576638
1245.036136,-4145.153275,-689.485948,-2220.617826
1245.036447,-8882.471304,-2757.943793,-2072.576638
1245.036759,-12805.562797,-3064.381992,-592.164754
1245.037070,-15544.324782,-2528.115143,1184.329507
1245.037382,-17246.798449,-3370.820191,2516.700203
1245.037693,-17764.942608,-3064.381992,3108.864956
1245.038005,-14804.118840,-229.828649,3404.947333
1245.038316,-10881.027347,2451.505594,1924.535449
1245.038628,-6217.729913,4213.525239,666.185348
1245.038939,-2516.700203,4596.572988,-1036.288319
1245.039251,0.000000,4213.525239,-1480.411884
1245.039562,666.185348,2834.553343,-1924.535449
1245.039874,-1258.350101,766.095498,-1924.535449
1245.040185,-5107.421000,-1532.190996,-2146.597232
1245.040497,-10436.903782,-2834.553343,-1406.391290
1245.040808,-14359.995275,-3217.601092,962.267725
1245.041120,-16876.695478,-3524.039291,2738.761985
1245.041431,-17838.963202,-3447.429741,3478.967927
1245.041743,-16728.654289,-1608.800546,3849.070898
1245.042054,-13101.645173,919.314598,2960.823768
1245.042366,-8586.388927,3753.867940,1554.432478
1245.042677,-3849.070898,3983.696590,222.061783
1245.042989,-1258.350101,4290.134789,-518.144159
1245.043300,0.000000,2451.505594,-888.247130
1245.043612,-888.247130,383.047749,-962.267725
1245.043923,-4811.338623,-1991.848295,-1406.391290
1245.044235,-9030.512492,-3140.991542,-370.102971
1245.044546,-12805.562797,-3677.258390,222.061783
1245.044858,-15396.283594,-4213.525239,2368.659014
1245.045169,-16580.613101,-4443.353888,3552.988522
1245.045481,-16950.716072,-3064.381992,3182.885551
1245.045792,-14359.995275,0.000000,3182.885551
1245.046104,-10288.862594,2681.334243,2368.659014
1245.046415,-5995.668130,4060.306139,814.226536
1245.046727,-1702.473667,3600.648841,-370.102971
1245.047038,888.247130,2911.162892,-1702.473667
1245.047350,370.102971,1608.800546,-1702.473667
1245.047661,-1480.411884,-459.657299,-1554.432478
1245.047973,-6661.853478,-2528.115143,-1702.473667
1245.048284,-11843.295072,-3370.820191,-74.020594
1245.048596,-16210.510130,-3294.210641,1850.514855
1245.048907,-17912.983796,-3370.820191,3034.844362
1245.049219,-17838.963202,-1915.238745,3182.885551
1245.049530,-15618.345376,0.000000,2886.803174
1245.049842,-11621.233289,2221.676944,2072.576638
1245.050153,-7179.997637,4903.011187,-0.000000
1245.050465,-2812.782580,4826.401637,-962.267725
1245.050776,-444.123565,4060.306139,-1110.308913
1245.051087,0.000000,1991.848295,-1776.494261
1245.051399,-2664.741391,-612.876398,-1628.453072
1245.051710,-6513.812290,-2145.067394,-1924.535449
1245.052022,-11473.192101,-3447.429741,-1184.329507
1245.052333,-14730.098246,-2528.115143,666.185348
1245.052645,-16358.551318,-3370.820191,2368.659014
1245.052956,-17468.860231,-4060.306139,3256.906145
1245.053268,-16062.468941,-2451.505594,3034.844362
1245.053579,-12953.603985,1149.143247,2368.659014
1245.053891,-7920.203579,4213.525239,962.267725
1245.054202,-4071.132681,4519.963438,-1110.308913
1245.054514,-814.226536,4673.182538,-1036.288319
1245.054825,444.123565,2834.553343,-2590.720797
1245.055137,-370.102971,1685.410096,-2368.659014
1245.055448,-4071.132681,-919.314598,-2368.659014
1245.055760,-9030.512492,-2451.505594,-1480.411884
1245.056071,-13545.768739,-2987.772442,-0.000000
1245.056383,-16580.613101,-3447.429741,2220.617826
1245.056694,-18135.045579,-3447.429741,3182.885551
1245.057006,-18061.024985,-2298.286494,3330.926739
1245.057317,-14952.160028,459.657299,3034.844362
1245.057629,-10066.800811,2911.162892,1924.535449
1245.057940,-5403.503377,4366.744339,-0.000000
1245.058252,-1480.411884,4136.915689,-518.144159
1245.058563,370.102971,2987.772442,-1036.288319
1245.058875,0.000000,1302.362347,-1110.308913
1245.059186,-3256.906145,-1838.629195,-1332.370696
1245.059498,-7920.203579,-3294.210641,-1110.308913
1245.059809,-11621.233289,-3370.820191,296.082377
1245.060121,-15100.201217,-3753.867940,1924.535449
1245.060432,-16950.716072,-4826.401637,2960.823768
1245.060744,-17024.736666,-4290.134789,3701.029710
1245.061055,-15248.242405,-2145.067394,3330.926739
1245.061367,-11251.130318,1455.581446,2368.659014
1245.061678,-7328.038826,3677.258390,1258.350101
1245.061990,-3404.947333,3753.867940,-666.185348
1245.062301,-222.061783,3294.210641,-1554.432478
1245.062613,1628.453072,2298.286494,-1406.391290
1245.062924,0.000000,459.657299,-1332.370696
1245.063236,-3849.070898,-2145.067394,-1110.308913
1245.063547,-9696.697840,-4060.306139,-0.000000
1245.063859,-14359.995275,-4443.353888,1406.391290
1245.064170,-17690.922014,-4060.306139,2664.741391
1245.064482,-18727.210333,-3064.381992,3034.844362
1245.064793,-16876.695478,-1225.752797,3108.864956
1245.065105,-14211.954086,1225.752797,2146.597232
1245.065416,-9622.677246,3294.210641,740.205942
1245.065728,-5477.523971,4060.306139,-888.247130
1245.066039,-2368.659014,4290.134789,-814.226536
1245.066351,-222.061783,3600.648841,-1184.329507
1245.066662,-1184.329507,612.876398,-666.185348
1245.066974,-3775.050304,-1455.581446,-1406.391290
1245.067285,-8882.471304,-2911.162892,-1258.350101
1245.067597,-13101.645173,-2451.505594,-222.061783
1245.067908,-15840.407159,-2374.896044,1406.391290
1245.068220,-17764.942608,-3064.381992,2516.700203
1245.068531,-17690.922014,-2834.553343,3108.864956
1245.068843,-15248.242405,229.828649,2738.761985
1245.069154,-10214.842000,2834.553343,1554.432478
1245.069466,-5033.400406,4596.572988,518.144159
1245.069777,-1702.473667,3677.258390,-666.185348
1245.070089,740.205942,3140.991542,-1036.288319
1245.070400,518.144159,2374.896044,-2072.576638
1245.070712,-1998.556043,536.266849,-2146.597232
1245.071023,-6143.709319,-995.924147,-1924.535449
1245.071335,-10881.027347,-2451.505594,-74.020594
1245.071646,-14211.954086,-2987.772442,1332.370696
1245.071958,-17542.880825,-3677.258390,2664.741391
1245.072269,-17542.880825,-3294.210641,3330.926739
1245.072581,-15396.283594,-536.266849,3182.885551
1245.072892,-11843.295072,2221.676944,1628.453072
1245.073204,-7476.080014,4213.525239,-0.000000
1245.073515,-3034.844362,4749.792088,-1332.370696
1245.073827,-222.061783,4213.525239,-1480.411884
1245.074138,666.185348,2298.286494,-1628.453072
1245.074450,-1332.370696,-153.219100,-1258.350101
1245.074761,-5477.523971,-2911.162892,-666.185348
1245.075073,-10288.862594,-4213.525239,-444.123565
1245.075384,-13841.851115,-3753.867940,370.102971
1245.075696,-16728.654289,-3217.601092,1850.514855
1245.076007,-17838.963202,-3140.991542,2146.597232
1245.076319,-17542.880825,-2374.896044,2294.638420
1245.076630,-14211.954086,383.047749,2590.720797
1245.076942,-9918.759623,2757.943793,1628.453072
1245.077253,-5551.544565,3753.867940,296.082377
1245.077565,-2072.576638,2834.553343,-666.185348
1245.077876,222.061783,2221.676944,-962.267725
1245.078188,518.144159,995.924147,-1258.350101
1245.078499,-2590.720797,-1532.190996,-2146.597232
1245.078811,-8068.244768,-2451.505594,-1554.432478
1245.079122,-12435.459826,-2834.553343,-518.144159
1245.079434,-16580.613101,-3600.648841,2072.576638
1245.079745,-18061.024985,-3217.601092,3256.906145
1245.080057,-18061.024985,-2681.334243,3478.967927
1245.080368,-15544.324782,76.609550,3108.864956
1245.080680,-11029.068536,2451.505594,1850.514855
1245.080991,-7031.956449,4366.744339,148.041188
1245.081303,-2220.617826,4519.963438,-740.205942
1245.081614,0.000000,3753.867940,-888.247130
1245.081926,-148.041188,2221.676944,-1406.391290
1245.082237,-2738.761985,-229.828649,-1184.329507
1245.082549,-6661.853478,-1991.848295,-1480.411884
1245.082860,-11325.150913,-2451.505594,-148.041188
1245.083172,-14211.954086,-2604.724693,1332.370696
1245.083483,-16136.489536,-3524.039291,2738.761985
1245.083795,-16654.633695,-3217.601092,3256.906145
1245.084106,-15396.283594,-1532.190996,2812.782580
1245.084418,-12139.377449,2374.896044,2442.679609
1245.084729,-7476.080014,4826.401637,1554.432478
1245.085041,-2664.741391,5132.839837,-0.000000
1245.085352,592.164754,3753.867940,-0.000000
1245.085664,1554.432478,3140.991542,-2220.617826
1245.085975,-222.061783,1608.800546,-2072.576638
1245.086287,-4737.318029,-306.438199,-2812.782580
1245.086598,-9844.739029,-1762.019645,-1776.494261
1245.086910,-14285.974681,-2374.896044,-0.000000
1245.087221,-17172.777854,-3524.039291,2590.720797
1245.087533,-18135.045579,-4060.306139,3701.029710
1245.087844,-17098.757260,-1838.629195,3552.988522
1245.088156,-13989.892304,1225.752797,2960.823768
1245.088467,-9474.636058,3524.039291,1258.350101
1245.088779,-4515.256246,6052.154434,-0.000000
1245.089090,-1628.453072,4673.182538,-444.123565
1245.089402,-222.061783,2911.162892,-1628.453072
1245.089713,-1258.350101,1455.581446,-1998.556043
1245.090025,-5033.400406,-536.266849,-2294.638420
1245.090336,-9918.759623,-2451.505594,-2072.576638
1245.090648,-12435.459826,-3370.820191,-222.061783
1245.090959,-15470.304188,-4213.525239,2146.597232
1245.091271,-16728.654289,-5362.668486,2664.741391
1245.091582,-16950.716072,-4290.134789,2812.782580
1245.091894,-15026.180623,-995.924147,3034.844362
1245.092205,-11473.192101,2528.115143,2072.576638
1245.092517,-6957.935855,4366.744339,740.205942
1245.092828,-2812.782580,3294.210641,-888.247130
1245.093140,296.082377,3524.039291,-740.205942
1245.093451,1702.473667,1838.629195,-1628.453072
1245.093763,-222.061783,-766.095498,-2368.659014
1245.094074,-5255.462188,-3064.381992,-1998.556043
1245.094386,-10510.924376,-4290.134789,-444.123565
1245.094697,-15396.283594,-4749.792088,1776.494261
1245.095009,-17987.004391,-4673.182538,2812.782580
1245.095320,-18505.148550,-3677.258390,3256.906145
1245.095632,-16876.695478,-1225.752797,3034.844362
1245.095943,-13027.624579,1532.190996,1998.556043
1245.096255,-8438.347739,3830.477490,444.123565
1245.096566,-3997.112087,4060.306139,-518.144159
1245.096878,-1480.411884,3983.696590,-444.123565
1245.097189,-370.102971,3217.601092,-518.144159
1245.097501,-1628.453072,919.314598,-962.267725
1245.097812,-5255.462188,-1149.143247,-2072.576638
1245.098124,-9844.739029,-2757.943793,-1184.329507
1245.098435,-13323.706956,-2374.896044,-148.041188
1245.098747,-15692.365970,-2221.676944,1998.556043
1245.099058,-17394.839637,-2911.162892,2886.803174
1245.099370,-16432.571912,-2451.505594,3404.947333
1245.099681,-13767.830521,306.438199,3330.926739
1245.099993,-9252.574275,3140.991542,1554.432478
1245.100304,-4515.256246,4673.182538,296.082377
1245.100616,-1702.473667,4903.011187,-962.267725
1245.100927,518.144159,3140.991542,-1702.473667
1245.101239,0.000000,2145.067394,-2368.659014
1245.101550,-2812.782580,0.000000,-2442.679609
1245.101862,-7105.977043,-1991.848295,-1850.514855
1245.102173,-12287.418637,-2681.334243,-148.041188
1245.102485,-16136.489536,-3140.991542,1776.494261
1245.102796,-17690.922014,-3140.991542,3108.864956
1245.103108,-16654.633695,-2451.505594,3701.029710
1245.103419,-14730.098246,153.219100,3256.906145
1245.103731,-10436.903782,2451.505594,2072.576638
1245.104042,-6069.688724,3524.039291,888.247130
1245.104354,-1924.535449,3830.477490,-592.164754
1245.104665,-148.041188,3217.601092,-888.247130
1245.104977,-370.102971,2221.676944,-1628.453072
1245.105288,-2960.823768,-919.314598,-1036.288319
1245.105600,-6957.935855,-3447.429741,-1110.308913
1245.105911,-11325.150913,-4749.792088,148.041188
1245.106223,-14656.077652,-4673.182538,1924.535449
1245.106534,-16950.716072,-4979.620737,2960.823768
1245.106846,-17912.983796,-4903.011187,3256.906145
1245.107157,-16506.592507,-2911.162892,3256.906145
1245.107469,-13175.665768,1302.362347,2146.597232
1245.107780,-8512.368333,4596.572988,666.185348
1245.108092,-3997.112087,4673.182538,-1110.308913
1245.108403,-666.185348,3064.381992,-1110.308913
1245.108715,1332.370696,2145.067394,-1406.391290
1245.109026,740.205942,612.876398,-1332.370696
1245.109338,-3108.864956,-1991.848295,-1628.453072
1245.109649,-8586.388927,-3677.258390,-888.247130
1245.109961,-13249.686362,-4213.525239,296.082377
1245.110272,-16580.613101,-4366.744339,1554.432478
1245.110584,-18653.189738,-3524.039291,2294.638420
1245.110895,-18135.045579,-2298.286494,3034.844362
1245.111207,-15544.324782,689.485948,2812.782580
1245.111518,-10436.903782,2834.553343,1924.535449
1245.111830,-5773.606348,3677.258390,-0.000000
1245.112141,-2368.659014,3370.820191,-518.144159
1245.112453,-296.082377,3064.381992,-1554.432478
1245.112764,0.000000,2757.943793,-1924.535449
1245.113076,-3923.091493,-229.828649,-2368.659014
1245.113387,-8364.327145,-1915.238745,-1850.514855
1245.113699,-12583.501014,-2221.676944,-888.247130
1245.114010,-15692.365970,-1991.848295,1258.350101
1245.114322,-17320.819043,-2911.162892,2738.761985
1245.114633,-17764.942608,-2681.334243,3108.864956
1245.114945,-14730.098246,76.609550,3404.947333
1245.115256,-9992.780217,2987.772442,2294.638420
1245.115568,-4737.318029,4979.620737,1036.288319
1245.115879,-1110.308913,4979.620737,-666.185348
1245.116191,962.267725,4136.915689,-1628.453072
1245.116502,814.226536,3064.381992,-2960.823768
1245.116814,-1480.411884,1685.410096,-2442.679609
1245.117125,-6291.750507,-1302.362347,-2442.679609
1245.117437,-11399.171507,-2681.334243,-814.226536
1245.117748,-15396.283594,-2911.162892,1184.329507
1245.118060,-17246.798449,-4060.306139,3034.844362
1245.118371,-17468.860231,-3907.087040,3849.070898
1245.118683,-15914.427753,-1532.190996,3923.091493
1245.118994,-12583.501014,1532.190996,3108.864956
1245.119306,-7772.162391,3907.087040,1776.494261
1245.119617,-2812.782580,4903.011187,-74.020594
1245.119929,-222.061783,4290.134789,-740.205942
1245.120240,-444.123565,3524.039291,-2368.659014
1245.120552,-2072.576638,919.314598,-1924.535449
1245.120863,-5773.606348,-1532.190996,-2442.679609
1245.121175,-10066.800811,-3524.039291,-1110.308913
1245.121486,-13841.851115,-4366.744339,592.164754
1245.121798,-16062.468941,-5286.058936,2294.638420
1245.122109,-17764.942608,-5132.839837,2368.659014
1245.122421,-17246.798449,-3064.381992,2960.823768
1245.122732,-15174.221811,229.828649,2886.803174
1245.123044,-11029.068536,2681.334243,2442.679609
1245.123355,-6143.709319,3447.429741,518.144159
1245.123667,-2442.679609,2834.553343,-222.061783
1245.123978,222.061783,2604.724693,-1628.453072
1245.124290,888.247130,2068.457845,-2072.576638
1245.124601,-1480.411884,-383.047749,-2442.679609
1245.124913,-7179.997637,-2911.162892,-1998.556043
1245.125224,-11843.295072,-3983.696590,-962.267725
1245.125536,-15470.304188,-4060.306139,1480.411884
1245.125847,-17912.983796,-3677.258390,3108.864956
1245.126159,-18801.230927,-2911.162892,3404.947333
1245.126470,-16432.571912,-229.828649,3701.029710
1245.126782,-11991.336260,2451.505594,2590.720797
1245.127093,-6587.832884,4290.134789,962.267725
1245.127405,-2368.659014,4979.620737,-444.123565
1245.127716,148.041188,3983.696590,-1036.288319
1245.128028,888.247130,3217.601092,-1406.391290
1245.128339,-1628.453072,689.485948,-2072.576638
1245.128651,-6587.832884,-1302.362347,-2146.597232
1245.128962,-11621.233289,-2681.334243,-1036.288319
1245.129274,-15174.221811,-1991.848295,962.267725
1245.129585,-17320.819043,-3140.991542,2368.659014
1245.129897,-17246.798449,-3140.991542,3182.885551
1245.130208,-15618.345376,-1532.190996,3775.050304
1245.130520,-11621.233289,1225.752797,3182.885551
1245.130831,-6809.894666,3600.648841,2220.617826
1245.131143,-2590.720797,4443.353888,-0.000000
1245.131454,0.000000,4826.401637,-1480.411884
1245.131766,1184.329507,4213.525239,-2886.803174
1245.132077,0.000000,2374.896044,-2590.720797
1245.132389,-3701.029710,-995.924147,-2886.803174
1245.132700,-8956.491898,-3064.381992,-1184.329507
1245.133012,-14211.954086,-3907.087040,666.185348
1245.133323,-17246.798449,-3830.477490,3256.906145
1245.133635,-18135.045579,-3983.696590,4071.132681
1245.133946,-17024.736666,-2298.286494,4071.132681
1245.134258,-13915.871710,842.705048,3182.885551
1245.134569,-9548.656652,3140.991542,1480.411884
1245.134881,-4663.297435,4596.572988,-0.000000
1245.135192,-1998.556043,4366.744339,-518.144159
1245.135504,-962.267725,3217.601092,-1702.473667
1245.135815,-1332.370696,842.705048,-1480.411884
1245.136127,-4441.235652,-1915.238745,-1850.514855
1245.136438,-8142.265362,-3830.477490,-1036.288319
1245.136749,-12657.521608,-4749.792088,-370.102971
1245.137061,-15470.304188,-4290.134789,1480.411884
1245.137372,-17468.860231,-4443.353888,2294.638420
1245.137684,-17764.942608,-4213.525239,3034.844362
1245.137995,-15840.407159,-1072.533697,3627.009116
1245.138307,-12065.356855,1838.629195,2738.761985
1245.138618,-7254.018232,3524.039291,1036.288319
1245.138930,-2960.823768,3370.820191,-296.082377
1245.139241,-222.061783,3524.039291,-1776.494261
1245.139553,1850.514855,2451.505594,-2146.597232
1245.139864,-666.185348,153.219100,-2442.679609
1245.140176,-5255.462188,-2451.505594,-2368.659014
1245.140487,-10436.903782,-3753.867940,-888.247130
1245.140799,-14656.077652,-3600.648841,1332.370696
1245.141110,-17246.798449,-3753.867940,2886.803174
1245.141422,-17690.922014,-3830.477490,4145.153275
1245.141733,-16358.551318,-1608.800546,3775.050304
1245.142045,-12213.398043,1302.362347,2960.823768
1245.142356,-8438.347739,4290.134789,1258.350101
1245.142668,-4293.194464,4903.011187,-666.185348
1245.142979,-1776.494261,4673.182538,-1258.350101
1245.143291,74.020594,3600.648841,-1998.556043
1245.143602,-814.226536,1838.629195,-2072.576638
1245.143914,-4293.194464,-306.438199,-2146.597232
1245.144225,-9400.615463,-2987.772442,-962.267725
1245.144537,-13101.645173,-2834.553343,592.164754
1245.144848,-16432.571912,-3524.039291,2368.659014
1245.145160,-17764.942608,-3677.258390,3330.926739
1245.145471,-16876.695478,-2145.067394,3627.009116
1245.145783,-14359.995275,459.657299,2960.823768
1245.146094,-9252.574275,3064.381992,1702.473667
1245.146406,-4663.297435,4366.744339,-296.082377
1245.146717,-666.185348,3677.258390,-666.185348
1245.147029,1702.473667,3907.087040,-1850.514855
1245.147340,1628.453072,2145.067394,-1480.411884
1245.147652,-888.247130,-229.828649,-2072.576638
1245.147963,-6513.812290,-2374.896044,-1110.308913
1245.148275,-11917.315666,-3524.039291,-0.000000
1245.148586,-16284.530724,-3140.991542,2072.576638
1245.148898,-19245.354492,-3447.429741,3108.864956
1245.149209,-18949.272115,-3064.381992,3775.050304
1245.149521,-16284.530724,-536.266849,3997.112087
1245.149832,-11695.253884,995.924147,2442.679609
1245.150144,-6735.874072,2911.162892,1036.288319
1245.150455,-2146.597232,2987.772442,-518.144159
1245.150767,74.020594,3064.381992,-1554.432478
1245.151078,148.041188,2145.067394,-2368.659014
1245.151390,-1850.514855,76.609550,-2072.576638
1245.151701,-6513.812290,-3064.381992,-2072.576638
1245.152013,-11029.068536,-4290.134789,-888.247130
1245.152324,-14804.118840,-3907.087040,740.205942
1245.152636,-17394.839637,-4060.306139,2368.659014
1245.152947,-18357.107362,-4136.915689,2960.823768
1245.153259,-17542.880825,-2451.505594,3034.844362
1245.153570,-13101.645173,995.924147,2368.659014
1245.153882,-8882.471304,4290.134789,370.102971
1245.154193,-4441.235652,4826.401637,-814.226536
1245.154505,-1036.288319,3830.477490,-1406.391290
1245.154816,666.185348,2681.334243,-1776.494261
1245.155128,0.000000,1149.143247,-1480.411884
1245.155439,-3775.050304,-1608.800546,-1628.453072
1245.155751,-9030.512492,-3600.648841,-1258.350101
1245.156062,-13545.768739,-3830.477490,370.102971
1245.156374,-16580.613101,-2911.162892,1924.535449
1245.156685,-17912.983796,-3064.381992,2516.700203
1245.156997,-17542.880825,-1762.019645,2960.823768
1245.157308,-14878.139434,919.314598,3108.864956
1245.157620,-10510.924376,3600.648841,2072.576638
1245.157931,-5477.523971,5056.230287,814.226536
1245.158242,-1628.453072,5209.449386,-296.082377
1245.158554,962.267725,4673.182538,-1110.308913
1245.158865,666.185348,3217.601092,-1776.494261
1245.159177,-2442.679609,0.000000,-1998.556043
1245.159488,-7402.059420,-1378.971896,-2072.576638
1245.159800,-12583.501014,-2221.676944,-1036.288319
1245.160111,-15766.386565,-2451.505594,962.267725
1245.160422,-17172.777854,-3600.648841,2590.720797
1245.160734,-17172.777854,-4596.572988,3775.050304
1245.161045,-15100.201217,-2834.553343,4219.173869
1245.161357,-10955.047942,229.828649,3997.112087
1245.161668,-6587.832884,2451.505594,2442.679609
1245.161979,-2368.659014,3983.696590,370.102971
1245.162291,148.041188,3600.648841,-518.144159
1245.162602,740.205942,3294.210641,-2294.638420
1245.162914,-740.205942,2221.676944,-2960.823768
1245.163225,-4589.276840,229.828649,-2812.782580
1245.163537,-9992.780217,-2068.457845,-1554.432478
1245.163848,-14063.912898,-2451.505594,518.144159
1245.164159,-16876.695478,-3830.477490,3108.864956
1245.164471,-18209.066173,-4290.134789,3997.112087
1245.164782,-16876.695478,-2451.505594,4071.132681
1245.165094,-13767.830521,1608.800546,3034.844362
1245.165405,-9030.512492,4213.525239,1776.494261
1245.165717,-4515.256246,5132.839837,-444.123565
1245.166028,-1110.308913,3983.696590,-962.267725
1245.166339,0.000000,2834.553343,-2072.576638
1245.166651,-1258.350101,383.047749,-1702.473667
1245.166962,-5107.421000,-2068.457845,-2368.659014
1245.167274,-10066.800811,-3677.258390,-1480.411884
1245.167585,-14211.954086,-4136.915689,-296.082377
1245.167896,-16728.654289,-4903.011187,1480.411884
1245.168208,-18357.107362,-4826.401637,2960.823768
1245.168519,-18061.024985,-3753.867940,3034.844362
1245.168831,-14730.098246,-919.314598,3404.947333
1245.169142,-10658.965565,1838.629195,3182.885551
1245.169454,-5477.523971,3370.820191,1702.473667
1245.169765,-888.247130,2987.772442,740.205942
1245.170076,1258.350101,2911.162892,-1776.494261
1245.170388,1036.288319,2298.286494,-2368.659014
1245.170699,-962.267725,1378.971896,-3849.070898
1245.171011,-6291.750507,-1149.143247,-3701.029710
1245.171322,-10881.027347,-2681.334243,-1776.494261
1245.171634,-15174.221811,-3600.648841,814.226536
1245.171945,-17468.860231,-4136.915689,2960.823768
1245.172256,-18283.086767,-3830.477490,4145.153275
1245.172568,-17098.757260,-536.266849,4071.132681
1245.172879,-11917.315666,3600.648841,2960.823768
1245.173191,-7402.059420,4826.401637,1924.535449
1245.173502,-2220.617826,5209.449386,-74.020594
1245.173814,148.041188,4596.572988,-962.267725
1245.174125,518.144159,3907.087040,-2146.597232
1245.174436,-1924.535449,1225.752797,-2220.617826
1245.174748,-5995.668130,-1378.971896,-2812.782580
1245.175059,-11103.089130,-2681.334243,-1258.350101
1245.175371,-14952.160028,-2757.943793,148.041188
1245.175682,-17098.757260,-3370.820191,2072.576638
1245.175993,-17098.757260,-4903.011187,3330.926739
1245.176305,-16358.551318,-2681.334243,3849.070898
1245.176616,-12509.480420,689.485948,3330.926739
1245.176928,-7624.121203,3064.381992,2664.741391
1245.177239,-3256.906145,3907.087040,1110.308913
1245.177551,-296.082377,3600.648841,-592.164754
1245.177862,814.226536,3294.210641,-1480.411884
1245.178173,296.082377,1762.019645,-1702.473667
1245.178485,-3330.926739,0.000000,-2960.823768
1245.178796,-8586.388927,-2528.115143,-1850.514855
1245.179108,-13841.851115,-3983.696590,-74.020594
1245.179419,-16654.633695,-4519.963438,2368.659014
1245.179731,-17542.880825,-5286.058936,3478.967927
1245.180042,-17838.963202,-3907.087040,4071.132681
1245.180353,-15174.221811,0.000000,3997.112087
1245.180665,-10510.924376,2528.115143,3256.906145
1245.180976,-5551.544565,4060.306139,1554.432478
1245.181288,-2368.659014,3907.087040,-0.000000
1245.181599,-592.164754,3830.477490,-1480.411884
1245.181910,-592.164754,2911.162892,-2368.659014
1245.182222,-2368.659014,76.609550,-2738.761985
1245.182533,-7328.038826,-2451.505594,-2590.720797
1245.182845,-11473.192101,-3907.087040,-666.185348
1245.183156,-14730.098246,-4136.915689,1332.370696
1245.183468,-17024.736666,-5056.230287,2664.741391
1245.183779,-18431.127956,-4826.401637,3330.926739
1245.184090,-16950.716072,-2298.286494,3404.947333
1245.184402,-13027.624579,1225.752797,2442.679609
1245.184713,-7920.203579,3370.820191,1924.535449
1245.185025,-2738.761985,4136.915689,148.041188
1245.185336,740.205942,2681.334243,-888.247130
1245.185648,2146.597232,2374.896044,-1850.514855
1245.185959,518.144159,459.657299,-2368.659014
1245.186270,-4071.132681,-1455.581446,-2960.823768
1245.186582,-9844.739029,-2757.943793,-1998.556043
1245.186893,-14952.160028,-2604.724693,-296.082377
1245.187205,-17690.922014,-3294.210641,1702.473667
1245.187516,-18283.086767,-4136.915689,3182.885551
1245.187827,-17764.942608,-2757.943793,3330.926739
1245.188139,-14359.995275,612.876398,2886.803174
1245.188450,-9622.677246,3907.087040,2146.597232
1245.188762,-4145.153275,4979.620737,1036.288319
1245.189073,-444.123565,4213.525239,-148.041188
1245.189385,814.226536,3830.477490,-1258.350101
1245.189696,0.000000,2757.943793,-1924.535449
1245.190007,-3775.050304,0.000000,-2886.803174
1245.190319,-9030.512492,-1532.190996,-2368.659014
1245.190630,-13989.892304,-1915.238745,-888.247130
1245.190942,-16950.716072,-2451.505594,1702.473667
1245.191253,-18209.066173,-4136.915689,3330.926739
1245.191565,-18135.045579,-4366.744339,3701.029710
1245.191876,-15100.201217,-1762.019645,3627.009116
1245.192187,-10140.821405,2374.896044,2738.761985
1245.192499,-5329.482782,4213.525239,1406.391290
1245.192810,-888.247130,3140.991542,-0.000000
1245.193122,1110.308913,3294.210641,-444.123565
1245.193433,962.267725,2604.724693,-1776.494261
1245.193744,-962.267725,1149.143247,-2072.576638
1245.194056,-5847.626942,-1608.800546,-2368.659014
1245.194367,-11547.212695,-3140.991542,-962.267725
1245.194679,-15470.304188,-3217.601092,814.226536
1245.194990,-17394.839637,-3600.648841,2516.700203
1245.195302,-18431.127956,-3677.258390,3404.947333
1245.195613,-16876.695478,-1378.971896,3552.988522
1245.195924,-13175.665768,1915.238745,2960.823768
1245.196236,-8068.244768,3983.696590,2146.597232
1245.196547,-3404.947333,4443.353888,740.205942
1245.196859,-296.082377,3524.039291,-0.000000
1245.197170,0.000000,2374.896044,-1776.494261
1245.197482,-1258.350101,842.705048,-2146.597232
1245.197793,-4737.318029,-1532.190996,-2738.761985
1245.198104,-9844.739029,-2987.772442,-2220.617826
1245.198416,-14211.954086,-3753.867940,-518.144159
1245.198727,-16580.613101,-4213.525239,1554.432478
1245.199039,-18357.107362,-4443.353888,3108.864956
1245.199350,-17394.839637,-3064.381992,3552.988522
1245.199661,-15026.180623,766.095498,3108.864956
1245.199973,-9474.636058,3983.696590,2220.617826
1245.200284,-3923.091493,4366.744339,888.247130
1245.200596,296.082377,3600.648841,-148.041188
1245.200907,1850.514855,2911.162892,-1998.556043
1245.201219,1406.391290,2221.676944,-2812.782580
1245.201530,-2368.659014,76.609550,-3552.988522
1245.201841,-7550.100608,-1915.238745,-3256.906145
1245.202153,-13101.645173,-3140.991542,-1628.453072
1245.202464,-17172.777854,-4060.306139,1332.370696
1245.202776,-18653.189738,-4826.401637,3330.926739
1245.203087,-18949.272115,-4213.525239,4441.235652
1245.203399,-16358.551318,-1532.190996,4145.153275
1245.203710,-11695.253884,2374.896044,2812.782580
1245.204021,-6069.688724,4596.572988,1406.391290
1245.204333,-1036.288319,4596.572988,-0.000000
1245.204644,740.205942,4213.525239,-1554.432478
1245.204956,0.000000,3370.820191,-2368.659014
1245.205267,-2812.782580,1455.581446,-2368.659014
1245.205578,-7550.100608,-689.485948,-2442.679609
1245.205890,-11991.336260,-2221.676944,-1332.370696
1245.206201,-15840.407159,-2757.943793,592.164754
1245.206513,-17468.860231,-3370.820191,3034.844362
1245.206824,-17394.839637,-4213.525239,3182.885551
1245.207136,-15914.427753,-1838.629195,3404.947333
1245.207447,-12583.501014,1302.362347,3108.864956
1245.207758,-8142.265362,3524.039291,2664.741391
1245.208070,-2960.823768,3447.429741,1036.288319
1245.208381,0.000000,2987.772442,-296.082377
1245.208693,1480.411884,2757.943793,-1850.514855
1245.209004,444.123565,1608.800546,-2664.741391
1245.209316,-3775.050304,0.000000,-3478.967927
1245.209627,-8660.409521,-2451.505594,-1924.535449
1245.209938,-14211.954086,-3140.991542,148.041188
1245.210250,-16802.674883,-4136.915689,3108.864956
1245.210561,-17987.004391,-4673.182538,4219.173869
1245.210873,-17838.963202,-3217.601092,4367.215058
1245.211184,-14508.036463,229.828649,3849.070898
1245.211495,-9474.636058,2911.162892,1998.556043
1245.211807,-3849.070898,4749.792088,1184.329507
1245.212118,-814.226536,3907.087040,-0.000000
1245.212430,0.000000,2987.772442,-1702.473667
1245.212741,-592.164754,1608.800546,-1850.514855
1245.213053,-3627.009116,-306.438199,-2664.741391
1245.213364,-7846.182985,-1991.848295,-2146.597232
1245.213675,-12213.398043,-3370.820191,-1036.288319
1245.213987,-15396.283594,-4443.353888,1406.391290
1245.214298,-16876.695478,-5439.278036,2590.720797
1245.214610,-17394.839637,-3677.258390,3404.947333
1245.214921,-15618.345376,-306.438199,3256.906145
1245.215233,-12065.356855,2604.724693,2590.720797
1245.215544,-7179.997637,4060.306139,1702.473667
1245.215855,-2294.638420,3600.648841,370.102971
1245.216167,1110.308913,3447.429741,-1036.288319
1245.216478,1406.391290,1915.238745,-2368.659014
1245.216790,-740.205942,459.657299,-2886.803174
1245.217101,-5551.544565,-1915.238745,-3182.885551
1245.217412,-10807.006753,-3064.381992,-1850.514855
1245.217724,-15544.324782,-3677.258390,740.205942
1245.218035,-17838.963202,-4519.963438,2886.803174
1245.218347,-18875.251521,-4903.011187,3775.050304
1245.218658,-17394.839637,-2604.724693,4071.132681
1245.218970,-13471.748144,1378.971896,2664.741391
1245.219281,-8364.327145,4443.353888,1850.514855
1245.219592,-3997.112087,5209.449386,-148.041188
1245.219904,-518.144159,4290.134789,-296.082377
1245.220215,1036.288319,2987.772442,-1628.453072
1245.220527,-592.164754,919.314598,-2146.597232
1245.220838,-4737.318029,-995.924147,-2368.659014
1245.221150,-9992.780217,-1915.238745,-2146.597232
1245.221461,-14359.995275,-2681.334243,-370.102971
1245.221772,-16728.654289,-2834.553343,1406.391290
1245.222084,-17764.942608,-3140.991542,2886.803174
1245.222395,-16654.633695,-2451.505594,3404.947333
1245.222707,-13767.830521,306.438199,3330.926739
1245.223018,-8956.491898,3294.210641,2590.720797
1245.223329,-4071.132681,4060.306139,1480.411884
1245.223641,-1036.288319,3447.429741,148.041188
1245.223952,962.267725,3753.867940,-1258.350101
1245.224264,814.226536,2221.676944,-2368.659014
1245.224575,-1998.556043,612.876398,-2738.761985
1245.224887,-7031.956449,-1838.629195,-2442.679609
1245.225198,-12065.356855,-2987.772442,-962.267725
1245.225509,-15840.407159,-3294.210641,2072.576638
1245.225821,-17394.839637,-4596.572988,3849.070898
1245.226132,-17542.880825,-4596.572988,4293.194464
1245.226444,-15174.221811,-919.314598,4145.153275
1245.226755,-10881.027347,2911.162892,2886.803174
1245.227067,-5921.647536,4136.915689,1480.411884
1245.227378,-1924.535449,4060.306139,-222.061783
1245.227689,-444.123565,3064.381992,-1184.329507
1245.228001,-888.247130,1762.019645,-1924.535449
1245.228312,-3108.864956,-459.657299,-2146.597232
1245.228624,-6735.874072,-2757.943793,-2738.761985
1245.228935,-11547.212695,-3907.087040,-1628.453072
1245.229246,-14508.036463,-4673.182538,666.185348
1245.229558,-16210.510130,-5056.230287,2590.720797
1245.229869,-17616.901420,-5132.839837,2960.823768
1245.230181,-16802.674883,-2834.553343,3108.864956
1245.230492,-13841.851115,766.095498,2886.803174
1245.230804,-9104.533087,3217.601092,2146.597232
1245.231115,-3923.091493,4290.134789,-0.000000
1245.231426,-962.267725,2834.553343,-888.247130
1245.231738,1184.329507,2834.553343,-2072.576638
1245.232049,518.144159,995.924147,-2146.597232
1245.232361,-3034.844362,-1302.362347,-2812.782580
1245.232672,-8734.430116,-2451.505594,-2072.576638
1245.232984,-13989.892304,-3064.381992,-592.164754
1245.233295,-16580.613101,-4136.915689,1480.411884
1245.233606,-18801.230927,-4290.134789,2960.823768
1245.233918,-18431.127956,-1838.629195,3478.967927
1245.234229,-15618.345376,459.657299,3997.112087
1245.234541,-11029.068536,3524.039291,2368.659014
1245.234852,-5551.544565,4903.011187,962.267725
