#time,accel_x,accel_y,accel_z
1334.986551,-8956.491898,-153.219100,370.102971
1334.986863,-8808.450710,76.609550,444.123565
1334.987174,-8808.450710,0.000000,370.102971
1334.987486,-9104.533087,0.000000,444.123565
1334.987798,-8882.471304,0.000000,518.144159
1334.988109,-9030.512492,-153.219100,592.164754
1334.988421,-8956.491898,0.000000,592.164754
1334.988732,-8882.471304,76.609550,592.164754
1334.989044,-8512.368333,-612.876398,370.102971
1334.989356,-8364.327145,76.609550,592.164754
1334.989667,-9030.512492,383.047749,592.164754
1334.989979,-8734.430116,0.000000,518.144159
1334.990290,-8956.491898,0.000000,666.185348
1334.990602,-8956.491898,-153.219100,592.164754
1334.990914,-8882.471304,-229.828649,592.164754
1334.991225,-8290.306550,0.000000,592.164754
1334.991537,-9030.512492,0.000000,444.123565
1334.991848,-8586.388927,306.438199,592.164754
1334.992160,-8586.388927,153.219100,518.144159
1334.992471,-8956.491898,-229.828649,666.185348
1334.992783,-8956.491898,0.000000,518.144159
1334.993095,-9030.512492,0.000000,518.144159
1334.993406,-8956.491898,76.609550,666.185348
1334.993718,-8882.471304,-153.219100,518.144159
1334.994029,-8734.430116,-229.828649,296.082377
1334.994341,-9252.574275,76.609550,-0.000000
1334.994653,-8290.306550,0.000000,592.164754
1334.994964,-8956.491898,-229.828649,518.144159
1334.995276,-8882.471304,-229.828649,666.185348
1334.995587,-9030.512492,-153.219100,592.164754
1334.995899,-8956.491898,-229.828649,592.164754
1334.996211,-8808.450710,-459.657299,518.144159
1334.996522,-8734.430116,0.000000,148.041188
1334.996834,-8512.368333,-153.219100,444.123565
1334.997145,-9178.553681,0.000000,222.061783
1334.997457,-9030.512492,0.000000,666.185348
1334.997769,-8882.471304,-153.219100,444.123565
1334.998080,-8882.471304,-229.828649,666.185348
1334.998392,-8956.491898,76.609550,444.123565
1334.998703,-8734.430116,-459.657299,592.164754
1334.999015,-8956.491898,0.000000,148.041188
1334.999327,-8734.430116,383.047749,666.185348
1334.999638,-8882.471304,0.000000,518.144159
1334.999950,-8956.491898,-153.219100,518.144159
1335.000261,-9030.512492,0.000000,592.164754
1335.000573,-8808.450710,76.609550,592.164754
1335.000885,-8956.491898,153.219100,444.123565
1335.001196,-8808.450710,-306.438199,518.144159
1335.001508,-8512.368333,-153.219100,592.164754
1335.001819,-8808.450710,-766.095498,296.082377
1335.002131,-8882.471304,-383.047749,518.144159
1335.002443,-8882.471304,-153.219100,592.164754
1335.002754,-8882.471304,0.000000,592.164754
1335.003066,-8956.491898,-153.219100,592.164754
1335.003377,-8808.450710,-536.266849,370.102971
1335.003689,-8512.368333,-306.438199,444.123565
1335.004000,-8734.430116,0.000000,370.102971
1335.004312,-9252.574275,76.609550,-0.000000
1335.004624,-9030.512492,0.000000,592.164754
1335.004935,-8882.471304,-153.219100,518.144159
1335.005247,-8956.491898,0.000000,592.164754
1335.005558,-8882.471304,0.000000,370.102971
1335.005870,-8956.491898,153.219100,370.102971
1335.006182,-8882.471304,0.000000,518.144159
1335.006493,-8956.491898,0.000000,666.185348
1335.006805,-8734.430116,-306.438199,740.205942
1335.007116,-8956.491898,-229.828649,370.102971
1335.007428,-8882.471304,0.000000,444.123565
1335.007740,-8808.450710,-153.219100,592.164754
1335.008051,-8882.471304,-229.828649,370.102971
1335.008363,-8734.430116,0.000000,518.144159
1335.008674,-8586.388927,76.609550,888.247130
1335.008986,-9178.553681,0.000000,222.061783
1335.009298,-8808.450710,0.000000,666.185348
1335.009609,-8882.471304,0.000000,444.123565
1335.009921,-8882.471304,0.000000,444.123565
1335.010232,-8882.471304,0.000000,370.102971
1335.010544,-8882.471304,0.000000,296.082377
1335.010856,-9030.512492,0.000000,370.102971
1335.011167,-8956.491898,-306.438199,370.102971
1335.011479,-8882.471304,0.000000,814.226536
1335.011790,-9030.512492,-306.438199,518.144159
1335.012102,-8956.491898,0.000000,518.144159
1335.012414,-8882.471304,-153.219100,592.164754
1335.012725,-8882.471304,0.000000,518.144159
1335.013037,-9104.533087,-229.828649,444.123565
1335.013348,-8956.491898,-153.219100,148.041188
1335.013660,-8512.368333,0.000000,370.102971
1335.013971,-8956.491898,-383.047749,222.061783
1335.014283,-8734.430116,0.000000,666.185348
1335.014595,-9252.574275,0.000000,592.164754
1335.014906,-11177.109724,459.657299,370.102971
1335.015218,-11325.150913,2681.334243,518.144159
1335.015529,-8290.306550,4826.401637,740.205942
1335.015841,-7772.162391,3753.867940,666.185348
1335.016153,-6809.894666,766.095498,1258.350101
1335.016464,-6587.832884,-1225.752797,-222.061783
1335.016776,-7254.018232,-1072.533697,-74.020594
1335.017087,-7476.080014,-306.438199,-370.102971
1335.017399,-11843.295072,-995.924147,-1110.308913
1335.017711,-13027.624579,-383.047749,-222.061783
1335.018022,-9992.780217,689.485948,814.226536
1335.018334,-8808.450710,0.000000,2072.576638
1335.018645,-9474.636058,-689.485948,3034.844362
1335.018957,-11991.336260,842.705048,1702.473667
1335.019269,-7994.224174,4290.134789,2590.720797
1335.019580,-4885.359217,5286.058936,1850.514855
1335.019892,-7402.059420,3064.381992,740.205942
1335.020203,-7254.018232,2911.162892,-814.226536
1335.020515,-7179.997637,3370.820191,-2516.700203
1335.020827,-8512.368333,3217.601092,-1332.370696
1335.021138,-9104.533087,3907.087040,-592.164754
1335.021450,-13175.665768,2451.505594,-1110.308913
1335.021761,-14211.954086,-919.314598,1628.453072
1335.022073,-8586.388927,-1378.971896,2960.823768
1335.022385,-10140.821405,612.876398,962.267725
1335.022696,-7698.141797,7201.297681,2812.782580
1335.023008,-7994.224174,6128.763984,1110.308913
1335.023319,-7402.059420,2374.896044,2442.679609
1335.023631,-5403.503377,4826.401637,1924.535449
1335.023942,-7254.018232,6894.859482,-148.041188
1335.024254,-7698.141797,7354.516781,-1406.391290
1335.024566,-10362.883188,5592.497135,-1258.350101
1335.024877,-9474.636058,4903.011187,-1406.391290
1335.025189,-10288.862594,6052.154434,-1554.432478
1335.025500,-11695.253884,5209.449386,666.185348
1335.025812,-10807.006753,4213.525239,1998.556043
1335.026124,-11251.130318,3830.477490,2220.617826
1335.026435,-8734.430116,4826.401637,2738.761985
1335.026747,-6587.832884,5132.839837,1480.411884
1335.027058,-5255.462188,5286.058936,148.041188
1335.027370,-4959.379811,5056.230287,-0.000000
1335.027682,-5255.462188,5592.497135,-222.061783
1335.027993,-6291.750507,3983.696590,-1480.411884
1335.028305,-8808.450710,4213.525239,-592.164754
1335.028616,-10362.883188,2298.286494,-296.082377
1335.028928,-10732.986159,1455.581446,296.082377
1335.029240,-10510.924376,766.095498,1036.288319
1335.029551,-10584.944971,-153.219100,1702.473667
1335.029863,-10807.006753,229.828649,2146.597232
1335.030174,-9770.718434,2068.457845,2368.659014
1335.030486,-8586.388927,4060.306139,1776.494261
1335.030798,-6587.832884,3830.477490,888.247130
1335.031109,-6291.750507,2834.553343,-296.082377
1335.031421,-6587.832884,3600.648841,-1036.288319
1335.031732,-5995.668130,3983.696590,-1776.494261
1335.032044,-7179.997637,1991.848295,-1776.494261
1335.032356,-9400.615463,-766.095498,-740.205942
1335.032667,-11843.295072,-1762.019645,-0.000000
1335.032979,-13693.809927,-2374.896044,962.267725
1335.033290,-13471.748144,-1608.800546,2442.679609
1335.033602,-14211.954086,-919.314598,1850.514855
1335.033914,-12953.603985,1072.533697,1406.391290
1335.034225,-10732.986159,2681.334243,-0.000000
1335.034537,-8216.285956,3830.477490,-0.000000
1335.034848,-6143.709319,3983.696590,-0.000000
1335.035160,-5773.606348,5056.230287,444.123565
1335.035471,-6439.791695,4060.306139,296.082377
1335.035783,-8512.368333,2528.115143,-444.123565
1335.036095,-10288.862594,1838.629195,-444.123565
1335.036406,-12361.439231,1149.143247,-370.102971
1335.036718,-13545.768739,1072.533697,-296.082377
1335.037029,-13545.768739,536.266849,148.041188
1335.037341,-12361.439231,842.705048,1036.288319
1335.037653,-11177.109724,2068.457845,1184.329507
1335.037964,-8734.430116,4366.744339,2072.576638
1335.038276,-6957.935855,4903.011187,1924.535449
1335.038587,-4145.153275,5669.106685,1702.473667
1335.038899,-1776.494261,6358.592633,-148.041188
1335.039211,-962.267725,6511.811733,-1110.308913
1335.039522,-2812.782580,4673.182538,-1480.411884
1335.039834,-7105.977043,3064.381992,-1628.453072
1335.040145,-10658.965565,2681.334243,-518.144159
1335.040457,-14804.118840,2834.553343,444.123565
1335.040769,-16210.510130,2374.896044,2442.679609
1335.041080,-15174.221811,2374.896044,3182.885551
1335.041392,-11843.295072,2987.772442,3849.070898
1335.041703,-6809.894666,3064.381992,3034.844362
1335.042015,-3108.864956,3907.087040,1850.514855
1335.042327,-1554.432478,4903.011187,-0.000000
1335.042638,-1998.556043,6128.763984,-1850.514855
1335.042950,-3108.864956,7048.078582,-2220.617826
1335.043261,-6365.771101,4673.182538,-2146.597232
1335.043573,-9326.594869,2681.334243,-740.205942
1335.043885,-11695.253884,0.000000,-148.041188
1335.044196,-13027.624579,-2068.457845,1258.350101
1335.044508,-12509.480420,-3064.381992,2072.576638
1335.044819,-13027.624579,-3753.867940,2220.617826
1335.045131,-11991.336260,-2834.553343,1554.432478
1335.045442,-11399.171507,-153.219100,518.144159
1335.045754,-10214.842000,3064.381992,814.226536
1335.046066,-8290.306550,4673.182538,1184.329507
1335.046377,-7698.141797,4596.572988,1554.432478
1335.046689,-7105.977043,1838.629195,1036.288319
1335.047000,-6439.791695,0.000000,666.185348
1335.047312,-7179.997637,612.876398,-888.247130
1335.047624,-8290.306550,1685.410096,-2294.638420
1335.047935,-9548.656652,1378.971896,-3034.844362
1335.048247,-11177.109724,689.485948,-1554.432478
1335.048558,-12065.356855,153.219100,-74.020594
1335.048870,-12509.480420,-459.657299,1776.494261
1335.049182,-13101.645173,-842.705048,1998.556043
1335.049493,-12657.521608,612.876398,1628.453072
1335.049805,-11177.109724,3140.991542,222.061783
1335.050116,-9252.574275,5592.497135,-1184.329507
1335.050428,-6439.791695,5132.839837,-1110.308913
1335.050740,-4663.297435,2604.724693,-666.185348
1335.051051,-4293.194464,0.000000,296.082377
1335.051363,-5699.585753,-2298.286494,518.144159
1335.051674,-8438.347739,-2834.553343,666.185348
1335.051986,-10214.842000,-2757.943793,1554.432478
1335.052298,-11029.068536,-2298.286494,1850.514855
1335.052609,-10140.821405,-2451.505594,2220.617826
1335.052921,-8438.347739,-2068.457845,1110.308913
1335.053232,-7772.162391,-383.047749,814.226536
1335.053544,-7402.059420,1302.362347,-0.000000
1335.053856,-8290.306550,2757.943793,-888.247130
1335.054167,-8216.285956,4443.353888,-1554.432478
1335.054479,-8142.265362,4903.011187,-1702.473667
1335.054790,-7772.162391,3907.087040,-592.164754
1335.055102,-7846.182985,1608.800546,1406.391290
1335.055413,-8068.244768,-689.485948,2738.761985
1335.055725,-7772.162391,-2987.772442,4737.318029
1335.056037,-10288.862594,-4596.572988,4663.297435
1335.056348,-11251.130318,-4060.306139,3849.070898
1335.056660,-7846.182985,-459.657299,-0.000000
1335.056971,-6069.688724,1991.848295,-1998.556043
1335.057283,-5551.544565,2604.724693,-3404.947333
1335.057595,-6661.853478,2221.676944,-3849.070898
1335.057906,-9178.553681,2451.505594,-2442.679609
1335.058218,-11399.171507,1838.629195,222.061783
1335.058529,-12953.603985,1072.533697,2146.597232
1335.058841,-14434.015869,383.047749,2072.576638
1335.059152,-13619.789333,306.438199,2368.659014
1335.059464,-10881.027347,-2374.896044,3182.885551
1335.059775,-8438.347739,-3677.258390,3552.988522
1335.060087,-8290.306550,-3830.477490,3849.070898
1335.060398,-7994.224174,-3907.087040,1850.514855
1335.060709,-8660.409521,-1991.848295,1258.350101
1335.061021,-9178.553681,-153.219100,-296.082377
1335.061332,-5995.668130,1915.238745,-2590.720797
1335.061644,-4293.194464,2757.943793,-3627.009116
1335.061955,-4959.379811,612.876398,-3404.947333
1335.062266,-6513.812290,-1608.800546,-592.164754
1335.062578,-9474.636058,-2757.943793,1184.329507
1335.062889,-12657.521608,-2987.772442,2516.700203
1335.063201,-14730.098246,-1608.800546,4589.276840
1335.063512,-13767.830521,-306.438199,3849.070898
1335.063824,-12139.377449,0.000000,3552.988522
1335.064135,-9326.594869,-995.924147,2368.659014
1335.064446,-6439.791695,-842.705048,1332.370696
1335.064758,-4811.338623,153.219100,222.061783
1335.065069,-2812.782580,1225.752797,-2294.638420
1335.065381,-4219.173869,1838.629195,-3478.967927
1335.065692,-5255.462188,2068.457845,-4071.132681
1335.066004,-4663.297435,2298.286494,-4737.318029
1335.066315,-7031.956449,1685.410096,-3108.864956
1335.066626,-11029.068536,-383.047749,-962.267725
1335.066938,-13767.830521,-842.705048,2664.741391
1335.067249,-15396.283594,-2374.896044,4293.194464
1335.067561,-16210.510130,-2145.067394,4515.256246
1335.067872,-14063.912898,76.609550,4589.276840
1335.068183,-10140.821405,1915.238745,2738.761985
1335.068495,-7328.038826,1685.410096,888.247130
1335.068806,-4441.235652,689.485948,-1776.494261
1335.069118,-3627.009116,2145.067394,-3034.844362
1335.069429,-4885.359217,2068.457845,-4589.276840
1335.069741,-6069.688724,1302.362347,-4589.276840
1335.070052,-7920.203579,153.219100,-3108.864956
1335.070363,-9400.615463,-1149.143247,-1258.350101
1335.070675,-10584.944971,-2298.286494,1184.329507
1335.070986,-12065.356855,-4290.134789,2812.782580
1335.071298,-13101.645173,-3524.039291,4071.132681
1335.071609,-14878.139434,-1762.019645,3552.988522
1335.071920,-12731.542202,842.705048,4145.153275
1335.072232,-11325.150913,2757.943793,1850.514855
1335.072543,-8290.306550,3983.696590,1184.329507
1335.072855,-5699.585753,3370.820191,-74.020594
1335.073166,-4515.256246,1762.019645,-296.082377
1335.073478,-5107.421000,1608.800546,-1480.411884
1335.073789,-5255.462188,1149.143247,-1702.473667
1335.074100,-5033.400406,1532.190996,-1702.473667
1335.074412,-7402.059420,1072.533697,-1258.350101
1335.074723,-8956.491898,-383.047749,444.123565
1335.075035,-10955.047942,-2068.457845,1850.514855
1335.075346,-12139.377449,-1685.410096,3330.926739
1335.075658,-13397.727550,-612.876398,4441.235652
1335.075969,-12731.542202,153.219100,3627.009116
1335.076280,-11103.089130,536.266849,2368.659014
1335.076592,-8216.285956,1455.581446,962.267725
1335.076903,-4885.359217,1302.362347,-222.061783
1335.077215,-3034.844362,689.485948,-518.144159
1335.077526,-3478.967927,-1302.362347,-592.164754
1335.077837,-4737.318029,-3064.381992,-0.000000
1335.078149,-6957.935855,-3677.258390,814.226536
1335.078460,-9104.533087,-3447.429741,1406.391290
1335.078772,-10288.862594,-2911.162892,1702.473667
1335.079083,-10955.047942,-2834.553343,1480.411884
1335.079395,-10807.006753,-2681.334243,1480.411884
1335.079706,-10881.027347,-2068.457845,1332.370696
1335.080017,-10807.006753,-1149.143247,888.247130
1335.080329,-11251.130318,153.219100,592.164754
1335.080640,-10807.006753,1455.581446,444.123565
1335.080952,-9400.615463,2528.115143,222.061783
1335.081263,-9474.636058,1532.190996,-0.000000
1335.081574,-7550.100608,76.609550,518.144159
1335.081886,-6661.853478,-459.657299,370.102971
1335.082197,-6883.915261,-1302.362347,444.123565
1335.082509,-7105.977043,-1378.971896,-592.164754
1335.082820,-8438.347739,-459.657299,-1480.411884
1335.083132,-8660.409521,1455.581446,-2146.597232
1335.083443,-10066.800811,1378.971896,-2146.597232
1335.083754,-10732.986159,1608.800546,-962.267725
1335.084066,-11769.274478,229.828649,-814.226536
1335.084377,-12731.542202,0.000000,-518.144159
1335.084689,-12731.542202,306.438199,74.020594
1335.085000,-11103.089130,383.047749,-0.000000
1335.085312,-9474.636058,0.000000,592.164754
1335.085623,-7105.977043,-1225.752797,1184.329507
1335.085934,-6809.894666,-2221.676944,1924.535449
1335.086246,-8142.265362,-3830.477490,2738.761985
1335.086557,-7994.224174,-3140.991542,1554.432478
1335.086869,-7920.203579,-1378.971896,444.123565
1335.087180,-7476.080014,-383.047749,-888.247130
1335.087491,-7624.121203,153.219100,-1850.514855
1335.087803,-7031.956449,0.000000,-2072.576638
1335.088114,-6439.791695,-612.876398,-1628.453072
1335.088426,-8438.347739,-1685.410096,-370.102971
1335.088737,-10066.800811,-995.924147,-0.000000
1335.089049,-11399.171507,1225.752797,1258.350101
1335.089360,-12287.418637,995.924147,2294.638420
1335.089671,-10955.047942,995.924147,3478.967927
1335.089983,-9400.615463,919.314598,3627.009116
1335.090294,-7846.182985,612.876398,2886.803174
1335.090606,-7476.080014,-229.828649,1702.473667
1335.090917,-6217.729913,1149.143247,1628.453072
1335.091228,-6143.709319,229.828649,-888.247130
1335.091540,-5625.565159,1225.752797,-1998.556043
1335.091851,-6217.729913,1532.190996,-3108.864956
1335.092163,-7698.141797,1762.019645,-2738.761985
1335.092474,-9622.677246,842.705048,-1332.370696
1335.092786,-11695.253884,-1149.143247,592.164754
1335.093097,-12953.603985,-995.924147,2738.761985
1335.093408,-13693.809927,-995.924147,3701.029710
1335.093720,-12583.501014,-229.828649,4071.132681
1335.094031,-11103.089130,-153.219100,4145.153275
1335.094343,-8290.306550,306.438199,3330.926739
1335.094654,-6439.791695,229.828649,2220.617826
1335.094966,-6143.709319,-459.657299,666.185348
1335.095277,-6365.771101,-459.657299,-888.247130
1335.095588,-7105.977043,76.609550,-2146.597232
1335.095900,-6809.894666,842.705048,-2960.823768
1335.096211,-6735.874072,153.219100,-2442.679609
1335.096523,-7550.100608,-1302.362347,-1702.473667
1335.096834,-9326.594869,-2145.067394,148.041188
1335.097145,-10658.965565,-1838.629195,1776.494261
1335.097457,-12065.356855,-1455.581446,2738.761985
1335.097768,-13323.706956,229.828649,3701.029710
1335.098080,-12361.439231,2374.896044,3256.906145
1335.098391,-10436.903782,2681.334243,1850.514855
1335.098703,-7698.141797,2221.676944,1480.411884
1335.099014,-6217.729913,842.705048,1036.288319
1335.099325,-5921.647536,0.000000,-148.041188
1335.099637,-5847.626942,-383.047749,-1480.411884
1335.099948,-6439.791695,76.609550,-2812.782580
1335.100260,-6291.750507,1685.410096,-2812.782580
1335.100571,-7402.059420,1225.752797,-3182.885551
1335.100882,-7994.224174,-153.219100,-1628.453072
1335.101194,-10288.862594,-1455.581446,148.041188
1335.101505,-12509.480420,-1072.533697,2664.741391
1335.101817,-13915.871710,-689.485948,3701.029710
1335.102128,-13915.871710,-229.828649,3478.967927
1335.102440,-11547.212695,0.000000,3182.885551
1335.102751,-8956.491898,0.000000,1480.411884
1335.103062,-6957.935855,306.438199,296.082377
1335.103374,-6143.709319,-459.657299,-518.144159
1335.103685,-6957.935855,-1455.581446,-740.205942
1335.103997,-7920.203579,-2528.115143,-740.205942
1335.104308,-8364.327145,-2298.286494,-666.185348
1335.104620,-8956.491898,-1762.019645,-518.144159
1335.104931,-8216.285956,-1762.019645,-296.082377
1335.105242,-8068.244768,-1455.581446,-0.000000
1335.105554,-9770.718434,-1072.533697,592.164754
1335.105865,-10140.821405,-842.705048,1332.370696
1335.106177,-11399.171507,766.095498,1998.556043
1335.106488,-12731.542202,1455.581446,2368.659014
1335.106799,-10955.047942,2681.334243,1850.514855
1335.107111,-9474.636058,2987.772442,1406.391290
1335.107422,-7550.100608,1455.581446,666.185348
1335.107734,-6069.688724,1072.533697,1036.288319
1335.108045,-5699.585753,-383.047749,-0.000000
1335.108357,-6143.709319,-766.095498,-296.082377
1335.108668,-6291.750507,0.000000,-888.247130
1335.108979,-7105.977043,919.314598,-1628.453072
1335.109291,-7772.162391,1915.238745,-1554.432478
1335.109602,-8290.306550,1225.752797,-518.144159
1335.109914,-10140.821405,-842.705048,-0.000000
1335.110225,-11695.253884,-919.314598,2072.576638
1335.110536,-12065.356855,-612.876398,2516.700203
1335.110848,-11917.315666,-229.828649,2294.638420
1335.111159,-10658.965565,-229.828649,1776.494261
1335.111471,-8438.347739,0.000000,1776.494261
1335.111782,-6735.874072,-306.438199,888.247130
1335.112094,-6883.915261,-1149.143247,740.205942
1335.112405,-7402.059420,-1072.533697,370.102971
1335.112716,-8142.265362,-689.485948,-222.061783
1335.113028,-8438.347739,459.657299,-518.144159
1335.113339,-9326.594869,689.485948,-962.267725
1335.113651,-8956.491898,842.705048,-1628.453072
1335.113962,-7624.121203,306.438199,-1110.308913
1335.114274,-8364.327145,-995.924147,-370.102971
1335.114585,-9548.656652,-612.876398,814.226536
1335.114896,-11399.171507,-306.438199,1036.288319
1335.115208,-12583.501014,1072.533697,1480.411884
1335.115519,-11547.212695,919.314598,2146.597232
1335.115831,-10436.903782,1991.848295,2146.597232
1335.116142,-8956.491898,2068.457845,1554.432478
1335.116453,-7402.059420,1149.143247,1036.288319
1335.116765,-6587.832884,229.828649,-0.000000
1335.117076,-5699.585753,1149.143247,-962.267725
1335.117388,-5773.606348,1302.362347,-1998.556043
1335.117699,-7179.997637,1225.752797,-2368.659014
1335.118011,-7846.182985,919.314598,-1998.556043
1335.118322,-9252.574275,229.828649,-1184.329507
1335.118633,-9770.718434,-842.705048,370.102971
1335.118945,-10955.047942,-2221.676944,1702.473667
1335.119256,-12287.418637,-2221.676944,2442.679609
1335.119568,-11473.192101,-1378.971896,3256.906145
1335.119879,-10436.903782,-995.924147,3034.844362
1335.120190,-8734.430116,153.219100,2738.761985
1335.120502,-7254.018232,1225.752797,2886.803174
1335.120813,-7624.121203,536.266849,1184.329507
1335.121125,-7624.121203,76.609550,370.102971
1335.121436,-7994.224174,459.657299,-592.164754
1335.121748,-8216.285956,1455.581446,-1332.370696
1335.122059,-7105.977043,1149.143247,-2072.576638
1335.122370,-6661.853478,766.095498,-1480.411884
1335.122682,-6883.915261,-689.485948,-518.144159
1335.122993,-8142.265362,-1455.581446,888.247130
1335.123305,-9696.697840,-1455.581446,1850.514855
1335.123616,-11621.233289,-536.266849,2368.659014
1335.123928,-12435.459826,842.705048,2812.782580
1335.124239,-10066.800811,1915.238745,3034.844362
1335.124550,-10510.924376,995.924147,1924.535449
1335.124862,-8734.430116,383.047749,2368.659014
1335.125173,-7402.059420,76.609550,814.226536
1335.125485,-8068.244768,-229.828649,592.164754
1335.125796,-6883.915261,0.000000,-222.061783
1335.126107,-7254.018232,-306.438199,-1998.556043
1335.126419,-7402.059420,0.000000,-1776.494261
1335.126730,-7105.977043,459.657299,-1480.411884
1335.127042,-8216.285956,76.609550,-1036.288319
1335.127353,-10288.862594,-229.828649,-74.020594
1335.127665,-11103.089130,-536.266849,2516.700203
1335.127976,-11399.171507,-1991.848295,2960.823768
1335.128287,-12139.377449,-1072.533697,2812.782580
1335.128599,-11029.068536,612.876398,2738.761985
1335.128910,-8956.491898,1072.533697,1702.473667
1335.129222,-7772.162391,306.438199,1110.308913
1335.129533,-6883.915261,-536.266849,592.164754
1335.129844,-6587.832884,-1072.533697,-0.000000
1335.130156,-7031.956449,-1455.581446,-296.082377
1335.130467,-6661.853478,-766.095498,-814.226536
1335.130779,-6365.771101,0.000000,-1554.432478
1335.131090,-6587.832884,-229.828649,-1480.411884
1335.131402,-7254.018232,-153.219100,-814.226536
1335.131713,-8808.450710,-1378.971896,370.102971
1335.132024,-11769.274478,-1378.971896,1258.350101
1335.132336,-13175.665768,-689.485948,1850.514855
1335.132647,-13693.809927,383.047749,1628.453072
1335.132959,-12583.501014,1532.190996,1850.514855
1335.133270,-10510.924376,1685.410096,1554.432478
1335.133582,-8290.306550,383.047749,814.226536
1335.133893,-6587.832884,-153.219100,518.144159
1335.134204,-5921.647536,-229.828649,-518.144159
1335.134516,-6291.750507,1225.752797,-1850.514855
1335.134827,-6291.750507,1915.238745,-2220.617826
1335.135139,-7772.162391,1532.190996,-2664.741391
1335.135450,-8512.368333,1608.800546,-1702.473667
1335.135761,-8956.491898,1072.533697,-888.247130
1335.136073,-11251.130318,459.657299,-0.000000
1335.136384,-11991.336260,-689.485948,1998.556043
1335.136696,-12731.542202,-1455.581446,2146.597232
1335.137007,-12287.418637,-1378.971896,2516.700203
1335.137319,-10584.944971,229.828649,2220.617826
1335.137630,-9474.636058,689.485948,1332.370696
1335.137941,-7994.224174,0.000000,1184.329507
1335.138253,-6883.915261,-766.095498,1036.288319
1335.138564,-6513.812290,-612.876398,148.041188
1335.138876,-7031.956449,-766.095498,-370.102971
1335.139187,-6587.832884,612.876398,-592.164754
1335.139498,-6957.935855,536.266849,-1036.288319
1335.139810,-6883.915261,306.438199,-740.205942
1335.140121,-7254.018232,0.000000,-222.061783
1335.140433,-8956.491898,-919.314598,444.123565
1335.140744,-10214.842000,-995.924147,2294.638420
1335.141056,-12287.418637,-1302.362347,2368.659014
1335.141367,-12287.418637,766.095498,2738.761985
1335.141678,-10362.883188,919.314598,2146.597232
1335.141990,-8808.450710,1532.190996,2442.679609
1335.142301,-6957.935855,1149.143247,1628.453072
1335.142613,-6365.771101,0.000000,444.123565
1335.142924,-6513.812290,0.000000,148.041188
1335.143235,-6587.832884,612.876398,-370.102971
1335.143547,-6735.874072,995.924147,-1184.329507
1335.143858,-7550.100608,1225.752797,-1258.350101
1335.144170,-8512.368333,-459.657299,-814.226536
1335.144481,-9474.636058,-766.095498,-148.041188
1335.144793,-10807.006753,-995.924147,814.226536
1335.145104,-11843.295072,-919.314598,1998.556043
1335.145415,-12361.439231,-1532.190996,2442.679609
1335.145727,-11547.212695,-1149.143247,2516.700203
1335.146038,-9770.718434,-229.828649,1924.535449
1335.146350,-8290.306550,0.000000,1628.453072
1335.146661,-7772.162391,459.657299,518.144159
1335.146973,-8364.327145,-459.657299,444.123565
1335.147284,-8438.347739,-1072.533697,296.082377
1335.147595,-7846.182985,-1072.533697,-148.041188
1335.147907,-8290.306550,-1072.533697,-740.205942
1335.148218,-7105.977043,-995.924147,-666.185348
1335.148530,-7031.956449,-1532.190996,-1036.288319
1335.148841,-7920.203579,-1838.629195,-0.000000
1335.149152,-9104.533087,-1991.848295,814.226536
1335.149464,-11251.130318,-1915.238745,1406.391290
1335.149775,-12583.501014,-1149.143247,2368.659014
1335.150087,-12805.562797,0.000000,2664.741391
1335.150398,-10881.027347,1072.533697,2220.617826
1335.150710,-9400.615463,766.095498,1554.432478
1335.151021,-7105.977043,229.828649,1332.370696
1335.151332,-6069.688724,-995.924147,1110.308913
1335.151644,-6513.812290,-766.095498,-74.020594
1335.151955,-6069.688724,-459.657299,-1036.288319
1335.152267,-7105.977043,459.657299,-1924.535449
1335.152578,-7550.100608,1149.143247,-1776.494261
1335.152889,-7328.038826,766.095498,-1184.329507
1335.153201,-8216.285956,0.000000,-592.164754
1335.153512,-10510.924376,-1302.362347,666.185348
1335.153824,-10732.986159,-1072.533697,1406.391290
1335.154135,-11177.109724,-612.876398,1332.370696
1335.154447,-11399.171507,229.828649,1480.411884
1335.154758,-10214.842000,689.485948,1258.350101
1335.155069,-9400.615463,229.828649,740.205942
1335.155381,-8364.327145,-306.438199,1110.308913
1335.155692,-8142.265362,-919.314598,296.082377
1335.156004,-7698.141797,-842.705048,444.123565
1335.156315,-7698.141797,-1225.752797,-222.061783
1335.156627,-7772.162391,-766.095498,-1258.350101
1335.156938,-7328.038826,0.000000,-1776.494261
1335.157249,-8068.244768,919.314598,-1554.432478
1335.157561,-8734.430116,919.314598,-888.247130
1335.157872,-9474.636058,0.000000,-0.000000
1335.158184,-11325.150913,76.609550,1184.329507
1335.158502,-12287.418637,919.314598,1850.514855
1335.158813,-12213.398043,1762.019645,1554.432478
1335.159125,-11473.192101,1915.238745,1406.391290
1335.159436,-9622.677246,1838.629195,1628.453072
1335.159748,-7846.182985,1149.143247,1184.329507
1335.160059,-7402.059420,0.000000,740.205942
1335.160371,-6883.915261,-229.828649,-0.000000
1335.160682,-6809.894666,383.047749,-962.267725
1335.160994,-6365.771101,1991.848295,-1628.453072
1335.161305,-7031.956449,1762.019645,-2220.617826
1335.161617,-7328.038826,766.095498,-1480.411884
1335.161929,-7994.224174,-612.876398,-74.020594
1335.162240,-8882.471304,-1685.410096,1480.411884
1335.162552,-10288.862594,-1991.848295,2146.597232
1335.162863,-11769.274478,-766.095498,2368.659014
1335.163175,-12213.398043,306.438199,2294.638420
1335.163486,-10732.986159,1072.533697,2072.576638
1335.163798,-8882.471304,229.828649,1702.473667
1335.164109,-7476.080014,-536.266849,1702.473667
1335.164421,-7772.162391,-1915.238745,1036.288319
1335.164733,-7698.141797,-1915.238745,592.164754
1335.165044,-7105.977043,-1225.752797,-296.082377
1335.165356,-6661.853478,-459.657299,-1258.350101
1335.165667,-6365.771101,-612.876398,-1332.370696
1335.165979,-5921.647536,-306.438199,-1258.350101
1335.166290,-7624.121203,-2221.676944,-222.061783
1335.166602,-9400.615463,-1838.629195,1184.329507
1335.166913,-11695.253884,-1915.238745,2886.803174
1335.167225,-14137.933492,-1762.019645,3923.091493
1335.167537,-14508.036463,76.609550,4219.173869
1335.167848,-12657.521608,1915.238745,3627.009116
1335.168160,-9770.718434,1915.238745,1776.494261
1335.168471,-7550.100608,1685.410096,1036.288319
1335.168783,-5847.626942,1225.752797,-0.000000
1335.169094,-5551.544565,306.438199,-1036.288319
1335.169406,-5699.585753,459.657299,-1184.329507
1335.169717,-6143.709319,766.095498,-1554.432478
1335.170029,-8290.306550,459.657299,-1702.473667
1335.170340,-8142.265362,612.876398,-666.185348
1335.170652,-9400.615463,-306.438199,-0.000000
1335.170964,-10955.047942,-1302.362347,666.185348
1335.171275,-11325.150913,-2145.067394,2516.700203
1335.171587,-11843.295072,-1838.629195,3108.864956
1335.171898,-11399.171507,-1225.752797,3034.844362
1335.172210,-10214.842000,-153.219100,2590.720797
1335.172521,-8438.347739,153.219100,1554.432478
1335.172833,-6957.935855,-766.095498,1036.288319
1335.173144,-6513.812290,-1378.971896,592.164754
1335.173456,-6291.750507,-919.314598,-666.185348
1335.173768,-6143.709319,0.000000,-1702.473667
1335.174079,-6587.832884,0.000000,-1776.494261
1335.174391,-7328.038826,-689.485948,-2368.659014
1335.174702,-7920.203579,-612.876398,-1628.453072
1335.175014,-9030.512492,-459.657299,-370.102971
1335.175325,-10584.944971,-689.485948,444.123565
1335.175637,-12657.521608,-306.438199,2072.576638
1335.175948,-13693.809927,536.266849,2664.741391
1335.176260,-11621.233289,1455.581446,2220.617826
1335.176572,-8660.409521,1915.238745,1702.473667
1335.176883,-6957.935855,2145.067394,666.185348
1335.177195,-6217.729913,2068.457845,-888.247130
1335.177506,-5625.565159,1608.800546,-1776.494261
1335.177818,-6513.812290,612.876398,-1702.473667
1335.178129,-7254.018232,919.314598,-1036.288319
1335.178441,-8586.388927,995.924147,-2072.576638
1335.178752,-10214.842000,229.828649,-2146.597232
1335.179064,-10807.006753,-383.047749,-518.144159
1335.179376,-10881.027347,-459.657299,-0.000000
1335.179687,-12139.377449,-766.095498,1110.308913
1335.179999,-11991.336260,-842.705048,1702.473667
1335.180310,-11991.336260,-229.828649,2368.659014
1335.180622,-10881.027347,0.000000,2738.761985
1335.180933,-8956.491898,1378.971896,2368.659014
1335.181245,-8438.347739,1149.143247,1258.350101
1335.181556,-7772.162391,459.657299,1258.350101
1335.181868,-7772.162391,-306.438199,-0.000000
1335.182179,-7105.977043,0.000000,-740.205942
1335.182491,-6883.915261,766.095498,-1850.514855
1335.182803,-6957.935855,766.095498,-1776.494261
1335.183114,-6143.709319,229.828649,-1184.329507
1335.183426,-7105.977043,0.000000,-370.102971
1335.183737,-8364.327145,-1072.533697,1332.370696
1335.184049,-9992.780217,-1072.533697,2442.679609
1335.184360,-11695.253884,-306.438199,3108.864956
1335.184672,-12287.418637,689.485948,2960.823768
1335.184983,-11473.192101,1838.629195,2442.679609
1335.185295,-9178.553681,1532.190996,2220.617826
1335.185607,-8142.265362,1149.143247,1702.473667
1335.185918,-6291.750507,919.314598,2072.576638
1335.186230,-5033.400406,-306.438199,1332.370696
1335.186541,-7031.956449,-1685.410096,370.102971
1335.186853,-6809.894666,-612.876398,-0.000000
1335.187164,-7105.977043,689.485948,-1554.432478
1335.187476,-8216.285956,1685.410096,-1850.514855
1335.187787,-7624.121203,229.828649,-444.123565
1335.188099,-9474.636058,-1225.752797,-592.164754
1335.188411,-11177.109724,-612.876398,1480.411884
1335.188722,-11991.336260,-153.219100,2886.803174
1335.189034,-12361.439231,-306.438199,2294.638420
1335.189345,-11695.253884,536.266849,2664.741391
1335.189657,-9178.553681,1072.533697,1998.556043
1335.189968,-7105.977043,0.000000,1406.391290
1335.190280,-6587.832884,-459.657299,1480.411884
1335.190591,-6661.853478,-1225.752797,296.082377
1335.190903,-7846.182985,-2298.286494,-740.205942
1335.191215,-8290.306550,-1685.410096,-962.267725
1335.191526,-7846.182985,-459.657299,-1110.308913
1335.191838,-8956.491898,-612.876398,-1776.494261
1335.192149,-8290.306550,-1302.362347,-592.164754
1335.192461,-9326.594869,-1762.019645,-444.123565
1335.192772,-10288.862594,-612.876398,740.205942
1335.193084,-11473.192101,-383.047749,2664.741391
1335.193395,-13027.624579,0.000000,2368.659014
1335.193707,-11325.150913,842.705048,2516.700203
1335.194018,-9030.512492,1532.190996,2368.659014
1335.194330,-7328.038826,766.095498,1036.288319
1335.194642,-6735.874072,-306.438199,-0.000000
1335.194953,-6735.874072,-383.047749,-222.061783
1335.195265,-6883.915261,-689.485948,-888.247130
1335.195576,-6957.935855,-689.485948,-1702.473667
1335.195888,-8142.265362,-229.828649,-2220.617826
1335.196199,-9030.512492,76.609550,-2590.720797
1335.196511,-9326.594869,229.828649,-1776.494261
1335.196822,-9696.697840,-536.266849,-592.164754
1335.197134,-10955.047942,-1149.143247,444.123565
1335.197446,-12065.356855,-766.095498,1850.514855
1335.197757,-12213.398043,-1149.143247,3256.906145
1335.198069,-11399.171507,0.000000,3775.050304
1335.198380,-9326.594869,229.828649,3034.844362
1335.198692,-7698.141797,306.438199,1850.514855
1335.199003,-7105.977043,0.000000,296.082377
1335.199315,-7031.956449,0.000000,-814.226536
1335.199626,-7031.956449,612.876398,-2072.576638
1335.199938,-7254.018232,1378.971896,-2960.823768
1335.200250,-8068.244768,1532.190996,-3034.844362
1335.200561,-8364.327145,995.924147,-2220.617826
1335.200873,-8660.409521,1072.533697,-296.082377
1335.201184,-9400.615463,-306.438199,962.267725
1335.201496,-10584.944971,-1225.752797,2516.700203
1335.201807,-11769.274478,-919.314598,3330.926739
1335.202119,-11621.233289,1532.190996,3182.885551
1335.202430,-10807.006753,2681.334243,2368.659014
1335.202742,-9696.697840,2451.505594,1406.391290
1335.203053,-7402.059420,1762.019645,1258.350101
1335.203365,-6587.832884,1225.752797,444.123565
1335.203677,-6217.729913,689.485948,-74.020594
1335.203988,-7402.059420,229.828649,-740.205942
1335.204300,-7698.141797,306.438199,-1406.391290
1335.204611,-7994.224174,612.876398,-1258.350101
1335.204923,-7624.121203,1838.629195,-1036.288319
1335.205234,-7920.203579,919.314598,-148.041188
1335.205546,-9326.594869,229.828649,1258.350101
1335.205857,-10436.903782,-1532.190996,2886.803174
1335.206169,-10807.006753,-1149.143247,3330.926739
1335.206481,-10510.924376,153.219100,3849.070898
1335.206792,-10066.800811,153.219100,2590.720797
1335.207104,-8882.471304,-76.609550,2368.659014
1335.207415,-8586.388927,-612.876398,592.164754
1335.207727,-6809.894666,-383.047749,296.082377
1335.208038,-6735.874072,-689.485948,-222.061783
1335.208350,-7031.956449,-1532.190996,-814.226536
1335.208661,-7105.977043,-1762.019645,-888.247130
1335.208973,-7179.997637,-1608.800546,-1110.308913
1335.209285,-7846.182985,-459.657299,-962.267725
1335.209596,-8882.471304,-689.485948,-0.000000
1335.209908,-10436.903782,-1302.362347,888.247130
1335.210219,-10881.027347,-1302.362347,1480.411884
1335.210531,-11621.233289,-1608.800546,2294.638420
1335.210842,-11843.295072,-536.266849,2368.659014
1335.211154,-10881.027347,153.219100,1480.411884
1335.211465,-10140.821405,306.438199,1036.288319
1335.211777,-9400.615463,0.000000,1184.329507
1335.212089,-7624.121203,-919.314598,814.226536
1335.212400,-7179.997637,-1302.362347,222.061783
1335.212712,-7550.100608,-1991.848295,-444.123565
1335.213023,-7624.121203,-766.095498,-1776.494261
1335.213335,-7698.141797,0.000000,-2442.679609
1335.213646,-8808.450710,536.266849,-2146.597232
1335.213958,-9622.677246,459.657299,-1258.350101
1335.214269,-10510.924376,-229.828649,-296.082377
1335.214581,-11695.253884,-1072.533697,1480.411884
1335.214892,-11399.171507,-1838.629195,2590.720797
1335.215204,-11769.274478,-1225.752797,2664.741391
1335.215516,-10584.944971,-383.047749,2442.679609
1335.215827,-8364.327145,76.609550,1776.494261
1335.216139,-7402.059420,-612.876398,962.267725
1335.216450,-6587.832884,-1072.533697,592.164754
1335.216762,-6587.832884,-1225.752797,-814.226536
1335.217073,-6661.853478,-1685.410096,-1628.453072
1335.217385,-6883.915261,-1225.752797,-2146.597232
1335.217696,-6735.874072,153.219100,-2146.597232
1335.218008,-7328.038826,76.609550,-1480.411884
1335.218320,-8808.450710,-919.314598,-222.061783
1335.218631,-9326.594869,-1378.971896,962.267725
1335.218943,-10362.883188,-1685.410096,2294.638420
1335.219254,-11547.212695,-689.485948,2738.761985
1335.219566,-11695.253884,-306.438199,2368.659014
1335.219877,-10288.862594,1762.019645,666.185348
1335.220189,-9400.615463,2681.334243,666.185348
1335.220500,-7846.182985,1991.848295,-0.000000
1335.220812,-7254.018232,995.924147,-518.144159
1335.221124,-7846.182985,842.705048,-222.061783
1335.221435,-7698.141797,1302.362347,-148.041188
1335.221747,-7772.162391,842.705048,-740.205942
1335.222058,-7994.224174,2451.505594,-1036.288319
1335.222370,-8364.327145,1991.848295,-1036.288319
1335.222681,-8512.368333,1149.143247,-222.061783
1335.222993,-9252.574275,536.266849,444.123565
1335.223304,-10436.903782,306.438199,1554.432478
1335.223616,-11473.192101,-306.438199,2368.659014
1335.223928,-12435.459826,0.000000,2590.720797
1335.224239,-11843.295072,1149.143247,2368.659014
1335.224551,-10214.842000,1378.971896,1776.494261
1335.224862,-8586.388927,842.705048,1406.391290
1335.225174,-7698.141797,0.000000,962.267725
1335.225485,-6809.894666,-766.095498,-222.061783
1335.225797,-5773.606348,-766.095498,-888.247130
1335.226108,-5847.626942,0.000000,-370.102971
1335.226420,-5921.647536,0.000000,-814.226536
1335.226731,-6883.915261,-229.828649,-0.000000
1335.227043,-7920.203579,-383.047749,370.102971
1335.227355,-9326.594869,-766.095498,1184.329507
1335.227666,-10436.903782,-459.657299,2368.659014
1335.227978,-11621.233289,-459.657299,2442.679609
1335.228289,-11695.253884,-536.266849,2516.700203
1335.228601,-10288.862594,0.000000,1776.494261
1335.228912,-9474.636058,1149.143247,888.247130
1335.229224,-7920.203579,1302.362347,666.185348
1335.229535,-6883.915261,536.266849,962.267725
1335.229847,-7624.121203,-1532.190996,592.164754
1335.230159,-7698.141797,-1149.143247,370.102971
1335.230470,-7328.038826,76.609550,-592.164754
1335.230782,-7179.997637,1455.581446,-1406.391290
1335.231093,-7772.162391,1149.143247,-2072.576638
1335.231405,-7698.141797,-536.266849,-1332.370696
1335.231716,-9474.636058,-612.876398,-666.185348
1335.232028,-11251.130318,-1302.362347,1036.288319
1335.232339,-11991.336260,-1149.143247,1998.556043
1335.232651,-13619.789333,-1762.019645,2442.679609
1335.232963,-11843.295072,-1762.019645,2516.700203
1335.233274,-10288.862594,-1455.581446,1998.556043
1335.233586,-8512.368333,-1225.752797,1702.473667
1335.233897,-6735.874072,-1225.752797,666.185348
1335.234209,-6735.874072,-2068.457845,-222.061783
1335.234520,-5773.606348,-2068.457845,-666.185348
1335.234832,-6883.915261,-995.924147,-1184.329507
1335.235143,-8068.244768,0.000000,-1628.453072
1335.235455,-8734.430116,306.438199,-962.267725
1335.235766,-10066.800811,-459.657299,518.144159
1335.236078,-11029.068536,-1915.238745,1184.329507
1335.236390,-11251.130318,-1149.143247,1702.473667
1335.236701,-11843.295072,-612.876398,1628.453072
1335.237013,-11325.150913,306.438199,1554.432478
1335.237324,-9474.636058,1149.143247,666.185348
1335.237636,-8808.450710,1685.410096,444.123565
1335.237947,-7476.080014,1532.190996,444.123565
1335.238259,-6291.750507,842.705048,518.144159
1335.238570,-6217.729913,0.000000,296.082377
1335.238882,-6069.688724,-612.876398,-148.041188
1335.239194,-6661.853478,-383.047749,-1628.453072
1335.239505,-7105.977043,536.266849,-1628.453072
1335.239817,-7105.977043,919.314598,-1332.370696
1335.240128,-8438.347739,-306.438199,-814.226536
1335.240440,-10436.903782,-842.705048,222.061783
1335.240751,-11621.233289,-536.266849,1480.411884
1335.241063,-12213.398043,-153.219100,2516.700203
1335.241374,-12139.377449,-459.657299,2886.803174
1335.241686,-10955.047942,153.219100,2590.720797
1335.241998,-9400.615463,229.828649,1776.494261
1335.242309,-7550.100608,459.657299,1332.370696
1335.242621,-6513.812290,0.000000,814.226536
1335.242932,-6439.791695,0.000000,-888.247130
1335.243244,-7179.997637,76.609550,-888.247130
1335.243555,-7179.997637,-383.047749,-1406.391290
1335.243867,-8068.244768,919.314598,-1406.391290
1335.244178,-8586.388927,1762.019645,-444.123565
1335.244490,-9030.512492,536.266849,-0.000000
1335.244802,-9400.615463,-842.705048,962.267725
1335.245113,-10066.800811,-766.095498,2220.617826
1335.245425,-11399.171507,919.314598,2072.576638
1335.245736,-11103.089130,2451.505594,1406.391290
1335.246048,-9770.718434,3524.039291,666.185348
1335.246359,-9178.553681,2757.943793,888.247130
1335.246671,-8216.285956,1915.238745,444.123565
1335.246982,-8142.265362,842.705048,370.102971
1335.247294,-8808.450710,229.828649,222.061783
1335.247605,-8364.327145,383.047749,-74.020594
1335.247917,-8290.306550,842.705048,-814.226536
1335.248229,-7846.182985,459.657299,-1554.432478
1335.248540,-7550.100608,842.705048,-1554.432478
1335.248852,-8216.285956,-229.828649,-444.123565
1335.249163,-9104.533087,0.000000,296.082377
1335.249475,-10288.862594,0.000000,1480.411884
1335.249786,-11547.212695,0.000000,2368.659014
1335.250098,-11769.274478,-842.705048,2812.782580
1335.250409,-9770.718434,0.000000,2368.659014
1335.250721,-8660.409521,76.609550,1554.432478
1335.251033,-7031.956449,-1072.533697,1332.370696
1335.251344,-7105.977043,-1762.019645,444.123565
1335.251656,-7476.080014,-1532.190996,-0.000000
1335.251967,-7402.059420,-842.705048,-148.041188
1335.252279,-7624.121203,-995.924147,-222.061783
1335.252590,-7920.203579,-612.876398,-444.123565
1335.252902,-7328.038826,-536.266849,-0.000000
1335.253213,-7772.162391,-1072.533697,370.102971
1335.253525,-7328.038826,-1685.410096,1776.494261
1335.253837,-9474.636058,-1915.238745,1924.535449
1335.254148,-11251.130318,-919.314598,1998.556043
1335.254460,-11843.295072,0.000000,1850.514855
1335.254771,-11029.068536,766.095498,1554.432478
1335.255083,-9918.759623,1378.971896,1332.370696
1335.255394,-9400.615463,383.047749,1036.288319
1335.255706,-8068.244768,-229.828649,962.267725
1335.256017,-8068.244768,-1378.971896,666.185348
1335.256329,-7179.997637,-536.266849,-0.000000
1335.256641,-6735.874072,459.657299,-1036.288319
1335.256952,-7254.018232,1302.362347,-1776.494261
1335.257264,-7402.059420,1302.362347,-1924.535449
1335.257575,-8068.244768,766.095498,-1554.432478
1335.257887,-9992.780217,0.000000,-148.041188
1335.258198,-11991.336260,-689.485948,1332.370696
1335.258509,-12731.542202,-1685.410096,2664.741391
1335.258821,-13027.624579,-1302.362347,3034.844362
1335.259132,-11473.192101,-536.266849,2738.761985
1335.259443,-9474.636058,-153.219100,1776.494261
1335.259755,-8364.327145,-842.705048,888.247130
1335.260066,-7179.997637,-1072.533697,666.185348
1335.260378,-6365.771101,-919.314598,-1036.288319
1335.260689,-6069.688724,612.876398,-1628.453072
1335.261000,-5847.626942,459.657299,-1776.494261
1335.261312,-6735.874072,0.000000,-1776.494261
1335.261623,-7105.977043,-459.657299,-1258.350101
1335.261934,-8068.244768,-306.438199,-444.123565
1335.262246,-9696.697840,-766.095498,518.144159
1335.262557,-11547.212695,-1378.971896,1702.473667
1335.262868,-12657.521608,-536.266849,1924.535449
1335.263180,-12213.398043,229.828649,1628.453072
1335.263491,-10658.965565,2374.896044,1110.308913
1335.263802,-9252.574275,1762.019645,1332.370696
1335.264114,-7698.141797,919.314598,1184.329507
1335.264425,-6587.832884,0.000000,518.144159
1335.264737,-5995.668130,-229.828649,-0.000000
1335.265048,-5255.462188,459.657299,-888.247130
1335.265359,-5847.626942,689.485948,-2072.576638
1335.265671,-7698.141797,1378.971896,-2368.659014
1335.265982,-8512.368333,766.095498,-1480.411884
1335.266293,-9622.677246,459.657299,-0.000000
1335.266605,-11621.233289,229.828649,1332.370696
1335.266916,-12731.542202,-383.047749,2516.700203
1335.267227,-13767.830521,-1149.143247,2886.803174
1335.267539,-12953.603985,-306.438199,3034.844362
1335.267850,-10584.944971,1455.581446,2294.638420
1335.268161,-8882.471304,2221.676944,1036.288319
1335.268473,-7772.162391,1455.581446,888.247130
1335.268784,-6661.853478,229.828649,-0.000000
1335.269095,-6291.750507,-383.047749,-518.144159
1335.269407,-6291.750507,612.876398,-592.164754
1335.269718,-7179.997637,995.924147,-962.267725
1335.270030,-7698.141797,689.485948,-814.226536
1335.270341,-7920.203579,153.219100,-444.123565
1335.270652,-7994.224174,-229.828649,592.164754
1335.270964,-9622.677246,-1149.143247,1776.494261
1335.271275,-11177.109724,-1225.752797,2886.803174
1335.271586,-11843.295072,-306.438199,2590.720797
1335.271898,-10807.006753,842.705048,2368.659014
1335.272209,-9400.615463,1762.019645,2220.617826
1335.272520,-8142.265362,1378.971896,1924.535449
1335.272832,-7031.956449,766.095498,666.185348
1335.273143,-5847.626942,0.000000,814.226536
1335.273454,-5921.647536,-689.485948,-0.000000
1335.273766,-6439.791695,0.000000,-962.267725
1335.274077,-7105.977043,689.485948,-1036.288319
1335.274388,-7550.100608,383.047749,-1036.288319
1335.274700,-7698.141797,-459.657299,-370.102971
1335.275011,-9252.574275,-1302.362347,-0.000000
1335.275323,-11103.089130,-995.924147,888.247130
1335.275634,-12583.501014,-995.924147,1776.494261
1335.275945,-12879.583391,-1685.410096,2368.659014
1335.276257,-12213.398043,-1225.752797,2590.720797
1335.276568,-10288.862594,-536.266849,1776.494261
1335.276879,-8956.491898,-383.047749,888.247130
1335.277191,-7772.162391,-1149.143247,962.267725
1335.277502,-5255.462188,-766.095498,296.082377
1335.277813,-6809.894666,-536.266849,-1332.370696
1335.278125,-6735.874072,-459.657299,-1702.473667
1335.278436,-7254.018232,-612.876398,-1850.514855
1335.278747,-8586.388927,-689.485948,-2072.576638
1335.279059,-8586.388927,-689.485948,-814.226536
1335.279370,-9252.574275,-1838.629195,-444.123565
1335.279681,-10584.944971,-2528.115143,518.144159
1335.279993,-12805.562797,-3524.039291,1628.453072
1335.280304,-12435.459826,-2145.067394,1776.494261
1335.280616,-11843.295072,-1225.752797,1924.535449
1335.280927,-10732.986159,536.266849,1628.453072
1335.281238,-8734.430116,1608.800546,1480.411884
1335.281550,-6957.935855,459.657299,1184.329507
1335.281861,-5551.544565,-919.314598,1258.350101
1335.282172,-5255.462188,-612.876398,370.102971
1335.282484,-5625.565159,0.000000,-1184.329507
1335.282795,-7328.038826,1378.971896,-1924.535449
1335.283106,-8216.285956,1532.190996,-2146.597232
1335.283418,-9030.512492,1762.019645,-1850.514855
1335.283729,-10881.027347,612.876398,-666.185348
1335.284040,-12361.439231,153.219100,296.082377
1335.284352,-12731.542202,-919.314598,1776.494261
1335.284663,-12583.501014,0.000000,2886.803174
1335.284975,-11251.130318,229.828649,3256.906145
1335.285286,-8956.491898,383.047749,2442.679609
1335.285597,-7105.977043,229.828649,2072.576638
1335.285909,-5921.647536,0.000000,1480.411884
1335.286220,-5773.606348,-612.876398,222.061783
1335.286531,-6735.874072,-229.828649,-666.185348
1335.286843,-7624.121203,1149.143247,-1406.391290
1335.287154,-7846.182985,689.485948,-1628.453072
1335.287465,-8364.327145,383.047749,-1332.370696
1335.287777,-8290.306550,766.095498,-296.082377
1335.288088,-8808.450710,-229.828649,296.082377
1335.288399,-10066.800811,-536.266849,1924.535449
1335.288711,-10955.047942,-153.219100,2516.700203
1335.289022,-11029.068536,1608.800546,2368.659014
1335.289333,-9992.780217,2681.334243,2220.617826
1335.289645,-9030.512492,2528.115143,1628.453072
1335.289956,-8216.285956,1532.190996,1850.514855
1335.290268,-7550.100608,689.485948,1184.329507
1335.290579,-6957.935855,229.828649,518.144159
1335.290890,-6513.812290,383.047749,-148.041188
1335.291202,-6587.832884,536.266849,-1258.350101
1335.291513,-7179.997637,1302.362347,-2146.597232
1335.291824,-6513.812290,1072.533697,-2220.617826
1335.292136,-7254.018232,383.047749,-1184.329507
1335.292447,-9104.533087,-459.657299,-0.000000
1335.292758,-11251.130318,-1225.752797,1258.350101
1335.293070,-12731.542202,-1762.019645,2294.638420
1335.293381,-13323.706956,-1072.533697,3034.844362
1335.293692,-12213.398043,-76.609550,2960.823768
1335.294004,-10214.842000,-383.047749,1924.535449
1335.294315,-8512.368333,-842.705048,814.226536
1335.294626,-7624.121203,-2604.724693,666.185348
1335.294938,-8142.265362,-3064.381992,-0.000000
1335.295249,-7920.203579,-1915.238745,-0.000000
1335.295561,-7624.121203,-1225.752797,-296.082377
1335.295872,-7698.141797,-1608.800546,-814.226536
1335.296183,-7328.038826,-1302.362347,-1110.308913
1335.296495,-7550.100608,-689.485948,-740.205942
1335.296806,-7994.224174,-1455.581446,-74.020594
1335.297117,-9770.718434,-1991.848295,740.205942
1335.297429,-11843.295072,-1532.190996,1554.432478
1335.297740,-13027.624579,-1072.533697,1702.473667
1335.298051,-12509.480420,459.657299,1850.514855
1335.298363,-10881.027347,1762.019645,1776.494261
1335.298674,-9474.636058,995.924147,1480.411884
1335.298985,-8364.327145,-153.219100,1184.329507
1335.299297,-6957.935855,-1225.752797,1036.288319
1335.299608,-6143.709319,-612.876398,-518.144159
1335.299919,-4885.359217,612.876398,-1702.473667
1335.300231,-5995.668130,1532.190996,-2812.782580
1335.300542,-7031.956449,1378.971896,-3256.906145
1335.300854,-8142.265362,1225.752797,-2146.597232
1335.301165,-10436.903782,766.095498,-518.144159
1335.301476,-12435.459826,842.705048,1776.494261
1335.301788,-13471.748144,-995.924147,2886.803174
1335.302099,-13175.665768,-1991.848295,3627.009116
1335.302410,-11843.295072,-1225.752797,3701.029710
1335.302722,-8734.430116,-153.219100,2516.700203
1335.303033,-6883.915261,153.219100,1184.329507
1335.303344,-6587.832884,-306.438199,296.082377
1335.303656,-5625.565159,-689.485948,-518.144159
1335.303967,-5995.668130,-459.657299,-1258.350101
1335.304278,-6291.750507,0.000000,-1628.453072
1335.304590,-6143.709319,229.828649,-1332.370696
1335.304901,-6957.935855,-919.314598,-1258.350101
1335.305213,-7550.100608,-1225.752797,-370.102971
1335.305524,-8882.471304,-1762.019645,592.164754
1335.305835,-11547.212695,-1378.971896,1628.453072
1335.306147,-12879.583391,-536.266849,2516.700203
1335.306458,-13027.624579,383.047749,2590.720797
1335.306769,-11325.150913,1608.800546,2072.576638
1335.307081,-9474.636058,1532.190996,2072.576638
1335.307392,-7550.100608,1915.238745,1480.411884
1335.307703,-6143.709319,842.705048,814.226536
1335.308015,-5773.606348,0.000000,-518.144159
1335.308326,-5921.647536,0.000000,-1258.350101
1335.308637,-6217.729913,1302.362347,-2294.638420
1335.308949,-7772.162391,459.657299,-2072.576638
1335.309260,-9400.615463,1149.143247,-2072.576638
1335.309571,-10807.006753,1378.971896,-1332.370696
1335.309883,-11917.315666,995.924147,592.164754
1335.310194,-13323.706956,153.219100,2220.617826
1335.310506,-13545.768739,0.000000,2960.823768
1335.310817,-11769.274478,153.219100,3701.029710
1335.311128,-9104.533087,0.000000,2960.823768
1335.311440,-6661.853478,1072.533697,1480.411884
1335.311751,-5625.565159,1225.752797,888.247130
1335.312062,-6661.853478,0.000000,-962.267725
1335.312374,-7328.038826,-766.095498,-1110.308913
1335.312685,-8586.388927,-306.438199,-1628.453072
1335.312996,-8660.409521,229.828649,-1554.432478
1335.313308,-9104.533087,153.219100,-370.102971
1335.313619,-9252.574275,-1532.190996,-74.020594
1335.313930,-8068.244768,-1762.019645,1258.350101
1335.314242,-8956.491898,-1455.581446,1480.411884
1335.314553,-10066.800811,-306.438199,2368.659014
1335.314864,-11029.068536,459.657299,2368.659014
1335.315176,-10510.924376,1762.019645,1776.494261
1335.315487,-8512.368333,2374.896044,1554.432478
1335.315799,-7550.100608,1915.238745,962.267725
1335.316110,-7328.038826,612.876398,740.205942
1335.316421,-7402.059420,383.047749,962.267725
1335.316733,-7994.224174,-1149.143247,148.041188
1335.317044,-7254.018232,-995.924147,666.185348
1335.317355,-7031.956449,0.000000,-222.061783
1335.317667,-7846.182985,0.000000,-1554.432478
1335.317978,-8068.244768,306.438199,-1554.432478
1335.318289,-8660.409521,306.438199,-888.247130
1335.318601,-9992.780217,-229.828649,-370.102971
1335.318912,-10881.027347,76.609550,814.226536
1335.319223,-11325.150913,-1149.143247,2220.617826
1335.319535,-11325.150913,-1532.190996,2220.617826
1335.319846,-9844.739029,-1378.971896,2220.617826
1335.320157,-8660.409521,-536.266849,1702.473667
1335.320469,-7994.224174,-995.924147,1554.432478
1335.320780,-8364.327145,-1455.581446,1554.432478
1335.321092,-8586.388927,-2145.067394,518.144159
1335.321403,-8660.409521,-1762.019645,-0.000000
1335.321714,-9030.512492,-1685.410096,-740.205942
1335.322026,-8068.244768,-612.876398,-740.205942
1335.322337,-7920.203579,-766.095498,-1184.329507
1335.322648,-8216.285956,-1302.362347,-444.123565
1335.322960,-8660.409521,-2221.676944,296.082377
1335.323271,-9918.759623,-2145.067394,962.267725
1335.323582,-12139.377449,-459.657299,1406.391290
1335.323894,-12435.459826,1302.362347,1702.473667
1335.324205,-12065.356855,1762.019645,1850.514855
1335.324516,-9992.780217,1991.848295,1850.514855
1335.324828,-8734.430116,1225.752797,888.247130
1335.325139,-7402.059420,1072.533697,444.123565
1335.325451,-5921.647536,536.266849,296.082377
1335.325762,-5995.668130,-383.047749,-888.247130
1335.326073,-5477.523971,536.266849,-1554.432478
1335.326385,-5921.647536,842.705048,-2294.638420
1335.326696,-7105.977043,536.266849,-2368.659014
1335.327007,-8586.388927,-229.828649,-1258.350101
1335.327319,-10436.903782,-1378.971896,-0.000000
1335.327630,-11621.233289,-1838.629195,1924.535449
1335.327941,-12361.439231,-1378.971896,2960.823768
1335.328253,-12879.583391,-1532.190996,3404.947333
1335.328564,-11473.192101,536.266849,3997.112087
1335.328875,-9474.636058,1378.971896,2886.803174
1335.329187,-7031.956449,1455.581446,2072.576638
1335.329498,-6291.750507,1149.143247,888.247130
1335.329809,-6069.688724,1302.362347,-666.185348
1335.330121,-7254.018232,1762.019645,-2072.576638
1335.330432,-6661.853478,2604.724693,-2368.659014
1335.330744,-7476.080014,2221.676944,-2516.700203
1335.331055,-8290.306550,1685.410096,-1480.411884
1335.331366,-8290.306550,689.485948,148.041188
1335.331678,-9622.677246,-612.876398,1332.370696
1335.331989,-10436.903782,-1455.581446,3034.844362
1335.332300,-11547.212695,-536.266849,3627.009116
1335.332612,-12139.377449,1149.143247,2886.803174
1335.332923,-11103.089130,2068.457845,1850.514855
1335.333234,-8956.491898,3294.210641,1554.432478
1335.333546,-7624.121203,2145.067394,370.102971
1335.333857,-6661.853478,1225.752797,296.082377
1335.334168,-6809.894666,229.828649,-444.123565
1335.334480,-7031.956449,306.438199,-1258.350101
1335.334791,-6883.915261,1072.533697,-1554.432478
1335.335102,-7402.059420,1302.362347,-2072.576638
1335.335414,-7994.224174,459.657299,-1406.391290
1335.335725,-9252.574275,-153.219100,-0.000000
1335.336037,-10658.965565,-459.657299,1184.329507
1335.336348,-11103.089130,-1302.362347,2960.823768
1335.336659,-11769.274478,-995.924147,3478.967927
1335.336971,-11473.192101,-995.924147,3478.967927
1335.337282,-9844.739029,-689.485948,2220.617826
1335.337593,-8290.306550,76.609550,370.102971
1335.337905,-6291.750507,0.000000,-74.020594
1335.338216,-6217.729913,0.000000,-814.226536
1335.338527,-7254.018232,-536.266849,-1406.391290
1335.338839,-7772.162391,-766.095498,-1332.370696
1335.339150,-7772.162391,-842.705048,-1110.308913
1335.339461,-7550.100608,-1608.800546,-296.082377
1335.339773,-8512.368333,-2451.505594,148.041188
1335.340084,-9474.636058,-2604.724693,666.185348
1335.340395,-10214.842000,-2834.553343,1184.329507
1335.340707,-10881.027347,-1532.190996,1258.350101
1335.341018,-12287.418637,-1072.533697,2220.617826
1335.341330,-12435.459826,-1149.143247,1776.494261
1335.341641,-10436.903782,0.000000,1110.308913
1335.341952,-9326.594869,383.047749,740.205942
1335.342264,-8438.347739,612.876398,370.102971
1335.342575,-7105.977043,0.000000,666.185348
1335.342886,-5995.668130,-919.314598,148.041188
1335.343198,-6217.729913,-1302.362347,-296.082377
1335.343509,-7179.997637,-306.438199,-1258.350101
1335.343820,-8068.244768,1455.581446,-1332.370696
1335.344132,-8660.409521,1149.143247,-740.205942
1335.344443,-9622.677246,-1072.533697,-296.082377
1335.344754,-10510.924376,-1838.629195,740.205942
1335.345066,-11695.253884,-842.705048,1480.411884
1335.345377,-11473.192101,-1225.752797,1850.514855
1335.345689,-10881.027347,-842.705048,1628.453072
1335.346000,-9770.718434,76.609550,1850.514855
1335.346311,-8290.306550,383.047749,1110.308913
1335.346623,-7994.224174,153.219100,888.247130
1335.346934,-7698.141797,0.000000,1406.391290
1335.347245,-7624.121203,229.828649,518.144159
1335.347557,-7254.018232,0.000000,-222.061783
1335.347868,-6291.750507,-306.438199,-1258.350101
1335.348179,-7105.977043,612.876398,-1554.432478
1335.348491,-6661.853478,995.924147,-888.247130
1335.348802,-7698.141797,76.609550,-444.123565
1335.349113,-9252.574275,-766.095498,666.185348
1335.349425,-10807.006753,-995.924147,1850.514855
1335.349736,-11769.274478,229.828649,2590.720797
1335.350047,-12139.377449,-689.485948,2442.679609
1335.350359,-10436.903782,995.924147,2368.659014
1335.350670,-9474.636058,1838.629195,1258.350101
1335.350982,-8216.285956,1685.410096,518.144159
1335.351293,-7105.977043,1072.533697,296.082377
1335.351604,-6809.894666,306.438199,-222.061783
1335.351916,-7031.956449,306.438199,-1110.308913
1335.352227,-7105.977043,689.485948,-1702.473667
1335.352538,-7920.203579,1991.848295,-2146.597232
1335.352850,-8586.388927,1685.410096,-1702.473667
1335.353161,-8734.430116,536.266849,-148.041188
1335.353472,-10584.944971,-306.438199,518.144159
1335.353784,-11547.212695,-383.047749,1258.350101
1335.354095,-11621.233289,995.924147,1554.432478
1335.354406,-11991.336260,995.924147,1480.411884
1335.354718,-10732.986159,1378.971896,1332.370696
1335.355029,-8734.430116,1685.410096,-0.000000
1335.355340,-7920.203579,459.657299,518.144159
1335.355652,-8290.306550,-536.266849,814.226536
1335.355963,-8808.450710,-1455.581446,518.144159
1335.356275,-8216.285956,-766.095498,-296.082377
1335.356586,-7179.997637,-153.219100,-740.205942
1335.356897,-7105.977043,76.609550,-1776.494261
1335.357209,-7179.997637,-842.705048,-888.247130
1335.357520,-7105.977043,-1378.971896,-444.123565
1335.357831,-8216.285956,-1685.410096,666.185348
1335.358143,-10288.862594,-2068.457845,2220.617826
1335.358454,-12435.459826,-1685.410096,3108.864956
1335.358765,-12805.562797,-919.314598,2738.761985
1335.359077,-10807.006753,-153.219100,2442.679609
1335.359388,-9918.759623,153.219100,2072.576638
1335.359699,-7698.141797,536.266849,592.164754
1335.360011,-6735.874072,0.000000,-0.000000
1335.360322,-6513.812290,-766.095498,-518.144159
1335.360633,-5625.565159,-383.047749,-444.123565
1335.360945,-6735.874072,612.876398,-740.205942
1335.361257,-7476.080014,1149.143247,-592.164754
1335.361568,-7920.203579,229.828649,-296.082377
1335.361880,-8882.471304,-383.047749,-0.000000
1335.362191,-8882.471304,-459.657299,1258.350101
1335.362503,-10288.862594,-689.485948,1406.391290
1335.362814,-11843.295072,-1991.848295,1850.514855
1335.363126,-12139.377449,-1608.800546,2516.700203
1335.363437,-11399.171507,0.000000,1702.473667
1335.363749,-10214.842000,612.876398,1924.535449
1335.364060,-9400.615463,76.609550,1554.432478
1335.364372,-7624.121203,-612.876398,1480.411884
1335.364683,-6365.771101,-1532.190996,444.123565
1335.364995,-5255.462188,-306.438199,-814.226536
1335.365306,-5107.421000,229.828649,-1776.494261
1335.365618,-6217.729913,-229.828649,-1776.494261
1335.365929,-7328.038826,-612.876398,-1184.329507
1335.366241,-8512.368333,-1455.581446,-444.123565
1335.366552,-9622.677246,-2068.457845,666.185348
1335.366864,-13101.645173,-2374.896044,2590.720797
1335.367175,-14359.995275,-2528.115143,2664.741391
1335.367487,-13027.624579,-1149.143247,2516.700203
1335.367798,-10807.006753,153.219100,1850.514855
1335.368110,-8956.491898,459.657299,1184.329507
1335.368421,-7698.141797,612.876398,370.102971
1335.368733,-6365.771101,612.876398,-148.041188
1335.369045,-5403.503377,0.000000,-518.144159
1335.369356,-6069.688724,383.047749,-1036.288319
1335.369668,-6217.729913,1532.190996,-1776.494261
1335.369979,-7994.224174,1915.238745,-1998.556043
1335.370291,-8290.306550,842.705048,-1036.288319
1335.370602,-9400.615463,-306.438199,-740.205942
1335.370914,-11399.171507,-306.438199,148.041188
1335.371225,-12435.459826,-306.438199,592.164754
1335.371537,-12657.521608,-1378.971896,1406.391290
1335.371848,-12583.501014,-1302.362347,1258.350101
1335.372160,-10066.800811,689.485948,1628.453072
1335.372471,-8808.450710,1302.362347,1110.308913
1335.372783,-7254.018232,76.609550,1776.494261
1335.373094,-6439.791695,-1225.752797,1554.432478
1335.373406,-6069.688724,-1302.362347,444.123565
1335.373717,-6587.832884,-459.657299,-740.205942
1335.374029,-7105.977043,1149.143247,-1702.473667
1335.374340,-7402.059420,1608.800546,-1924.535449
1335.374652,-8364.327145,1149.143247,-1406.391290
1335.374963,-9548.656652,-842.705048,-0.000000
1335.375275,-11325.150913,-1072.533697,1702.473667
1335.375586,-12509.480420,-689.485948,3034.844362
1335.375898,-13101.645173,459.657299,2812.782580
1335.376209,-11843.295072,1762.019645,2220.617826
1335.376521,-9474.636058,2604.724693,1628.453072
1335.376832,-6735.874072,3370.820191,740.205942
1335.377144,-5107.421000,2528.115143,888.247130
1335.377456,-5551.544565,1302.362347,-0.000000
1335.377767,-6587.832884,612.876398,518.144159
1335.378079,-7105.977043,229.828649,148.041188
1335.378390,-8438.347739,459.657299,-296.082377
1335.378702,-8290.306550,612.876398,-1110.308913
1335.379013,-8882.471304,306.438199,-296.082377
1335.379325,-9178.553681,-919.314598,592.164754
1335.379636,-9474.636058,-1225.752797,1184.329507
1335.379948,-10584.944971,-766.095498,2294.638420
1335.380259,-11029.068536,-842.705048,2294.638420
1335.380571,-10510.924376,-229.828649,2146.597232
1335.380882,-9474.636058,612.876398,1924.535449
1335.381194,-8216.285956,995.924147,888.247130
1335.381505,-7402.059420,536.266849,666.185348
1335.381817,-7550.100608,-1608.800546,666.185348
1335.382128,-7772.162391,-1685.410096,740.205942
1335.382440,-7698.141797,-1762.019645,370.102971
1335.382751,-7698.141797,-1532.190996,-444.123565
1335.383063,-7328.038826,-1378.971896,-1036.288319
1335.383374,-7105.977043,-995.924147,-1036.288319
1335.383686,-7624.121203,-766.095498,-888.247130
1335.383997,-9030.512492,-689.485948,-0.000000
1335.384309,-10881.027347,-2145.067394,1480.411884
1335.384620,-12509.480420,-766.095498,2072.576638
1335.384932,-12879.583391,76.609550,2294.638420
1335.385244,-11843.295072,459.657299,1480.411884
1335.385555,-10436.903782,383.047749,1258.350101
1335.385867,-8586.388927,0.000000,1110.308913
1335.386178,-7698.141797,-229.828649,-0.000000
1335.386490,-7105.977043,-919.314598,-74.020594
1335.386801,-7402.059420,-153.219100,-666.185348
1335.387113,-7402.059420,0.000000,-1184.329507
1335.387424,-7476.080014,76.609550,-1776.494261
1335.387736,-7994.224174,536.266849,-1406.391290
1335.388047,-8956.491898,229.828649,-1258.350101
1335.388359,-9918.759623,-229.828649,148.041188
1335.388670,-10584.944971,-842.705048,888.247130
1335.388982,-11029.068536,-689.485948,1702.473667
1335.389293,-11103.089130,-689.485948,1998.556043
1335.389605,-10510.924376,0.000000,2294.638420
1335.389916,-9400.615463,229.828649,2146.597232
1335.390228,-8364.327145,0.000000,1702.473667
1335.390539,-7698.141797,-766.095498,1110.308913
1335.390851,-7031.956449,-1072.533697,-0.000000
1335.391162,-5921.647536,-459.657299,-1110.308913
1335.391474,-5847.626942,612.876398,-2220.617826
1335.391785,-5995.668130,689.485948,-2516.700203
1335.392097,-6587.832884,919.314598,-1258.350101
1335.392408,-8142.265362,0.000000,-370.102971
1335.392720,-10658.965565,-1302.362347,1036.288319
1335.393031,-11843.295072,-995.924147,2368.659014
1335.393343,-13915.871710,-153.219100,2738.761985
1335.393655,-13175.665768,1532.190996,2664.741391
1335.393966,-11029.068536,2528.115143,2516.700203
1335.394278,-9252.574275,1302.362347,2072.576638
1335.394589,-6735.874072,536.266849,888.247130
1335.394901,-5921.647536,766.095498,-0.000000
1335.395212,-6217.729913,1302.362347,-1184.329507
1335.395524,-6513.812290,2221.676944,-2368.659014
1335.395835,-6735.874072,2451.505594,-2220.617826
1335.396147,-7105.977043,1455.581446,-1998.556043
1335.396458,-7994.224174,1378.971896,-1184.329507
1335.396770,-9770.718434,0.000000,-148.041188
1335.397081,-11103.089130,-383.047749,1554.432478
1335.397393,-11769.274478,-1149.143247,2590.720797
1335.397704,-12287.418637,-1378.971896,2738.761985
1335.398016,-11843.295072,536.266849,2738.761985
1335.398327,-10658.965565,995.924147,2146.597232
1335.398639,-8956.491898,1532.190996,1406.391290
1335.398950,-7402.059420,536.266849,1184.329507
1335.399262,-6661.853478,-153.219100,74.020594
1335.399573,-6439.791695,-689.485948,-444.123565
1335.399885,-5403.503377,0.000000,-1110.308913
1335.400196,-6069.688724,-229.828649,-1850.514855
1335.400508,-7402.059420,-689.485948,-2146.597232
1335.400819,-8438.347739,0.000000,-1110.308913
1335.401131,-9918.759623,-153.219100,-148.041188
1335.401442,-11029.068536,-1532.190996,1998.556043
1335.401754,-13249.686362,-1608.800546,2812.782580
1335.402066,-13767.830521,-766.095498,3330.926739
1335.402377,-11991.336260,842.705048,3182.885551
1335.402689,-9474.636058,2068.457845,1702.473667
1335.403000,-7179.997637,2221.676944,962.267725
1335.403312,-5181.441594,766.095498,-0.000000
1335.403623,-5403.503377,-1149.143247,-444.123565
1335.403935,-6217.729913,-995.924147,-1332.370696
1335.404246,-7031.956449,459.657299,-1480.411884
1335.404558,-8290.306550,612.876398,-1258.350101
1335.404869,-9104.533087,-1072.533697,-888.247130
1335.405181,-9326.594869,-2604.724693,148.041188
1335.405492,-9918.759623,-3064.381992,740.205942
1335.405804,-11103.089130,-1838.629195,2368.659014
1335.406115,-11991.336260,-536.266849,2368.659014
1335.406427,-12361.439231,-689.485948,2664.741391
1335.406738,-11103.089130,-153.219100,2738.761985
1335.407050,-8438.347739,612.876398,1184.329507
1335.407361,-7105.977043,1072.533697,888.247130
1335.407673,-5329.482782,76.609550,592.164754
1335.407984,-5921.647536,-1225.752797,-0.000000
1335.408296,-7105.977043,-1532.190996,-296.082377
1335.408607,-7402.059420,-1762.019645,-1184.329507
1335.408919,-9178.553681,-536.266849,-1258.350101
1335.409230,-8734.430116,612.876398,-1184.329507
1335.409542,-8660.409521,229.828649,-370.102971
1335.409854,-10362.883188,-1532.190996,370.102971
1335.410165,-10362.883188,-1302.362347,1924.535449
1335.410477,-11251.130318,-612.876398,2368.659014
1335.410788,-11029.068536,842.705048,2812.782580
1335.411100,-10436.903782,919.314598,2220.617826
1335.411411,-9474.636058,1378.971896,962.267725
1335.411723,-7994.224174,1532.190996,222.061783
1335.412034,-6883.915261,1302.362347,370.102971
1335.412346,-6809.894666,76.609550,-222.061783
1335.412657,-7402.059420,-383.047749,-592.164754
1335.412969,-7920.203579,153.219100,-1258.350101
1335.413280,-7846.182985,383.047749,-1110.308913
1335.413592,-8068.244768,1072.533697,-1406.391290
1335.413903,-8142.265362,229.828649,-222.061783
1335.414215,-8956.491898,-1455.581446,-0.000000
1335.414526,-9622.677246,-1608.800546,1036.288319
1335.414838,-11029.068536,-383.047749,1702.473667
1335.415149,-11991.336260,-229.828649,2220.617826
1335.415461,-11547.212695,-306.438199,2516.700203
1335.415772,-9622.677246,0.000000,2294.638420
1335.416084,-8808.450710,-689.485948,1480.411884
1335.416395,-7994.224174,-459.657299,740.205942
1335.416707,-7920.203579,-689.485948,-0.000000
1335.417018,-7550.100608,0.000000,-1036.288319
1335.417330,-7105.977043,153.219100,-2146.597232
1335.417641,-7105.977043,612.876398,-2368.659014
1335.417953,-7402.059420,1532.190996,-2738.761985
1335.418265,-7994.224174,995.924147,-1554.432478
1335.418576,-8586.388927,-612.876398,-148.041188
1335.418888,-9252.574275,-995.924147,888.247130
1335.419199,-11843.295072,-995.924147,1628.453072
1335.419511,-12879.583391,-306.438199,2368.659014
1335.419822,-11695.253884,459.657299,2146.597232
1335.420134,-10362.883188,1378.971896,1702.473667
1335.420445,-9178.553681,1532.190996,1258.350101
1335.420757,-7624.121203,536.266849,962.267725
1335.421068,-7402.059420,0.000000,518.144159
1335.421380,-6809.894666,-229.828649,148.041188
1335.421691,-6513.812290,766.095498,-592.164754
1335.422003,-7772.162391,1225.752797,-1036.288319
1335.422314,-8586.388927,1532.190996,-1406.391290
1335.422626,-8660.409521,1225.752797,-814.226536
1335.422937,-9030.512492,306.438199,-0.000000
1335.423249,-10584.944971,-306.438199,962.267725
1335.423560,-11843.295072,-383.047749,2220.617826
1335.423872,-12435.459826,-229.828649,2886.803174
1335.424183,-10955.047942,766.095498,3627.009116
1335.424495,-9104.533087,689.485948,2960.823768
1335.424806,-7476.080014,0.000000,2072.576638
1335.425118,-6587.832884,383.047749,1702.473667
1335.425429,-6365.771101,-689.485948,-666.185348
1335.425741,-5773.606348,0.000000,-1332.370696
1335.426053,-5477.523971,76.609550,-2072.576638
1335.426364,-5921.647536,0.000000,-1998.556043
1335.426676,-7105.977043,-1149.143247,-1628.453072
1335.426987,-8586.388927,-2221.676944,-74.020594
1335.427299,-9918.759623,-2221.676944,1998.556043
1335.427610,-11473.192101,-2298.286494,2812.782580
1335.427922,-12953.603985,-1838.629195,3330.926739
1335.428233,-12805.562797,-1149.143247,3182.885551
1335.428545,-11547.212695,153.219100,2812.782580
1335.428856,-9252.574275,1072.533697,1776.494261
1335.429168,-8290.306550,1302.362347,888.247130
1335.429479,-6809.894666,1685.410096,-0.000000
1335.429791,-7031.956449,229.828649,-518.144159
1335.430102,-6069.688724,-383.047749,-518.144159
1335.430414,-5403.503377,-919.314598,-1998.556043
1335.430725,-6957.935855,306.438199,-2516.700203
1335.431037,-7846.182985,383.047749,-2368.659014
1335.431348,-8734.430116,0.000000,-1036.288319
1335.431660,-10807.006753,-1532.190996,-0.000000
1335.431971,-11917.315666,-1225.752797,1702.473667
1335.432283,-13471.748144,-1225.752797,2886.803174
1335.432594,-12731.542202,-383.047749,2812.782580
1335.432906,-11029.068536,-842.705048,2886.803174
1335.433217,-9104.533087,-689.485948,1850.514855
1335.433529,-7698.141797,-919.314598,962.267725
1335.433840,-7476.080014,-1532.190996,-370.102971
1335.434152,-7772.162391,-1072.533697,-1998.556043
1335.434464,-7328.038826,-612.876398,-1850.514855
1335.434775,-6587.832884,-459.657299,-1998.556043
1335.435087,-7772.162391,-1302.362347,-1480.411884
1335.435398,-8438.347739,-1762.019645,-370.102971
1335.435710,-8882.471304,-1915.238745,814.226536
1335.436021,-9474.636058,-1838.629195,1628.453072
1335.436333,-10584.944971,-1149.143247,2220.617826
1335.436644,-11695.253884,-306.438199,2442.679609
1335.436956,-11547.212695,1149.143247,1258.350101
1335.437267,-9030.512492,2681.334243,740.205942
1335.437579,-8142.265362,3447.429741,444.123565
1335.437890,-8216.285956,2068.457845,222.061783
1335.438202,-8438.347739,536.266849,148.041188
1335.438513,-8364.327145,76.609550,-444.123565
1335.438825,-7624.121203,689.485948,-666.185348
1335.439136,-7846.182985,2451.505594,-1406.391290
1335.439448,-8290.306550,2451.505594,-1850.514855
1335.439759,-8438.347739,1608.800546,-1850.514855
1335.440071,-7698.141797,1455.581446,-370.102971
1335.440382,-9030.512492,536.266849,1184.329507
1335.440694,-10362.883188,229.828649,2368.659014
1335.441005,-11695.253884,-153.219100,2664.741391
1335.441317,-11843.295072,-383.047749,3108.864956
1335.441628,-10066.800811,842.705048,2664.741391
1335.441940,-8586.388927,1532.190996,1776.494261
1335.442251,-7994.224174,1455.581446,814.226536
1335.442563,-7624.121203,-459.657299,814.226536
1335.442875,-6957.935855,-1685.410096,-0.000000
1335.443186,-6587.832884,-536.266849,-296.082377
1335.443498,-6291.750507,153.219100,-592.164754
1335.443809,-7105.977043,76.609550,-814.226536
1335.444121,-7105.977043,229.828649,148.041188
1335.444432,-7550.100608,-153.219100,-0.000000
1335.444744,-8290.306550,-689.485948,1480.411884
1335.445055,-10362.883188,-1072.533697,2368.659014
1335.445367,-11843.295072,-689.485948,3108.864956
1335.445678,-11621.233289,-383.047749,2368.659014
1335.445990,-10066.800811,229.828649,2072.576638
1335.446301,-9474.636058,229.828649,1702.473667
1335.446613,-8808.450710,612.876398,1258.350101
1335.446924,-8142.265362,-306.438199,814.226536
1335.447236,-7550.100608,-689.485948,-148.041188
1335.447547,-7698.141797,-612.876398,-148.041188
1335.447859,-7105.977043,919.314598,-1332.370696
1335.448170,-7920.203579,1072.533697,-1628.453072
1335.448482,-7772.162391,76.609550,-1406.391290
1335.448793,-8586.388927,-1685.410096,-222.061783
1335.449105,-9622.677246,-2528.115143,666.185348
1335.449416,-10732.986159,-2068.457845,1850.514855
1335.449728,-12657.521608,-2451.505594,2664.741391
1335.450039,-12583.501014,-2451.505594,2886.803174
1335.450351,-11029.068536,-2068.457845,2738.761985
1335.450663,-9696.697840,-1838.629195,1998.556043
1335.450974,-8290.306550,-1225.752797,1036.288319
1335.451286,-7846.182985,-1225.752797,-0.000000
1335.451597,-7772.162391,-612.876398,-1036.288319
1335.451909,-6735.874072,-995.924147,-1332.370696
1335.452220,-7105.977043,229.828649,-1554.432478
1335.452532,-7105.977043,842.705048,-1406.391290
1335.452843,-7624.121203,0.000000,-740.205942
1335.453155,-8734.430116,-536.266849,-0.000000
1335.453466,-9696.697840,-612.876398,1036.288319
1335.453778,-10066.800811,0.000000,1406.391290
1335.454089,-11473.192101,-306.438199,1628.453072
1335.454401,-11473.192101,1072.533697,1110.308913
1335.454712,-9474.636058,1991.848295,740.205942
1335.455024,-9104.533087,2451.505594,666.185348
1335.455335,-8438.347739,1991.848295,666.185348
1335.455647,-7772.162391,1225.752797,962.267725
1335.455958,-7920.203579,-229.828649,-296.082377
1335.456270,-7328.038826,306.438199,-888.247130
1335.456581,-6069.688724,2374.896044,-1628.453072
1335.456893,-6513.812290,1685.410096,-2220.617826
1335.457204,-6883.915261,919.314598,-1406.391290
1335.457516,-7179.997637,-766.095498,-518.144159
1335.457827,-10288.862594,-1685.410096,1406.391290
1335.458139,-12065.356855,-1608.800546,2738.761985
1335.458450,-13027.624579,-995.924147,2812.782580
1335.458762,-12805.562797,-919.314598,2220.617826
1335.459074,-10362.883188,153.219100,1998.556043
1335.459385,-8808.450710,0.000000,1628.453072
1335.459697,-7772.162391,0.000000,296.082377
1335.460008,-7624.121203,153.219100,296.082377
1335.460320,-6587.832884,-536.266849,-222.061783
1335.460631,-6513.812290,-459.657299,-370.102971
1335.460943,-6957.935855,0.000000,-1184.329507
1335.461254,-7105.977043,383.047749,-888.247130
1335.461566,-7254.018232,306.438199,-962.267725
1335.461877,-7994.224174,229.828649,296.082377
1335.462189,-9400.615463,0.000000,1332.370696
1335.462500,-10658.965565,-842.705048,1702.473667
1335.462812,-12287.418637,-689.485948,2294.638420
1335.463123,-12731.542202,459.657299,2146.597232
1335.463435,-11399.171507,2298.286494,1036.288319
1335.463746,-10881.027347,3447.429741,518.144159
1335.464058,-9030.512492,2528.115143,1554.432478
1335.464369,-7994.224174,459.657299,1258.350101
1335.464681,-7920.203579,306.438199,370.102971
1335.464992,-6365.771101,842.705048,-296.082377
1335.465304,-5625.565159,1685.410096,-1998.556043
1335.465615,-6291.750507,1762.019645,-2516.700203
1335.465927,-6735.874072,995.924147,-2220.617826
1335.466238,-7105.977043,-536.266849,-962.267725
1335.466550,-9474.636058,-1532.190996,814.226536
1335.466862,-12139.377449,-2221.676944,3034.844362
1335.467173,-13841.851115,-1915.238745,3552.988522
1335.467485,-13323.706956,-1302.362347,3108.864956
1335.467796,-11029.068536,-383.047749,2738.761985
1335.468108,-8216.285956,-153.219100,2368.659014
1335.468419,-6513.812290,-919.314598,962.267725
1335.468731,-6735.874072,-842.705048,666.185348
1335.469043,-6809.894666,-1302.362347,148.041188
1335.469354,-6661.853478,76.609550,222.061783
1335.469666,-6809.894666,1072.533697,-148.041188
1335.469977,-7105.977043,459.657299,-518.144159
1335.470289,-6957.935855,0.000000,-222.061783
1335.470600,-7402.059420,-306.438199,-666.185348
1335.470912,-8290.306550,-536.266849,518.144159
1335.471224,-9918.759623,-766.095498,1184.329507
1335.471535,-11917.315666,-766.095498,2294.638420
1335.471847,-12509.480420,0.000000,2220.617826
1335.472158,-11473.192101,1072.533697,1480.411884
1335.472470,-10362.883188,1685.410096,1628.453072
1335.472781,-8512.368333,459.657299,1258.350101
1335.473093,-7105.977043,0.000000,1036.288319
1335.473405,-6661.853478,-1149.143247,222.061783
1335.473716,-6143.709319,0.000000,-222.061783
1335.474028,-6365.771101,1072.533697,-1776.494261
1335.474339,-7105.977043,383.047749,-2072.576638
1335.474651,-8512.368333,0.000000,-1628.453072
1335.474962,-9622.677246,-612.876398,-1036.288319
1335.475274,-11917.315666,-919.314598,814.226536
1335.475585,-13323.706956,-1608.800546,2368.659014
1335.475897,-14211.954086,-1991.848295,2960.823768
1335.476209,-12953.603985,-2451.505594,2442.679609
1335.476520,-10436.903782,-766.095498,2368.659014
1335.476832,-7846.182985,-153.219100,1628.453072
1335.477143,-6291.750507,-383.047749,814.226536
1335.477455,-6365.771101,-766.095498,-0.000000
1335.477766,-5773.606348,-766.095498,-1184.329507
1335.478078,-5625.565159,0.000000,-1406.391290
1335.478390,-5995.668130,1532.190996,-1850.514855
1335.478701,-6587.832884,1532.190996,-2220.617826
1335.479013,-7105.977043,0.000000,-1628.453072
1335.479324,-8142.265362,-1302.362347,-592.164754
1335.479636,-9844.739029,-1455.581446,1184.329507
1335.479947,-11843.295072,-1378.971896,1998.556043
1335.480259,-13471.748144,-1838.629195,2368.659014
1335.480571,-12805.562797,-536.266849,2368.659014
1335.480882,-11029.068536,1532.190996,1332.370696
1335.481194,-9474.636058,1455.581446,1332.370696
1335.481505,-7550.100608,842.705048,666.185348
1335.481817,-7105.977043,0.000000,370.102971
1335.482128,-6809.894666,0.000000,-296.082377
1335.482440,-6439.791695,1072.533697,-1110.308913
1335.482752,-6661.853478,1915.238745,-2516.700203
1335.483063,-7402.059420,1532.190996,-2368.659014
1335.483375,-7772.162391,229.828649,-1406.391290
1335.483686,-9030.512492,-383.047749,-814.226536
1335.483998,-11621.233289,-306.438199,962.267725
1335.484309,-12731.542202,-536.266849,2960.823768
1335.484621,-13323.706956,-1072.533697,3108.864956
1335.484933,-12361.439231,-612.876398,3034.844362
1335.485244,-9400.615463,766.095498,1776.494261
1335.485556,-7920.203579,2221.676944,296.082377
1335.485867,-7105.977043,1532.190996,296.082377
1335.486179,-7994.224174,1225.752797,-370.102971
1335.486490,-7772.162391,842.705048,-592.164754
1335.486802,-7328.038826,1072.533697,-740.205942
1335.487114,-7698.141797,1225.752797,-814.226536
1335.487425,-6735.874072,459.657299,-222.061783
1335.487737,-7105.977043,-306.438199,-222.061783
1335.488048,-7402.059420,-1072.533697,444.123565
1335.488360,-8364.327145,-995.924147,1554.432478
1335.488671,-10362.883188,-1072.533697,2146.597232
1335.488983,-11843.295072,-536.266849,2368.659014
1335.489295,-11843.295072,536.266849,1924.535449
1335.489606,-9474.636058,2145.067394,1406.391290
1335.489918,-9252.574275,2145.067394,1110.308913
1335.490229,-7846.182985,1302.362347,1184.329507
1335.490541,-7105.977043,-459.657299,814.226536
1335.490852,-6587.832884,-995.924147,666.185348
1335.491164,-5477.523971,0.000000,-148.041188
1335.491476,-6143.709319,919.314598,-1036.288319
1335.491787,-6809.894666,229.828649,-1406.391290
1335.492099,-7550.100608,-1455.581446,-1110.308913
1335.492410,-9252.574275,-1378.971896,-74.020594
1335.492722,-10510.924376,-1762.019645,1406.391290
1335.493033,-13027.624579,-1532.190996,2294.638420
1335.493345,-13989.892304,-2221.676944,2294.638420
1335.493656,-12287.418637,-1532.190996,2368.659014
1335.493968,-9770.718434,-383.047749,2072.576638
1335.494280,-8068.244768,0.000000,1776.494261
1335.494591,-7994.224174,-1072.533697,962.267725
1335.494903,-7254.018232,-1455.581446,962.267725
1335.495214,-7105.977043,-1532.190996,-74.020594
1335.495526,-7254.018232,-536.266849,-592.164754
1335.495837,-7179.997637,-536.266849,-1554.432478
1335.496149,-7328.038826,-995.924147,-1776.494261
1335.496461,-7105.977043,-919.314598,-1332.370696
1335.496772,-8364.327145,-766.095498,-370.102971
1335.497084,-10066.800811,-919.314598,-0.000000
1335.497395,-12139.377449,-612.876398,888.247130
1335.497707,-13249.686362,-536.266849,1628.453072
1335.498018,-13175.665768,76.609550,1406.391290
1335.498330,-11473.192101,1838.629195,1332.370696
1335.498642,-9992.780217,1915.238745,1258.350101
1335.498953,-8290.306550,459.657299,1702.473667
1335.499265,-6291.750507,-1532.190996,1998.556043
1335.499576,-6661.853478,-2604.724693,-296.082377
1335.499888,-5699.585753,76.609550,-1480.411884
1335.500199,-5477.523971,1225.752797,-3034.844362
1335.500511,-6883.915261,2068.457845,-3997.112087
1335.500823,-6883.915261,1838.629195,-3034.844362
1335.501134,-9474.636058,0.000000,-1702.473667
1335.501446,-11843.295072,-842.705048,1184.329507
1335.501757,-13915.871710,-1149.143247,3108.864956
1335.502069,-14434.015869,-1072.533697,3775.050304
1335.502380,-12805.562797,-536.266849,3775.050304
1335.502692,-9992.780217,-689.485948,2664.741391
1335.503004,-7179.997637,459.657299,740.205942
1335.503315,-5773.606348,766.095498,296.082377
1335.503627,-5921.647536,76.609550,-962.267725
1335.503938,-6291.750507,0.000000,-962.267725
1335.504250,-7031.956449,306.438199,-1406.391290
1335.504561,-6883.915261,689.485948,-740.205942
1335.504873,-7476.080014,536.266849,-1036.288319
1335.505185,-8068.244768,-995.924147,-592.164754
1335.505496,-8364.327145,-612.876398,222.061783
1335.505808,-9548.656652,-536.266849,962.267725
1335.506119,-11103.089130,-306.438199,1924.535449
1335.506431,-11917.315666,-306.438199,2368.659014
1335.506742,-11843.295072,612.876398,2738.761985
1335.507054,-10362.883188,1685.410096,2812.782580
1335.507366,-9400.615463,1302.362347,2146.597232
1335.507677,-8734.430116,1685.410096,962.267725
1335.507989,-7402.059420,383.047749,222.061783
1335.508300,-6439.791695,842.705048,-444.123565
1335.508612,-5329.482782,1532.190996,-1480.411884
1335.508923,-6439.791695,2145.067394,-2368.659014
1335.509235,-7105.977043,1608.800546,-2368.659014
1335.509547,-8068.244768,842.705048,-1332.370696
1335.509858,-9474.636058,-229.828649,518.144159
1335.510170,-11621.233289,-1072.533697,2146.597232
1335.510481,-13545.768739,-2374.896044,3330.926739
1335.510793,-13767.830521,-2528.115143,3701.029710
1335.511104,-12139.377449,-1378.971896,3404.947333
1335.511416,-9474.636058,612.876398,2072.576638
1335.511728,-7254.018232,1378.971896,1332.370696
1335.512039,-6365.771101,306.438199,370.102971
1335.512351,-6883.915261,-689.485948,-1184.329507
1335.512662,-6809.894666,689.485948,-1554.432478
1335.512974,-5625.565159,1378.971896,-1850.514855
1335.513285,-7179.997637,842.705048,-1998.556043
1335.513597,-7698.141797,-229.828649,-962.267725
1335.513908,-7772.162391,-1532.190996,-74.020594
1335.514220,-8734.430116,-3064.381992,814.226536
1335.514532,-10732.986159,-2681.334243,1998.556043
1335.514843,-12435.459826,-2528.115143,2590.720797
1335.515155,-12509.480420,-1991.848295,2146.597232
1335.515466,-11547.212695,76.609550,2368.659014
1335.515778,-9844.739029,1532.190996,1702.473667
1335.516089,-8808.450710,1608.800546,1776.494261
1335.516401,-7846.182985,689.485948,1924.535449
1335.516713,-6143.709319,76.609550,1332.370696
1335.517024,-5107.421000,153.219100,444.123565
1335.517336,-5255.462188,842.705048,-962.267725
1335.517647,-7031.956449,1608.800546,-2146.597232
1335.517959,-7624.121203,1378.971896,-2590.720797
1335.518270,-8882.471304,995.924147,-1036.288319
1335.518582,-10510.924376,-383.047749,-0.000000
1335.518894,-12879.583391,-995.924147,1184.329507
1335.519205,-14211.954086,-1685.410096,2664.741391
1335.519517,-13397.727550,-1302.362347,2886.803174
1335.519828,-10436.903782,-612.876398,2738.761985
1335.520140,-7402.059420,0.000000,2368.659014
1335.520451,-5551.544565,-383.047749,1332.370696
1335.520763,-5551.544565,-1378.971896,1036.288319
1335.521075,-5699.585753,-1838.629195,814.226536
1335.521386,-6661.853478,-1225.752797,-74.020594
1335.521698,-8512.368333,76.609550,-1628.453072
1335.522009,-8956.491898,0.000000,-1702.473667
1335.522321,-8438.347739,-383.047749,-1480.411884
1335.522632,-8290.306550,-1378.971896,-444.123565
1335.522944,-9474.636058,-2298.286494,370.102971
1335.523256,-10584.944971,-2604.724693,1554.432478
1335.523567,-11843.295072,-1532.190996,2368.659014
1335.523879,-12953.603985,76.609550,2146.597232
1335.524190,-11399.171507,2374.896044,2072.576638
1335.524502,-9622.677246,2911.162892,814.226536
1335.524813,-8290.306550,2298.286494,740.205942
1335.525125,-6365.771101,1915.238745,518.144159
1335.525437,-5699.585753,919.314598,-222.061783
1335.525748,-5699.585753,1685.410096,-1036.288319
1335.526060,-5625.565159,1225.752797,-1998.556043
1335.526371,-7105.977043,2374.896044,-2738.761985
1335.526683,-8068.244768,1378.971896,-3034.844362
1335.526994,-9104.533087,1225.752797,-2368.659014
1335.527306,-11177.109724,306.438199,-814.226536
1335.527618,-12509.480420,-536.266849,1702.473667
1335.527929,-13841.851115,-995.924147,2664.741391
1335.528241,-12731.542202,-1072.533697,3108.864956
1335.528552,-10732.986159,-766.095498,3404.947333
1335.528864,-8734.430116,-306.438199,2590.720797
1335.529175,-7179.997637,-229.828649,1554.432478
1335.529487,-7476.080014,-459.657299,296.082377
1335.529799,-7476.080014,-536.266849,-148.041188
1335.530110,-7254.018232,0.000000,-666.185348
1335.530422,-7920.203579,153.219100,-1332.370696
1335.530733,-8142.265362,0.000000,-814.226536
1335.531045,-6809.894666,-229.828649,-1110.308913
1335.531356,-6439.791695,76.609550,-518.144159
1335.531668,-7994.224174,-383.047749,444.123565
1335.531979,-9696.697840,-919.314598,1628.453072
1335.532291,-11325.150913,-536.266849,1850.514855
1335.532603,-11991.336260,612.876398,1924.535449
1335.532914,-11547.212695,2298.286494,2220.617826
1335.533226,-10732.986159,2528.115143,1998.556043
1335.533537,-9104.533087,1455.581446,1998.556043
1335.533849,-6957.935855,-306.438199,2072.576638
1335.534160,-7254.018232,-2221.676944,1702.473667
1335.534472,-5699.585753,-766.095498,518.144159
1335.534784,-5255.462188,1072.533697,-1258.350101
1335.535095,-6217.729913,995.924147,-2294.638420
1335.535407,-6735.874072,919.314598,-2294.638420
1335.535718,-8216.285956,459.657299,-1628.453072
1335.536030,-11177.109724,-536.266849,-444.123565
1335.536341,-13397.727550,-1762.019645,2738.761985
1335.536653,-14582.057057,-1915.238745,3182.885551
1335.536965,-13323.706956,-1532.190996,3182.885551
1335.537276,-10732.986159,-995.924147,3108.864956
1335.537588,-7772.162391,-995.924147,2738.761985
1335.537899,-5921.647536,-766.095498,2368.659014
1335.538211,-5403.503377,-536.266849,740.205942
1335.538522,-6291.750507,-766.095498,-74.020594
1335.538834,-7105.977043,-689.485948,-962.267725
1335.539146,-7624.121203,1149.143247,-1924.535449
1335.539457,-7772.162391,689.485948,-1258.350101
1335.539769,-7994.224174,-459.657299,-1554.432478
1335.540080,-8438.347739,-995.924147,-296.082377
1335.540392,-9770.718434,-1455.581446,296.082377
1335.540703,-11177.109724,-1225.752797,2072.576638
1335.541015,-12139.377449,-1225.752797,2294.638420
1335.541327,-12583.501014,-919.314598,2368.659014
1335.541638,-11473.192101,766.095498,2146.597232
1335.541950,-9030.512492,1685.410096,1924.535449
1335.542261,-8290.306550,1072.533697,1628.453072
1335.542573,-6809.894666,76.609550,1258.350101
1335.542884,-5477.523971,-612.876398,222.061783
1335.543196,-5107.421000,-153.219100,-1258.350101
1335.543508,-4515.256246,995.924147,-2368.659014
1335.543819,-5773.606348,1608.800546,-3478.967927
1335.544131,-7772.162391,1225.752797,-3775.050304
1335.544442,-9548.656652,153.219100,-1924.535449
1335.544754,-12065.356855,-689.485948,148.041188
1335.545065,-13989.892304,-1608.800546,2368.659014
1335.545377,-15396.283594,-2145.067394,3256.906145
1335.545689,-12953.603985,-1608.800546,3256.906145
1335.546000,-9992.780217,-1149.143247,2294.638420
1335.546312,-6957.935855,-383.047749,1332.370696
1335.546623,-5181.441594,689.485948,444.123565
1335.546935,-5699.585753,-306.438199,-814.226536
1335.547246,-7031.956449,-306.438199,-962.267725
1335.547558,-8734.430116,766.095498,-1110.308913
1335.547870,-9030.512492,1378.971896,-1258.350101
1335.548181,-9548.656652,919.314598,-962.267725
1335.548493,-8660.409521,536.266849,-666.185348
1335.548804,-8364.327145,-1302.362347,296.082377
1335.549116,-9326.594869,-1991.848295,1184.329507
1335.549427,-10510.924376,-1685.410096,1776.494261
1335.549739,-12287.418637,-612.876398,2220.617826
1335.550051,-12509.480420,919.314598,1702.473667
1335.550362,-10362.883188,2987.772442,1628.453072
1335.550674,-8512.368333,2374.896044,1184.329507
1335.550985,-7698.141797,1072.533697,1332.370696
1335.551297,-7105.977043,689.485948,1332.370696
1335.551608,-6365.771101,612.876398,296.082377
1335.551920,-5995.668130,1455.581446,-296.082377
1335.552231,-6291.750507,1608.800546,-1258.350101
1335.552543,-6587.832884,1378.971896,-1628.453072
1335.552855,-7624.121203,995.924147,-1110.308913
1335.553166,-8512.368333,383.047749,-148.041188
1335.553478,-10584.944971,-306.438199,888.247130
1335.553789,-11917.315666,-536.266849,2146.597232
1335.554101,-12509.480420,-1225.752797,2886.803174
1335.554412,-11547.212695,-1302.362347,2442.679609
1335.554724,-9178.553681,153.219100,2220.617826
1335.555036,-7179.997637,1608.800546,1554.432478
1335.555347,-6809.894666,842.705048,740.205942
1335.555659,-7698.141797,0.000000,962.267725
1335.555970,-8216.285956,-919.314598,888.247130
1335.556282,-6883.915261,-536.266849,518.144159
1335.556593,-7179.997637,-229.828649,-0.000000
1335.556905,-7402.059420,-1072.533697,-962.267725
1335.557217,-6587.832884,-1302.362347,-1406.391290
1335.557528,-7179.997637,-1302.362347,-814.226536
1335.557840,-8586.388927,-1149.143247,296.082377
1335.558151,-11399.171507,-1072.533697,888.247130
1335.558463,-13619.789333,-459.657299,1332.370696
1335.558774,-13693.809927,536.266849,1332.370696
1335.559086,-11843.295072,1455.581446,1110.308913
1335.559398,-10510.924376,1455.581446,1110.308913
1335.559709,-8216.285956,842.705048,1628.453072
1335.560021,-6735.874072,-1072.533697,1332.370696
1335.560332,-6957.935855,-2221.676944,962.267725
1335.560644,-5921.647536,-1149.143247,666.185348
1335.560955,-5181.441594,-766.095498,-666.185348
1335.561267,-5995.668130,-766.095498,-1850.514855
1335.561578,-7476.080014,-306.438199,-1850.514855
1335.561890,-9474.636058,-536.266849,-1406.391290
1335.562201,-11399.171507,-1225.752797,-222.061783
1335.562513,-13175.665768,-1302.362347,1480.411884
1335.562824,-14582.057057,-1072.533697,2220.617826
1335.563136,-12953.603985,-306.438199,2146.597232
1335.563448,-11177.109724,76.609550,1184.329507
1335.563759,-8512.368333,766.095498,1332.370696
1335.564071,-6735.874072,612.876398,1406.391290
1335.564382,-5107.421000,0.000000,1776.494261
1335.564694,-5255.462188,-1072.533697,1184.329507
1335.565005,-5551.544565,-1838.629195,-0.000000
1335.565317,-6587.832884,-229.828649,-444.123565
1335.565628,-6883.915261,153.219100,-1628.453072
1335.565940,-7105.977043,153.219100,-2590.720797
1335.566251,-8586.388927,-536.266849,-1702.473667
1335.566563,-9918.759623,-1302.362347,-222.061783
1335.566874,-11695.253884,-2221.676944,1406.391290
1335.567186,-13767.830521,-2604.724693,2516.700203
1335.567497,-13545.768739,-612.876398,2960.823768
1335.567809,-12657.521608,919.314598,2368.659014
1335.568120,-10140.821405,1608.800546,2368.659014
1335.568432,-7105.977043,995.924147,2146.597232
1335.568744,-5921.647536,-153.219100,-0.000000
1335.569055,-4959.379811,306.438199,-1110.308913
1335.569367,-5699.585753,2145.067394,-1554.432478
1335.569678,-6291.750507,3753.867940,-2516.700203
1335.569990,-8142.265362,3447.429741,-2294.638420
1335.570301,-8068.244768,2068.457845,-740.205942
1335.570613,-8882.471304,995.924147,-444.123565
1335.570924,-10436.903782,919.314598,370.102971
1335.571236,-11251.130318,612.876398,1332.370696
1335.571547,-12065.356855,-153.219100,1776.494261
1335.571859,-11251.130318,0.000000,2442.679609
1335.572170,-9918.759623,1149.143247,2368.659014
1335.572482,-9474.636058,766.095498,1332.370696
1335.572793,-7994.224174,995.924147,1332.370696
1335.573105,-7402.059420,0.000000,370.102971
1335.573416,-7402.059420,0.000000,-370.102971
1335.573728,-7105.977043,536.266849,-1036.288319
1335.574040,-7328.038826,766.095498,-1258.350101
1335.574351,-7105.977043,459.657299,-1036.288319
1335.574663,-7254.018232,-229.828649,-592.164754
1335.574974,-7105.977043,-1378.971896,518.144159
1335.575286,-9474.636058,-1302.362347,1110.308913
1335.575597,-11325.150913,-1608.800546,2294.638420
1335.575909,-12731.542202,-1915.238745,2516.700203
1335.576220,-12435.459826,-766.095498,2368.659014
1335.576532,-10362.883188,459.657299,2294.638420
1335.576843,-9178.553681,919.314598,1480.411884
1335.577155,-7550.100608,306.438199,1258.350101
1335.577466,-6513.812290,-995.924147,814.226536
1335.577778,-5921.647536,-689.485948,296.082377
1335.578089,-5699.585753,459.657299,-222.061783
1335.578401,-6735.874072,689.485948,-888.247130
1335.578712,-7550.100608,229.828649,-1036.288319
1335.579024,-8364.327145,76.609550,-666.185348
1335.579336,-9104.533087,-383.047749,-0.000000
1335.579647,-11547.212695,-1378.971896,740.205942
1335.579959,-12509.480420,-1838.629195,2442.679609
1335.580270,-13175.665768,-1455.581446,2442.679609
1335.580582,-13027.624579,-1302.362347,1480.411884
1335.580893,-10955.047942,689.485948,1332.370696
1335.581205,-9178.553681,1532.190996,1036.288319
1335.581516,-7772.162391,842.705048,814.226536
1335.581828,-6365.771101,-459.657299,1480.411884
1335.582139,-5773.606348,-1455.581446,518.144159
1335.582451,-5181.441594,-919.314598,148.041188
1335.582762,-5847.626942,76.609550,-888.247130
1335.583074,-6883.915261,0.000000,-1998.556043
1335.583385,-7846.182985,-612.876398,-1332.370696
1335.583697,-9770.718434,-1378.971896,-518.144159
1335.584008,-11399.171507,-1991.848295,1332.370696
1335.584320,-13619.789333,-2528.115143,2368.659014
1335.584632,-13767.830521,-2221.676944,3627.009116
1335.584943,-12583.501014,-995.924147,1998.556043
1335.585255,-10066.800811,689.485948,1998.556043
1335.585566,-8142.265362,1685.410096,1924.535449
1335.585878,-6439.791695,1378.971896,1184.329507
1335.586189,-5329.482782,919.314598,148.041188
1335.586501,-5255.462188,1072.533697,-0.000000
1335.586812,-5625.565159,1149.143247,-1184.329507
1335.587124,-5921.647536,2451.505594,-2146.597232
1335.587435,-7031.956449,1685.410096,-2146.597232
1335.587747,-7476.080014,153.219100,-1258.350101
1335.588058,-9104.533087,-842.705048,-592.164754
1335.588370,-11251.130318,-995.924147,444.123565
1335.588681,-12287.418637,-766.095498,962.267725
1335.588993,-12583.501014,-229.828649,1110.308913
1335.589304,-11991.336260,229.828649,1184.329507
1335.589616,-10362.883188,995.924147,1184.329507
1335.589928,-8882.471304,919.314598,1332.370696
1335.590239,-7698.141797,0.000000,1258.350101
1335.590551,-7254.018232,-842.705048,1406.391290
1335.590862,-8068.244768,-1608.800546,-0.000000
1335.591174,-8068.244768,-1149.143247,-296.082377
1335.591485,-7846.182985,0.000000,-1258.350101
1335.591797,-7698.141797,-153.219100,-1480.411884
1335.592108,-8142.265362,-153.219100,-1184.329507
1335.592420,-9548.656652,-919.314598,-740.205942
1335.592731,-10584.944971,-995.924147,740.205942
1335.593043,-11399.171507,-842.705048,1702.473667
1335.593354,-12657.521608,-612.876398,2072.576638
1335.593666,-12287.418637,919.314598,1998.556043
1335.593977,-10658.965565,2298.286494,1554.432478
1335.594289,-8364.327145,2374.896044,962.267725
1335.594600,-7179.997637,766.095498,370.102971
1335.594912,-7179.997637,842.705048,-0.000000
1335.595224,-7476.080014,612.876398,148.041188
1335.595535,-6587.832884,995.924147,-148.041188
1335.595847,-6957.935855,766.095498,-814.226536
1335.596158,-7105.977043,383.047749,-1036.288319
1335.596470,-6957.935855,612.876398,-814.226536
1335.596781,-8216.285956,-306.438199,-296.082377
1335.597093,-9474.636058,229.828649,814.226536
1335.597404,-10881.027347,-306.438199,1110.308913
1335.597716,-12361.439231,-842.705048,1850.514855
1335.598027,-11843.295072,76.609550,2368.659014
1335.598339,-10214.842000,995.924147,2442.679609
1335.598650,-8586.388927,919.314598,2368.659014
1335.598962,-7402.059420,0.000000,2220.617826
1335.599273,-6809.894666,-1838.629195,1776.494261
1335.599585,-7105.977043,-1455.581446,-0.000000
1335.599896,-6439.791695,0.000000,-370.102971
1335.600208,-5773.606348,1455.581446,-1998.556043
1335.600520,-6587.832884,306.438199,-2294.638420
1335.600831,-6883.915261,-459.657299,-1110.308913
1335.601143,-7994.224174,-1149.143247,-148.041188
1335.601454,-10955.047942,-1991.848295,1258.350101
1335.601766,-12509.480420,-1762.019645,3256.906145
1335.602077,-14434.015869,-3064.381992,3108.864956
1335.602389,-13471.748144,-1302.362347,2960.823768
1335.602700,-10807.006753,459.657299,2146.597232
1335.603012,-8882.471304,612.876398,1628.453072
1335.603323,-7772.162391,-306.438199,1110.308913
1335.603635,-6809.894666,-766.095498,1184.329507
1335.603946,-5773.606348,-306.438199,-0.000000
1335.604258,-5551.544565,766.095498,-370.102971
1335.604569,-5551.544565,1072.533697,-1406.391290
1335.604881,-6735.874072,612.876398,-2368.659014
1335.605193,-7476.080014,0.000000,-1924.535449
1335.605504,-9400.615463,-766.095498,-1184.329507
1335.605816,-11843.295072,-1225.752797,370.102971
1335.606127,-13471.748144,-1915.238745,1554.432478
1335.606439,-14137.933492,-2451.505594,2368.659014
1335.606750,-12657.521608,-2298.286494,2516.700203
1335.607062,-10140.821405,-1072.533697,2294.638420
1335.607373,-8956.491898,-153.219100,1850.514855
1335.607685,-6661.853478,76.609550,1480.411884
1335.607996,-5477.523971,-459.657299,1036.288319
1335.608308,-4737.318029,-766.095498,444.123565
1335.608619,-4589.276840,-689.485948,-1036.288319
1335.608931,-5773.606348,689.485948,-2072.576638
1335.609242,-7031.956449,153.219100,-2368.659014
1335.609554,-9104.533087,-153.219100,-1776.494261
1335.609865,-11103.089130,-1455.581446,-222.061783
1335.610177,-13249.686362,-1991.848295,1406.391290
1335.610489,-14730.098246,-2221.676944,2590.720797
1335.610800,-14285.974681,-1072.533697,2738.761985
1335.611112,-12139.377449,612.876398,2294.638420
1335.611423,-9252.574275,2374.896044,1702.473667
1335.611735,-6883.915261,2068.457845,1332.370696
1335.612046,-5477.523971,2145.067394,444.123565
1335.612358,-4071.132681,1685.410096,-0.000000
1335.612669,-4293.194464,1302.362347,-370.102971
1335.612981,-5699.585753,1378.971896,-1628.453072
1335.613292,-7254.018232,1762.019645,-1924.535449
1335.613604,-8586.388927,2145.067394,-2146.597232
1335.613915,-9992.780217,1455.581446,-1258.350101
1335.614227,-11103.089130,229.828649,-0.000000
1335.614538,-12287.418637,-842.705048,1406.391290
1335.614850,-13027.624579,-919.314598,2072.576638
1335.615161,-12139.377449,-229.828649,2664.741391
1335.615473,-10066.800811,842.705048,2960.823768
1335.615785,-7698.141797,1378.971896,2368.659014
1335.616096,-6883.915261,1455.581446,1554.432478
1335.616408,-7105.977043,689.485948,-0.000000
1335.616719,-6513.812290,0.000000,-518.144159
1335.617031,-6957.935855,229.828649,-962.267725
1335.617342,-6883.915261,689.485948,-1702.473667
1335.617654,-7402.059420,76.609550,-1850.514855
1335.617965,-7550.100608,-536.266849,-888.247130
1335.618277,-7772.162391,-1378.971896,-0.000000
1335.618588,-8956.491898,-1762.019645,888.247130
1335.618900,-10214.842000,-995.924147,2442.679609
1335.619211,-11399.171507,-1225.752797,2220.617826
1335.619523,-11991.336260,-383.047749,1924.535449
1335.619834,-10436.903782,1378.971896,1480.411884
1335.620146,-9030.512492,1762.019645,962.267725
1335.620457,-8216.285956,919.314598,1036.288319
1335.620769,-8438.347739,-1225.752797,1480.411884
1335.621081,-7846.182985,-1455.581446,666.185348
1335.621392,-7846.182985,-1149.143247,592.164754
1335.621704,-7550.100608,-689.485948,-222.061783
1335.622015,-7624.121203,-536.266849,-740.205942
1335.622327,-7698.141797,-842.705048,-1258.350101
1335.622638,-7846.182985,-919.314598,-592.164754
1335.622950,-9474.636058,-919.314598,-74.020594
1335.623261,-10807.006753,-383.047749,1110.308913
1335.623573,-12361.439231,-229.828649,1998.556043
1335.623884,-12287.418637,-1302.362347,1924.535449
1335.624196,-10955.047942,-995.924147,2220.617826
1335.624507,-8882.471304,459.657299,1554.432478
1335.624819,-7772.162391,306.438199,1332.370696
1335.625130,-7179.997637,-612.876398,1332.370696
1335.625442,-7698.141797,-1915.238745,740.205942
1335.625753,-7105.977043,-1072.533697,222.061783
1335.626065,-7328.038826,0.000000,-888.247130
1335.626377,-7402.059420,306.438199,-1036.288319
1335.626688,-7402.059420,-229.828649,-1554.432478
1335.627000,-8142.265362,-612.876398,-1036.288319
1335.627311,-8586.388927,-689.485948,-74.020594
1335.627623,-10288.862594,-1302.362347,1258.350101
1335.627934,-12065.356855,-1378.971896,2072.576638
1335.628246,-12657.521608,0.000000,1776.494261
1335.628557,-11399.171507,689.485948,1776.494261
1335.628869,-8512.368333,1608.800546,1850.514855
1335.629180,-7846.182985,1149.143247,1776.494261
1335.629492,-7254.018232,229.828649,1036.288319
1335.629803,-6883.915261,-919.314598,444.123565
1335.630115,-6587.832884,0.000000,-444.123565
1335.630426,-5847.626942,1378.971896,-1628.453072
1335.630738,-6143.709319,1915.238745,-2812.782580
1335.631049,-6143.709319,842.705048,-3034.844362
1335.631361,-7476.080014,153.219100,-2220.617826
1335.631673,-9844.739029,-383.047749,-518.144159
1335.631984,-11917.315666,-383.047749,1258.350101
1335.632296,-13841.851115,-1378.971896,2590.720797
1335.632607,-14063.912898,-1532.190996,3478.967927
1335.632919,-12583.501014,-306.438199,3330.926739
1335.633230,-10214.842000,766.095498,2294.638420
1335.633542,-7698.141797,1608.800546,1702.473667
1335.633853,-7105.977043,919.314598,222.061783
1335.634165,-6217.729913,842.705048,-1036.288319
1335.634476,-6069.688724,1072.533697,-2368.659014
1335.634788,-5699.585753,1608.800546,-2442.679609
1335.635099,-6735.874072,842.705048,-2516.700203
1335.635411,-8216.285956,0.000000,-1850.514855
1335.635722,-9178.553681,-459.657299,222.061783
1335.636034,-10140.821405,-1455.581446,1184.329507
1335.636345,-12287.418637,-2068.457845,2590.720797
1335.636657,-13249.686362,-1762.019645,3108.864956
1335.636969,-13249.686362,-459.657299,2886.803174
1335.637280,-11177.109724,995.924147,2442.679609
1335.637592,-8956.491898,1838.629195,1480.411884
1335.637903,-7105.977043,2221.676944,1332.370696
1335.638215,-6661.853478,842.705048,518.144159
1335.638526,-6217.729913,-153.219100,-0.000000
1335.638838,-6291.750507,-383.047749,-1036.288319
1335.639149,-6291.750507,689.485948,-1184.329507
1335.639461,-6809.894666,919.314598,-1332.370696
1335.639772,-7920.203579,0.000000,-1332.370696
1335.640084,-8734.430116,-383.047749,-0.000000
1335.640395,-10066.800811,-612.876398,1184.329507
1335.640707,-11769.274478,-766.095498,2072.576638
1335.641018,-12805.562797,0.000000,3182.885551
1335.641330,-11695.253884,-153.219100,3108.864956
1335.641641,-9696.697840,995.924147,2442.679609
1335.641953,-7476.080014,1838.629195,1924.535449
1335.642265,-5921.647536,1072.533697,814.226536
1335.642576,-5921.647536,-76.609550,-148.041188
1335.642888,-6143.709319,-842.705048,-296.082377
1335.643199,-6069.688724,-459.657299,-1258.350101
1335.643511,-6439.791695,-842.705048,-1480.411884
1335.643822,-7772.162391,-612.876398,-1184.329507
1335.644134,-9178.553681,-1532.190996,-444.123565
1335.644445,-10510.924376,-1991.848295,814.226536
1335.644757,-11399.171507,-2451.505594,1850.514855
1335.645068,-11843.295072,-1685.410096,2442.679609
1335.645380,-12509.480420,-1685.410096,2294.638420
1335.645691,-11991.336260,0.000000,1850.514855
1335.646003,-9844.739029,1378.971896,1110.308913
1335.646314,-8364.327145,1608.800546,444.123565
1335.646626,-7772.162391,1072.533697,222.061783
1335.646937,-7328.038826,76.609550,370.102971
1335.647249,-6957.935855,-536.266849,-74.020594
1335.647561,-7476.080014,0.000000,-148.041188
1335.647872,-7254.018232,689.485948,-1036.288319
1335.648184,-7772.162391,689.485948,-1850.514855
1335.648495,-8364.327145,76.609550,-1480.411884
1335.648807,-9474.636058,-1225.752797,-444.123565
1335.649118,-10436.903782,-1302.362347,740.205942
1335.649430,-11695.253884,-1532.190996,1332.370696
1335.649741,-12213.398043,-1225.752797,1998.556043
1335.650053,-11621.233289,-1378.971896,2220.617826
1335.650364,-10584.944971,-306.438199,1702.473667
1335.650676,-8438.347739,459.657299,888.247130
1335.650987,-7254.018232,153.219100,518.144159
1335.651299,-6217.729913,-459.657299,666.185348
1335.651610,-5995.668130,-1532.190996,-0.000000
1335.651922,-6365.771101,-1532.190996,-592.164754
1335.652233,-6291.750507,-766.095498,-1628.453072
1335.652545,-7402.059420,-536.266849,-1554.432478
1335.652857,-7550.100608,-459.657299,-666.185348
1335.653168,-8956.491898,-995.924147,-296.082377
1335.653480,-10584.944971,-2451.505594,1332.370696
1335.653791,-11621.233289,-2528.115143,2368.659014
1335.654103,-12065.356855,-1762.019645,2368.659014
1335.654414,-11399.171507,76.609550,1776.494261
1335.654726,-10214.842000,1991.848295,888.247130
1335.655037,-8956.491898,2221.676944,740.205942
1335.655349,-7698.141797,1838.629195,666.185348
1335.655660,-7698.141797,1225.752797,1036.288319
1335.655972,-8068.244768,612.876398,444.123565
1335.656283,-8882.471304,1378.971896,-74.020594
1335.656595,-8364.327145,2604.724693,-1036.288319
1335.656906,-7698.141797,2834.553343,-1702.473667
1335.657218,-7624.121203,2068.457845,-1258.350101
1335.657529,-7994.224174,612.876398,-666.185348
1335.657841,-8882.471304,229.828649,444.123565
1335.658153,-10584.944971,0.000000,1628.453072
1335.658464,-11399.171507,0.000000,2294.638420
1335.658776,-11251.130318,0.000000,2738.761985
1335.659087,-10658.965565,459.657299,2294.638420
1335.659399,-9474.636058,1685.410096,1554.432478
1335.659710,-7328.038826,2068.457845,1332.370696
1335.660022,-6957.935855,995.924147,-0.000000
1335.660333,-7031.956449,-153.219100,-296.082377
1335.660645,-6661.853478,-153.219100,-666.185348
1335.660956,-6587.832884,306.438199,-1332.370696
1335.661268,-7402.059420,842.705048,-1184.329507
1335.661579,-7328.038826,766.095498,-518.144159
1335.661891,-7920.203579,-1225.752797,-0.000000
1335.662202,-9252.574275,-2451.505594,1184.329507
1335.662514,-10436.903782,-2451.505594,2516.700203
1335.662825,-11029.068536,-1838.629195,2368.659014
1335.663137,-11473.192101,-306.438199,2294.638420
1335.663448,-10288.862594,612.876398,2072.576638
1335.663760,-9474.636058,766.095498,740.205942
1335.664071,-8512.368333,1762.019645,666.185348
1335.664383,-7772.162391,1685.410096,444.123565
1335.664695,-7624.121203,536.266849,-0.000000
1335.665006,-6513.812290,153.219100,-74.020594
1335.665318,-6217.729913,919.314598,-1110.308913
1335.665629,-6143.709319,383.047749,-1480.411884
1335.665941,-7105.977043,-229.828649,-962.267725
1335.666252,-9326.594869,-2298.286494,-296.082377
1335.666564,-10066.800811,-2681.334243,962.267725
1335.666875,-11917.315666,-3677.258390,1850.514855
1335.667187,-12435.459826,-4060.306139,2738.761985
1335.667498,-11917.315666,-4136.915689,2812.782580
1335.667810,-11251.130318,-4366.744339,2516.700203
1335.668121,-9474.636058,-3447.429741,1702.473667
1335.668433,-8512.368333,-2604.724693,518.144159
1335.668744,-7179.997637,-2374.896044,666.185348
1335.669056,-6069.688724,-3064.381992,74.020594
1335.669367,-5699.585753,-3753.867940,-592.164754
1335.669679,-5551.544565,-4060.306139,-888.247130
1335.669990,-6587.832884,-2987.772442,-444.123565
1335.670302,-8068.244768,-1991.848295,-962.267725
1335.670613,-9918.759623,-2451.505594,-222.061783
1335.670925,-10955.047942,-3064.381992,962.267725
1335.671236,-11251.130318,-3600.648841,1258.350101
1335.671548,-11917.315666,-3447.429741,1332.370696
1335.671859,-10214.842000,-2681.334243,1110.308913
1335.672171,-9696.697840,-2298.286494,-0.000000
1335.672482,-9622.677246,-1608.800546,296.082377
1335.672794,-9326.594869,-1378.971896,222.061783
1335.673105,-8438.347739,-1455.581446,296.082377
1335.673417,-7550.100608,-2528.115143,592.164754
1335.673728,-6957.935855,-3370.820191,518.144159
1335.674040,-5995.668130,-4826.401637,-222.061783
1335.674351,-7105.977043,-4290.134789,-1184.329507
1335.674663,-7920.203579,-3294.210641,-1258.350101
1335.674974,-9474.636058,-2911.162892,-888.247130
1335.675286,-11547.212695,-2604.724693,-0.000000
1335.675597,-12435.459826,-2451.505594,1332.370696
1335.675909,-12065.356855,-2604.724693,1702.473667
1335.676220,-10214.842000,-2757.943793,1776.494261
1335.676532,-8068.244768,-2911.162892,888.247130
1335.676843,-6809.894666,-3064.381992,-0.000000
1335.677155,-6439.791695,-2451.505594,-518.144159
1335.677466,-7476.080014,-1838.629195,-814.226536
1335.677778,-8438.347739,-766.095498,-74.020594
1335.678089,-9252.574275,-1149.143247,-0.000000
1335.678401,-10140.821405,-2221.676944,962.267725
1335.678712,-9474.636058,-2911.162892,1554.432478
1335.679024,-8586.388927,-3753.867940,1554.432478
1335.679335,-7846.182985,-3447.429741,1110.308913
1335.679647,-7328.038826,-4826.401637,1258.350101
1335.679958,-7179.997637,-5209.449386,592.164754
1335.680270,-7994.224174,-5056.230287,962.267725
1335.680581,-8882.471304,-4366.744339,1110.308913
1335.680893,-9770.718434,-3217.601092,888.247130
1335.681204,-10732.986159,-1378.971896,888.247130
1335.681516,-10584.944971,-612.876398,370.102971
1335.681827,-10066.800811,-459.657299,-0.000000
1335.682139,-8734.430116,383.047749,-296.082377
1335.682450,-7476.080014,76.609550,-0.000000
1335.682762,-5995.668130,-306.438199,-0.000000
1335.683073,-5403.503377,-1072.533697,296.082377
1335.683385,-5699.585753,-2221.676944,518.144159
1335.683696,-6883.915261,-3370.820191,444.123565
1335.684008,-8438.347739,-4519.963438,740.205942
1335.684319,-9844.739029,-5515.887586,814.226536
1335.684631,-11399.171507,-6128.763984,666.185348
1335.684942,-11917.315666,-5898.935335,1184.329507
1335.685254,-11991.336260,-4596.572988,962.267725
1335.685565,-11177.109724,-3294.210641,1184.329507
1335.685877,-10066.800811,-2221.676944,1184.329507
1335.686188,-9326.594869,-842.705048,1554.432478
1335.686500,-8068.244768,-995.924147,1258.350101
1335.686811,-6365.771101,-919.314598,666.185348
1335.687123,-5329.482782,-1762.019645,740.205942
1335.687435,-6217.729913,-2221.676944,296.082377
1335.687746,-7402.059420,-2451.505594,-296.082377
1335.688058,-8882.471304,-3064.381992,-888.247130
1335.688369,-10066.800811,-3370.820191,-666.185348
1335.688681,-10732.986159,-3753.867940,-0.000000
1335.688992,-11325.150913,-4979.620737,296.082377
1335.689304,-11769.274478,-5592.497135,814.226536
1335.689615,-10510.924376,-5592.497135,1850.514855
1335.689927,-9178.553681,-4136.915689,1850.514855
1335.690238,-7994.224174,-2911.162892,1776.494261
1335.690550,-6735.874072,-2145.067394,370.102971
1335.690861,-6661.853478,-2068.457845,74.020594
1335.691173,-6143.709319,-1149.143247,-0.000000
1335.691484,-6587.832884,-689.485948,-592.164754
1335.691796,-7402.059420,-2451.505594,-592.164754
1335.692107,-9918.759623,-3217.601092,-296.082377
1335.692419,-10362.883188,-3983.696590,-0.000000
1335.692730,-11621.233289,-3600.648841,-74.020594
1335.693042,-9992.780217,-3370.820191,814.226536
1335.693353,-11177.109724,-4290.134789,296.082377
1335.693665,-10881.027347,-4290.134789,1110.308913
1335.693976,-7772.162391,-4136.915689,814.226536
1335.694288,-7550.100608,-4749.792088,592.164754
1335.694599,-8290.306550,-4290.134789,1924.535449
1335.694911,-10584.944971,-3983.696590,1110.308913
1335.695222,-9548.656652,-1915.238745,1036.288319
1335.695534,-8512.368333,-459.657299,518.144159
1335.695845,-7994.224174,-1991.848295,740.205942
1335.696157,-8142.265362,-3370.820191,222.061783
1335.696468,-8290.306550,-2987.772442,296.082377
1335.696780,-8438.347739,-2221.676944,1258.350101
1335.697091,-9548.656652,-1455.581446,2368.659014
1335.697403,-12509.480420,-536.266849,2220.617826
1335.697714,-12139.377449,229.828649,2812.782580
1335.698026,-10807.006753,-612.876398,2664.741391
1335.698337,-7772.162391,-1302.362347,2812.782580
1335.698649,-6143.709319,229.828649,2368.659014
1335.698960,-6661.853478,-612.876398,1702.473667
1335.699272,-6365.771101,-3064.381992,2442.679609
1335.699583,-7550.100608,-3677.258390,3182.885551
1335.699895,-7920.203579,-1072.533697,5181.441594
1335.700206,-11621.233289,-1225.752797,4515.256246
1335.700518,-11843.295072,-2221.676944,5921.647536
1335.700829,-9030.512492,-612.876398,3997.112087
1335.701141,-7846.182985,536.266849,4219.173869
1335.701452,-7254.018232,1302.362347,3552.988522
1335.701764,-7105.977043,-229.828649,2886.803174
1335.702075,-8364.327145,0.000000,2516.700203
1335.702387,-5699.585753,1072.533697,4367.215058
1335.702698,-7994.224174,153.219100,2664.741391
1335.703010,-9474.636058,-229.828649,4811.338623
1335.703321,-10140.821405,153.219100,5255.462188
1335.703633,-9474.636058,-766.095498,4737.318029
1335.703944,-8290.306550,-1838.629195,5773.606348
1335.704256,-9178.553681,-383.047749,4515.256246
1335.704567,-8364.327145,-383.047749,5033.400406
1335.704879,-7105.977043,-689.485948,3849.070898
1335.705190,-6735.874072,-612.876398,4441.235652
1335.705502,-7846.182985,1532.190996,3849.070898
1335.705813,-9104.533087,1378.971896,5107.421000
1335.706125,-9622.677246,536.266849,5033.400406
1335.706436,-8660.409521,-766.095498,4885.359217
1335.706748,-7920.203579,-153.219100,4663.297435
1335.707059,-7698.141797,-459.657299,4219.173869
1335.707371,-7772.162391,-1302.362347,4367.215058
1335.707682,-8142.265362,-306.438199,3997.112087
1335.707994,-8364.327145,689.485948,4441.235652
1335.708305,-9474.636058,229.828649,3849.070898
1335.708617,-11769.274478,383.047749,4589.276840
1335.708928,-10436.903782,1915.238745,5033.400406
1335.709240,-8808.450710,995.924147,4219.173869
1335.709551,-7994.224174,306.438199,4219.173869
1335.709863,-6365.771101,-995.924147,3478.967927
1335.710175,-5995.668130,-766.095498,2664.741391
1335.710486,-5181.441594,-383.047749,2368.659014
1335.710798,-6217.729913,-995.924147,2516.700203
1335.711109,-8068.244768,-1532.190996,2812.782580
1335.711421,-9474.636058,-1762.019645,3330.926739
1335.711732,-10436.903782,-1455.581446,4071.132681
1335.712044,-11029.068536,-1072.533697,4219.173869
1335.712355,-11621.233289,-612.876398,4367.215058
1335.712667,-11473.192101,229.828649,3108.864956
1335.712978,-9622.677246,766.095498,2590.720797
1335.713290,-8586.388927,1378.971896,1110.308913
1335.713601,-8290.306550,2451.505594,1110.308913
1335.713913,-8586.388927,1225.752797,1776.494261
1335.714224,-9030.512492,0.000000,2516.700203
1335.714536,-9622.677246,0.000000,3256.906145
1335.714847,-8586.388927,-306.438199,3849.070898
1335.715159,-8068.244768,-536.266849,3034.844362
1335.715470,-7994.224174,-1762.019645,2368.659014
1335.715782,-7328.038826,-306.438199,1406.391290
1335.716093,-7179.997637,0.000000,296.082377
1335.716405,-8734.430116,689.485948,592.164754
1335.716716,-10288.862594,766.095498,1776.494261
1335.717028,-12435.459826,0.000000,2146.597232
1335.717339,-12953.603985,-229.828649,3849.070898
1335.717651,-12287.418637,0.000000,4071.132681
1335.717962,-11917.315666,-995.924147,4367.215058
1335.718274,-9474.636058,-842.705048,3775.050304
1335.718585,-5995.668130,-1225.752797,2812.782580
1335.718897,-3775.050304,-2145.067394,2072.576638
1335.719208,-3330.926739,-2145.067394,1184.329507
1335.719520,-5033.400406,-1302.362347,1332.370696
1335.719831,-7920.203579,-459.657299,2220.617826
1335.720143,-11695.253884,153.219100,3849.070898
1335.720454,-13619.789333,1072.533697,5773.606348
1335.720766,-14804.118840,1378.971896,6069.688724
1335.721077,-13101.645173,0.000000,6217.729913
1335.721389,-9178.553681,306.438199,4885.359217
1335.721700,-5181.441594,842.705048,3034.844362
1335.722012,-3108.864956,842.705048,1258.350101
1335.722323,-2220.617826,0.000000,592.164754
1335.722635,-3478.967927,919.314598,222.061783
1335.722946,-7254.018232,1072.533697,2146.597232
1335.723258,-12065.356855,1685.410096,3997.112087
1335.723569,-15100.201217,459.657299,5551.544565
1335.723881,-15470.304188,153.219100,6883.915261
1335.724192,-11769.274478,-919.314598,5847.626942
1335.724504,-7994.224174,-1455.581446,4293.194464
1335.724815,-5551.544565,-612.876398,2664.741391
1335.725127,-4145.153275,995.924147,2072.576638
1335.725438,-5107.421000,459.657299,2664.741391
1335.725750,-7328.038826,76.609550,3627.009116
1335.726061,-10066.800811,919.314598,5181.441594
1335.726373,-10362.883188,919.314598,5033.400406
1335.726684,-9030.512492,1302.362347,3923.091493
1335.726996,-7254.018232,1838.629195,1924.535449
1335.727307,-5847.626942,2451.505594,148.041188
1335.727619,-6365.771101,2068.457845,-444.123565
1335.727930,-7328.038826,766.095498,-0.000000
1335.728242,-8956.491898,766.095498,962.267725
1335.728553,-11029.068536,0.000000,2368.659014
1335.728865,-11769.274478,-1302.362347,3478.967927
1335.729176,-11177.109724,-2451.505594,4589.276840
1335.729488,-9918.759623,-2911.162892,4589.276840
1335.729799,-8438.347739,-2604.724693,4219.173869
1335.730111,-8068.244768,-1915.238745,3108.864956
1335.730422,-8438.347739,-995.924147,1332.370696
1335.730734,-7772.162391,919.314598,296.082377
1335.731045,-7994.224174,2298.286494,-740.205942
1335.731357,-7772.162391,2451.505594,-962.267725
1335.731668,-8142.265362,2221.676944,-1184.329507
1335.731980,-8068.244768,1532.190996,-444.123565
1335.732291,-8956.491898,766.095498,-0.000000
1335.732603,-9326.594869,306.438199,740.205942
1335.732914,-10807.006753,-689.485948,518.144159
1335.733226,-10732.986159,-995.924147,592.164754
1335.733538,-9770.718434,-612.876398,-0.000000
1335.733849,-9104.533087,0.000000,-740.205942
1335.734161,-9030.512492,0.000000,-74.020594
1335.734472,-9622.677246,-76.609550,592.164754
1335.734784,-10214.842000,-306.438199,2146.597232
1335.735095,-10140.821405,-1302.362347,2516.700203
1335.735407,-10288.862594,-1149.143247,1998.556043
1335.735718,-8216.285956,-612.876398,962.267725
1335.736030,-5551.544565,-766.095498,-1110.308913
1335.736341,-3849.070898,-153.219100,-2738.761985
1335.736653,-4367.215058,689.485948,-3256.906145
1335.736964,-7105.977043,1149.143247,-2220.617826
1335.737276,-10807.006753,995.924147,-296.082377
1335.737587,-15840.407159,689.485948,1924.535449
1335.737899,-17764.942608,995.924147,3701.029710
1335.738210,-15988.448347,689.485948,3552.988522
1335.738522,-12139.377449,229.828649,1998.556043
1335.738833,-7254.018232,76.609550,-0.000000
1335.739145,-2738.761985,536.266849,-2072.576638
1335.739456,-2220.617826,689.485948,-1332.370696
1335.739768,-4515.256246,0.000000,222.061783
1335.740079,-7920.203579,-153.219100,1554.432478
1335.740391,-9326.594869,-766.095498,2886.803174
1335.740702,-8364.327145,-842.705048,2294.638420
1335.741014,-6957.935855,-766.095498,740.205942
1335.741325,-5847.626942,-766.095498,-962.267725
1335.741637,-6809.894666,-919.314598,-2294.638420
1335.741948,-9104.533087,-459.657299,-1702.473667
1335.742260,-12509.480420,0.000000,-0.000000
1335.742571,-14878.139434,-536.266849,1258.350101
1335.742883,-14730.098246,-459.657299,2220.617826
1335.743194,-11917.315666,-612.876398,2442.679609
1335.743506,-8438.347739,-153.219100,2368.659014
1335.743817,-5625.565159,229.828649,1776.494261
1335.744129,-4293.194464,76.609550,-0.000000
1335.744440,-3997.112087,306.438199,-888.247130
1335.744752,-4441.235652,919.314598,-2294.638420
1335.745063,-5255.462188,2221.676944,-2960.823768
1335.745375,-7698.141797,1762.019645,-2738.761985
1335.745686,-10658.965565,1149.143247,-1850.514855
1335.745998,-13767.830521,383.047749,-296.082377
1335.746309,-14582.057057,-383.047749,1776.494261
1335.746621,-15322.262999,-1838.629195,2664.741391
1335.746932,-14878.139434,-2221.676944,2368.659014
1335.747244,-11843.295072,-1685.410096,1480.411884
1335.747555,-9030.512492,0.000000,444.123565
1335.747867,-6365.771101,995.924147,-592.164754
1335.748178,-5995.668130,1838.629195,-148.041188
1335.748490,-6439.791695,1762.019645,-370.102971
1335.748801,-6587.832884,1302.362347,296.082377
1335.749113,-6143.709319,76.609550,518.144159
1335.749424,-7105.977043,0.000000,-0.000000
1335.749736,-7994.224174,153.219100,-888.247130
1335.750047,-8586.388927,-536.266849,-0.000000
