#time,accel_x,accel_y,accel_z
1473.523704,-9030.512492,-229.828649,370.102971
1473.524016,-8808.450710,0.000000,666.185348
1473.524327,-9030.512492,-229.828649,444.123565
1473.524638,-9030.512492,-229.828649,666.185348
1473.524950,-8956.491898,0.000000,518.144159
1473.525261,-8660.409521,0.000000,1110.308913
1473.525573,-8808.450710,-766.095498,592.164754
1473.525884,-8956.491898,-766.095498,740.205942
1473.526196,-8660.409521,0.000000,740.205942
1473.526507,-8882.471304,-383.047749,740.205942
1473.526819,-8808.450710,0.000000,666.185348
1473.527130,-9030.512492,76.609550,518.144159
1473.527442,-8882.471304,-153.219100,444.123565
1473.527753,-9030.512492,-153.219100,370.102971
1473.528065,-8512.368333,0.000000,370.102971
1473.528376,-8586.388927,-153.219100,518.144159
1473.528688,-8956.491898,-153.219100,296.082377
1473.528999,-9178.553681,0.000000,222.061783
1473.529310,-9104.533087,0.000000,518.144159
1473.529622,-8882.471304,0.000000,518.144159
1473.529933,-8956.491898,0.000000,518.144159
1473.530245,-8808.450710,153.219100,444.123565
1473.530556,-8660.409521,459.657299,740.205942
1473.530868,-8438.347739,0.000000,666.185348
1473.531179,-8660.409521,-306.438199,740.205942
1473.531491,-8808.450710,-229.828649,518.144159
1473.531802,-8956.491898,0.000000,444.123565
1473.532114,-9104.533087,-153.219100,444.123565
1473.532425,-9030.512492,0.000000,592.164754
1473.532737,-8882.471304,0.000000,518.144159
1473.533048,-8808.450710,-766.095498,370.102971
1473.533360,-8734.430116,0.000000,518.144159
1473.533671,-9104.533087,76.609550,444.123565
1473.533982,-9030.512492,0.000000,518.144159
1473.534294,-9030.512492,0.000000,518.144159
1473.534605,-8956.491898,0.000000,444.123565
1473.534917,-9030.512492,0.000000,444.123565
1473.535228,-9030.512492,-383.047749,444.123565
1473.535540,-9030.512492,-153.219100,444.123565
1473.535851,-8586.388927,0.000000,666.185348
1473.536163,-8808.450710,0.000000,518.144159
1473.536474,-8808.450710,-383.047749,444.123565
1473.536786,-8956.491898,-229.828649,370.102971
1473.537097,-8956.491898,0.000000,518.144159
1473.537409,-8808.450710,229.828649,222.061783
1473.537720,-8734.430116,612.876398,666.185348
1473.538031,-9326.594869,306.438199,222.061783
1473.538343,-9030.512492,0.000000,-0.000000
1473.538654,-8808.450710,153.219100,592.164754
1473.538966,-8956.491898,0.000000,592.164754
1473.539277,-8956.491898,0.000000,666.185348
1473.539589,-9104.533087,0.000000,518.144159
1473.539900,-8808.450710,153.219100,296.082377
1473.540212,-8660.409521,76.609550,740.205942
1473.540523,-8734.430116,76.609550,518.144159
1473.540835,-8808.450710,-153.219100,518.144159
1473.541146,-8734.430116,76.609550,518.144159
1473.541458,-8882.471304,0.000000,592.164754
1473.541769,-9030.512492,-229.828649,666.185348
1473.542081,-8882.471304,-229.828649,518.144159
1473.542392,-9104.533087,-536.266849,592.164754
1473.542703,-8660.409521,0.000000,444.123565
1473.543015,-9030.512492,-536.266849,518.144159
1473.543326,-8956.491898,0.000000,148.041188
1473.543638,-8956.491898,76.609550,592.164754
1473.543949,-9030.512492,-229.828649,814.226536
1473.544261,-9178.553681,153.219100,592.164754
1473.544572,-9030.512492,153.219100,518.144159
1473.544884,-8882.471304,0.000000,444.123565
1473.545195,-8808.450710,153.219100,370.102971
1473.545507,-8364.327145,0.000000,444.123565
1473.545818,-8808.450710,0.000000,518.144159
1473.546130,-8808.450710,-153.219100,592.164754
1473.546441,-8956.491898,-229.828649,592.164754
1473.546753,-8882.471304,-153.219100,444.123565
1473.547064,-8882.471304,-306.438199,148.041188
1473.547375,-8660.409521,383.047749,666.185348
1473.547687,-8512.368333,0.000000,666.185348
1473.547998,-9178.553681,306.438199,-0.000000
1473.548310,-9104.533087,153.219100,592.164754
1473.548621,-9030.512492,0.000000,592.164754
1473.548933,-8956.491898,153.219100,518.144159
1473.549244,-8956.491898,76.609550,444.123565
1473.549556,-8734.430116,536.266849,444.123565
1473.549867,-8660.409521,76.609550,370.102971
1473.550179,-8290.306550,-306.438199,370.102971
1473.550490,-8882.471304,229.828649,592.164754
1473.550802,-9104.533087,-153.219100,370.102971
1473.551113,-8956.491898,0.000000,592.164754
1473.551425,-9030.512492,-153.219100,666.185348
1473.551736,-8956.491898,0.000000,814.226536
1473.552047,-8808.450710,0.000000,444.123565
1473.552359,-8660.409521,76.609550,444.123565
1473.552670,-9104.533087,0.000000,222.061783
1473.552982,-8734.430116,-229.828649,444.123565
1473.553293,-9548.656652,76.609550,518.144159
1473.553605,-11473.192101,689.485948,-0.000000
1473.553916,-11029.068536,3294.210641,444.123565
1473.554228,-8586.388927,4903.011187,444.123565
1473.554539,-7254.018232,3677.258390,666.185348
1473.554851,-6439.791695,383.047749,1332.370696
1473.555162,-7105.977043,-1455.581446,-296.082377
1473.555474,-7550.100608,-1149.143247,-0.000000
1473.555785,-8142.265362,-689.485948,-444.123565
1473.556096,-12213.398043,-995.924147,-1110.308913
1473.556408,-12435.459826,0.000000,-370.102971
1473.556719,-9992.780217,995.924147,444.123565
1473.557031,-8586.388927,-459.657299,1702.473667
1473.557342,-8808.450710,-306.438199,3108.864956
1473.557654,-11991.336260,612.876398,1258.350101
1473.557965,-7698.141797,4826.401637,2590.720797
1473.558277,-5255.462188,4979.620737,1776.494261
1473.558588,-7624.121203,3064.381992,592.164754
1473.558900,-7550.100608,2834.553343,-666.185348
1473.559211,-7772.162391,3907.087040,-2516.700203
1473.559523,-8882.471304,4290.134789,-814.226536
1473.559834,-8660.409521,3447.429741,-74.020594
1473.560146,-13101.645173,2221.676944,-1258.350101
1473.560457,-13323.706956,-1225.752797,1258.350101
1473.560768,-8068.244768,-1149.143247,2368.659014
1473.561080,-9918.759623,919.314598,814.226536
1473.561391,-8290.306550,5669.106685,2738.761985
1473.561703,-7920.203579,4903.011187,1554.432478
1473.562014,-7179.997637,2298.286494,2590.720797
1473.562326,-5921.647536,4443.353888,2590.720797
1473.562637,-7698.141797,6358.592633,592.164754
1473.562949,-8068.244768,6205.373534,-1184.329507
1473.563260,-8882.471304,4903.011187,-1110.308913
1473.563572,-9104.533087,4903.011187,-1702.473667
1473.563883,-10362.883188,5822.325785,-888.247130
1473.564195,-12361.439231,5745.716235,-74.020594
1473.564506,-11769.274478,4979.620737,1554.432478
1473.564818,-11177.109724,3753.867940,1924.535449
1473.565129,-8734.430116,5898.935335,3330.926739
1473.565440,-6809.894666,5822.325785,1110.308913
1473.565752,-5255.462188,5975.544884,-0.000000
1473.566063,-4441.235652,5132.839837,444.123565
1473.566375,-4663.297435,5439.278036,-444.123565
1473.566686,-6291.750507,4903.011187,-1036.288319
1473.566998,-7846.182985,4060.306139,-222.061783
1473.567309,-9696.697840,3064.381992,-370.102971
1473.567621,-10436.903782,1378.971896,962.267725
1473.567932,-10436.903782,306.438199,1184.329507
1473.568244,-11991.336260,-689.485948,1258.350101
1473.568555,-10584.944971,1378.971896,1776.494261
1473.568867,-9178.553681,2681.334243,1702.473667
1473.569178,-8438.347739,3524.039291,1702.473667
1473.569489,-6143.709319,3600.648841,-0.000000
1473.569801,-6291.750507,4213.525239,-148.041188
1473.570112,-6587.832884,3830.477490,-74.020594
1473.570424,-6513.812290,3830.477490,-740.205942
1473.570735,-7920.203579,1838.629195,-1110.308913
1473.571047,-9474.636058,-842.705048,-370.102971
1473.571358,-11103.089130,-2451.505594,370.102971
1473.571670,-11843.295072,-2911.162892,1110.308913
1473.571981,-12805.562797,-1532.190996,1184.329507
1473.572293,-13323.706956,-1302.362347,962.267725
1473.572604,-12509.480420,1532.190996,518.144159
1473.572916,-11177.109724,3064.381992,296.082377
1473.573227,-8142.265362,4596.572988,-296.082377
1473.573539,-6143.709319,4749.792088,444.123565
1473.573850,-5921.647536,4136.915689,740.205942
1473.574161,-5699.585753,4060.306139,888.247130
1473.574473,-8290.306550,2681.334243,-222.061783
1473.574784,-10214.842000,1838.629195,-148.041188
1473.575096,-12287.418637,766.095498,-666.185348
1473.575407,-13693.809927,76.609550,-518.144159
1473.575719,-14285.974681,-306.438199,-148.041188
1473.576030,-13693.809927,766.095498,296.082377
1473.576342,-11695.253884,2145.067394,1036.288319
1473.576653,-9400.615463,2834.553343,2220.617826
1473.576965,-7031.956449,3677.258390,2516.700203
1473.577276,-4293.194464,5286.058936,1554.432478
1473.577588,-2368.659014,6281.983084,444.123565
1473.577899,-1628.453072,6205.373534,-814.226536
1473.578211,-2590.720797,4749.792088,-1702.473667
1473.578522,-6957.935855,2911.162892,-1850.514855
1473.578833,-11029.068536,2374.896044,-962.267725
1473.579145,-14359.995275,3294.210641,-0.000000
1473.579456,-15766.386565,2604.724693,2664.741391
1473.579768,-14804.118840,2604.724693,3627.009116
1473.580079,-11843.295072,2374.896044,3775.050304
1473.580391,-6735.874072,3294.210641,2738.761985
1473.580702,-3478.967927,4519.963438,1184.329507
1473.581014,-1628.453072,7201.297681,-444.123565
1473.581325,-962.267725,7814.174080,-1998.556043
1473.581637,-3256.906145,6435.202183,-1924.535449
1473.581948,-6365.771101,4749.792088,-1554.432478
1473.582260,-8734.430116,2681.334243,-222.061783
1473.582571,-10955.047942,536.266849,518.144159
1473.582883,-12139.377449,-2451.505594,2220.617826
1473.583194,-13249.686362,-3677.258390,1924.535449
1473.583505,-13619.789333,-3370.820191,2072.576638
1473.583817,-12879.583391,383.047749,1110.308913
1473.584128,-12213.398043,3677.258390,1258.350101
1473.584440,-10881.027347,5209.449386,1554.432478
1473.584751,-8142.265362,6665.030833,1554.432478
1473.585063,-6143.709319,6511.811733,2072.576638
1473.585374,-5773.606348,4443.353888,222.061783
1473.585686,-6069.688724,3524.039291,-666.185348
1473.585997,-7254.018232,3524.039291,-2960.823768
1473.586309,-8808.450710,4673.182538,-3404.947333
1473.586620,-10881.027347,4060.306139,-2812.782580
1473.586932,-11917.315666,2681.334243,-962.267725
1473.587243,-12953.603985,1532.190996,1036.288319
1473.587554,-12879.583391,153.219100,2812.782580
1473.587866,-12953.603985,842.705048,3034.844362
1473.588177,-12065.356855,3217.601092,2368.659014
1473.588489,-9400.615463,6511.811733,1332.370696
1473.588800,-7105.977043,7277.907231,222.061783
1473.589112,-5995.668130,4979.620737,-1406.391290
1473.589423,-5403.503377,3753.867940,-1184.329507
1473.589735,-6587.832884,2681.334243,-1480.411884
1473.590046,-8068.244768,2221.676944,-444.123565
1473.590358,-8882.471304,1762.019645,518.144159
1473.590669,-9252.574275,-689.485948,1554.432478
1473.590981,-8142.265362,-2528.115143,2442.679609
1473.591292,-8068.244768,-2987.772442,1480.411884
1473.591604,-8068.244768,76.609550,962.267725
1473.591915,-9252.574275,4749.792088,-148.041188
1473.592226,-9844.739029,8503.660028,-814.226536
1473.592538,-9474.636058,9806.022374,-0.000000
1473.592849,-9400.615463,7507.735880,1184.329507
1473.593161,-9104.533087,5515.887586,1184.329507
1473.593472,-8882.471304,3600.648841,888.247130
1473.593784,-7624.121203,4290.134789,444.123565
1473.594095,-6365.771101,4290.134789,370.102971
1473.594407,-5329.482782,2068.457845,444.123565
1473.594718,-4959.379811,-1225.752797,-0.000000
1473.595030,-6365.771101,-2374.896044,-296.082377
1473.595341,-8216.285956,612.876398,-518.144159
1473.595652,-11843.295072,5286.058936,-888.247130
1473.595964,-13249.686362,7048.078582,148.041188
1473.596275,-13767.830521,6281.983084,1776.494261
1473.596586,-14211.954086,2298.286494,3627.009116
1473.596898,-12879.583391,1532.190996,3701.029710
1473.597209,-9474.636058,3677.258390,2590.720797
1473.597520,-5551.544565,3983.696590,1332.370696
1473.597832,-3256.906145,536.266849,592.164754
1473.598143,-3923.091493,-3907.087040,-666.185348
1473.598454,-5107.421000,-5056.230287,-1258.350101
1473.598766,-5921.647536,-1302.362347,-1480.411884
1473.599077,-8364.327145,3217.601092,-740.205942
1473.599388,-12805.562797,4443.353888,-74.020594
1473.599700,-15766.386565,2451.505594,1332.370696
1473.600011,-18135.045579,1608.800546,2368.659014
1473.600322,-15988.448347,5745.716235,3182.885551
1473.600634,-11399.171507,8963.317327,1998.556043
1473.600945,-7031.956449,7048.078582,-0.000000
1473.601256,-2812.782580,1378.971896,-0.000000
1473.601568,0.000000,-1685.410096,-1184.329507
1473.601879,814.226536,459.657299,-1036.288319
1473.602190,-2590.720797,3753.867940,-518.144159
1473.602502,-9252.574275,3064.381992,-444.123565
1473.602813,-14211.954086,1302.362347,814.226536
1473.603124,-16506.592507,2451.505594,518.144159
1473.603436,-15470.304188,5362.668486,-0.000000
1473.603747,-12509.480420,5056.230287,-592.164754
1473.604059,-11547.212695,3064.381992,-1554.432478
1473.604370,-9030.512492,1378.971896,-1480.411884
1473.604681,-4737.318029,2604.724693,-1110.308913
1473.604993,-4367.215058,3677.258390,740.205942
1473.605304,-6143.709319,1915.238745,1628.453072
1473.605615,-8216.285956,-1378.971896,3701.029710
1473.605927,-9400.615463,-1302.362347,3849.070898
1473.606238,-8882.471304,2451.505594,2886.803174
1473.606549,-9770.718434,6971.469032,-666.185348
1473.606861,-11103.089130,7660.954980,-3108.864956
1473.607172,-9252.574275,6818.249932,-4515.256246
1473.607483,-7179.997637,6588.421283,-4293.194464
1473.607795,-9252.574275,8120.612279,-2886.803174
1473.608106,-12731.542202,7660.954980,-518.144159
1473.608417,-14137.933492,4979.620737,2368.659014
1473.608729,-11399.171507,1072.533697,5255.462188
1473.609040,-8142.265362,-995.924147,5255.462188
1473.609351,-4811.338623,0.000000,2516.700203
1473.609663,-4145.153275,1149.143247,-666.185348
1473.609974,-1702.473667,2145.067394,-1036.288319
1473.610285,-1850.514855,3907.087040,-1924.535449
1473.610597,-9696.697840,5132.839837,-518.144159
1473.610908,-14804.118840,6588.421283,962.267725
1473.611219,-16654.633695,6281.983084,2590.720797
1473.611531,-14656.077652,4903.011187,4219.173869
1473.611842,-10510.924376,3524.039291,2146.597232
1473.612153,-6809.894666,2374.896044,-370.102971
1473.612465,-2590.720797,1455.581446,-1628.453072
1473.612776,-2812.782580,-1532.190996,-814.226536
1473.613087,-5255.462188,-1915.238745,740.205942
1473.613399,-6957.935855,-995.924147,2368.659014
1473.613710,-10955.047942,-2834.553343,3478.967927
1473.614021,-11843.295072,-4826.401637,4515.256246
1473.614333,-10362.883188,-3140.991542,2294.638420
1473.614644,-7476.080014,766.095498,-370.102971
1473.614955,-5033.400406,1608.800546,-592.164754
1473.615267,-8808.450710,536.266849,-1702.473667
1473.615578,-9918.759623,1762.019645,-222.061783
1473.615889,-11177.109724,1991.848295,1110.308913
1473.616201,-11769.274478,-536.266849,2664.741391
1473.616512,-10362.883188,-1149.143247,3034.844362
1473.616823,-9104.533087,1608.800546,1332.370696
1473.617135,-6513.812290,2068.457845,-0.000000
1473.617446,-5699.585753,383.047749,-1628.453072
1473.617757,-8586.388927,1838.629195,-1554.432478
1473.618069,-10436.903782,4213.525239,-1184.329507
1473.618380,-12509.480420,4213.525239,-1702.473667
1473.618691,-14063.912898,2987.772442,-2294.638420
1473.619003,-11991.336260,4903.011187,-2738.761985
1473.619314,-10807.006753,6281.983084,-2442.679609
1473.619626,-10140.821405,4673.182538,74.020594
1473.619937,-9548.656652,1072.533697,1332.370696
1473.620248,-9030.512492,-2221.676944,3701.029710
1473.620560,-9474.636058,-2374.896044,4219.173869
1473.620871,-8364.327145,-2374.896044,2368.659014
1473.621182,-5551.544565,-995.924147,-370.102971
1473.621494,-4441.235652,766.095498,-2590.720797
1473.621805,-4737.318029,2068.457845,-3849.070898
1473.622116,-8142.265362,2451.505594,-4737.318029
1473.622428,-12435.459826,1302.362347,-1628.453072
1473.622739,-13841.851115,-229.828649,2368.659014
1473.623050,-13989.892304,-2757.943793,3330.926739
1473.623362,-12731.542202,-3677.258390,3256.906145
1473.623673,-7772.162391,-2068.457845,3478.967927
1473.623984,-3478.967927,-1532.190996,2294.638420
1473.624296,-2442.679609,-1915.238745,1406.391290
1473.624607,-3627.009116,-995.924147,1480.411884
1473.624918,-5625.565159,-919.314598,1554.432478
1473.625230,-5847.626942,76.609550,2368.659014
1473.625541,-5773.606348,306.438199,1258.350101
1473.625852,-6291.750507,0.000000,-814.226536
1473.626164,-8068.244768,-229.828649,-2368.659014
1473.626475,-8882.471304,1149.143247,-1924.535449
1473.626786,-10955.047942,1608.800546,-0.000000
1473.627098,-15766.386565,-536.266849,962.267725
1473.627409,-15248.242405,-1225.752797,2738.761985
1473.627720,-13693.809927,-1915.238745,1776.494261
1473.628032,-10510.924376,-536.266849,2146.597232
1473.628343,-7328.038826,766.095498,2146.597232
1473.628654,-5625.565159,0.000000,-0.000000
1473.628966,-4589.276840,-1225.752797,1776.494261
1473.629277,-5329.482782,-1532.190996,1628.453072
1473.629588,-7105.977043,-306.438199,-592.164754
1473.629900,-8364.327145,1455.581446,-2590.720797
1473.630211,-11843.295072,1762.019645,-3404.947333
1473.630522,-13101.645173,1072.533697,-1702.473667
1473.630834,-14952.160028,1072.533697,-740.205942
1473.631145,-16580.613101,0.000000,2146.597232
1473.631456,-16580.613101,-2757.943793,4367.215058
1473.631768,-13323.706956,-3907.087040,4663.297435
1473.632079,-8808.450710,-2298.286494,3552.988522
1473.632390,-5625.565159,-919.314598,2146.597232
1473.632702,-3775.050304,536.266849,296.082377
1473.633013,-2960.823768,2451.505594,-2072.576638
1473.633324,-5477.523971,4519.963438,-2738.761985
1473.633636,-7179.997637,5056.230287,-1776.494261
1473.633947,-7772.162391,4213.525239,-2294.638420
1473.634259,-8216.285956,2911.162892,-1184.329507
1473.634570,-7328.038826,689.485948,814.226536
1473.634881,-8956.491898,-229.828649,888.247130
1473.635193,-9474.636058,-766.095498,1628.453072
1473.635504,-9918.759623,-229.828649,1850.514855
1473.635815,-10214.842000,-842.705048,2146.597232
1473.636127,-7254.018232,-1225.752797,1702.473667
1473.636438,-4959.379811,-2068.457845,296.082377
1473.636749,-4885.359217,-2451.505594,-740.205942
1473.637061,-3701.029710,-1915.238745,-0.000000
1473.637372,-5477.523971,-1378.971896,-814.226536
1473.637683,-8142.265362,-766.095498,962.267725
1473.637995,-10658.965565,-766.095498,962.267725
1473.638306,-11547.212695,-842.705048,444.123565
1473.638617,-11399.171507,383.047749,444.123565
1473.638929,-10436.903782,1685.410096,518.144159
1473.639240,-8956.491898,1302.362347,592.164754
1473.639551,-10362.883188,-1302.362347,148.041188
1473.639863,-9992.780217,-2451.505594,2072.576638
1473.640174,-9474.636058,-1762.019645,740.205942
1473.640485,-9178.553681,-1149.143247,-962.267725
1473.640797,-8586.388927,-536.266849,-2146.597232
1473.641108,-9770.718434,0.000000,-2960.823768
1473.641419,-9844.739029,1991.848295,-2368.659014
1473.641731,-10288.862594,1608.800546,-1406.391290
1473.642042,-12583.501014,995.924147,740.205942
1473.642353,-13249.686362,459.657299,2368.659014
1473.642665,-12361.439231,0.000000,2368.659014
1473.642976,-10510.924376,383.047749,2960.823768
1473.643287,-7846.182985,459.657299,2886.803174
1473.643599,-7550.100608,0.000000,814.226536
1473.643910,-7698.141797,-306.438199,-444.123565
1473.644221,-8068.244768,-766.095498,-444.123565
1473.644533,-8882.471304,-995.924147,-1628.453072
1473.644844,-9992.780217,383.047749,-2368.659014
1473.645155,-10658.965565,229.828649,-1702.473667
1473.645467,-11695.253884,-1378.971896,-0.000000
1473.645778,-10288.862594,-1838.629195,2146.597232
1473.646089,-9178.553681,-995.924147,3330.926739
1473.646401,-8956.491898,-1455.581446,3923.091493
1473.646712,-5773.606348,-1608.800546,3923.091493
1473.647023,-3034.844362,-612.876398,3034.844362
1473.647335,-1332.370696,-1302.362347,2590.720797
1473.647646,-740.205942,-1072.533697,296.082377
1473.647957,-3256.906145,-2757.943793,-740.205942
1473.648269,-7698.141797,-3370.820191,-1184.329507
1473.648580,-10955.047942,-1762.019645,444.123565
1473.648891,-12287.418637,0.000000,-962.267725
1473.649203,-13619.789333,-229.828649,-814.226536
1473.649514,-14211.954086,76.609550,518.144159
1473.649826,-12583.501014,1225.752797,888.247130
1473.650137,-9918.759623,2298.286494,2146.597232
1473.650448,-6143.709319,2987.772442,2960.823768
1473.650760,-4737.318029,3140.991542,4589.276840
1473.651071,-3997.112087,1838.629195,2664.741391
1473.651382,-2368.659014,766.095498,-222.061783
1473.651694,-3182.885551,766.095498,-2368.659014
1473.652005,-6069.688724,3370.820191,-4811.338623
1473.652316,-10584.944971,3830.477490,-4737.318029
1473.652628,-14137.933492,1532.190996,-2368.659014
1473.652939,-17912.983796,-1532.190996,-666.185348
1473.653250,-19393.395680,-1991.848295,1110.308913
1473.653562,-17024.736666,0.000000,1036.288319
1473.653873,-14656.077652,1838.629195,1406.391290
1473.654184,-10066.800811,2528.115143,3182.885551
1473.654496,-5551.544565,153.219100,3108.864956
1473.654807,-2960.823768,-995.924147,4589.276840
1473.655118,-3108.864956,-2298.286494,3404.947333
1473.655430,-4219.173869,-2451.505594,888.247130
1473.655741,-5625.565159,-766.095498,-2368.659014
1473.656052,-8808.450710,-383.047749,-3849.070898
1473.656364,-9918.759623,383.047749,-2368.659014
1473.656675,-11177.109724,-2221.676944,-814.226536
1473.656986,-13989.892304,-5209.449386,1776.494261
1473.657298,-14730.098246,-5745.716235,3404.947333
1473.657609,-13175.665768,-2528.115143,2664.741391
1473.657920,-11547.212695,995.924147,2442.679609
1473.658232,-7550.100608,3294.210641,2146.597232
1473.658543,-4515.256246,3140.991542,814.226536
1473.658854,-1110.308913,842.705048,2664.741391
1473.659166,2220.617826,-689.485948,2960.823768
1473.659477,592.164754,-1532.190996,1776.494261
1473.659788,-3034.844362,-2221.676944,-518.144159
1473.660100,-7476.080014,-1608.800546,-1998.556043
1473.660411,-10288.862594,-1225.752797,-1998.556043
1473.660722,-13101.645173,536.266849,-2072.576638
1473.661034,-15914.427753,1455.581446,-740.205942
1473.661345,-18061.024985,459.657299,-0.000000
1473.661656,-17542.880825,-459.657299,1702.473667
1473.661968,-14804.118840,306.438199,2368.659014
1473.662279,-9992.780217,2757.943793,2664.741391
1473.662590,-6143.709319,2298.286494,2664.741391
1473.662902,-2146.597232,229.828649,1036.288319
1473.663213,-518.144159,-459.657299,-1258.350101
1473.663524,-2738.761985,459.657299,-2368.659014
1473.663836,-6957.935855,1915.238745,-2368.659014
1473.664147,-10807.006753,1991.848295,-2738.761985
1473.664458,-14211.954086,0.000000,-1184.329507
1473.664770,-15618.345376,-306.438199,1184.329507
1473.665081,-14730.098246,-1149.143247,2220.617826
1473.665393,-12805.562797,-459.657299,2738.761985
1473.665704,-11843.295072,-1149.143247,2442.679609
1473.666015,-9696.697840,-919.314598,666.185348
1473.666327,-6365.771101,459.657299,-592.164754
1473.666638,-5699.585753,2145.067394,-1480.411884
1473.666949,-4515.256246,1838.629195,-592.164754
1473.667261,-4367.215058,-459.657299,-1184.329507
1473.667572,-6365.771101,-2911.162892,222.061783
1473.667883,-7476.080014,-2374.896044,3034.844362
1473.668195,-9252.574275,-2298.286494,2220.617826
1473.668506,-9548.656652,-1762.019645,2294.638420
1473.668817,-9918.759623,-1378.971896,1406.391290
1473.669129,-9326.594869,-76.609550,-222.061783
1473.669440,-8882.471304,2757.943793,-1406.391290
1473.669751,-8734.430116,4979.620737,-1628.453072
1473.670063,-9252.574275,3217.601092,-370.102971
1473.670374,-9326.594869,383.047749,592.164754
1473.670685,-7402.059420,-1915.238745,888.247130
1473.670997,-6143.709319,-919.314598,1036.288319
1473.671308,-5033.400406,-919.314598,1332.370696
1473.671619,-6735.874072,-1762.019645,222.061783
1473.671931,-8290.306550,-2145.067394,296.082377
1473.672242,-9474.636058,-1532.190996,2220.617826
1473.672553,-11473.192101,-1225.752797,2294.638420
1473.672865,-10658.965565,153.219100,2072.576638
1473.673176,-10881.027347,153.219100,1480.411884
1473.673487,-11029.068536,-536.266849,1480.411884
1473.673799,-9770.718434,-689.485948,1110.308913
1473.674110,-10584.944971,1072.533697,-296.082377
1473.674421,-11917.315666,995.924147,-0.000000
1473.674733,-10955.047942,0.000000,-0.000000
1473.675044,-9178.553681,-229.828649,-1406.391290
1473.675355,-8512.368333,536.266849,-296.082377
1473.675667,-8438.347739,689.485948,740.205942
1473.675978,-8660.409521,0.000000,2146.597232
1473.676289,-9696.697840,-306.438199,4145.153275
1473.676601,-10436.903782,0.000000,3923.091493
1473.676912,-7994.224174,1532.190996,2220.617826
1473.677223,-7031.956449,2145.067394,-148.041188
1473.677535,-4737.318029,2681.334243,-1036.288319
1473.677846,-3775.050304,689.485948,-2368.659014
1473.678157,-6513.812290,-995.924147,-2886.803174
1473.678469,-8956.491898,-1915.238745,-814.226536
1473.678780,-11103.089130,-3217.601092,592.164754
1473.679091,-11399.171507,-4060.306139,518.144159
1473.679403,-11103.089130,-3600.648841,962.267725
1473.679714,-11177.109724,-2834.553343,1554.432478
1473.680025,-11621.233289,-1838.629195,1406.391290
1473.680337,-9326.594869,459.657299,1924.535449
1473.680648,-8438.347739,2068.457845,2738.761985
1473.680960,-6809.894666,1302.362347,2886.803174
1473.681271,-5181.441594,689.485948,592.164754
1473.681582,-3552.988522,383.047749,-814.226536
1473.681894,-2368.659014,1302.362347,-1998.556043
1473.682205,-5255.462188,1455.581446,-2738.761985
1473.682516,-9844.739029,1455.581446,-3182.885551
1473.682828,-13101.645173,612.876398,-2368.659014
1473.683139,-15100.201217,-1149.143247,-444.123565
1473.683450,-14730.098246,0.000000,518.144159
1473.683762,-14878.139434,229.828649,370.102971
1473.684073,-13693.809927,1072.533697,814.226536
1473.684384,-10288.862594,2451.505594,2220.617826
1473.684696,-8438.347739,3677.258390,2442.679609
1473.685007,-6217.729913,4060.306139,3997.112087
1473.685318,-3997.112087,1838.629195,2294.638420
1473.685630,-4737.318029,153.219100,148.041188
1473.685941,-5107.421000,-842.705048,-370.102971
1473.686252,-6439.791695,0.000000,-2664.741391
1473.686564,-9326.594869,1149.143247,-1998.556043
1473.686875,-10288.862594,-459.657299,296.082377
1473.687186,-13915.871710,-4060.306139,2664.741391
1473.687498,-15396.283594,-5362.668486,3478.967927
1473.687809,-12139.377449,-2451.505594,3627.009116
1473.688120,-11473.192101,1302.362347,2072.576638
1473.688432,-8364.327145,2068.457845,2294.638420
1473.688743,-4515.256246,2987.772442,1850.514855
1473.689054,-2442.679609,1838.629195,888.247130
1473.689366,-1480.411884,459.657299,3330.926739
1473.689677,-1776.494261,-1455.581446,1776.494261
1473.689988,-2812.782580,-1915.238745,666.185348
1473.690300,-4589.276840,-2987.772442,222.061783
1473.690611,-7624.121203,-3217.601092,-148.041188
1473.690922,-9770.718434,-3447.429741,-370.102971
1473.691234,-12879.583391,-2757.943793,148.041188
1473.691545,-15100.201217,-3370.820191,1850.514855
1473.691856,-15914.427753,-2604.724693,1184.329507
1473.692168,-15248.242405,842.705048,444.123565
1473.692479,-12361.439231,3600.648841,-148.041188
1473.692790,-10214.842000,4749.792088,-444.123565
1473.693102,-5329.482782,4060.306139,444.123565
1473.693413,-3923.091493,1455.581446,-0.000000
1473.693724,-3701.029710,153.219100,814.226536
1473.694036,-4145.153275,76.609550,-0.000000
1473.694347,-7254.018232,0.000000,-2072.576638
1473.694658,-10807.006753,-995.924147,-1480.411884
1473.694970,-13767.830521,-689.485948,-1110.308913
1473.695281,-15988.448347,306.438199,-1776.494261
1473.695593,-16432.571912,689.485948,-962.267725
1473.695904,-16580.613101,-612.876398,-518.144159
1473.696216,-14952.160028,-612.876398,-222.061783
1473.696527,-10881.027347,1225.752797,-222.061783
1473.696839,-7328.038826,1685.410096,444.123565
1473.697150,-5477.523971,1072.533697,296.082377
1473.697462,-3552.988522,766.095498,666.185348
1473.697773,-3108.864956,919.314598,1776.494261
1473.698085,-3997.112087,-612.876398,2590.720797
1473.698396,-6143.709319,-2374.896044,1554.432478
1473.698708,-7772.162391,-2374.896044,1184.329507
1473.699019,-9844.739029,-1762.019645,518.144159
1473.699330,-9770.718434,-536.266849,592.164754
1473.699642,-10214.842000,-689.485948,-740.205942
1473.699953,-11103.089130,-1838.629195,-0.000000
1473.700265,-11621.233289,-1915.238745,888.247130
1473.700576,-9252.574275,-383.047749,-370.102971
1473.700888,-7031.956449,1838.629195,-666.185348
1473.701199,-5477.523971,1225.752797,148.041188
1473.701511,-3923.091493,-153.219100,962.267725
1473.701822,-3552.988522,-1149.143247,2368.659014
1473.702134,-4145.153275,-2068.457845,4145.153275
1473.702445,-6439.791695,-1915.238745,4367.215058
1473.702757,-8290.306550,-1915.238745,2368.659014
1473.703068,-9770.718434,383.047749,592.164754
1473.703380,-11399.171507,842.705048,148.041188
1473.703691,-11029.068536,2068.457845,-1110.308913
1473.704003,-14359.995275,2298.286494,-1628.453072
1473.704314,-14582.057057,1915.238745,-222.061783
1473.704625,-12879.583391,306.438199,-148.041188
1473.704937,-11621.233289,306.438199,740.205942
1473.705248,-7550.100608,76.609550,962.267725
1473.705560,-6069.688724,-995.924147,-74.020594
1473.705871,-6069.688724,-1225.752797,740.205942
1473.706183,-5847.626942,689.485948,1480.411884
1473.706494,-9548.656652,1532.190996,1480.411884
1473.706806,-12657.521608,1455.581446,1776.494261
1473.707117,-12435.459826,1532.190996,1184.329507
1473.707429,-11695.253884,1685.410096,222.061783
1473.707740,-9696.697840,2528.115143,-370.102971
1473.708052,-8586.388927,2068.457845,-1258.350101
1473.708363,-8364.327145,229.828649,-1480.411884
1473.708675,-8882.471304,-1455.581446,666.185348
1473.708986,-8364.327145,-2221.676944,518.144159
1473.709297,-6439.791695,-2221.676944,-1406.391290
1473.709609,-7772.162391,-1225.752797,-740.205942
1473.709920,-7920.203579,-1915.238745,1554.432478
1473.710232,-7328.038826,-1915.238745,814.226536
1473.710543,-9104.533087,-1225.752797,2072.576638
1473.710855,-10584.944971,-919.314598,4441.235652
1473.711166,-9326.594869,-153.219100,4515.256246
1473.711478,-7476.080014,76.609550,2442.679609
1473.711789,-5107.421000,842.705048,1184.329507
1473.712101,-2368.659014,-383.047749,-962.267725
1473.712412,-2960.823768,229.828649,-2442.679609
1473.712724,-4885.359217,306.438199,-1480.411884
1473.713035,-8216.285956,-1608.800546,-1036.288319
1473.713347,-11325.150913,-3294.210641,-518.144159
1473.713658,-12287.418637,-1838.629195,-222.061783
1473.713969,-12879.583391,-306.438199,-74.020594
1473.714281,-11769.274478,383.047749,740.205942
1473.714592,-12287.418637,689.485948,-370.102971
1473.714904,-12953.603985,1838.629195,1480.411884
1473.715215,-11103.089130,2145.067394,3849.070898
1473.715527,-9104.533087,229.828649,2072.576638
1473.715838,-5551.544565,0.000000,740.205942
1473.716150,-4293.194464,0.000000,-1184.329507
1473.716461,-4885.359217,-766.095498,-1998.556043
1473.716773,-7105.977043,0.000000,-3701.029710
1473.717084,-13471.748144,153.219100,-3552.988522
1473.717396,-17172.777854,76.609550,-1184.329507
1473.717707,-16432.571912,0.000000,-0.000000
1473.718019,-15470.304188,383.047749,740.205942
1473.718330,-13249.686362,459.657299,1406.391290
1473.718642,-9770.718434,459.657299,1554.432478
1473.718953,-6957.935855,1149.143247,2590.720797
1473.719264,-3923.091493,1762.019645,3775.050304
1473.719576,-2368.659014,919.314598,4515.256246
1473.719887,-6661.853478,-2221.676944,370.102971
1473.720199,-4737.318029,-2068.457845,888.247130
1473.720510,-3108.864956,229.828649,-2590.720797
1473.720822,-5107.421000,459.657299,-1850.514855
1473.721133,-6069.688724,0.000000,-1406.391290
1473.721445,-11251.130318,-3907.087040,-0.000000
1473.721756,-14137.933492,-6818.249932,2960.823768
1473.722068,-12879.583391,-5056.230287,4589.276840
1473.722379,-11547.212695,-689.485948,2368.659014
1473.722691,-10510.924376,2221.676944,888.247130
1473.723002,-7846.182985,1991.848295,814.226536
1473.723314,-4367.215058,1378.971896,-296.082377
1473.723625,-3627.009116,1685.410096,2294.638420
1473.723936,-2812.782580,2221.676944,2368.659014
1473.724248,-2960.823768,-1378.971896,592.164754
1473.724559,-5033.400406,-536.266849,-592.164754
1473.724871,-8956.491898,-536.266849,-0.000000
1473.725182,-10288.862594,612.876398,-444.123565
1473.725494,-14063.912898,612.876398,-888.247130
1473.725805,-17394.839637,76.609550,740.205942
1473.726117,-16062.468941,76.609550,666.185348
1473.726428,-13323.706956,536.266849,148.041188
1473.726740,-10214.842000,76.609550,-222.061783
1473.727051,-8364.327145,306.438199,1110.308913
1473.727363,-6883.915261,995.924147,-0.000000
1473.727674,-5699.585753,2681.334243,-296.082377
1473.727986,-6143.709319,3064.381992,1184.329507
1473.728297,-7920.203579,1149.143247,592.164754
1473.728608,-8586.388927,612.876398,148.041188
1473.728920,-8734.430116,1149.143247,-888.247130
1473.729231,-11473.192101,1532.190996,-1406.391290
1473.729543,-12065.356855,1608.800546,-0.000000
1473.729854,-12139.377449,919.314598,148.041188
1473.730166,-13101.645173,-1225.752797,1258.350101
1473.730477,-11177.109724,-1532.190996,1554.432478
1473.730789,-8438.347739,1302.362347,74.020594
1473.731100,-6883.915261,2528.115143,-296.082377
1473.731412,-4885.359217,536.266849,-148.041188
1473.731723,-3701.029710,-229.828649,-1184.329507
1473.732035,-3849.070898,-1608.800546,666.185348
1473.732346,-4145.153275,-2221.676944,2516.700203
1473.732658,-7624.121203,-3830.477490,2960.823768
1473.732969,-9696.697840,-3600.648841,2886.803174
1473.733280,-9474.636058,-3064.381992,2664.741391
1473.733592,-9696.697840,-2298.286494,1924.535449
1473.733903,-9548.656652,-383.047749,888.247130
1473.734215,-11399.171507,766.095498,-962.267725
1473.734526,-10658.965565,383.047749,-518.144159
1473.734838,-9918.759623,0.000000,-518.144159
1473.735149,-8956.491898,842.705048,-888.247130
1473.735461,-7772.162391,2145.067394,-592.164754
1473.735772,-7105.977043,1915.238745,-0.000000
1473.736084,-5255.462188,383.047749,1332.370696
1473.736395,-5625.565159,-612.876398,1628.453072
1473.736707,-8068.244768,-766.095498,2072.576638
1473.737018,-9622.677246,-612.876398,740.205942
1473.737330,-10140.821405,0.000000,-740.205942
1473.737641,-11547.212695,1378.971896,-1554.432478
1473.737953,-12139.377449,2451.505594,-1184.329507
1473.738264,-11991.336260,2451.505594,-962.267725
1473.738575,-13619.789333,995.924147,-74.020594
1473.738887,-13101.645173,-383.047749,1554.432478
1473.739198,-11547.212695,-459.657299,222.061783
1473.739510,-8808.450710,-229.828649,-0.000000
1473.739821,-6365.771101,-536.266849,444.123565
1473.740133,-5847.626942,-1225.752797,148.041188
1473.740444,-6957.935855,-2145.067394,-370.102971
1473.740756,-8290.306550,-1378.971896,1554.432478
1473.741067,-9696.697840,-1149.143247,3034.844362
1473.741379,-10288.862594,0.000000,2368.659014
1473.741690,-9844.739029,0.000000,1258.350101
1473.742002,-8216.285956,-1685.410096,370.102971
1473.742313,-7698.141797,-995.924147,-148.041188
1473.742625,-5699.585753,1378.971896,-962.267725
1473.742936,-6661.853478,2221.676944,-1110.308913
1473.743247,-9770.718434,-383.047749,1036.288319
1473.743559,-8586.388927,-1455.581446,1480.411884
1473.743870,-7254.018232,-1532.190996,-74.020594
1473.744182,-6291.750507,-1762.019645,1110.308913
1473.744493,-5921.647536,-2298.286494,1258.350101
1473.744805,-7698.141797,-2451.505594,814.226536
1473.745116,-9918.759623,-1225.752797,1776.494261
1473.745428,-9400.615463,-306.438199,2516.700203
1473.745739,-8586.388927,459.657299,1480.411884
1473.746051,-8512.368333,1302.362347,962.267725
1473.746362,-7179.997637,1532.190996,740.205942
1473.746674,-6809.894666,842.705048,-592.164754
1473.746985,-8734.430116,1378.971896,-1036.288319
1473.747297,-10955.047942,1378.971896,-148.041188
1473.747608,-12361.439231,-612.876398,-370.102971
1473.747919,-11917.315666,-995.924147,-962.267725
1473.748231,-9622.677246,459.657299,-740.205942
1473.748542,-9696.697840,995.924147,-74.020594
1473.748854,-11029.068536,383.047749,-0.000000
1473.749165,-11177.109724,1455.581446,1036.288319
1473.749477,-11325.150913,2681.334243,2516.700203
1473.749788,-10658.965565,2911.162892,2294.638420
1473.750100,-9326.594869,2911.162892,148.041188
1473.750411,-6513.812290,3370.820191,-592.164754
1473.750723,-3701.029710,1608.800546,-1406.391290
1473.751034,-5329.482782,0.000000,-2146.597232
1473.751346,-9178.553681,-1072.533697,-1628.453072
1473.751657,-12287.418637,-1762.019645,-296.082377
1473.751969,-13841.851115,-2757.943793,1702.473667
1473.752280,-11843.295072,-2834.553343,1554.432478
1473.752592,-10288.862594,-1991.848295,888.247130
1473.752903,-10436.903782,-1838.629195,296.082377
1473.753214,-8216.285956,-995.924147,814.226536
1473.753526,-5921.647536,2068.457845,1554.432478
1473.753837,-7254.018232,1532.190996,3034.844362
1473.754149,-5699.585753,0.000000,4293.194464
1473.754460,-3330.926739,-2298.286494,1702.473667
1473.754772,-1998.556043,-2298.286494,370.102971
1473.755083,-2368.659014,-1149.143247,-0.000000
1473.755395,-5403.503377,-1225.752797,-1628.453072
1473.755706,-9474.636058,-1685.410096,-1702.473667
1473.756018,-12731.542202,-1991.848295,962.267725
1473.756329,-14285.974681,-2987.772442,1258.350101
1473.756641,-15174.221811,-1991.848295,962.267725
1473.756952,-14063.912898,-229.828649,814.226536
1473.757264,-11177.109724,766.095498,666.185348
1473.757575,-8734.430116,1685.410096,1036.288319
1473.757886,-6069.688724,3217.601092,1924.535449
1473.758198,-4737.318029,1838.629195,1924.535449
1473.758509,-3478.967927,383.047749,814.226536
1473.758821,-3701.029710,-919.314598,-0.000000
1473.759132,-6883.915261,-919.314598,-2294.638420
1473.759444,-9548.656652,842.705048,-2590.720797
1473.759755,-12805.562797,1225.752797,-2960.823768
1473.760067,-15544.324782,612.876398,-1110.308913
1473.760378,-17246.798449,-995.924147,1480.411884
1473.760690,-16950.716072,-1685.410096,2294.638420
1473.761001,-13841.851115,536.266849,1332.370696
1473.761313,-10362.883188,2374.896044,1628.453072
1473.761624,-6883.915261,2757.943793,1924.535449
1473.761936,-3997.112087,1685.410096,1184.329507
1473.762247,-2886.803174,1378.971896,1924.535449
1473.762558,-4737.318029,383.047749,814.226536
1473.762870,-5329.482782,-766.095498,518.144159
1473.763181,-4959.379811,0.000000,-592.164754
1473.763493,-7254.018232,-2834.553343,-1332.370696
1473.763804,-9030.512492,-3524.039291,-222.061783
1473.764116,-11325.150913,-3217.601092,222.061783
1473.764427,-13249.686362,-1838.629195,740.205942
1473.764739,-14063.912898,-1149.143247,1776.494261
1473.765050,-13323.706956,-1302.362347,888.247130
1473.765362,-10955.047942,919.314598,-148.041188
1473.765673,-8142.265362,3830.477490,814.226536
1473.765985,-2738.761985,3140.991542,592.164754
1473.766296,-1480.411884,1225.752797,2072.576638
1473.766608,-2220.617826,-2757.943793,2368.659014
1473.766919,-2294.638420,-4060.306139,1924.535449
1473.767231,-5255.462188,-2451.505594,-148.041188
1473.767542,-7772.162391,-1072.533697,-1776.494261
1473.767853,-11473.192101,0.000000,-1850.514855
1473.768165,-14878.139434,0.000000,-1850.514855
1473.768476,-14359.995275,1838.629195,-740.205942
1473.768788,-15396.283594,1991.848295,1332.370696
1473.769099,-15544.324782,0.000000,2294.638420
1473.769411,-12731.542202,459.657299,2664.741391
1473.769722,-7846.182985,2221.676944,518.144159
1473.770034,-4071.132681,3677.258390,296.082377
1473.770345,-2960.823768,2757.943793,-296.082377
1473.770657,-4293.194464,1455.581446,-1776.494261
1473.770968,-6661.853478,612.876398,-962.267725
1473.771280,-10288.862594,0.000000,-0.000000
1473.771591,-12509.480420,-459.657299,-740.205942
1473.771903,-12953.603985,0.000000,370.102971
1473.772214,-12361.439231,-1455.581446,370.102971
1473.772525,-10807.006753,-1149.143247,740.205942
1473.772837,-10214.842000,-459.657299,-0.000000
1473.773148,-11251.130318,995.924147,1110.308913
1473.773460,-9844.739029,1455.581446,1998.556043
1473.773771,-8586.388927,1072.533697,1258.350101
1473.774083,-6513.812290,-229.828649,1480.411884
1473.774394,-4515.256246,-1225.752797,888.247130
1473.774706,-3256.906145,-1991.848295,1110.308913
1473.775017,-5551.544565,-2528.115143,888.247130
1473.775329,-7476.080014,-2834.553343,2146.597232
1473.775640,-10066.800811,-3140.991542,1850.514855
1473.775952,-10955.047942,-3140.991542,1850.514855
1473.776263,-8956.491898,-2604.724693,1924.535449
1473.776575,-9030.512492,-1608.800546,222.061783
1473.776886,-7772.162391,459.657299,-74.020594
1473.777197,-8142.265362,1608.800546,-888.247130
1473.777509,-9918.759623,1225.752797,666.185348
1473.777820,-7550.100608,612.876398,1258.350101
1473.778132,-7031.956449,-229.828649,-0.000000
1473.778443,-7328.038826,76.609550,-0.000000
1473.778755,-6069.688724,76.609550,1258.350101
1473.779066,-6069.688724,-766.095498,148.041188
1473.779378,-8660.409521,-1225.752797,-0.000000
1473.779689,-11325.150913,-766.095498,1850.514855
1473.780001,-12657.521608,306.438199,592.164754
1473.780312,-12139.377449,1838.629195,-296.082377
1473.780624,-12065.356855,2068.457845,-1110.308913
1473.780935,-10436.903782,1991.848295,-518.144159
1473.781247,-10066.800811,1991.848295,-1332.370696
1473.781558,-10436.903782,1532.190996,-296.082377
1473.781870,-10436.903782,-766.095498,592.164754
1473.782181,-10732.986159,-1762.019645,444.123565
1473.782492,-8808.450710,76.609550,-296.082377
1473.782804,-7920.203579,536.266849,-814.226536
1473.783115,-9178.553681,76.609550,-370.102971
1473.783427,-8882.471304,766.095498,1110.308913
1473.783738,-10436.903782,229.828649,1850.514855
1473.784050,-11177.109724,-229.828649,2664.741391
1473.784361,-9770.718434,-153.219100,1702.473667
1473.784673,-8068.244768,1608.800546,-518.144159
1473.784984,-5033.400406,1915.238745,-962.267725
1473.785296,-3256.906145,1608.800546,-1850.514855
1473.785607,-4293.194464,306.438199,-2146.597232
1473.785919,-6587.832884,-1302.362347,-592.164754
1473.786230,-9474.636058,-3524.039291,1332.370696
1473.786542,-10658.965565,-4749.792088,2590.720797
1473.786853,-10510.924376,-5056.230287,2072.576638
1473.787164,-10510.924376,-3600.648841,2442.679609
1473.787476,-9696.697840,-1072.533697,1850.514855
1473.787787,-9992.780217,995.924147,666.185348
1473.788099,-9918.759623,2987.772442,1480.411884
1473.788410,-8586.388927,2834.553343,1702.473667
1473.788722,-6957.935855,2221.676944,296.082377
1473.789033,-4737.318029,2298.286494,-518.144159
1473.789345,-2146.597232,689.485948,-518.144159
1473.789656,-3923.091493,459.657299,-962.267725
1473.789968,-7550.100608,459.657299,-1998.556043
1473.790279,-10955.047942,-229.828649,-888.247130
1473.790591,-13767.830521,-2451.505594,444.123565
1473.790902,-14434.015869,-2757.943793,962.267725
1473.791214,-14285.974681,-919.314598,592.164754
1473.791525,-14656.077652,842.705048,148.041188
1473.791836,-11843.295072,766.095498,1332.370696
1473.792148,-9696.697840,1608.800546,1850.514855
1473.792459,-8290.306550,2068.457845,2590.720797
1473.792771,-6735.874072,1762.019645,2886.803174
1473.793082,-6439.791695,76.609550,1628.453072
1473.793394,-4145.153275,0.000000,444.123565
1473.793705,-5181.441594,0.000000,-2294.638420
1473.794017,-7031.956449,0.000000,-3108.864956
1473.794328,-9326.594869,-229.828649,-2072.576638
1473.794640,-12583.501014,-2451.505594,518.144159
1473.794951,-14434.015869,-3753.867940,2368.659014
1473.795262,-15470.304188,-2987.772442,2516.700203
1473.795574,-14285.974681,-612.876398,2960.823768
1473.795885,-11547.212695,1608.800546,2516.700203
1473.796197,-7031.956449,2987.772442,444.123565
1473.796508,-2886.803174,3830.477490,-0.000000
1473.796819,-1850.514855,2145.067394,1332.370696
1473.797131,-740.205942,153.219100,1702.473667
1473.797442,-444.123565,-536.266849,370.102971
1473.797753,-2442.679609,-2221.676944,444.123565
1473.798065,-5477.523971,-3600.648841,148.041188
1473.798376,-9178.553681,-3370.820191,-592.164754
1473.798688,-12213.398043,-1915.238745,-370.102971
1473.798999,-15322.262999,-2298.286494,296.082377
1473.799310,-16284.530724,-3217.601092,1850.514855
1473.799622,-16506.592507,-2221.676944,518.144159
1473.799933,-13249.686362,1991.848295,-0.000000
1473.800245,-9474.636058,3447.429741,1332.370696
1473.800556,-6957.935855,2451.505594,1406.391290
1473.800867,-2960.823768,1762.019645,1702.473667
1473.801179,-1332.370696,1532.190996,1110.308913
1473.801490,-1702.473667,612.876398,888.247130
1473.801802,-4293.194464,766.095498,-2146.597232
1473.802113,-9326.594869,1455.581446,-2886.803174
1473.802424,-12805.562797,1915.238745,-2738.761985
1473.802736,-15248.242405,1532.190996,-1628.453072
1473.803047,-16506.592507,766.095498,518.144159
1473.803359,-16284.530724,-383.047749,1480.411884
1473.803670,-16580.613101,-1608.800546,1110.308913
1473.803981,-12213.398043,0.000000,962.267725
1473.804293,-8586.388927,1838.629195,-0.000000
1473.804604,-4885.359217,2374.896044,814.226536
1473.804915,-3627.009116,612.876398,1184.329507
1473.805227,-5329.482782,-995.924147,2220.617826
1473.805538,-5921.647536,-1608.800546,2220.617826
1473.805850,-6809.894666,-536.266849,1110.308913
1473.806161,-8660.409521,-612.876398,222.061783
1473.806472,-9622.677246,-2068.457845,962.267725
1473.806784,-9696.697840,-3140.991542,-0.000000
1473.807095,-9252.574275,-2451.505594,592.164754
1473.807407,-10066.800811,-383.047749,1184.329507
1473.807718,-11029.068536,-306.438199,888.247130
1473.808029,-10584.944971,0.000000,740.205942
1473.808341,-7698.141797,459.657299,-148.041188
1473.808652,-4589.276840,995.924147,370.102971
1473.808964,-4145.153275,0.000000,-0.000000
1473.809275,-3627.009116,-995.924147,1036.288319
1473.809586,-4515.256246,-2528.115143,1184.329507
1473.809898,-6661.853478,-3830.477490,3256.906145
1473.810209,-8364.327145,-3217.601092,2146.597232
1473.810520,-10214.842000,-766.095498,1184.329507
1473.810832,-12509.480420,383.047749,296.082377
1473.811143,-12065.356855,1685.410096,-518.144159
1473.811455,-10881.027347,3677.258390,-1332.370696
1473.811766,-12509.480420,2987.772442,-814.226536
1473.812077,-13397.727550,689.485948,814.226536
1473.812389,-10362.883188,-766.095498,-0.000000
1473.812700,-7476.080014,995.924147,-74.020594
1473.813012,-7402.059420,995.924147,-0.000000
1473.813323,-6513.812290,-153.219100,-74.020594
1473.813634,-7179.997637,306.438199,-814.226536
1473.813946,-9252.574275,1225.752797,592.164754
1473.814257,-10140.821405,689.485948,1406.391290
1473.814569,-12213.398043,0.000000,518.144159
1473.814880,-12879.583391,1838.629195,148.041188
1473.815191,-9474.636058,3983.696590,370.102971
1473.815503,-7920.203579,3447.429741,-1184.329507
1473.815814,-8882.471304,2298.286494,-592.164754
1473.816125,-7920.203579,536.266849,1406.391290
1473.816437,-9178.553681,-2451.505594,-148.041188
1473.816748,-8216.285956,-1838.629195,-0.000000
1473.817060,-6809.894666,0.000000,-740.205942
1473.817371,-7328.038826,-1608.800546,-888.247130
1473.817682,-8512.368333,-3217.601092,888.247130
1473.817994,-9178.553681,-3447.429741,1924.535449
1473.818305,-10140.821405,-2221.676944,3478.967927
1473.818617,-11547.212695,-766.095498,5255.462188
1473.818928,-11029.068536,459.657299,4441.235652
1473.819239,-8290.306550,-306.438199,1924.535449
1473.819551,-3775.050304,306.438199,-0.000000
1473.819862,-962.267725,2221.676944,-1924.535449
1473.820174,-1850.514855,1685.410096,-2960.823768
1473.820485,-5773.606348,-766.095498,-1776.494261
1473.820796,-8956.491898,-3140.991542,-74.020594
1473.821108,-11177.109724,-3677.258390,-0.000000
1473.821419,-12657.521608,-2374.896044,-296.082377
1473.821730,-13915.871710,-536.266849,888.247130
1473.822042,-14211.954086,-459.657299,666.185348
1473.822353,-13101.645173,1532.190996,814.226536
1473.822665,-11399.171507,3140.991542,2516.700203
1473.822976,-9770.718434,2681.334243,2442.679609
1473.823287,-6587.832884,1762.019645,1702.473667
1473.823599,-2812.782580,1915.238745,962.267725
1473.823910,-2516.700203,1072.533697,-296.082377
1473.824222,-4071.132681,-153.219100,-1776.494261
1473.824533,-9622.677246,-459.657299,-2738.761985
1473.824844,-15692.365970,-995.924147,-2590.720797
1473.825156,-15692.365970,-689.485948,-888.247130
1473.825467,-15248.242405,-919.314598,-148.041188
1473.825779,-16358.551318,-1532.190996,444.123565
1473.826090,-12953.603985,-306.438199,2368.659014
1473.826401,-10288.862594,306.438199,1406.391290
1473.826713,-7105.977043,1302.362347,3923.091493
1473.827024,-3478.967927,3217.601092,5107.421000
1473.827335,-4589.276840,1608.800546,2738.761985
1473.827647,-2368.659014,229.828649,370.102971
1473.827958,-1258.350101,383.047749,-2590.720797
1473.828270,-1554.432478,1072.533697,-3478.967927
1473.828581,-4737.318029,612.876398,-4219.173869
1473.828892,-9326.594869,-1762.019645,-1850.514855
1473.829204,-14137.933492,-4903.011187,1850.514855
1473.829515,-15914.427753,-6128.763984,3701.029710
1473.829827,-15618.345376,-4290.134789,2812.782580
1473.830138,-14656.077652,-536.266849,1702.473667
1473.830449,-12435.459826,2068.457845,518.144159
1473.830761,-6513.812290,3370.820191,-1184.329507
1473.831072,-3997.112087,4366.744339,-666.185348
1473.831384,-2072.576638,2834.553343,1776.494261
1473.831695,-1258.350101,0.000000,2072.576638
1473.832006,-1184.329507,-2528.115143,1924.535449
1473.832318,-2368.659014,-2374.896044,888.247130
1473.832629,-6513.812290,-1302.362347,-814.226536
1473.832940,-11695.253884,229.828649,-1184.329507
1473.833252,-16654.633695,153.219100,-1110.308913
1473.833563,-18653.189738,-383.047749,-0.000000
1473.833875,-18061.024985,306.438199,148.041188
1473.834186,-16728.654289,995.924147,-592.164754
1473.834497,-13619.789333,1455.581446,-444.123565
1473.834809,-9548.656652,612.876398,-592.164754
1473.835120,-5995.668130,229.828649,444.123565
1473.835432,-2294.638420,459.657299,1850.514855
1473.835743,-1480.411884,-383.047749,3108.864956
1473.836054,-2442.679609,-1072.533697,1628.453072
1473.836366,-5477.523971,-1225.752797,-222.061783
1473.836677,-8438.347739,153.219100,-1776.494261
1473.836989,-11621.233289,1302.362347,-888.247130
1473.837300,-16062.468941,1149.143247,-518.144159
1473.837611,-16802.674883,306.438199,2072.576638
1473.837923,-16284.530724,-842.705048,1110.308913
1473.838234,-13619.789333,-612.876398,1924.535449
1473.838545,-8734.430116,919.314598,-444.123565
1473.838857,-5625.565159,1685.410096,-1332.370696
1473.839168,-2738.761985,1608.800546,-2220.617826
1473.839480,-296.082377,229.828649,-592.164754
1473.839791,-888.247130,-995.924147,814.226536
1473.840102,-3182.885551,-3064.381992,3775.050304
1473.840414,-5329.482782,-4213.525239,4145.153275
1473.840725,-7105.977043,-4979.620737,4219.173869
1473.841037,-9992.780217,-3217.601092,4145.153275
1473.841348,-12361.439231,-1378.971896,3330.926739
1473.841659,-13027.624579,153.219100,814.226536
1473.841971,-13767.830521,919.314598,-296.082377
1473.842282,-12287.418637,1455.581446,-888.247130
1473.842594,-9622.677246,2145.067394,-2146.597232
1473.842905,-7846.182985,3753.867940,-1628.453072
1473.843216,-6957.935855,1685.410096,-814.226536
1473.843528,-5921.647536,-612.876398,-1406.391290
1473.843839,-4589.276840,-689.485948,1332.370696
1473.844150,-5551.544565,-842.705048,2738.761985
1473.844462,-7105.977043,-2374.896044,1998.556043
1473.844773,-8364.327145,-2451.505594,370.102971
1473.845085,-10732.986159,-766.095498,222.061783
1473.845396,-13323.706956,1608.800546,666.185348
1473.845707,-14211.954086,4366.744339,-370.102971
1473.846019,-15544.324782,3600.648841,-1332.370696
1473.846330,-15396.283594,2451.505594,1110.308913
1473.846642,-12213.398043,995.924147,1554.432478
1473.846953,-9104.533087,306.438199,-1258.350101
1473.847264,-6883.915261,766.095498,-1406.391290
1473.847576,-4811.338623,-1455.581446,-888.247130
1473.847887,-4737.318029,-995.924147,-888.247130
1473.848199,-8216.285956,0.000000,-740.205942
1473.848510,-10881.027347,459.657299,1258.350101
1473.848821,-11251.130318,-306.438199,2368.659014
1473.849133,-11325.150913,153.219100,3034.844362
1473.849444,-10807.006753,459.657299,3627.009116
1473.849755,-7476.080014,612.876398,2516.700203
1473.850067,-6143.709319,1072.533697,666.185348
1473.850378,-4885.359217,1302.362347,-370.102971
1473.850690,-3997.112087,1378.971896,-1406.391290
1473.851001,-4959.379811,229.828649,-1998.556043
1473.851312,-5403.503377,-1455.581446,-1554.432478
1473.851624,-7254.018232,-2834.553343,-1110.308913
1473.851935,-7920.203579,-2681.334243,222.061783
1473.852247,-9992.780217,-2068.457845,518.144159
1473.852558,-11621.233289,-2604.724693,2220.617826
1473.852869,-12583.501014,-2911.162892,3849.070898
1473.853181,-13989.892304,-1608.800546,2590.720797
1473.853492,-10362.883188,1762.019645,1998.556043
1473.853804,-7402.059420,2757.943793,148.041188
1473.854115,-4959.379811,2451.505594,1184.329507
1473.854426,-3404.947333,1685.410096,-222.061783
1473.854738,-6291.750507,-1225.752797,-1110.308913
1473.855049,-7772.162391,-1838.629195,444.123565
1473.855360,-9178.553681,-919.314598,-1258.350101
1473.855672,-10955.047942,153.219100,-1776.494261
1473.855983,-12435.459826,-842.705048,-1184.329507
1473.856295,-14063.912898,-1762.019645,-666.185348
1473.856606,-13471.748144,0.000000,-296.082377
1473.856917,-14063.912898,1762.019645,962.267725
1473.857229,-13619.789333,2451.505594,2886.803174
1473.857540,-11029.068536,1149.143247,1998.556043
1473.857852,-7105.977043,-306.438199,1776.494261
1473.858163,-2146.597232,0.000000,1480.411884
1473.858474,-3034.844362,-229.828649,-0.000000
1473.858786,-6513.812290,-229.828649,-962.267725
1473.859097,-9400.615463,-919.314598,-1406.391290
1473.859409,-12139.377449,-995.924147,-814.226536
1473.859720,-12731.542202,-536.266849,148.041188
1473.860031,-12805.562797,-1455.581446,-0.000000
1473.860343,-13619.789333,-3753.867940,296.082377
1473.860654,-10362.883188,-2757.943793,1332.370696
1473.860965,-9326.594869,536.266849,888.247130
1473.861277,-9474.636058,2528.115143,1776.494261
1473.861588,-6587.832884,3370.820191,1776.494261
1473.861900,-4959.379811,689.485948,888.247130
1473.862211,740.205942,-766.095498,1702.473667
1473.862522,2812.782580,-842.705048,1332.370696
1473.862834,-1628.453072,-2145.067394,222.061783
1473.863145,-5995.668130,-3600.648841,1184.329507
1473.863457,-11103.089130,-4060.306139,1702.473667
1473.863768,-14211.954086,-1991.848295,1998.556043
1473.864079,-14878.139434,229.828649,962.267725
1473.864391,-16580.613101,383.047749,-888.247130
1473.864702,-14952.160028,1149.143247,-0.000000
1473.865014,-11029.068536,4366.744339,-740.205942
1473.865325,-7179.997637,4903.011187,-370.102971
1473.865636,-5625.565159,3830.477490,2368.659014
1473.865948,-3404.947333,1762.019645,3627.009116
1473.866259,-962.267725,-689.485948,2368.659014
1473.866570,-1332.370696,-1838.629195,-370.102971
1473.866882,-4367.215058,-612.876398,-1110.308913
1473.867193,-9918.759623,1225.752797,-4145.153275
1473.867505,-14656.077652,1762.019645,-3330.926739
1473.867816,-17764.942608,-536.266849,-962.267725
1473.868127,-19541.436869,-1762.019645,962.267725
1473.868439,-18875.251521,-536.266849,1998.556043
1473.868750,-15618.345376,842.705048,962.267725
1473.869062,-11843.295072,2221.676944,1184.329507
1473.869373,-6291.750507,2987.772442,1258.350101
1473.869684,-2886.803174,2451.505594,1332.370696
1473.869996,-1998.556043,2681.334243,888.247130
1473.870307,-3330.926739,229.828649,518.144159
1473.870619,-3849.070898,-1378.971896,-148.041188
1473.870930,-5551.544565,-2681.334243,-518.144159
1473.871241,-8882.471304,-3064.381992,222.061783
1473.871553,-11843.295072,-3217.601092,1036.288319
1473.871864,-14582.057057,-3907.087040,1850.514855
1473.872175,-14730.098246,-3370.820191,2294.638420
1473.872487,-14508.036463,-3447.429741,1332.370696
1473.872798,-11325.150913,0.000000,592.164754
1473.873110,-7254.018232,3983.696590,-814.226536
1473.873421,-4959.379811,4673.182538,-0.000000
1473.873732,-2368.659014,3064.381992,-962.267725
1473.874044,-1998.556043,919.314598,74.020594
1473.874355,-1850.514855,0.000000,1702.473667
1473.874667,-1332.370696,-1378.971896,2220.617826
1473.874978,-3034.844362,-2757.943793,296.082377
1473.875289,-7476.080014,-3447.429741,962.267725
1473.875601,-12583.501014,-3677.258390,962.267725
1473.875912,-14878.139434,-2068.457845,814.226536
1473.876224,-16580.613101,-306.438199,1184.329507
1473.876535,-16728.654289,-229.828649,2072.576638
1473.876846,-14211.954086,-2604.724693,1924.535449
1473.877158,-10066.800811,-2451.505594,222.061783
1473.877469,-4959.379811,-2528.115143,370.102971
1473.877780,-2812.782580,-2451.505594,148.041188
1473.878092,-3182.885551,-2604.724693,-296.082377
1473.878403,-5921.647536,-3524.039291,-0.000000
1473.878715,-7402.059420,-3830.477490,592.164754
1473.879026,-9030.512492,-4136.915689,-0.000000
1473.879337,-10584.944971,-1915.238745,518.144159
1473.879649,-11917.315666,-1378.971896,814.226536
1473.879960,-13101.645173,-2528.115143,1554.432478
1473.880272,-12953.603985,-1685.410096,1406.391290
1473.880583,-11917.315666,-383.047749,1036.288319
1473.880894,-10288.862594,-612.876398,888.247130
1473.881206,-9474.636058,-1991.848295,-1036.288319
1473.881517,-7105.977043,-919.314598,-2664.741391
1473.881829,-4885.359217,-689.485948,-3775.050304
1473.882140,-4737.318029,-2451.505594,-1998.556043
1473.882451,-7624.121203,-4673.182538,-74.020594
1473.882763,-9918.759623,-5515.887586,1554.432478
1473.883074,-11621.233289,-5975.544884,4293.194464
1473.883386,-13027.624579,-6818.249932,4589.276840
1473.883697,-12731.542202,-6052.154434,2960.823768
1473.884008,-9696.697840,-766.095498,222.061783
1473.884320,-4885.359217,842.705048,-592.164754
1473.884631,-4071.132681,-1378.971896,-888.247130
1473.884942,-5551.544565,-2834.553343,-888.247130
1473.885254,-6809.894666,-2068.457845,-518.144159
1473.885565,-7179.997637,-3140.991542,666.185348
1473.885877,-7550.100608,-6128.763984,1110.308913
1473.886188,-8216.285956,-5745.716235,-666.185348
1473.886499,-7105.977043,-4136.915689,-814.226536
1473.886811,-7698.141797,-4443.353888,-444.123565
1473.887122,-9474.636058,-5362.668486,2590.720797
1473.887434,-13915.871710,-3983.696590,3552.988522
1473.887745,-14211.954086,-1991.848295,4441.235652
1473.888056,-11843.295072,-2834.553343,3701.029710
1473.888368,-8956.491898,-2987.772442,2368.659014
1473.888679,-5847.626942,-536.266849,-1332.370696
1473.888991,-1480.411884,1072.533697,-4219.173869
1473.889302,-1554.432478,-1225.752797,-3330.926739
1473.889613,-6661.853478,-3217.601092,-1406.391290
1473.889925,-12583.501014,-2911.162892,370.102971
1473.890236,-15988.448347,-2757.943793,1776.494261
1473.890547,-15322.262999,-4519.963438,3034.844362
1473.890859,-13175.665768,-5286.058936,2738.761985
1473.891170,-11251.130318,-3140.991542,296.082377
1473.891482,-7624.121203,-229.828649,-1628.453072
1473.891793,-6143.709319,-459.657299,-1702.473667
1473.892104,-7624.121203,-153.219100,592.164754
1473.892416,-9474.636058,842.705048,1850.514855
1473.892727,-10362.883188,0.000000,2368.659014
1473.893039,-9548.656652,-2068.457845,2294.638420
1473.893350,-5329.482782,-2298.286494,1702.473667
1473.893661,-4071.132681,-766.095498,-518.144159
1473.893973,-4293.194464,-2068.457845,-2072.576638
1473.894284,-5551.544565,-4673.182538,-1554.432478
1473.894596,-7254.018232,-5286.058936,1406.391290
1473.894907,-9474.636058,-4903.011187,2886.803174
1473.895218,-14359.995275,-6971.469032,3552.988522
1473.895530,-14656.077652,-8273.831378,3775.050304
1473.895841,-11769.274478,-6052.154434,3552.988522
1473.896152,-7254.018232,-4979.620737,2220.617826
1473.896464,-3701.029710,-5209.449386,148.041188
1473.896775,-3849.070898,-7814.174080,-1258.350101
1473.897087,-3552.988522,-7890.783629,-1998.556043
1473.897398,-3404.947333,-5286.058936,-1258.350101
1473.897709,-5033.400406,-2451.505594,-0.000000
1473.898021,-10436.903782,-2604.724693,962.267725
1473.898332,-13397.727550,-5669.106685,3552.988522
1473.898643,-13323.706956,-5515.887586,3997.112087
1473.898955,-12953.603985,-1302.362347,2590.720797
1473.899266,-11695.253884,2528.115143,222.061783
1473.899578,-10658.965565,919.314598,-2442.679609
1473.899889,-8290.306550,-919.314598,-3775.050304
1473.900200,-5921.647536,306.438199,-4811.338623
1473.900512,-7031.956449,1378.971896,-4663.297435
1473.900823,-9326.594869,1532.190996,-2516.700203
1473.901134,-11473.192101,153.219100,148.041188
1473.901446,-12879.583391,-2451.505594,2368.659014
1473.901757,-13545.768739,-4903.011187,3108.864956
1473.902069,-12213.398043,-4136.915689,2960.823768
1473.902380,-9400.615463,-1072.533697,1998.556043
1473.902691,-6957.935855,-842.705048,148.041188
1473.903003,-4737.318029,-3830.477490,-1036.288319
1473.903314,-4293.194464,-5286.058936,-2886.803174
1473.903625,-6661.853478,-4443.353888,-1184.329507
1473.903937,-8660.409521,-4749.792088,-222.061783
1473.904248,-10955.047942,-3370.820191,962.267725
1473.904559,-14211.954086,-3064.381992,1258.350101
1473.904871,-13027.624579,-4136.915689,2886.803174
1473.905182,-10362.883188,-4519.963438,2442.679609
1473.905494,-9178.553681,-3677.258390,2664.741391
1473.905805,-7698.141797,-1915.238745,2368.659014
1473.906116,-6661.853478,-2604.724693,2442.679609
1473.906428,-4663.297435,-1302.362347,1258.350101
1473.906739,-3256.906145,-995.924147,888.247130
1473.907050,-1258.350101,-2298.286494,-148.041188
1473.907362,-2072.576638,-3753.867940,-1406.391290
1473.907673,-4441.235652,-3064.381992,-1998.556043
1473.907984,-7846.182985,-2374.896044,-1924.535449
1473.908296,-12287.418637,-1225.752797,-370.102971
1473.908607,-13915.871710,0.000000,1702.473667
1473.908919,-15322.262999,-2604.724693,3701.029710
1473.909230,-15470.304188,-4673.182538,4737.318029
1473.909541,-12583.501014,-4290.134789,4145.153275
1473.909853,-8586.388927,-3064.381992,2664.741391
1473.910164,-4663.297435,-3370.820191,592.164754
1473.910475,-1332.370696,-4366.744339,-740.205942
1473.910787,-1480.411884,-4903.011187,-1850.514855
1473.911098,-2072.576638,-5362.668486,-1924.535449
1473.911410,-4071.132681,-5209.449386,-1702.473667
1473.911721,-8512.368333,-4903.011187,-666.185348
1473.912032,-12583.501014,-4903.011187,888.247130
1473.912344,-15692.365970,-5439.278036,1924.535449
1473.912655,-17690.922014,-5362.668486,3404.947333
1473.912966,-17098.757260,-5439.278036,3701.029710
1473.913278,-14063.912898,-4443.353888,3034.844362
1473.913589,-12065.356855,-4060.306139,1924.535449
1473.913900,-8586.388927,-4519.963438,592.164754
1473.914212,-4737.318029,-5362.668486,222.061783
1473.914523,-3182.885551,-5439.278036,-888.247130
1473.914835,-3034.844362,-4749.792088,-2072.576638
1473.915146,-5181.441594,-3753.867940,-3330.926739
1473.915457,-8068.244768,-1532.190996,-2368.659014
1473.915769,-11473.192101,-459.657299,-2146.597232
1473.916080,-13323.706956,0.000000,-592.164754
1473.916391,-14730.098246,0.000000,592.164754
1473.916703,-14804.118840,-766.095498,1184.329507
1473.917014,-12287.418637,-1915.238745,1850.514855
1473.917326,-9622.677246,-2145.067394,370.102971
1473.917637,-6365.771101,-2221.676944,148.041188
1473.917948,-4293.194464,-1149.143247,-740.205942
1473.918260,-5551.544565,-1532.190996,-666.185348
1473.918571,-5107.421000,-1532.190996,-518.144159
1473.918882,-5033.400406,-1149.143247,-1332.370696
1473.919194,-5551.544565,-1378.971896,-1036.288319
1473.919505,-6365.771101,-2528.115143,-666.185348
1473.919816,-7994.224174,-2681.334243,592.164754
1473.920128,-7772.162391,-3753.867940,1554.432478
1473.920439,-10658.965565,-4213.525239,2072.576638
1473.920751,-11399.171507,-3907.087040,2664.741391
1473.921062,-11843.295072,-2145.067394,2220.617826
1473.921373,-11621.233289,-1915.238745,2442.679609
1473.921685,-8660.409521,-2528.115143,1776.494261
1473.921996,-6587.832884,-2757.943793,1036.288319
1473.922307,-4885.359217,-2374.896044,-0.000000
1473.922619,-4737.318029,-2911.162892,-1036.288319
1473.922930,-4663.297435,-2681.334243,-296.082377
1473.923242,-5329.482782,-3294.210641,-444.123565
1473.923553,-6365.771101,-2911.162892,148.041188
1473.923864,-8882.471304,-4366.744339,814.226536
1473.924176,-10881.027347,-5056.230287,1776.494261
1473.924487,-12583.501014,-5669.106685,2516.700203
1473.924798,-12805.562797,-6052.154434,3627.009116
1473.925110,-12805.562797,-6358.592633,2664.741391
1473.925421,-12287.418637,-3677.258390,2220.617826
1473.925732,-11695.253884,-2221.676944,222.061783
1473.926044,-9696.697840,-536.266849,-0.000000
1473.926355,-7772.162391,1378.971896,-592.164754
1473.926667,-6883.915261,2221.676944,-740.205942
1473.926978,-6217.729913,612.876398,-740.205942
1473.927289,-6661.853478,-766.095498,-222.061783
1473.927601,-7254.018232,-1455.581446,592.164754
1473.927912,-8586.388927,-3753.867940,666.185348
1473.928223,-10584.944971,-4903.011187,888.247130
1473.928535,-12213.398043,-5515.887586,1332.370696
1473.928846,-12805.562797,-5822.325785,1184.329507
1473.929157,-12657.521608,-6205.373534,1406.391290
1473.929469,-11399.171507,-7048.078582,1036.288319
1473.929780,-9474.636058,-4979.620737,592.164754
1473.930092,-7105.977043,-5439.278036,666.185348
1473.930403,-5921.647536,-4826.401637,148.041188
1473.930714,-5995.668130,-3064.381992,148.041188
1473.931026,-5033.400406,-1991.848295,592.164754
1473.931337,-5403.503377,-1685.410096,740.205942
1473.931648,-5921.647536,-1532.190996,1258.350101
1473.931960,-8068.244768,-1915.238745,666.185348
1473.932271,-10288.862594,-2451.505594,518.144159
1473.932583,-10955.047942,-2604.724693,296.082377
1473.932894,-11399.171507,-2681.334243,-74.020594
1473.933205,-9992.780217,-2221.676944,-370.102971
1473.933517,-7772.162391,-1991.848295,-740.205942
1473.933828,-8586.388927,-2834.553343,-444.123565
1473.934139,-6217.729913,-1838.629195,296.082377
1473.934451,-5551.544565,-1532.190996,-74.020594
1473.934762,-6143.709319,-2757.943793,1184.329507
1473.935073,-8956.491898,-3600.648841,1110.308913
1473.935385,-10140.821405,-2834.553343,1480.411884
1473.935696,-10807.006753,-1762.019645,962.267725
1473.936008,-10510.924376,-1378.971896,1628.453072
1473.936319,-10658.965565,-2681.334243,962.267725
1473.936630,-10362.883188,-3677.258390,592.164754
1473.936942,-9992.780217,-3064.381992,962.267725
1473.937253,-9622.677246,-2528.115143,1628.453072
1473.937564,-10881.027347,-842.705048,1406.391290
1473.937876,-11843.295072,-689.485948,1332.370696
1473.938187,-10362.883188,-306.438199,2368.659014
1473.938499,-9326.594869,-1072.533697,1702.473667
1473.938810,-6587.832884,-306.438199,3256.906145
1473.939121,-7698.141797,-1225.752797,1776.494261
1473.939433,-7550.100608,-3064.381992,3330.926739
1473.939744,-8512.368333,-3907.087040,3849.070898
1473.940055,-9252.574275,-2298.286494,4515.256246
1473.940367,-10510.924376,-919.314598,5181.441594
1473.940678,-12805.562797,-1608.800546,4737.318029
1473.940989,-10214.842000,-1149.143247,5477.523971
1473.941301,-7179.997637,919.314598,3182.885551
1473.941612,-6513.812290,2451.505594,3330.926739
1473.941924,-5699.585753,2145.067394,2664.741391
1473.942235,-7179.997637,0.000000,2368.659014
1473.942546,-6883.915261,536.266849,4071.132681
1473.942858,-6291.750507,689.485948,4811.338623
1473.943169,-10510.924376,-919.314598,4441.235652
1473.943480,-11029.068536,-1149.143247,6883.915261
1473.943792,-10510.924376,-1608.800546,6069.688724
1473.944103,-8142.265362,-2221.676944,6513.812290
1473.944415,-7846.182985,-1378.971896,5773.606348
1473.944726,-8068.244768,-459.657299,5181.441594
1473.945037,-6365.771101,153.219100,4885.359217
1473.945349,-6143.709319,153.219100,4071.132681
1473.945660,-5773.606348,1762.019645,4441.235652
1473.945971,-7994.224174,2528.115143,3849.070898
1473.946283,-9030.512492,1915.238745,4663.297435
1473.946594,-8364.327145,1378.971896,4663.297435
1473.946905,-7254.018232,306.438199,4737.318029
1473.947217,-7846.182985,153.219100,4219.173869
1473.947528,-8512.368333,-1378.971896,4367.215058
1473.947840,-8290.306550,-2374.896044,4367.215058
1473.948151,-8216.285956,-459.657299,5255.462188
1473.948462,-8586.388927,536.266849,4219.173869
1473.948774,-10140.821405,919.314598,4293.194464
1473.949085,-10807.006753,1072.533697,3478.967927
1473.949396,-9030.512492,2757.943793,3997.112087
1473.949708,-8364.327145,2451.505594,2590.720797
1473.950019,-7402.059420,689.485948,2886.803174
1473.950330,-7846.182985,0.000000,1776.494261
1473.950642,-6809.894666,-459.657299,1776.494261
1473.950953,-6217.729913,-536.266849,2294.638420
1473.951265,-7846.182985,-1378.971896,2590.720797
1473.951576,-10214.842000,-1991.848295,3478.967927
1473.951887,-12213.398043,-612.876398,3701.029710
1473.952199,-12213.398043,-383.047749,4589.276840
1473.952510,-11769.274478,229.828649,3849.070898
1473.952821,-11473.192101,689.485948,3108.864956
1473.953133,-9844.739029,1455.581446,1480.411884
1473.953444,-8438.347739,1685.410096,666.185348
1473.953756,-7476.080014,2374.896044,592.164754
1473.954067,-7920.203579,995.924147,1406.391290
1473.954378,-9622.677246,-153.219100,3034.844362
1473.954690,-9844.739029,-2834.553343,3923.091493
1473.955001,-9770.718434,-2681.334243,4737.318029
1473.955312,-9030.512492,-2911.162892,5181.441594
1473.955624,-8512.368333,-3064.381992,4293.194464
1473.955935,-7772.162391,-2221.676944,2738.761985
1473.956246,-6069.688724,-612.876398,1554.432478
1473.956558,-6291.750507,536.266849,518.144159
1473.956869,-7920.203579,1225.752797,370.102971
1473.957181,-10066.800811,1685.410096,1110.308913
1473.957492,-11991.336260,2068.457845,2072.576638
1473.957803,-13027.624579,1532.190996,3849.070898
1473.958115,-12435.459826,383.047749,4515.256246
1473.958426,-11473.192101,-383.047749,4663.297435
1473.958737,-8512.368333,-383.047749,4367.215058
1473.959049,-4811.338623,-1149.143247,2886.803174
1473.959360,-2960.823768,-1149.143247,1702.473667
1473.959672,-3182.885551,-1455.581446,1406.391290
1473.959983,-6587.832884,-536.266849,1554.432478
1473.960294,-9474.636058,306.438199,3404.947333
1473.960606,-11991.336260,1991.848295,4737.318029
1473.960917,-14508.036463,2298.286494,5625.565159
1473.961228,-14285.974681,995.924147,5921.647536
1473.961540,-11843.295072,229.828649,5107.421000
1473.961851,-7179.997637,76.609550,4145.153275
1473.962162,-3997.112087,229.828649,2368.659014
1473.962474,-3108.864956,-229.828649,1110.308913
1473.962785,-2442.679609,-459.657299,888.247130
1473.963097,-4589.276840,-459.657299,1480.411884
1473.963408,-8364.327145,229.828649,2960.823768
1473.963719,-12509.480420,536.266849,4589.276840
1473.964031,-15544.324782,1149.143247,6217.729913
1473.964342,-14730.098246,1378.971896,6587.832884
1473.964653,-11325.150913,-229.828649,5921.647536
1473.964965,-8290.306550,-1378.971896,4515.256246
1473.965276,-5477.523971,-995.924147,3330.926739
1473.965587,-4589.276840,-689.485948,3108.864956
1473.965899,-5625.565159,-459.657299,4515.256246
1473.966210,-9400.615463,-612.876398,5847.626942
1473.966522,-11473.192101,-536.266849,7920.203579
1473.966833,-12583.501014,0.000000,7105.977043
1473.967144,-11473.192101,536.266849,6069.688724
1473.967456,-8364.327145,2451.505594,4145.153275
1473.967767,-6365.771101,2987.772442,1554.432478
1473.968078,-5329.482782,2374.896044,592.164754
1473.968390,-4959.379811,1991.848295,296.082377
1473.968701,-6883.915261,1685.410096,1702.473667
1473.969013,-9474.636058,689.485948,3478.967927
1473.969324,-11843.295072,-1532.190996,6291.750507
1473.969635,-13841.851115,-2451.505594,7550.100608
1473.969947,-13397.727550,-2145.067394,9178.553681
1473.970258,-11399.171507,-1225.752797,9104.533087
1473.970569,-8808.450710,-995.924147,7624.121203
1473.970881,-5773.606348,-766.095498,4663.297435
1473.971192,-2368.659014,1762.019645,1776.494261
1473.971503,592.164754,3217.601092,-518.144159
1473.971815,-814.226536,3830.477490,-1406.391290
1473.972126,-4737.318029,2911.162892,-74.020594
1473.972438,-8364.327145,1302.362347,1850.514855
1473.972749,-12509.480420,-612.876398,4589.276840
1473.973060,-15840.407159,-1302.362347,6809.894666
1473.973372,-17098.757260,-2451.505594,7920.203579
1473.973683,-16136.489536,-1838.629195,7550.100608
1473.973994,-11843.295072,-1302.362347,6291.750507
1473.974306,-8512.368333,-1455.581446,4811.338623
1473.974617,-5551.544565,-995.924147,3330.926739
1473.974929,-2960.823768,-383.047749,2368.659014
1473.975240,-1628.453072,229.828649,1480.411884
1473.975551,-2442.679609,306.438199,962.267725
1473.975863,-4515.256246,-153.219100,592.164754
1473.976174,-6439.791695,153.219100,444.123565
1473.976485,-10362.883188,-1149.143247,1036.288319
1473.976797,-14508.036463,-1608.800546,2960.823768
1473.977108,-17320.819043,-766.095498,5181.441594
1473.977419,-19171.333898,-689.485948,6291.750507
1473.977731,-17838.963202,-612.876398,6587.832884
1473.978042,-13619.789333,-612.876398,5625.565159
1473.978354,-8512.368333,-306.438199,4811.338623
1473.978665,-2960.823768,153.219100,2664.741391
1473.978976,518.144159,612.876398,-518.144159
1473.979288,1480.411884,1532.190996,-2220.617826
1473.979599,-444.123565,1915.238745,-2960.823768
1473.979910,-4737.318029,1072.533697,-2368.659014
1473.980222,-9474.636058,842.705048,222.061783
1473.980533,-14878.139434,153.219100,3701.029710
1473.980845,-19319.375086,-1378.971896,5255.462188
1473.981156,-19245.354492,-1455.581446,7994.224174
1473.981467,-17764.942608,-919.314598,8956.491898
1473.981779,-14582.057057,-1685.410096,9104.533087
1473.982090,-9548.656652,-2221.676944,6143.709319
1473.982401,-3552.988522,-1762.019645,1628.453072
1473.982713,2664.741391,536.266849,-2146.597232
1473.983024,5181.441594,1991.848295,-3849.070898
1473.983335,1332.370696,2451.505594,-4293.194464
1473.983647,-5847.626942,2451.505594,-2072.576638
1473.983958,-13027.624579,1225.752797,2368.659014
1473.984270,-19097.313304,919.314598,7254.018232
1473.984581,-21243.910535,536.266849,9622.677246
1473.984892,-17468.860231,-919.314598,9252.574275
1473.985204,-11621.233289,-2834.553343,6735.874072
1473.985515,-5107.421000,-2987.772442,3478.967927
1473.985826,444.123565,-689.485948,1258.350101
1473.986138,1850.514855,459.657299,-666.185348
1473.986449,-1702.473667,536.266849,592.164754
1473.986760,-7920.203579,76.609550,2368.659014
1473.987072,-12361.439231,1072.533697,3627.009116
1473.987383,-13249.686362,1915.238745,4811.338623
1473.987695,-11991.336260,2451.505594,5033.400406
1473.988006,-10140.821405,-842.705048,4219.173869
1473.988317,-9474.636058,-2221.676944,3404.947333
1473.988629,-9548.656652,-2068.457845,4589.276840
1473.988940,-9918.759623,-459.657299,5921.647536
1473.989251,-12287.418637,995.924147,7179.997637
1473.989563,-12139.377449,459.657299,7994.224174
1473.989874,-10214.842000,-995.924147,7105.977043
1473.990186,-6291.750507,-766.095498,5995.668130
1473.990497,-2812.782580,459.657299,3478.967927
1473.990808,-2294.638420,2374.896044,-444.123565
1473.991120,-2516.700203,2911.162892,-444.123565
1473.991431,-6069.688724,842.705048,222.061783
1473.991742,-9992.780217,383.047749,2442.679609
1473.992054,-12361.439231,919.314598,5255.462188
1473.992365,-14063.912898,153.219100,7846.182985
1473.992676,-14137.933492,-1838.629195,9400.615463
1473.992988,-11991.336260,-3217.601092,9474.636058
1473.993299,-8438.347739,-4749.792088,7476.080014
1473.993611,-5625.565159,-2374.896044,5477.523971
1473.993922,-4663.297435,766.095498,2812.782580
1473.994233,-3775.050304,2911.162892,222.061783
1473.994545,-3034.844362,4136.915689,-888.247130
1473.994856,-4145.153275,3524.039291,-666.185348
1473.995167,-6069.688724,1838.629195,814.226536
1473.995479,-8142.265362,-689.485948,2368.659014
1473.995790,-8808.450710,-1149.143247,3997.112087
1473.996102,-10214.842000,-1762.019645,4959.379811
1473.996413,-13101.645173,-2911.162892,4959.379811
1473.996724,-14656.077652,-1762.019645,5329.482782
1473.997036,-14137.933492,-536.266849,4293.194464
1473.997347,-12287.418637,-383.047749,3256.906145
1473.997658,-9548.656652,995.924147,518.144159
1473.997970,-7476.080014,2068.457845,-1258.350101
1473.998281,-4885.359217,2451.505594,-2738.761985
1473.998592,-3627.009116,1532.190996,-2812.782580
1473.998904,-5921.647536,1302.362347,-1184.329507
1473.999215,-7031.956449,-229.828649,-592.164754
1473.999526,-8142.265362,-2451.505594,-1628.453072
1473.999838,-7846.182985,-2987.772442,-1036.288319
1474.000149,-8512.368333,-1685.410096,-148.041188
1474.000460,-12953.603985,-1072.533697,740.205942
1474.000772,-17394.839637,-842.705048,1998.556043
1474.001083,-20503.704593,-1225.752797,3701.029710
1474.001394,-17912.983796,-842.705048,4145.153275
1474.001706,-11399.171507,-153.219100,1924.535449
1474.002017,-4293.194464,-229.828649,-3182.885551
1474.002329,2664.741391,612.876398,-7105.977043
1474.002640,5403.503377,612.876398,-9770.718434
1474.002951,2220.617826,1838.629195,-9548.656652
1474.003263,-6143.709319,1915.238745,-5773.606348
1474.003574,-13767.830521,76.609550,-0.000000
1474.003885,-20799.786970,-1608.800546,4737.318029
1474.004197,-23094.425390,-2145.067394,5847.626942
1474.004508,-18653.189738,-1762.019645,4885.359217
1474.004819,-11917.315666,-1915.238745,1258.350101
1474.005131,-6661.853478,-1455.581446,-1924.535449
1474.005442,-2294.638420,0.000000,-3849.070898
1474.005753,-1924.535449,-229.828649,-5181.441594
1474.006065,-4811.338623,-536.266849,-3478.967927
1474.006376,-7105.977043,-612.876398,-1184.329507
1474.006687,-10214.842000,-1072.533697,-370.102971
1474.006999,-11769.274478,-689.485948,1850.514855
1474.007310,-12435.459826,-612.876398,2664.741391
1474.007621,-13397.727550,-995.924147,2886.803174
1474.007933,-12583.501014,612.876398,3849.070898
1474.008244,-11399.171507,1225.752797,3330.926739
1474.008555,-9992.780217,0.000000,1998.556043
1474.008867,-7698.141797,1225.752797,1628.453072
1474.009178,-5403.503377,2374.896044,962.267725
1474.009490,-3923.091493,3217.601092,-222.061783
1474.009801,-5403.503377,2451.505594,-814.226536
1474.010112,-5995.668130,1608.800546,-0.000000
1474.010424,-6883.915261,0.000000,1258.350101
1474.010735,-8142.265362,-1455.581446,2072.576638
1474.011046,-8808.450710,-1762.019645,2516.700203
1474.011358,-9474.636058,-919.314598,2738.761985
1474.011669,-9548.656652,0.000000,3849.070898
1474.011980,-8734.430116,1455.581446,4219.173869
1474.012292,-9474.636058,459.657299,4959.379811
1474.012603,-9030.512492,-1378.971896,5255.462188
1474.012914,-7846.182985,-2681.334243,2738.761985
1474.013226,-5699.585753,229.828649,962.267725
1474.013537,-3330.926739,2681.334243,-1332.370696
1474.013848,-6217.729913,2528.115143,-2886.803174
1474.014160,-9400.615463,2987.772442,-1184.329507
1474.014471,-11621.233289,1455.581446,1406.391290
1474.014782,-11695.253884,-842.705048,2738.761985
1474.015094,-10955.047942,-3294.210641,2738.761985
1474.015405,-9104.533087,-2528.115143,3552.988522
1474.015716,-6143.709319,-2987.772442,3701.029710
1474.016028,-6661.853478,-2451.505594,2886.803174
1474.016339,-9844.739029,-383.047749,3108.864956
1474.016651,-11843.295072,612.876398,2590.720797
1474.016962,-11473.192101,0.000000,1628.453072
1474.017273,-6957.935855,1302.362347,-1184.329507
1474.017585,-3182.885551,1378.971896,-4441.235652
1474.017896,-3627.009116,536.266849,-5773.606348
1474.018207,-6069.688724,-229.828649,-4367.215058
1474.018519,-10658.965565,-1072.533697,-2516.700203
1474.018830,-15618.345376,-919.314598,1332.370696
1474.019141,-20133.601622,-995.924147,4663.297435
1474.019453,-19245.354492,-1149.143247,4885.359217
1474.019764,-14211.954086,-1762.019645,2960.823768
1474.020075,-7772.162391,-766.095498,-370.102971
1474.020387,-3256.906145,1149.143247,-2886.803174
1474.020698,-1628.453072,1762.019645,-3997.112087
1474.021009,-1258.350101,842.705048,-5181.441594
1474.021321,-2738.761985,306.438199,-5181.441594
1474.021632,-7550.100608,459.657299,-3478.967927
1474.021943,-10584.944971,995.924147,-2960.823768
1474.022255,-13249.686362,1149.143247,-2442.679609
1474.022566,-15026.180623,612.876398,-222.061783
1474.022877,-14656.077652,-306.438199,518.144159
1474.023189,-13693.809927,0.000000,1480.411884
1474.023500,-11917.315666,0.000000,1110.308913
1474.023812,-10362.883188,-153.219100,222.061783
1474.024123,-6735.874072,-612.876398,518.144159
1474.024434,-3997.112087,-153.219100,-962.267725
1474.024746,-3256.906145,76.609550,-1776.494261
1474.025057,-2368.659014,-383.047749,-2442.679609
1474.025368,-4737.318029,-689.485948,-2220.617826
1474.025680,-7254.018232,-766.095498,-1406.391290
1474.025991,-10066.800811,-1072.533697,-740.205942
1474.026302,-13693.809927,-1302.362347,962.267725
1474.026614,-14285.974681,-306.438199,3404.947333
1474.026925,-14359.995275,-919.314598,4293.194464
1474.027236,-12213.398043,-1378.971896,4589.276840
1474.027548,-10510.924376,-1762.019645,3997.112087
1474.027859,-9548.656652,-1532.190996,3330.926739
1474.028170,-7698.141797,76.609550,740.205942
1474.028482,-6883.915261,1838.629195,-518.144159
1474.028793,-6735.874072,2451.505594,148.041188
1474.029104,-5477.523971,766.095498,-592.164754
1474.029416,-3923.091493,76.609550,-1332.370696
1474.029727,-3330.926739,-1072.533697,-962.267725
1474.030038,-5551.544565,-1378.971896,888.247130
1474.030350,-10066.800811,-842.705048,3552.988522
1474.030661,-15100.201217,-536.266849,4293.194464
1474.030973,-17912.983796,229.828649,5625.565159
1474.031284,-18505.148550,842.705048,6291.750507
1474.031595,-14434.015869,1762.019645,5255.462188
1474.031907,-8512.368333,1762.019645,1480.411884
1474.032218,-3034.844362,1149.143247,-2368.659014
1474.032529,1480.411884,536.266849,-4737.318029
1474.032841,3182.885551,766.095498,-5181.441594
1474.033152,-370.102971,766.095498,-3701.029710
1474.033463,-7031.956449,1149.143247,-666.185348
1474.033775,-12879.583391,0.000000,2072.576638
1474.034086,-15470.304188,0.000000,4441.235652
1474.034397,-14878.139434,383.047749,4441.235652
1474.034709,-12139.377449,0.000000,3034.844362
1474.035020,-9474.636058,383.047749,1332.370696
1474.035331,-7179.997637,383.047749,-0.000000
1474.035643,-6291.750507,-153.219100,-1480.411884
1474.035954,-7328.038826,76.609550,-148.041188
1474.036265,-8438.347739,-689.485948,444.123565
1474.036577,-8364.327145,-1915.238745,-444.123565
1474.036888,-7179.997637,-2068.457845,-1258.350101
1474.037200,-6513.812290,-1378.971896,-222.061783
1474.037511,-5995.668130,-1302.362347,-740.205942
1474.037822,-7772.162391,-1225.752797,-148.041188
1474.038134,-10214.842000,-1455.581446,2146.597232
1474.038445,-12361.439231,-2221.676944,3034.844362
1474.038756,-13545.768739,-1455.581446,2886.803174
1474.039068,-12805.562797,612.876398,2368.659014
1474.039379,-10584.944971,2068.457845,1406.391290
1474.039690,-9918.759623,612.876398,592.164754
1474.040002,-9400.615463,229.828649,-222.061783
1474.040313,-9178.553681,0.000000,-1776.494261
1474.040624,-7994.224174,612.876398,-1628.453072
1474.040936,-6291.750507,459.657299,-2442.679609
1474.041247,-5625.565159,229.828649,-2960.823768
1474.041558,-5477.523971,1225.752797,-1702.473667
1474.041870,-7179.997637,383.047749,-0.000000
1474.042181,-10214.842000,-306.438199,2368.659014
1474.042492,-13101.645173,-612.876398,4145.153275
1474.042804,-14656.077652,-306.438199,3997.112087
1474.043115,-13693.809927,153.219100,2664.741391
1474.043426,-10584.944971,766.095498,592.164754
1474.043738,-7105.977043,1302.362347,-2220.617826
1474.044049,-4737.318029,766.095498,-4071.132681
1474.044361,-3108.864956,1302.362347,-3775.050304
1474.044672,-3775.050304,306.438199,-2812.782580
1474.044983,-7179.997637,-459.657299,-740.205942
1474.045295,-9104.533087,-1378.971896,1036.288319
1474.045606,-10140.821405,-995.924147,2294.638420
1474.045917,-11621.233289,306.438199,2812.782580
1474.046229,-13693.809927,842.705048,4071.132681
1474.046540,-13619.789333,766.095498,4441.235652
1474.046851,-11843.295072,-1378.971896,3256.906145
1474.047163,-7402.059420,-2757.943793,1480.411884
1474.047474,-2516.700203,-2834.553343,-2516.700203
1474.047785,-814.226536,-1149.143247,-4145.153275
1474.048097,-3256.906145,-612.876398,-2368.659014
1474.048408,-8660.409521,-1149.143247,-962.267725
1474.048719,-13915.871710,-1915.238745,1702.473667
1474.049031,-17468.860231,-1072.533697,5181.441594
1474.049342,-15840.407159,-1685.410096,5625.565159
1474.049653,-11695.253884,-1455.581446,2738.761985
1474.049965,-7994.224174,-306.438199,-0.000000
1474.050276,-4663.297435,0.000000,-1850.514855
1474.050587,-3330.926739,919.314598,-2442.679609
1474.050899,-5255.462188,1149.143247,-1258.350101
1474.051210,-9548.656652,995.924147,592.164754
1474.051522,-12287.418637,-383.047749,2294.638420
1474.051833,-12879.583391,-459.657299,1628.453072
1474.052144,-9474.636058,1685.410096,592.164754
1474.052456,-6069.688724,2221.676944,-1258.350101
1474.052767,-6217.729913,2374.896044,-1924.535449
1474.053078,-5847.626942,1685.410096,-1480.411884
1474.053390,-8068.244768,1608.800546,-1998.556043
1474.053701,-10658.965565,2757.943793,-370.102971
1474.054012,-11621.233289,2145.067394,1998.556043
1474.054324,-11695.253884,383.047749,2220.617826
1474.054635,-10214.842000,-1225.752797,2220.617826
1474.054946,-9474.636058,-1685.410096,1406.391290
1474.055258,-6883.915261,-1149.143247,1406.391290
1474.055569,-5181.441594,-229.828649,-74.020594
1474.055880,-5329.482782,-1532.190996,-1702.473667
1474.056192,-5625.565159,-1532.190996,-1110.308913
1474.056503,-6883.915261,0.000000,-0.000000
1474.056814,-9178.553681,1685.410096,1184.329507
1474.057126,-12065.356855,1149.143247,2516.700203
1474.057437,-14063.912898,306.438199,4885.359217
1474.057748,-14508.036463,-612.876398,5033.400406
1474.058060,-13619.789333,-2298.286494,4515.256246
1474.058371,-9918.759623,-2451.505594,2886.803174
1474.058683,-6217.729913,-1149.143247,-0.000000
1474.058994,-3034.844362,-306.438199,-1924.535449
1474.059305,-1628.453072,-842.705048,-1924.535449
1474.059617,-3404.947333,-1991.848295,-1036.288319
1474.059928,-6513.812290,-1915.238745,370.102971
1474.060239,-8660.409521,-995.924147,1406.391290
1474.060551,-11473.192101,919.314598,3330.926739
1474.060862,-14730.098246,1378.971896,4367.215058
1474.061173,-16728.654289,2145.067394,4737.318029
1474.061485,-14804.118840,1302.362347,2146.597232
1474.061796,-10214.842000,1762.019645,962.267725
1474.062107,-6217.729913,1378.971896,222.061783
1474.062419,-4663.297435,-995.924147,-1924.535449
1474.062730,-3256.906145,-1685.410096,-2220.617826
1474.063041,-4885.359217,-1072.533697,-962.267725
1474.063353,-6957.935855,-995.924147,-0.000000
1474.063664,-7624.121203,612.876398,148.041188
1474.063975,-8882.471304,1072.533697,-222.061783
1474.064287,-9400.615463,919.314598,222.061783
1474.064598,-9992.780217,383.047749,-370.102971
1474.064909,-9030.512492,995.924147,-0.000000
1474.065221,-9178.553681,2757.943793,-1554.432478
1474.065532,-10140.821405,2528.115143,-1628.453072
1474.065844,-11177.109724,2528.115143,-0.000000
1474.066155,-12805.562797,612.876398,1406.391290
1474.066466,-11843.295072,-842.705048,1850.514855
1474.066778,-8512.368333,-2451.505594,-74.020594
1474.067089,-4441.235652,-1378.971896,-2220.617826
1474.067400,-3552.988522,842.705048,-1702.473667
1474.067712,-5921.647536,-153.219100,-1998.556043
1474.068023,-7624.121203,-1302.362347,-1702.473667
1474.068334,-10362.883188,-766.095498,-0.000000
1474.068646,-11029.068536,-995.924147,1332.370696
1474.068957,-10955.047942,-919.314598,1924.535449
1474.069268,-11769.274478,-1685.410096,1480.411884
1474.069580,-12139.377449,-1685.410096,2294.638420
1474.069891,-13397.727550,-2145.067394,1998.556043
1474.070202,-11695.253884,-2068.457845,2146.597232
1474.070514,-10732.986159,-153.219100,1110.308913
1474.070825,-9548.656652,-689.485948,296.082377
1474.071136,-7328.038826,-766.095498,-0.000000
1474.071448,-5551.544565,-229.828649,-2072.576638
1474.071759,-3478.967927,1302.362347,-1480.411884
1474.072070,-4071.132681,1302.362347,-222.061783
1474.072382,-6661.853478,536.266849,888.247130
1474.072693,-9844.739029,536.266849,2072.576638
1474.073005,-12509.480420,-459.657299,2664.741391
1474.073316,-11991.336260,-612.876398,3552.988522
1474.073627,-10955.047942,1072.533697,2590.720797
1474.073939,-9696.697840,2451.505594,1110.308913
1474.074250,-9104.533087,1072.533697,1036.288319
1474.074561,-7550.100608,-842.705048,1036.288319
1474.074873,-5181.441594,-842.705048,-592.164754
1474.075184,-4219.173869,1685.410096,-2368.659014
1474.075495,-5033.400406,2221.676944,-2220.617826
1474.075807,-7031.956449,2451.505594,-1480.411884
1474.076118,-9400.615463,1302.362347,-814.226536
1474.076429,-10066.800811,1762.019645,740.205942
1474.076741,-9770.718434,1072.533697,2738.761985
1474.077052,-9992.780217,-919.314598,2960.823768
1474.077363,-10436.903782,-2911.162892,2664.741391
1474.077675,-10658.965565,-3294.210641,2220.617826
1474.077986,-9252.574275,-2145.067394,1554.432478
1474.078297,-8956.491898,-842.705048,1628.453072
1474.078609,-9400.615463,-306.438199,1036.288319
1474.078920,-8734.430116,-995.924147,592.164754
1474.079231,-7772.162391,-1072.533697,-592.164754
1474.079543,-7698.141797,689.485948,-814.226536
1474.079854,-7994.224174,689.485948,-370.102971
1474.080166,-7772.162391,0.000000,-370.102971
1474.080477,-9400.615463,0.000000,-0.000000
1474.080788,-10066.800811,-919.314598,1332.370696
1474.081100,-12583.501014,-1302.362347,2516.700203
1474.081411,-13249.686362,-1302.362347,3552.988522
1474.081722,-10807.006753,-1838.629195,2738.761985
1474.082034,-9696.697840,-1915.238745,1332.370696
1474.082345,-8364.327145,-536.266849,1776.494261
1474.082656,-8808.450710,536.266849,1480.411884
1474.082968,-8142.265362,229.828649,-888.247130
1474.083279,-6069.688724,383.047749,-1554.432478
1474.083590,-4367.215058,1455.581446,-1998.556043
1474.083902,-5625.565159,2451.505594,-1480.411884
1474.084213,-9030.512492,2068.457845,-444.123565
1474.084524,-11991.336260,995.924147,-0.000000
1474.084836,-13249.686362,612.876398,1628.453072
1474.085147,-10955.047942,1225.752797,3701.029710
1474.085458,-9326.594869,-689.485948,2294.638420
1474.085770,-8216.285956,-3217.601092,-0.000000
1474.086081,-5107.421000,-2068.457845,-1628.453072
1474.086392,-2442.679609,1149.143247,-3775.050304
1474.086704,-2590.720797,2757.943793,-3627.009116
1474.087015,-6735.874072,2451.505594,-2442.679609
1474.087327,-10658.965565,0.000000,-1554.432478
1474.087638,-12213.398043,766.095498,-0.000000
1474.087949,-13027.624579,1072.533697,1480.411884
1474.088261,-12065.356855,1685.410096,1258.350101
1474.088572,-10658.965565,842.705048,814.226536
1474.088883,-8290.306550,-1302.362347,-0.000000
1474.089195,-5107.421000,-2528.115143,-0.000000
1474.089506,-5033.400406,-2068.457845,-666.185348
1474.089817,-7698.141797,-1532.190996,-444.123565
1474.090129,-9326.594869,-1455.581446,592.164754
1474.090440,-10658.965565,-2451.505594,296.082377
1474.090751,-11621.233289,-2604.724693,148.041188
1474.091063,-11843.295072,-1072.533697,-296.082377
1474.091374,-11695.253884,995.924147,-518.144159
1474.091685,-11547.212695,919.314598,-592.164754
1474.091997,-10955.047942,76.609550,-0.000000
1474.092308,-11399.171507,229.828649,1702.473667
1474.092619,-12953.603985,-1225.752797,2812.782580
1474.092931,-11991.336260,-1072.533697,3478.967927
1474.093242,-9622.677246,-536.266849,3256.906145
1474.093553,-7105.977043,-536.266849,1702.473667
1474.093865,-6217.729913,0.000000,222.061783
1474.094176,-5625.565159,-1225.752797,-1332.370696
1474.094488,-4885.359217,-459.657299,-2220.617826
1474.094799,-5033.400406,459.657299,-2368.659014
1474.095110,-6661.853478,1378.971896,-1998.556043
1474.095422,-10362.883188,2374.896044,-814.226536
1474.095733,-13249.686362,1991.848295,1998.556043
1474.096044,-14804.118840,919.314598,4145.153275
1474.096356,-13323.706956,842.705048,5403.503377
1474.096667,-11103.089130,1149.143247,4145.153275
1474.096978,-9400.615463,766.095498,2072.576638
1474.097290,-4219.173869,-919.314598,740.205942
1474.097601,0.000000,766.095498,-2368.659014
1474.097913,592.164754,2451.505594,-3775.050304
1474.098224,-2738.761985,2374.896044,-2886.803174
1474.098535,-8216.285956,1225.752797,-0.000000
1474.098847,-11843.295072,689.485948,1998.556043
1474.099158,-13619.789333,153.219100,3997.112087
1474.099470,-11769.274478,-1838.629195,3775.050304
1474.099781,-8290.306550,-2528.115143,1924.535449
1474.100092,-6143.709319,-1455.581446,2368.659014
1474.100404,-6883.915261,-919.314598,1998.556043
1474.100715,-9918.759623,-1838.629195,3034.844362
1474.101027,-11843.295072,-2374.896044,2960.823768
1474.101338,-11473.192101,-1378.971896,3034.844362
1474.101650,-8142.265362,-1302.362347,2072.576638
1474.101961,-4737.318029,-383.047749,-0.000000
1474.102272,-3775.050304,-766.095498,-2368.659014
1474.102584,-3552.988522,-612.876398,-2886.803174
1474.102895,-5403.503377,-919.314598,-1702.473667
1474.103207,-9252.574275,-306.438199,518.144159
1474.103518,-13693.809927,536.266849,3182.885551
1474.103829,-17468.860231,-1225.752797,4219.173869
1474.104141,-17764.942608,-1685.410096,3256.906145
1474.104452,-13175.665768,229.828649,2664.741391
1474.104764,-8216.285956,1762.019645,888.247130
1474.105075,-6217.729913,1302.362347,296.082377
1474.105386,-6217.729913,-1072.533697,-2368.659014
1474.105698,-6143.709319,0.000000,-4367.215058
1474.106009,-4811.338623,3217.601092,-4441.235652
1474.106321,-4811.338623,4443.353888,-3701.029710
1474.106632,-6883.915261,2528.115143,-3701.029710
1474.106943,-10436.903782,766.095498,-3034.844362
1474.107255,-12065.356855,0.000000,-666.185348
1474.107566,-11991.336260,-383.047749,1406.391290
1474.107878,-13545.768739,0.000000,1924.535449
1474.108189,-13397.727550,76.609550,2072.576638
1474.108500,-12953.603985,-2451.505594,962.267725
1474.108812,-9918.759623,-1991.848295,814.226536
1474.109123,-6809.894666,1072.533697,-1184.329507
1474.109435,-5477.523971,1608.800546,-888.247130
1474.109746,-5033.400406,-383.047749,-2664.741391
1474.110057,-5699.585753,-1762.019645,-2664.741391
1474.110369,-6069.688724,0.000000,-1480.411884
1474.110680,-8364.327145,1149.143247,-1036.288319
1474.110992,-9548.656652,1455.581446,888.247130
1474.111303,-11917.315666,-536.266849,1628.453072
1474.111615,-13693.809927,-2145.067394,2886.803174
1474.111926,-12879.583391,-2681.334243,4441.235652
1474.112237,-11473.192101,-2757.943793,3404.947333
1474.112549,-8882.471304,-1455.581446,2072.576638
1474.112860,-7328.038826,-1302.362347,1406.391290
1474.113172,-6957.935855,-2374.896044,1332.370696
1474.113483,-6365.771101,-1608.800546,592.164754
1474.113794,-7328.038826,-1225.752797,740.205942
1474.114106,-8586.388927,-842.705048,370.102971
1474.114417,-8438.347739,229.828649,740.205942
1474.114729,-7772.162391,2221.676944,370.102971
1474.115040,-9030.512492,2604.724693,1554.432478
1474.115351,-11325.150913,2528.115143,3775.050304
1474.115663,-11917.315666,1838.629195,5699.585753
1474.115974,-10362.883188,0.000000,5329.482782
1474.116286,-6883.915261,-1378.971896,3404.947333
1474.116597,-4441.235652,-306.438199,962.267725
1474.116908,-2960.823768,2451.505594,-444.123565
1474.117220,-4589.276840,2911.162892,-1998.556043
1474.117531,-7179.997637,612.876398,-1258.350101
1474.117843,-9252.574275,842.705048,-518.144159
1474.118154,-10288.862594,919.314598,1036.288319
1474.118465,-9622.677246,76.609550,1480.411884
1474.118777,-7994.224174,-842.705048,888.247130
1474.119088,-6587.832884,-306.438199,-0.000000
1474.119400,-5181.441594,1225.752797,666.185348
1474.119711,-7179.997637,1608.800546,1924.535449
1474.120022,-12287.418637,0.000000,3256.906145
1474.120334,-14508.036463,-995.924147,2738.761985
1474.120645,-12731.542202,-689.485948,1036.288319
1474.120957,-8068.244768,459.657299,-1332.370696
1474.121268,-5847.626942,229.828649,-3701.029710
1474.121579,-5773.606348,-612.876398,-4885.359217
1474.121891,-5995.668130,-2298.286494,-3775.050304
1474.122202,-9030.512492,-2068.457845,-888.247130
1474.122514,-13619.789333,-1838.629195,2442.679609
1474.122825,-16580.613101,-2068.457845,4663.297435
1474.123137,-14359.995275,-2068.457845,4589.276840
1474.123448,-11029.068536,-2068.457845,2516.700203
1474.123759,-7254.018232,-1225.752797,296.082377
1474.124071,-5477.523971,1149.143247,-1184.329507
1474.124382,-5773.606348,612.876398,-2738.761985
1474.124694,-5847.626942,0.000000,-2368.659014
1474.125005,-9252.574275,-306.438199,-1850.514855
1474.125316,-11251.130318,-153.219100,-1184.329507
1474.125628,-12213.398043,383.047749,-814.226536
1474.125939,-11399.171507,766.095498,-814.226536
1474.126251,-9918.759623,1378.971896,592.164754
1474.126562,-9844.739029,383.047749,1332.370696
1474.126873,-10362.883188,-1225.752797,2220.617826
1474.127185,-10881.027347,-1532.190996,1702.473667
1474.127496,-8216.285956,229.828649,2294.638420
1474.127808,-5995.668130,2374.896044,740.205942
1474.128119,-4515.256246,2145.067394,-296.082377
1474.128430,-4515.256246,1302.362347,-1998.556043
1474.128742,-5477.523971,-229.828649,-2294.638420
1474.129053,-6365.771101,383.047749,-2294.638420
1474.129365,-7402.059420,1455.581446,-2590.720797
1474.129676,-10658.965565,2068.457845,-1036.288319
1474.129987,-13619.789333,1072.533697,962.267725
1474.130299,-14063.912898,229.828649,3330.926739
1474.130610,-12583.501014,-229.828649,3997.112087
1474.130922,-10066.800811,-1762.019645,3182.885551
1474.131233,-7920.203579,-1685.410096,2146.597232
1474.131544,-5329.482782,-383.047749,2294.638420
1474.131856,-4367.215058,-1072.533697,1702.473667
1474.132167,-5773.606348,-1762.019645,-0.000000
1474.132479,-7772.162391,-1455.581446,148.041188
1474.132790,-7105.977043,-153.219100,444.123565
1474.133102,-6809.894666,0.000000,-0.000000
1474.133413,-8068.244768,-2221.676944,-0.000000
1474.133724,-9400.615463,-2911.162892,-592.164754
1474.134036,-10140.821405,-1302.362347,370.102971
1474.134347,-11843.295072,995.924147,2590.720797
1474.134659,-15396.283594,383.047749,3849.070898
1474.134970,-17320.819043,-1762.019645,4959.379811
1474.135281,-15988.448347,-1455.581446,3775.050304
1474.135593,-9548.656652,-536.266849,1184.329507
1474.135904,-2516.700203,842.705048,-1036.288319
1474.136216,-1406.391290,689.485948,-2886.803174
1474.136527,-3256.906145,-612.876398,-3478.967927
1474.136838,-5255.462188,-689.485948,-2960.823768
1474.137150,-7920.203579,306.438199,-222.061783
1474.137461,-12139.377449,1455.581446,2220.617826
1474.137773,-14211.954086,459.657299,2146.597232
1474.138084,-13175.665768,153.219100,1036.288319
1474.138395,-11029.068536,1378.971896,962.267725
1474.138707,-9326.594869,2911.162892,592.164754
1474.139018,-7920.203579,2681.334243,518.144159
1474.139330,-7994.224174,1378.971896,-592.164754
1474.139641,-7846.182985,306.438199,-518.144159
1474.139952,-7402.059420,-229.828649,-1332.370696
1474.140264,-6439.791695,1378.971896,-1480.411884
1474.140575,-4663.297435,2451.505594,-1332.370696
1474.140887,-4589.276840,76.609550,-1480.411884
1474.141198,-5921.647536,-1378.971896,-148.041188
1474.141509,-7772.162391,-1608.800546,962.267725
1474.141821,-10436.903782,-153.219100,1406.391290
1474.142132,-12287.418637,0.000000,2442.679609
1474.142444,-11991.336260,153.219100,3478.967927
1474.142755,-11769.274478,459.657299,3182.885551
1474.143067,-10436.903782,383.047749,2812.782580
1474.143378,-10066.800811,-2068.457845,1924.535449
1474.143689,-7920.203579,-2145.067394,1036.288319
1474.144001,-7105.977043,-1991.848295,-0.000000
1474.144312,-6217.729913,-2451.505594,-1924.535449
1474.144624,-6439.791695,-2757.943793,-1776.494261
1474.144935,-7328.038826,-2221.676944,-962.267725
1474.145246,-7476.080014,-153.219100,-0.000000
1474.145558,-9918.759623,-153.219100,2516.700203
1474.145869,-13027.624579,-1302.362347,4959.379811
1474.146181,-13989.892304,-1685.410096,4737.318029
1474.146492,-11473.192101,-995.924147,3552.988522
1474.146803,-8142.265362,919.314598,2664.741391
1474.147115,-8882.471304,2451.505594,1110.308913
1474.147426,-9770.718434,1991.848295,-444.123565
1474.147738,-8586.388927,1072.533697,-2072.576638
1474.148049,-6883.915261,1149.143247,-2664.741391
1474.148360,-5329.482782,536.266849,-2664.741391
1474.148672,-4663.297435,229.828649,-3404.947333
1474.148983,-5477.523971,689.485948,-2442.679609
1474.149295,-7550.100608,612.876398,-1258.350101
1474.149606,-9992.780217,1072.533697,962.267725
1474.149917,-12509.480420,842.705048,3256.906145
1474.150229,-14211.954086,1532.190996,3404.947333
1474.150540,-12953.603985,383.047749,1776.494261
1474.150852,-9770.718434,766.095498,-1110.308913
1474.151163,-6513.812290,2068.457845,-3108.864956
1474.151474,-5329.482782,1072.533697,-3849.070898
1474.151786,-6513.812290,-995.924147,-3256.906145
1474.152097,-7105.977043,-1838.629195,-2442.679609
1474.152409,-9178.553681,-1608.800546,-888.247130
1474.152720,-11103.089130,-1991.848295,148.041188
1474.153031,-11103.089130,-842.705048,1850.514855
1474.153343,-9622.677246,-306.438199,1406.391290
1474.153654,-9030.512492,-229.828649,814.226536
1474.153966,-9992.780217,-612.876398,1110.308913
1474.154277,-11103.089130,-459.657299,1702.473667
1474.154589,-9770.718434,-153.219100,1184.329507
1474.154900,-8882.471304,-1302.362347,-0.000000
1474.155211,-7920.203579,-1608.800546,-370.102971
1474.155523,-7994.224174,-1532.190996,-740.205942
1474.155834,-6661.853478,-612.876398,-1258.350101
1474.156146,-7698.141797,-1072.533697,-518.144159
1474.156457,-9992.780217,-995.924147,1110.308913
1474.156768,-11621.233289,-459.657299,1998.556043
1474.157080,-11473.192101,0.000000,2738.761985
1474.157391,-10658.965565,229.828649,3330.926739
1474.157703,-8660.409521,0.000000,2072.576638
1474.158014,-6291.750507,76.609550,1258.350101
1474.158325,-5181.441594,383.047749,-74.020594
1474.158637,-5107.421000,229.828649,370.102971
1474.158948,-8660.409521,383.047749,1036.288319
1474.159260,-11547.212695,459.657299,518.144159
1474.159571,-11991.336260,1072.533697,296.082377
1474.159882,-10214.842000,2374.896044,666.185348
1474.160194,-9030.512492,3447.429741,962.267725
1474.160505,-7772.162391,3907.087040,888.247130
1474.160817,-6957.935855,229.828649,592.164754
1474.161128,-6809.894666,-1302.362347,666.185348
1474.161439,-6735.874072,0.000000,962.267725
1474.161751,-8660.409521,2451.505594,2368.659014
1474.162062,-10288.862594,842.705048,2664.741391
1474.162374,-11621.233289,-1532.190996,2590.720797
1474.162685,-11177.109724,-2068.457845,2220.617826
1474.162996,-5403.503377,-2451.505594,1702.473667
1474.163308,-3034.844362,-2374.896044,-0.000000
1474.163619,-3108.864956,-2911.162892,-1702.473667
1474.163931,-4811.338623,-1762.019645,-2442.679609
1474.164242,-6809.894666,459.657299,-1110.308913
1474.164554,-11621.233289,1915.238745,962.267725
1474.164865,-16950.716072,2451.505594,2812.782580
1474.165176,-18209.066173,1302.362347,4367.215058
1474.165488,-16210.510130,689.485948,2886.803174
1474.165799,-11177.109724,-842.705048,962.267725
1474.166111,-5625.565159,-1302.362347,-444.123565
1474.166422,-2442.679609,-2451.505594,-2146.597232
1474.166733,-1480.411884,-2681.334243,-3108.864956
1474.167045,-2442.679609,-2528.115143,-3034.844362
1474.167356,-6365.771101,-2528.115143,-1036.288319
1474.167668,-11325.150913,-1072.533697,1258.350101
1474.167979,-12731.542202,-995.924147,1998.556043
1474.168290,-12953.603985,229.828649,1258.350101
1474.168602,-13767.830521,2221.676944,666.185348
1474.168913,-13545.768739,3753.867940,-0.000000
1474.169225,-12731.542202,3217.601092,-518.144159
1474.169536,-9918.759623,2145.067394,-1036.288319
1474.169847,-7846.182985,1302.362347,-2072.576638
1474.170159,-5921.647536,153.219100,-2738.761985
1474.170470,-4737.318029,-306.438199,-2072.576638
1474.170782,-4959.379811,76.609550,-2442.679609
1474.171093,-5921.647536,-766.095498,-1998.556043
1474.171404,-7254.018232,-1149.143247,-370.102971
1474.171716,-9400.615463,0.000000,592.164754
1474.172027,-10658.965565,612.876398,740.205942
1474.172339,-10510.924376,1225.752797,-0.000000
1474.172650,-9252.574275,1762.019645,74.020594
1474.172961,-9474.636058,2528.115143,592.164754
1474.173273,-9622.677246,1302.362347,1258.350101
1474.173584,-9474.636058,-1072.533697,1776.494261
1474.173896,-9622.677246,-1608.800546,1480.411884
1474.174207,-9548.656652,-842.705048,1406.391290
1474.174518,-9252.574275,-459.657299,-0.000000
1474.174830,-9030.512492,-689.485948,1184.329507
1474.175141,-8882.471304,-1608.800546,1850.514855
1474.175453,-6587.832884,-2834.553343,1332.370696
1474.175764,-5625.565159,-3370.820191,-370.102971
1474.176076,-5921.647536,-1302.362347,444.123565
1474.176387,-6957.935855,-766.095498,2072.576638
1474.176698,-10955.047942,-612.876398,2812.782580
1474.177010,-14359.995275,-612.876398,5107.421000
1474.177321,-15618.345376,-1455.581446,5699.585753
1474.177633,-14137.933492,-2298.286494,5477.523971
1474.177944,-9696.697840,0.000000,4145.153275
1474.178255,-5699.585753,-536.266849,962.267725
1474.178567,-3627.009116,-1149.143247,-2220.617826
1474.178878,-1776.494261,229.828649,-2442.679609
1474.179190,-2220.617826,1455.581446,-2368.659014
1474.179501,-5329.482782,2757.943793,-1850.514855
1474.179812,-9104.533087,2757.943793,370.102971
1474.180124,-12213.398043,2374.896044,2146.597232
1474.180435,-13841.851115,1838.629195,2886.803174
1474.180747,-12731.542202,1149.143247,3256.906145
1474.181058,-10807.006753,1225.752797,2368.659014
1474.181369,-9844.739029,919.314598,1184.329507
1474.181681,-7994.224174,536.266849,296.082377
1474.181992,-7994.224174,-383.047749,-1480.411884
1474.182304,-6069.688724,-612.876398,-518.144159
1474.182615,-3478.967927,-1149.143247,-2146.597232
1474.182926,-3330.926739,0.000000,-4589.276840
1474.183238,-5477.523971,2068.457845,-3627.009116
1474.183549,-10807.006753,2528.115143,-740.205942
1474.183861,-14656.077652,919.314598,1406.391290
1474.184172,-16062.468941,1149.143247,2738.761985
1474.184483,-14211.954086,1915.238745,2220.617826
1474.184795,-10807.006753,153.219100,518.144159
1474.185106,-7105.977043,-1608.800546,-1702.473667
1474.185418,-4293.194464,-919.314598,-2368.659014
1474.185729,-6069.688724,-919.314598,-2072.576638
1474.186041,-9178.553681,-1378.971896,518.144159
1474.186352,-12879.583391,-2145.067394,2368.659014
1474.186663,-14211.954086,-2298.286494,3330.926739
1474.186975,-11991.336260,-2068.457845,962.267725
1474.187286,-8660.409521,-1302.362347,-0.000000
1474.187598,-3849.070898,1302.362347,-1628.453072
1474.187909,-2146.597232,1378.971896,-2368.659014
1474.188220,-4293.194464,-536.266849,-444.123565
1474.188532,-8956.491898,-2451.505594,2072.576638
1474.188843,-12953.603985,-2757.943793,4441.235652
1474.189155,-14878.139434,-766.095498,6143.709319
1474.189466,-15248.242405,-689.485948,5699.585753
1474.189777,-11103.089130,-1072.533697,4293.194464
1474.190089,-5551.544565,-1838.629195,-888.247130
1474.190400,-2516.700203,-689.485948,-2812.782580
1474.190712,-1924.535449,1838.629195,-2442.679609
1474.191023,-5625.565159,3294.210641,-1406.391290
1474.191334,-10658.965565,3677.258390,296.082377
1474.191646,-13545.768739,0.000000,1850.514855
1474.191957,-11843.295072,-459.657299,2960.823768
1474.192269,-9030.512492,1991.848295,2960.823768
1474.192580,-7031.956449,2604.724693,1184.329507
1474.192891,-5625.565159,383.047749,518.144159
1474.193203,-7402.059420,-1532.190996,148.041188
1474.193514,-8734.430116,-995.924147,74.020594
1474.193826,-8660.409521,-306.438199,370.102971
1474.194137,-8660.409521,459.657299,-1036.288319
1474.194448,-8290.306550,1378.971896,-962.267725
1474.194760,-8438.347739,1455.581446,-2812.782580
1474.195071,-8068.244768,1532.190996,-2368.659014
1474.195383,-9844.739029,1915.238745,-0.000000
1474.195694,-12435.459826,459.657299,1184.329507
1474.196006,-14211.954086,-1072.533697,2294.638420
1474.196317,-14211.954086,-995.924147,1924.535449
1474.196628,-10288.862594,383.047749,2220.617826
1474.196939,-6439.791695,-536.266849,1110.308913
1474.197251,-3923.091493,-1762.019645,370.102971
1474.197562,-2220.617826,-4213.525239,-1776.494261
1474.197873,-3256.906145,-4749.792088,-2590.720797
1474.198185,-5551.544565,-1608.800546,-2368.659014
1474.198496,-10140.821405,1608.800546,-1702.473667
1474.198807,-15470.304188,459.657299,296.082377
1474.199119,-18727.210333,-1149.143247,2072.576638
1474.199430,-18431.127956,0.000000,2886.803174
1474.199741,-13989.892304,1302.362347,2368.659014
1474.200053,-8512.368333,1149.143247,666.185348
1474.200364,-4589.276840,-153.219100,-444.123565
1474.200675,-2886.803174,-1608.800546,-370.102971
1474.200987,-3478.967927,-2068.457845,-74.020594
1474.201298,-6735.874072,-1532.190996,-0.000000
1474.201609,-9992.780217,689.485948,1036.288319
1474.201921,-9622.677246,383.047749,1406.391290
1474.202232,-8586.388927,-536.266849,-74.020594
1474.202543,-7254.018232,0.000000,-1480.411884
1474.202855,-7624.121203,1532.190996,-666.185348
1474.203166,-8956.491898,1762.019645,296.082377
1474.203477,-10510.924376,1608.800546,2886.803174
1474.203789,-13323.706956,459.657299,4737.318029
1474.204100,-13471.748144,0.000000,6661.853478
1474.204411,-11103.089130,-536.266849,6143.709319
1474.204723,-5699.585753,-766.095498,2886.803174
1474.205034,0.000000,229.828649,-666.185348
1474.205345,740.205942,1532.190996,-2442.679609
1474.205657,-1850.514855,1915.238745,-2516.700203
1474.205968,-6735.874072,1838.629195,-1554.432478
1474.206279,-11991.336260,459.657299,-370.102971
1474.206591,-14359.995275,0.000000,2442.679609
1474.206902,-13249.686362,-842.705048,3034.844362
1474.207213,-11399.171507,0.000000,2516.700203
1474.207525,-10066.800811,-536.266849,1998.556043
1474.207836,-8882.471304,-2451.505594,1258.350101
1474.208147,-7846.182985,-2451.505594,2368.659014
1474.208459,-9252.574275,-1149.143247,1406.391290
1474.208770,-10658.965565,-919.314598,1110.308913
1474.209081,-8882.471304,-1225.752797,296.082377
1474.209393,-6217.729913,-153.219100,-1776.494261
1474.209704,-3108.864956,0.000000,-3256.906145
1474.210015,-2516.700203,0.000000,-4219.173869
1474.210327,-4737.318029,536.266849,-2812.782580
1474.210638,-10732.986159,459.657299,-1850.514855
1474.210949,-15174.221811,-306.438199,296.082377
1474.211261,-17690.922014,0.000000,3182.885551
1474.211572,-18209.066173,919.314598,4219.173869
1474.211883,-15100.201217,459.657299,3034.844362
1474.212195,-10510.924376,-306.438199,1628.453072
1474.212506,-5995.668130,-1072.533697,-814.226536
1474.212817,-2146.597232,-153.219100,-3256.906145
1474.213129,-1702.473667,995.924147,-5699.585753
1474.213440,-3849.070898,2451.505594,-4737.318029
1474.213751,-7550.100608,2604.724693,-2664.741391
1474.214063,-10955.047942,919.314598,-518.144159
1474.214374,-13545.768739,0.000000,740.205942
1474.214685,-13323.706956,383.047749,1776.494261
1474.214996,-11473.192101,0.000000,1332.370696
1474.215308,-9992.780217,-1532.190996,296.082377
1474.215619,-9992.780217,-2374.896044,-370.102971
1474.215930,-11029.068536,-536.266849,962.267725
1474.216242,-11547.212695,-919.314598,666.185348
1474.216553,-10955.047942,-1532.190996,1998.556043
1474.216864,-9548.656652,-1378.971896,1554.432478
1474.217176,-7550.100608,-612.876398,-222.061783
1474.217487,-5107.421000,-229.828649,-814.226536
1474.217798,-3108.864956,229.828649,-1332.370696
1474.218110,-3627.009116,383.047749,-1924.535449
1474.218421,-5403.503377,1225.752797,-0.000000
1474.218732,-10658.965565,1072.533697,1628.453072
1474.219044,-14063.912898,306.438199,5033.400406
1474.219355,-14137.933492,-689.485948,7105.977043
1474.219666,-11103.089130,-1608.800546,4737.318029
1474.219978,-6587.832884,-995.924147,2516.700203
1474.220289,-3034.844362,-459.657299,1628.453072
1474.220600,-3775.050304,-536.266849,444.123565
1474.220912,-4589.276840,0.000000,370.102971
1474.221223,-6513.812290,-1685.410096,-592.164754
1474.221534,-9400.615463,-1302.362347,740.205942
1474.221846,-9474.636058,766.095498,1998.556043
1474.222157,-8660.409521,1762.019645,962.267725
1474.222468,-8142.265362,766.095498,888.247130
1474.222780,-9104.533087,0.000000,1776.494261
1474.223091,-9844.739029,689.485948,2516.700203
1474.223402,-10955.047942,536.266849,3256.906145
1474.223714,-12509.480420,689.485948,3701.029710
1474.224025,-12731.542202,-766.095498,2368.659014
1474.224336,-9548.656652,-459.657299,-518.144159
1474.224648,-4737.318029,1991.848295,-2960.823768
1474.224959,-3108.864956,2145.067394,-4219.173869
1474.225270,-3849.070898,995.924147,-4145.153275
1474.225582,-7179.997637,0.000000,-2220.617826
1474.225893,-12435.459826,-842.705048,-518.144159
1474.226204,-16210.510130,-153.219100,1998.556043
1474.226516,-15692.365970,0.000000,4589.276840
1474.226827,-13545.768739,919.314598,3182.885551
1474.227138,-9992.780217,153.219100,1406.391290
1474.227450,-6587.832884,-1225.752797,-222.061783
1474.227761,-3997.112087,-995.924147,-2294.638420
1474.228072,-3108.864956,459.657299,-3923.091493
1474.228384,-6069.688724,2068.457845,-3108.864956
1474.228695,-11547.212695,76.609550,-1554.432478
1474.229006,-14730.098246,-1072.533697,-0.000000
1474.229318,-13397.727550,-383.047749,-0.000000
1474.229629,-10214.842000,306.438199,-0.000000
1474.229940,-10066.800811,-689.485948,-74.020594
1474.230252,-8068.244768,-2451.505594,814.226536
1474.230563,-8660.409521,-2451.505594,-0.000000
1474.230874,-7846.182985,-1762.019645,1702.473667
1474.231186,-7846.182985,-306.438199,3404.947333
1474.231497,-8808.450710,-1225.752797,2960.823768
1474.231808,-6883.915261,-1838.629195,1776.494261
1474.232120,-5107.421000,-919.314598,-444.123565
1474.232431,-3627.009116,919.314598,-1036.288319
1474.232742,-4515.256246,1915.238745,-2960.823768
1474.233053,-6809.894666,1685.410096,-2368.659014
1474.233365,-11029.068536,1302.362347,-1406.391290
1474.233676,-14285.974681,1225.752797,2294.638420
1474.233987,-14656.077652,766.095498,4367.215058
1474.234299,-13915.871710,-229.828649,4071.132681
1474.234610,-9252.574275,-1455.581446,3404.947333
1474.234921,-4219.173869,-766.095498,2294.638420
1474.235233,-4293.194464,842.705048,1850.514855
1474.235544,-6217.729913,1302.362347,1258.350101
1474.235855,-8290.306550,536.266849,814.226536
1474.236167,-7550.100608,536.266849,-148.041188
1474.236478,-5847.626942,842.705048,-74.020594
1474.236789,-6365.771101,153.219100,-2072.576638
1474.237101,-8142.265362,-153.219100,-2294.638420
1474.237412,-11843.295072,536.266849,-2072.576638
1474.237723,-12435.459826,1225.752797,1480.411884
1474.238035,-14952.160028,-766.095498,2812.782580
1474.238346,-18061.024985,-1762.019645,3923.091493
1474.238657,-16062.468941,-1149.143247,4663.297435
1474.238969,-11473.192101,-1685.410096,2590.720797
1474.239280,-5551.544565,-383.047749,1702.473667
1474.239591,-2738.761985,842.705048,-888.247130
1474.239903,-592.164754,-1455.581446,-2220.617826
1474.240214,-1258.350101,-1455.581446,-3330.926739
1474.240525,-5255.462188,-459.657299,-1924.535449
1474.240837,-8660.409521,0.000000,-1036.288319
1474.241148,-12509.480420,-689.485948,222.061783
1474.241459,-13545.768739,0.000000,1924.535449
1474.241771,-14211.954086,76.609550,2960.823768
1474.242082,-13545.768739,-766.095498,3034.844362
1474.242393,-10732.986159,76.609550,2072.576638
1474.242705,-7105.977043,919.314598,666.185348
1474.243016,-6735.874072,842.705048,-222.061783
1474.243327,-7624.121203,536.266849,518.144159
1474.243639,-7105.977043,-153.219100,-1480.411884
1474.243950,-5477.523971,536.266849,-1554.432478
1474.244261,-4293.194464,1225.752797,-1702.473667
1474.244573,-3849.070898,919.314598,-1998.556043
1474.244884,-5699.585753,229.828649,-1332.370696
1474.245195,-9326.594869,-1608.800546,-0.000000
1474.245507,-12731.542202,-766.095498,1998.556043
1474.245818,-15174.221811,689.485948,3404.947333
1474.246129,-15544.324782,1225.752797,4219.173869
1474.246441,-13323.706956,-459.657299,3330.926739
1474.246752,-9844.739029,-1532.190996,2368.659014
1474.247063,-6291.750507,-383.047749,-296.082377
1474.247375,-4071.132681,612.876398,-2442.679609
1474.247686,-3775.050304,2145.067394,-2886.803174
1474.247997,-5625.565159,306.438199,-1258.350101
1474.248309,-8734.430116,306.438199,-222.061783
1474.248620,-9400.615463,153.219100,1406.391290
1474.248931,-9918.759623,-229.828649,740.205942
1474.249243,-9400.615463,459.657299,1850.514855
1474.249554,-9474.636058,1302.362347,2664.741391
1474.249865,-10881.027347,995.924147,3701.029710
1474.250177,-13027.624579,306.438199,2664.741391
1474.250488,-13693.809927,306.438199,3997.112087
1474.250799,-12139.377449,0.000000,2960.823768
1474.251110,-7550.100608,-536.266849,1480.411884
1474.251422,-4811.338623,-1915.238745,-888.247130
1474.251733,-4293.194464,-2757.943793,-3330.926739
1474.252044,-1998.556043,-612.876398,-3182.885551
1474.252356,-4663.297435,-459.657299,-2072.576638
1474.252667,-9252.574275,-1149.143247,222.061783
1474.252978,-12139.377449,-2374.896044,2442.679609
1474.253290,-14211.954086,-1455.581446,3108.864956
1474.253601,-13915.871710,766.095498,3256.906145
1474.253912,-11029.068536,1455.581446,2960.823768
1474.254224,-9326.594869,1378.971896,2516.700203
1474.254535,-8956.491898,919.314598,1480.411884
1474.254846,-8956.491898,459.657299,-222.061783
1474.255158,-8142.265362,383.047749,-1628.453072
1474.255469,-6587.832884,459.657299,-1702.473667
1474.255780,-4959.379811,153.219100,-2960.823768
1474.256092,-3923.091493,-612.876398,-4737.318029
1474.256403,-4885.359217,-383.047749,-3108.864956
1474.256714,-7920.203579,-76.609550,-222.061783
1474.257026,-10658.965565,-306.438199,518.144159
1474.257337,-12435.459826,1072.533697,1998.556043
1474.257648,-14211.954086,1915.238745,2516.700203
1474.257960,-13619.789333,842.705048,2516.700203
1474.258271,-10140.821405,0.000000,-0.000000
1474.258582,-6069.688724,612.876398,-3108.864956
1474.258894,-3404.947333,1838.629195,-5107.421000
1474.259205,-3627.009116,1532.190996,-5181.441594
1474.259516,-5699.585753,1072.533697,-3627.009116
1474.259828,-9992.780217,-306.438199,-3256.906145
1474.260139,-12139.377449,-1915.238745,-1850.514855
1474.260450,-12583.501014,-2221.676944,-592.164754
1474.260762,-11029.068536,-842.705048,962.267725
1474.261073,-9252.574275,-995.924147,666.185348
1474.261384,-8364.327145,-2451.505594,-444.123565
1474.261696,-7031.956449,-2834.553343,-740.205942
1474.262007,-7105.977043,-919.314598,-888.247130
1474.262318,-7846.182985,-842.705048,-1628.453072
1474.262630,-8882.471304,-536.266849,-2516.700203
1474.262941,-9400.615463,-689.485948,-2960.823768
1474.263252,-8290.306550,-1149.143247,-4071.132681
1474.263564,-8660.409521,-612.876398,-5033.400406
1474.263875,-8586.388927,1685.410096,-4737.318029
1474.264186,-10288.862594,1991.848295,-3108.864956
1474.264498,-13101.645173,766.095498,-1998.556043
1474.264809,-14656.077652,-766.095498,-1036.288319
1474.265120,-13841.851115,-842.705048,-296.082377
1474.265432,-9548.656652,-459.657299,-666.185348
1474.265743,-6809.894666,0.000000,-666.185348
1474.266054,-8216.285956,-689.485948,-1924.535449
1474.266366,-9400.615463,-919.314598,-1998.556043
1474.266677,-8808.450710,-229.828649,-1702.473667
1474.266988,-7698.141797,0.000000,-1998.556043
1474.267300,-8216.285956,612.876398,-3849.070898
1474.267611,-7698.141797,383.047749,-4885.359217
1474.267922,-6217.729913,612.876398,-5773.606348
1474.268234,-7179.997637,2834.553343,-5181.441594
1474.268545,-10288.862594,4136.915689,-2812.782580
1474.268856,-14508.036463,3140.991542,-740.205942
1474.269167,-16210.510130,995.924147,1480.411884
1474.269479,-13767.830521,383.047749,962.267725
1474.269790,-9622.677246,-1608.800546,-1036.288319
1474.270101,-4367.215058,-1072.533697,-3108.864956
1474.270413,-296.082377,-919.314598,-5033.400406
1474.270724,592.164754,-1838.629195,-5329.482782
1474.271035,-3997.112087,-2451.505594,-3849.070898
1474.271347,-10066.800811,-1455.581446,-1036.288319
1474.271658,-12731.542202,-995.924147,666.185348
1474.271969,-11917.315666,-383.047749,666.185348
1474.272281,-9030.512492,-153.219100,-666.185348
1474.272592,-6291.750507,229.828649,-3034.844362
1474.272903,-4737.318029,153.219100,-5181.441594
1474.273215,-5033.400406,842.705048,-4811.338623
1474.273526,-8142.265362,2451.505594,-3034.844362
1474.273837,-12657.521608,2145.067394,-1406.391290
1474.274149,-16210.510130,0.000000,296.082377
1474.274460,-15692.365970,-1915.238745,518.144159
1474.274771,-11843.295072,-2374.896044,-444.123565
1474.275083,-6587.832884,-2068.457845,-2812.782580
1474.275394,-3552.988522,-2528.115143,-5033.400406
1474.275705,-3627.009116,-3217.601092,-5847.626942
1474.276017,-5699.585753,-1991.848295,-4441.235652
1474.276328,-9252.574275,-1072.533697,-2516.700203
1474.276639,-13915.871710,689.485948,-296.082377
1474.276951,-17394.839637,766.095498,1924.535449
1474.277262,-16580.613101,612.876398,2590.720797
1474.277573,-12287.418637,153.219100,888.247130
1474.277885,-7254.018232,-229.828649,-2590.720797
1474.278196,-3256.906145,153.219100,-5551.544565
1474.278507,-444.123565,1302.362347,-8068.244768
1474.278819,-370.102971,1532.190996,-8882.471304
1474.279130,-5403.503377,1378.971896,-7402.059420
1474.279441,-12361.439231,766.095498,-3701.029710
1474.279753,-17394.839637,1149.143247,296.082377
1474.280064,-18949.272115,1302.362347,2738.761985
1474.280375,-16728.654289,306.438199,3108.864956
1474.280687,-12657.521608,-1378.971896,666.185348
1474.280998,-6069.688724,-766.095498,-2294.638420
1474.281309,740.205942,383.047749,-6587.832884
1474.281621,3256.906145,536.266849,-8734.430116
1474.281932,814.226536,-76.609550,-8290.306550
1474.282243,-5921.647536,-766.095498,-6587.832884
1474.282555,-12139.377449,-306.438199,-3256.906145
1474.282866,-17764.942608,153.219100,-0.000000
1474.283177,-21391.951724,842.705048,1924.535449
