#time,accel_x,accel_y,accel_z
1397.696299,-8882.471304,0.000000,518.144159
1397.696611,-8512.368333,0.000000,444.123565
1397.696922,-8808.450710,76.609550,740.205942
1397.697234,-9104.533087,0.000000,592.164754
1397.697546,-9104.533087,0.000000,444.123565
1397.697857,-9030.512492,0.000000,444.123565
1397.698169,-8956.491898,229.828649,592.164754
1397.698481,-8808.450710,-229.828649,740.205942
1397.698792,-8660.409521,-306.438199,740.205942
1397.699104,-9104.533087,689.485948,370.102971
1397.699416,-8660.409521,0.000000,740.205942
1397.699727,-8808.450710,76.609550,518.144159
1397.700039,-8734.430116,-383.047749,592.164754
1397.700351,-9104.533087,0.000000,518.144159
1397.700662,-8882.471304,383.047749,444.123565
1397.700974,-8734.430116,-229.828649,370.102971
1397.701286,-8734.430116,76.609550,444.123565
1397.701597,-8882.471304,76.609550,222.061783
1397.701909,-9104.533087,0.000000,370.102971
1397.702220,-9030.512492,-383.047749,518.144159
1397.702532,-8808.450710,0.000000,666.185348
1397.702844,-9030.512492,0.000000,518.144159
1397.703155,-8660.409521,76.609550,518.144159
1397.703467,-8808.450710,0.000000,518.144159
1397.703779,-9030.512492,306.438199,444.123565
1397.704090,-8586.388927,383.047749,592.164754
1397.704402,-8808.450710,-153.219100,370.102971
1397.704714,-8808.450710,0.000000,814.226536
1397.705025,-9030.512492,0.000000,666.185348
1397.705337,-8956.491898,0.000000,444.123565
1397.705649,-8956.491898,306.438199,666.185348
1397.705960,-8660.409521,-229.828649,666.185348
1397.706272,-8808.450710,0.000000,592.164754
1397.706584,-8734.430116,0.000000,518.144159
1397.706895,-8882.471304,-153.219100,444.123565
1397.707207,-8882.471304,0.000000,666.185348
1397.707519,-8956.491898,0.000000,444.123565
1397.707830,-9030.512492,0.000000,518.144159
1397.708142,-8734.430116,0.000000,444.123565
1397.708453,-8956.491898,-153.219100,444.123565
1397.708765,-8956.491898,536.266849,370.102971
1397.709077,-8808.450710,0.000000,444.123565
1397.709388,-8882.471304,-153.219100,444.123565
1397.709700,-8882.471304,0.000000,518.144159
1397.710012,-8956.491898,-229.828649,592.164754
1397.710323,-8956.491898,229.828649,222.061783
1397.710635,-9030.512492,0.000000,518.144159
1397.710947,-8438.347739,-306.438199,592.164754
1397.711258,-8660.409521,0.000000,814.226536
1397.711570,-8734.430116,0.000000,370.102971
1397.711882,-8956.491898,76.609550,592.164754
1397.712193,-8956.491898,76.609550,592.164754
1397.712505,-9030.512492,0.000000,740.205942
1397.712817,-9178.553681,76.609550,370.102971
1397.713128,-9104.533087,459.657299,740.205942
1397.713440,-9178.553681,0.000000,222.061783
1397.713752,-8586.388927,459.657299,592.164754
1397.714063,-8882.471304,0.000000,370.102971
1397.714375,-8956.491898,-76.609550,518.144159
1397.714687,-8808.450710,-229.828649,592.164754
1397.714998,-8956.491898,0.000000,592.164754
1397.715310,-8660.409521,76.609550,518.144159
1397.715621,-8512.368333,0.000000,444.123565
1397.715933,-8734.430116,-306.438199,222.061783
1397.716245,-8660.409521,0.000000,296.082377
1397.716556,-8808.450710,-229.828649,518.144159
1397.716868,-8734.430116,-153.219100,592.164754
1397.717180,-9178.553681,0.000000,370.102971
1397.717491,-8956.491898,0.000000,370.102971
1397.717803,-9030.512492,-459.657299,740.205942
1397.718115,-8438.347739,-536.266849,518.144159
1397.718426,-8808.450710,0.000000,296.082377
1397.718738,-9104.533087,0.000000,148.041188
1397.719050,-9104.533087,0.000000,444.123565
1397.719361,-8956.491898,0.000000,592.164754
1397.719673,-8956.491898,-153.219100,444.123565
1397.719985,-9474.636058,0.000000,-0.000000
1397.720296,-8956.491898,229.828649,370.102971
1397.720608,-8734.430116,229.828649,518.144159
1397.720920,-8734.430116,-153.219100,444.123565
1397.721231,-9030.512492,-153.219100,296.082377
1397.721543,-8882.471304,153.219100,592.164754
1397.721854,-8956.491898,0.000000,444.123565
1397.722166,-9252.574275,0.000000,666.185348
1397.722478,-8882.471304,0.000000,-0.000000
1397.722789,-8512.368333,-383.047749,740.205942
1397.723101,-8364.327145,-459.657299,518.144159
1397.723413,-8956.491898,-229.828649,592.164754
1397.723724,-9104.533087,0.000000,666.185348
1397.724036,-9030.512492,0.000000,592.164754
1397.724348,-8956.491898,0.000000,592.164754
1397.724659,-8956.491898,76.609550,518.144159
1397.724971,-8586.388927,536.266849,370.102971
1397.725283,-8808.450710,0.000000,592.164754
1397.725594,-8882.471304,229.828649,222.061783
1397.725906,-8882.471304,0.000000,592.164754
1397.726218,-9030.512492,-229.828649,444.123565
1397.726529,-8882.471304,0.000000,666.185348
1397.726841,-9030.512492,0.000000,518.144159
1397.727153,-9104.533087,-153.219100,444.123565
1397.727464,-10658.965565,842.705048,-0.000000
1397.727776,-11473.192101,1991.848295,740.205942
1397.728088,-8364.327145,4903.011187,888.247130
1397.728399,-7772.162391,3907.087040,666.185348
1397.728711,-6735.874072,1072.533697,1406.391290
1397.729022,-6883.915261,-1302.362347,222.061783
1397.729334,-7476.080014,-1378.971896,-0.000000
1397.729646,-7328.038826,-383.047749,-222.061783
1397.729957,-11621.233289,-1072.533697,-1406.391290
1397.730269,-12657.521608,-306.438199,-740.205942
1397.730581,-10140.821405,842.705048,666.185348
1397.730892,-9030.512492,76.609550,1554.432478
1397.731204,-9252.574275,-306.438199,2886.803174
1397.731516,-11917.315666,689.485948,1628.453072
1397.731827,-8068.244768,4366.744339,2442.679609
1397.732139,-4737.318029,5286.058936,1998.556043
1397.732451,-7179.997637,3677.258390,814.226536
1397.732762,-8216.285956,2374.896044,-888.247130
1397.733074,-7624.121203,3753.867940,-2368.659014
1397.733386,-9104.533087,3140.991542,-1406.391290
1397.733697,-9104.533087,3830.477490,-296.082377
1397.734009,-12509.480420,2068.457845,-1406.391290
1397.734321,-13767.830521,-689.485948,814.226536
1397.734632,-8512.368333,-689.485948,2442.679609
1397.734944,-10066.800811,229.828649,1184.329507
1397.735256,-8438.347739,5439.278036,3034.844362
1397.735567,-7550.100608,6205.373534,1702.473667
1397.735879,-7846.182985,3294.210641,1924.535449
1397.736190,-6217.729913,4213.525239,2664.741391
1397.736502,-7772.162391,7048.078582,-0.000000
1397.736814,-8438.347739,6818.249932,-1184.329507
1397.737125,-8808.450710,5056.230287,-1480.411884
1397.737437,-10214.842000,3447.429741,-1776.494261
1397.737749,-10214.842000,5362.668486,-814.226536
1397.738060,-11843.295072,4749.792088,-0.000000
1397.738372,-10807.006753,4060.306139,2220.617826
1397.738684,-10362.883188,3677.258390,1776.494261
1397.738995,-9030.512492,5132.839837,2738.761985
1397.739307,-5921.647536,4903.011187,1184.329507
1397.739619,-5551.544565,5822.325785,222.061783
1397.739930,-5551.544565,4979.620737,962.267725
1397.740242,-5181.441594,5822.325785,-1036.288319
1397.740554,-6291.750507,4519.963438,-1110.308913
1397.740865,-7920.203579,4213.525239,-1036.288319
1397.741177,-10436.903782,2757.943793,-0.000000
1397.741489,-10955.047942,1302.362347,592.164754
1397.741800,-10436.903782,306.438199,518.144159
1397.742112,-10658.965565,76.609550,2072.576638
1397.742423,-10584.944971,766.095498,1406.391290
1397.742735,-9548.656652,2604.724693,2368.659014
1397.743047,-8068.244768,4060.306139,1480.411884
1397.743358,-6365.771101,3907.087040,444.123565
1397.743670,-6735.874072,3830.477490,-0.000000
1397.743982,-7550.100608,3830.477490,-740.205942
1397.744293,-6883.915261,4060.306139,-1258.350101
1397.744605,-7179.997637,1302.362347,-1554.432478
1397.744917,-8882.471304,-995.924147,-888.247130
1397.745228,-10436.903782,-1838.629195,222.061783
1397.745540,-12213.398043,-2757.943793,666.185348
1397.745852,-12879.583391,-2221.676944,1850.514855
1397.746163,-13397.727550,-1149.143247,1702.473667
1397.746475,-13101.645173,689.485948,1258.350101
1397.746787,-11399.171507,3217.601092,-0.000000
1397.747098,-8216.285956,4673.182538,-518.144159
1397.747410,-5551.544565,4903.011187,148.041188
1397.747722,-6069.688724,3983.696590,444.123565
1397.748033,-6809.894666,3983.696590,888.247130
1397.748345,-7994.224174,2757.943793,148.041188
1397.748657,-10436.903782,1838.629195,-148.041188
1397.748968,-12361.439231,995.924147,-296.082377
1397.749280,-13175.665768,383.047749,-888.247130
1397.749591,-13841.851115,306.438199,-518.144159
1397.749903,-13249.686362,1532.190996,518.144159
1397.750215,-11621.233289,2298.286494,888.247130
1397.750526,-9770.718434,3983.696590,1998.556043
1397.750838,-7031.956449,4596.572988,2516.700203
1397.751150,-3775.050304,5209.449386,2072.576638
1397.751461,-2368.659014,5898.935335,666.185348
1397.751773,-2072.576638,6128.763984,-740.205942
1397.752085,-2442.679609,4979.620737,-1628.453072
1397.752396,-6513.812290,3370.820191,-2516.700203
1397.752708,-11325.150913,2451.505594,-592.164754
1397.753020,-14582.057057,2681.334243,666.185348
1397.753331,-16210.510130,2604.724693,2590.720797
1397.753643,-15322.262999,2374.896044,3849.070898
1397.753955,-10881.027347,2757.943793,4515.256246
1397.754266,-6735.874072,2834.553343,2442.679609
1397.754578,-3330.926739,4903.011187,1258.350101
1397.754890,-1110.308913,7277.907231,-0.000000
1397.755201,-2146.597232,7814.174080,-2146.597232
1397.755513,-3923.091493,7737.564530,-1998.556043
1397.755824,-7105.977043,5745.716235,-2368.659014
1397.756136,-8808.450710,3447.429741,-592.164754
1397.756448,-9992.780217,536.266849,-0.000000
1397.756759,-11177.109724,-1762.019645,962.267725
1397.757071,-12065.356855,-4366.744339,1480.411884
1397.757383,-13471.748144,-4136.915689,1998.556043
1397.757694,-13767.830521,-919.314598,1554.432478
1397.758006,-12657.521608,2451.505594,1924.535449
1397.758318,-9770.718434,4136.915689,2220.617826
1397.758629,-9252.574275,4596.572988,1406.391290
1397.758941,-5921.647536,5669.106685,1776.494261
1397.759253,-5403.503377,5209.449386,-740.205942
1397.759564,-6291.750507,3140.991542,-222.061783
1397.759876,-6661.853478,3294.210641,-1036.288319
1397.760188,-8660.409521,2757.943793,-2886.803174
1397.760499,-11325.150913,2451.505594,-2664.741391
1397.760811,-12139.377449,2757.943793,-592.164754
1397.761123,-13545.768739,2451.505594,-296.082377
1397.761434,-13397.727550,2221.676944,1998.556043
1397.761746,-12583.501014,1991.848295,2886.803174
1397.762058,-11843.295072,2451.505594,2294.638420
1397.762369,-9696.697840,5822.325785,1184.329507
1397.762681,-7179.997637,7584.345430,370.102971
1397.762992,-4885.359217,5822.325785,-1036.288319
1397.763304,-5033.400406,3830.477490,-1406.391290
1397.763616,-6513.812290,3600.648841,-1554.432478
1397.763927,-7772.162391,3217.601092,-1258.350101
1397.764239,-8956.491898,1991.848295,-0.000000
1397.764551,-9844.739029,153.219100,1036.288319
1397.764862,-8956.491898,-2528.115143,2072.576638
1397.765174,-8364.327145,-3064.381992,2368.659014
1397.765486,-8808.450710,-612.876398,1628.453072
1397.765797,-9474.636058,3907.087040,814.226536
1397.766109,-9992.780217,8503.660028,-444.123565
1397.766421,-9696.697840,10035.851024,-296.082377
1397.766732,-9548.656652,8503.660028,962.267725
1397.767044,-8808.450710,5669.106685,1184.329507
1397.767356,-7920.203579,3677.258390,1332.370696
1397.767667,-6513.812290,4443.353888,962.267725
1397.767979,-6217.729913,3753.867940,1258.350101
1397.768291,-5255.462188,1915.238745,1850.514855
1397.768602,-4367.215058,-689.485948,-0.000000
1397.768914,-5847.626942,-1072.533697,-370.102971
1397.769225,-8142.265362,689.485948,-518.144159
1397.769537,-10807.006753,4903.011187,-1258.350101
1397.769849,-12953.603985,7124.688131,-1184.329507
1397.770160,-13175.665768,6052.154434,1036.288319
1397.770472,-13693.809927,1225.752797,3108.864956
1397.770784,-13545.768739,-459.657299,3478.967927
1397.771095,-10955.047942,1608.800546,3627.009116
1397.771407,-6587.832884,2068.457845,2294.638420
1397.771718,-3108.864956,-995.924147,1776.494261
1397.772030,-2442.679609,-4979.620737,888.247130
1397.772342,-4071.132681,-8656.879127,-148.041188
1397.772653,-5107.421000,-6205.373534,-888.247130
1397.772965,-7328.038826,0.000000,-1406.391290
1397.773276,-11325.150913,3064.381992,-666.185348
1397.773588,-15618.345376,919.314598,444.123565
1397.773899,-17912.983796,-766.095498,1850.514855
1397.774211,-17616.901420,1149.143247,2220.617826
1397.774522,-14211.954086,5209.449386,1998.556043
1397.774834,-9918.759623,5286.058936,444.123565
1397.775146,-5329.482782,1838.629195,-666.185348
1397.775457,-1406.391290,-2681.334243,-296.082377
1397.775769,444.123565,-4213.525239,-222.061783
1397.776080,0.000000,-995.924147,740.205942
1397.776392,-3552.988522,306.438199,-296.082377
1397.776703,-10214.842000,-459.657299,-1110.308913
1397.777015,-14952.160028,-1991.848295,-518.144159
1397.777326,-17764.942608,-229.828649,-666.185348
1397.777638,-17246.798449,3370.820191,-592.164754
1397.777949,-15470.304188,4060.306139,-814.226536
1397.778261,-12805.562797,1072.533697,-592.164754
1397.778573,-9030.512492,-3294.210641,-222.061783
1397.778884,-5255.462188,-4443.353888,518.144159
1397.779196,-1258.350101,-1455.581446,1480.411884
1397.779507,148.041188,153.219100,1924.535449
1397.779819,-4663.297435,-2298.286494,2368.659014
1397.780130,-8512.368333,-4596.572988,1850.514855
1397.780442,-11843.295072,1302.362347,-444.123565
1397.780753,-13619.789333,7201.297681,-740.205942
1397.781065,-13989.892304,9116.536426,-1924.535449
1397.781377,-13545.768739,4519.963438,-1776.494261
1397.781688,-11547.212695,0.000000,-3182.885551
1397.782000,-8882.471304,1608.800546,-1628.453072
1397.782311,-5921.647536,3907.087040,-1258.350101
1397.782623,-5699.585753,3677.258390,-0.000000
1397.782934,-6291.750507,-1378.971896,1924.535449
1397.783246,-6365.771101,-4979.620737,3701.029710
1397.783557,-8438.347739,-3370.820191,5107.421000
1397.783869,-7402.059420,459.657299,3256.906145
1397.784180,-7031.956449,1762.019645,2146.597232
1397.784492,-7846.182985,-766.095498,-444.123565
1397.784804,-8882.471304,-2604.724693,-1184.329507
1397.785115,-9622.677246,0.000000,-1628.453072
1397.785427,-9326.594869,3677.258390,-2072.576638
1397.785738,-10584.944971,4903.011187,370.102971
1397.786050,-12213.398043,0.000000,1924.535449
1397.786361,-14359.995275,-3217.601092,3182.885551
1397.786673,-11769.274478,-1991.848295,4145.153275
1397.786984,-6957.935855,2221.676944,4663.297435
1397.787296,-5181.441594,1685.410096,4145.153275
1397.787608,-2886.803174,-2911.162892,1850.514855
1397.787919,-2368.659014,-3907.087040,-666.185348
1397.788231,-3108.864956,-459.657299,-2590.720797
1397.788542,-5403.503377,3677.258390,-2072.576638
1397.788854,-10510.924376,2834.553343,-1702.473667
1397.789165,-14878.139434,-1991.848295,740.205942
1397.789477,-16654.633695,-5286.058936,1776.494261
1397.789788,-14285.974681,-4903.011187,3108.864956
1397.790100,-11399.171507,-2451.505594,3404.947333
1397.790411,-8438.347739,-4136.915689,3034.844362
1397.790723,-5477.523971,-7277.907231,1554.432478
1397.791035,-5551.544565,-7814.174080,148.041188
1397.791346,-4515.256246,-1608.800546,-666.185348
1397.791658,-3775.050304,4136.915689,-1554.432478
1397.791969,-7105.977043,3370.820191,-1184.329507
1397.792281,-11029.068536,-612.876398,222.061783
1397.792592,-14582.057057,-1378.971896,592.164754
1397.792904,-15618.345376,2145.067394,370.102971
1397.793215,-13175.665768,6588.421283,1036.288319
1397.793527,-11103.089130,3370.820191,-222.061783
1397.793838,-8956.491898,-1302.362347,-1184.329507
1397.794150,-7254.018232,-1915.238745,-2812.782580
1397.794462,-5107.421000,1149.143247,-2886.803174
1397.794773,-4959.379811,4903.011187,-2294.638420
1397.795085,-7624.121203,3370.820191,-592.164754
1397.795396,-10510.924376,-459.657299,1406.391290
1397.795708,-12953.603985,-2451.505594,1110.308913
1397.796019,-11917.315666,919.314598,888.247130
1397.796331,-10955.047942,3983.696590,-0.000000
1397.796642,-9030.512492,1455.581446,-592.164754
1397.796954,-7698.141797,-3677.258390,-1776.494261
1397.797266,-8364.327145,-4903.011187,-1776.494261
1397.797577,-7550.100608,-1072.533697,-296.082377
1397.797889,-6957.935855,2068.457845,1258.350101
1397.798200,-9474.636058,766.095498,2368.659014
1397.798512,-9992.780217,-2451.505594,3849.070898
1397.798823,-12139.377449,-2604.724693,2738.761985
1397.799135,-10807.006753,3983.696590,2442.679609
1397.799446,-6143.709319,8733.488677,814.226536
1397.799758,-4663.297435,5669.106685,-1332.370696
1397.800069,-3775.050304,306.438199,-1998.556043
1397.800381,-4885.359217,-459.657299,-3478.967927
1397.800693,-4145.153275,2681.334243,-2072.576638
1397.801004,-5921.647536,3753.867940,888.247130
1397.801316,-10288.862594,-612.876398,3849.070898
1397.801627,-13989.892304,-6052.154434,5107.421000
1397.801939,-15248.242405,-6128.763984,5477.523971
1397.802250,-11769.274478,0.000000,5033.400406
1397.802562,-8068.244768,1302.362347,2590.720797
1397.802873,-5847.626942,0.000000,1184.329507
1397.803185,-4293.194464,-3983.696590,-1702.473667
1397.803497,-2886.803174,-3753.867940,-2368.659014
1397.803808,-3330.926739,-459.657299,-1554.432478
1397.804120,-7105.977043,536.266849,-0.000000
1397.804431,-10881.027347,-2604.724693,2590.720797
1397.804743,-15396.283594,-6511.811733,3997.112087
1397.805054,-15988.448347,-5209.449386,5107.421000
1397.805366,-13915.871710,0.000000,3775.050304
1397.805677,-11843.295072,1762.019645,2368.659014
1397.805989,-7476.080014,-919.314598,1110.308913
1397.806300,-5033.400406,-3983.696590,-1110.308913
1397.806612,-4367.215058,-1838.629195,-2960.823768
1397.806924,-4145.153275,2987.772442,-2516.700203
1397.807235,-6217.729913,3830.477490,-2220.617826
1397.807547,-10066.800811,229.828649,-74.020594
1397.807858,-14211.954086,-2451.505594,518.144159
1397.808170,-14952.160028,-1225.752797,1110.308913
1397.808481,-13323.706956,2604.724693,1184.329507
1397.808793,-10732.986159,2145.067394,1184.329507
1397.809104,-8882.471304,-1378.971896,370.102971
1397.809416,-6883.915261,-4060.306139,-814.226536
1397.809727,-6217.729913,-1149.143247,-1998.556043
1397.810039,-6217.729913,2911.162892,-1628.453072
1397.810351,-7105.977043,4290.134789,-888.247130
1397.810662,-10362.883188,536.266849,-0.000000
1397.810974,-13027.624579,-2068.457845,148.041188
1397.811285,-13175.665768,842.705048,-370.102971
1397.811597,-11621.233289,4979.620737,-444.123565
1397.811908,-9326.594869,5592.497135,-1406.391290
1397.812220,-6587.832884,1072.533697,-2220.617826
1397.812531,-5181.441594,-1915.238745,-1406.391290
1397.812843,-5995.668130,76.609550,-1184.329507
1397.813155,-5181.441594,3294.210641,-0.000000
1397.813466,-7031.956449,4443.353888,888.247130
1397.813778,-10510.924376,383.047749,2368.659014
1397.814089,-13249.686362,-2221.676944,2516.700203
1397.814401,-12657.521608,229.828649,1628.453072
1397.814712,-8808.450710,4826.401637,74.020594
1397.815024,-7328.038826,3447.429741,-740.205942
1397.815335,-5329.482782,-2604.724693,-222.061783
1397.815647,-5255.462188,-5056.230287,-2146.597232
1397.815958,-4885.359217,-2681.334243,-1110.308913
1397.816270,-5107.421000,153.219100,296.082377
1397.816582,-9474.636058,-612.876398,2812.782580
1397.816893,-12509.480420,-3294.210641,4885.359217
1397.817205,-14582.057057,-5132.839837,4219.173869
1397.817516,-12805.562797,-1378.971896,4737.318029
1397.817828,-9252.574275,3677.258390,3330.926739
1397.818139,-7254.018232,3294.210641,1036.288319
1397.818451,-5403.503377,-1608.800546,-1036.288319
1397.818762,-5181.441594,-3907.087040,-2220.617826
1397.819074,-4071.132681,-153.219100,-1776.494261
1397.819386,-6291.750507,2374.896044,-1406.391290
1397.819697,-9400.615463,0.000000,1258.350101
1397.820009,-12731.542202,-4366.744339,2960.823768
1397.820320,-15766.386565,-5439.278036,4441.235652
1397.820632,-14508.036463,-1149.143247,4663.297435
1397.820943,-11991.336260,2298.286494,2812.782580
1397.821255,-9104.533087,1072.533697,1332.370696
1397.821566,-5699.585753,-3370.820191,-444.123565
1397.821878,-4219.173869,-4903.011187,-2442.679609
1397.822189,-4589.276840,-1225.752797,-2590.720797
1397.822501,-5107.421000,2298.286494,-962.267725
1397.822813,-9030.512492,-995.924147,962.267725
1397.823124,-13545.768739,-5286.058936,2886.803174
1397.823436,-15914.427753,-3907.087040,2442.679609
1397.823747,-14359.995275,1915.238745,2368.659014
1397.824059,-10807.006753,4596.572988,1924.535449
1397.824370,-8438.347739,1915.238745,666.185348
1397.824682,-5773.606348,-1378.971896,-962.267725
1397.824993,-5033.400406,-459.657299,-2812.782580
1397.825305,-5329.482782,4213.525239,-2886.803174
1397.825617,-6809.894666,7048.078582,-2146.597232
1397.825928,-9474.636058,5132.839837,-1184.329507
1397.826240,-11769.274478,383.047749,666.185348
1397.826551,-11917.315666,-995.924147,666.185348
1397.826863,-9622.677246,1838.629195,962.267725
1397.827174,-7846.182985,4136.915689,-0.000000
1397.827486,-5995.668130,2374.896044,-296.082377
1397.827797,-6217.729913,-1378.971896,-1628.453072
1397.828109,-7254.018232,-383.047749,-2738.761985
1397.828420,-6143.709319,4060.306139,-1702.473667
1397.828732,-7179.997637,4903.011187,-1036.288319
1397.829044,-9918.759623,919.314598,1332.370696
1397.829355,-12139.377449,-3064.381992,1480.411884
1397.829667,-12953.603985,-2528.115143,1406.391290
1397.829978,-11769.274478,1685.410096,1702.473667
1397.830290,-8956.491898,3600.648841,592.164754
1397.830601,-7624.121203,0.000000,-814.226536
1397.830913,-6439.791695,-3370.820191,-1628.453072
1397.831224,-4293.194464,-2068.457845,-1628.453072
1397.831536,-4367.215058,1455.581446,-518.144159
1397.831847,-7179.997637,2451.505594,1554.432478
1397.832159,-9696.697840,-1072.533697,3034.844362
1397.832471,-12731.542202,-4596.572988,3182.885551
1397.832782,-14285.974681,-3064.381992,3627.009116
1397.833094,-11843.295072,2068.457845,2590.720797
1397.833405,-9696.697840,2604.724693,370.102971
1397.833717,-7105.977043,-1685.410096,-148.041188
1397.834028,-5625.565159,-5362.668486,-1110.308913
1397.834340,-5477.523971,-4749.792088,-888.247130
1397.834651,-5847.626942,-766.095498,222.061783
1397.834963,-8808.450710,-612.876398,1702.473667
1397.835275,-11695.253884,-3600.648841,3330.926739
1397.835586,-13915.871710,-5362.668486,4071.132681
1397.835898,-13693.809927,-2681.334243,3923.091493
1397.836209,-11769.274478,842.705048,2664.741391
1397.836521,-9548.656652,2145.067394,1628.453072
1397.836832,-7105.977043,-1225.752797,-0.000000
1397.837144,-6439.791695,-2987.772442,-2146.597232
1397.837455,-5181.441594,-766.095498,-2442.679609
1397.837767,-5329.482782,1838.629195,-1406.391290
1397.838078,-7105.977043,919.314598,-0.000000
1397.838390,-10140.821405,-2451.505594,2072.576638
1397.838702,-13323.706956,-3753.867940,2146.597232
1397.839013,-13323.706956,0.000000,2886.803174
1397.839325,-11843.295072,3447.429741,2146.597232
1397.839636,-9474.636058,3447.429741,740.205942
1397.839948,-6809.894666,459.657299,-740.205942
1397.840259,-5477.523971,-1838.629195,-2294.638420
1397.840571,-4515.256246,1532.190996,-2072.576638
1397.840882,-5107.421000,4903.011187,-1406.391290
1397.841194,-7402.059420,4519.963438,296.082377
1397.841506,-11251.130318,0.000000,2590.720797
1397.841817,-13693.809927,-2068.457845,2146.597232
1397.842129,-12805.562797,3140.991542,1110.308913
1397.842440,-9252.574275,7737.564530,-0.000000
1397.842752,-6291.750507,6128.763984,-1258.350101
1397.843063,-4737.318029,1225.752797,-2516.700203
1397.843375,-4515.256246,76.609550,-2664.741391
1397.843686,-5181.441594,1991.848295,-2516.700203
1397.843998,-6291.750507,5209.449386,-814.226536
1397.844309,-9548.656652,4060.306139,370.102971
1397.844621,-13027.624579,0.000000,1480.411884
1397.844933,-13693.809927,-2298.286494,1924.535449
1397.845244,-11843.295072,306.438199,2220.617826
1397.845556,-9770.718434,2451.505594,1258.350101
1397.845867,-7624.121203,1838.629195,-0.000000
1397.846179,-5625.565159,-2604.724693,-962.267725
1397.846490,-5847.626942,-4596.572988,-888.247130
1397.846802,-4885.359217,-1378.971896,-518.144159
1397.847113,-5995.668130,1455.581446,1036.288319
1397.847425,-9918.759623,-995.924147,2294.638420
1397.847736,-13397.727550,-4213.525239,3404.947333
1397.848048,-15248.242405,-4213.525239,3404.947333
1397.848360,-13249.686362,0.000000,3701.029710
1397.848671,-9474.636058,2451.505594,2590.720797
1397.848983,-7328.038826,-919.314598,1184.329507
1397.849294,-6439.791695,-5898.935335,-74.020594
1397.849606,-4959.379811,-4673.182538,-1924.535449
1397.849917,-3997.112087,-766.095498,-1480.411884
1397.850229,-6513.812290,842.705048,-222.061783
1397.850540,-10436.903782,-2374.896044,2294.638420
1397.850852,-12953.603985,-5592.497135,3627.009116
1397.851164,-13841.851115,-5669.106685,3849.070898
1397.851475,-11991.336260,-153.219100,3404.947333
1397.851787,-10436.903782,1762.019645,1554.432478
1397.852098,-8512.368333,-766.095498,444.123565
1397.852410,-5699.585753,-4213.525239,-814.226536
1397.852721,-5699.585753,-3983.696590,-1924.535449
1397.853033,-5551.544565,459.657299,-1036.288319
1397.853344,-7105.977043,3294.210641,370.102971
1397.853656,-9992.780217,229.828649,1628.453072
1397.853967,-12065.356855,-2834.553343,2664.741391
1397.854279,-13175.665768,-1608.800546,2294.638420
1397.854591,-11621.233289,3064.381992,1554.432478
1397.854902,-9474.636058,5898.935335,444.123565
1397.855214,-7254.018232,3370.820191,-518.144159
1397.855525,-5847.626942,153.219100,-2368.659014
1397.855837,-5847.626942,612.876398,-3330.926739
1397.856148,-5403.503377,4060.306139,-2294.638420
1397.856460,-6957.935855,4979.620737,-1036.288319
1397.856771,-10510.924376,2068.457845,-0.000000
1397.857083,-13249.686362,-919.314598,1332.370696
1397.857395,-13989.892304,689.485948,1184.329507
1397.857706,-11399.171507,4673.182538,1702.473667
1397.858018,-7994.224174,4979.620737,518.144159
1397.858329,-5773.606348,1302.362347,-1184.329507
1397.858641,-5329.482782,-1838.629195,-2590.720797
1397.858952,-5255.462188,229.828649,-2368.659014
1397.859264,-5847.626942,3677.258390,-1850.514855
1397.859575,-8142.265362,4060.306139,-222.061783
1397.859887,-10436.903782,0.000000,2072.576638
1397.860198,-13101.645173,-3447.429741,3034.844362
1397.860510,-13471.748144,-2221.676944,2960.823768
1397.860822,-11251.130318,2911.162892,2738.761985
1397.861133,-8660.409521,4213.525239,592.164754
1397.861445,-5921.647536,766.095498,-148.041188
1397.861756,-5181.441594,-2604.724693,-1628.453072
1397.862068,-4515.256246,-1915.238745,-1702.473667
1397.862379,-4515.256246,766.095498,-592.164754
1397.862691,-7624.121203,-153.219100,1702.473667
1397.863002,-11325.150913,-3600.648841,4071.132681
1397.863314,-13693.809927,-5745.716235,4367.215058
1397.863626,-13989.892304,-3753.867940,4219.173869
1397.863937,-11621.233289,-612.876398,3256.906145
1397.864249,-7920.203579,-306.438199,1406.391290
1397.864560,-5921.647536,-3370.820191,-74.020594
1397.864872,-4441.235652,-5898.935335,-444.123565
1397.865183,-3997.112087,-5209.449386,-740.205942
1397.865495,-5921.647536,-1072.533697,-0.000000
1397.865806,-9622.677246,-1915.238745,2960.823768
1397.866118,-12509.480420,-4136.915689,3256.906145
1397.866429,-14804.118840,-5669.106685,3701.029710
1397.866741,-14137.933492,-2068.457845,3034.844362
1397.867053,-11029.068536,1915.238745,1554.432478
1397.867364,-9474.636058,1225.752797,-0.000000
1397.867676,-7624.121203,-842.705048,-1036.288319
1397.867987,-6217.729913,-1915.238745,-2072.576638
1397.868299,-5551.544565,383.047749,-2886.803174
1397.868610,-6143.709319,3753.867940,-962.267725
1397.868921,-8512.368333,2374.896044,222.061783
1397.869233,-11177.109724,-1838.629195,2738.761985
1397.869544,-13323.706956,-2451.505594,2738.761985
1397.869856,-13027.624579,1225.752797,1628.453072
1397.870167,-10955.047942,5209.449386,-74.020594
1397.870479,-8142.265362,4979.620737,-1554.432478
1397.870790,-6291.750507,536.266849,-3108.864956
1397.871101,-6217.729913,-1838.629195,-3478.967927
1397.871413,-5995.668130,919.314598,-2590.720797
1397.871724,-7179.997637,3983.696590,-1036.288319
1397.872036,-9918.759623,2528.115143,962.267725
1397.872347,-13175.665768,-1378.971896,2220.617826
1397.872659,-13545.768739,-1378.971896,2368.659014
1397.872970,-11695.253884,2911.162892,1332.370696
1397.873282,-8290.306550,7201.297681,-74.020594
1397.873593,-5995.668130,4979.620737,-2072.576638
1397.873904,-5255.462188,842.705048,-3182.885551
1397.874216,-4663.297435,306.438199,-3182.885551
1397.874527,-4515.256246,2757.943793,-2072.576638
1397.874839,-5921.647536,4136.915689,-0.000000
1397.875150,-9474.636058,2221.676944,1554.432478
1397.875462,-12879.583391,-3370.820191,2516.700203
1397.875773,-13323.706956,-2528.115143,2738.761985
1397.876084,-10288.862594,1685.410096,2294.638420
1397.876396,-7920.203579,2834.553343,1036.288319
1397.876707,-5625.565159,-1455.581446,814.226536
1397.877019,-4811.338623,-5669.106685,-888.247130
1397.877330,-5329.482782,-4979.620737,-814.226536
1397.877642,-5625.565159,-1302.362347,444.123565
1397.877953,-7402.059420,-383.047749,2368.659014
1397.878265,-10955.047942,-2681.334243,3701.029710
1397.878576,-14063.912898,-6128.763984,4589.276840
1397.878887,-14063.912898,-4903.011187,3997.112087
1397.879199,-12139.377449,0.000000,3182.885551
1397.879510,-10140.821405,1991.848295,1924.535449
1397.879822,-7476.080014,-1149.143247,740.205942
1397.880133,-5625.565159,-5132.839837,-814.226536
1397.880445,-4811.338623,-4213.525239,-1184.329507
1397.880756,-5921.647536,-306.438199,-1184.329507
1397.881068,-7772.162391,383.047749,592.164754
1397.881379,-10436.903782,-2911.162892,2368.659014
1397.881690,-13545.768739,-6588.421283,3256.906145
1397.882002,-14508.036463,-4903.011187,2738.761985
1397.882313,-11991.336260,0.000000,814.226536
1397.882625,-9326.594869,1302.362347,444.123565
1397.882936,-7920.203579,-2451.505594,-370.102971
1397.883248,-7105.977043,-5056.230287,-1184.329507
1397.883559,-6809.894666,-3677.258390,-1184.329507
1397.883870,-6883.915261,229.828649,-74.020594
1397.884182,-8586.388927,1762.019645,888.247130
1397.884493,-10955.047942,536.266849,2146.597232
1397.884805,-13323.706956,-1072.533697,1184.329507
1397.885116,-13101.645173,1455.581446,592.164754
1397.885428,-10881.027347,6205.373534,-0.000000
1397.885739,-8956.491898,7354.516781,-814.226536
1397.886051,-6957.935855,4136.915689,-2072.576638
1397.886362,-6143.709319,842.705048,-3552.988522
1397.886673,-6365.771101,2911.162892,-2812.782580
1397.886985,-5255.462188,5898.935335,-1924.535449
1397.887296,-7179.997637,5669.106685,-1850.514855
1397.887608,-11029.068536,1685.410096,-444.123565
1397.887919,-12583.501014,0.000000,740.205942
1397.888231,-12287.418637,2604.724693,814.226536
1397.888542,-10436.903782,5669.106685,-0.000000
1397.888853,-7402.059420,4596.572988,-370.102971
1397.889165,-5181.441594,-153.219100,-1406.391290
1397.889476,-4367.215058,-2451.505594,-2294.638420
1397.889788,-3923.091493,0.000000,-1776.494261
1397.890099,-5699.585753,1991.848295,-518.144159
1397.890411,-8512.368333,2145.067394,1628.453072
1397.890722,-11843.295072,-995.924147,2738.761985
1397.891034,-14285.974681,-2757.943793,3330.926739
1397.891345,-13323.706956,306.438199,2960.823768
1397.891656,-9770.718434,3753.867940,2220.617826
1397.891968,-6291.750507,2145.067394,962.267725
1397.892279,-4515.256246,-1762.019645,-296.082377
1397.892591,-3849.070898,-4290.134789,-1110.308913
1397.892902,-3775.050304,-1991.848295,-370.102971
1397.893214,-6217.729913,-153.219100,1258.350101
1397.893525,-9030.512492,-1532.190996,3034.844362
1397.893837,-12213.398043,-4366.744339,4441.235652
1397.894148,-13471.748144,-4903.011187,5107.421000
1397.894459,-12435.459826,-1838.629195,3552.988522
1397.894771,-11029.068536,612.876398,2368.659014
1397.895082,-7772.162391,-1225.752797,1110.308913
1397.895394,-5773.606348,-5669.106685,-0.000000
1397.895705,-6143.709319,-7201.297681,148.041188
1397.896017,-6735.874072,-4519.963438,-222.061783
1397.896328,-9178.553681,-1378.971896,666.185348
1397.896639,-11769.274478,-1915.238745,2368.659014
1397.896951,-13693.809927,-4749.792088,3256.906145
1397.897262,-15100.201217,-4443.353888,3034.844362
1397.897574,-11917.315666,-306.438199,2368.659014
1397.897885,-9474.636058,2221.676944,888.247130
1397.898197,-7031.956449,689.485948,148.041188
1397.898508,-5921.647536,-2221.676944,-888.247130
1397.898820,-5699.585753,-1378.971896,-2294.638420
1397.899131,-4737.318029,1532.190996,-1850.514855
1397.899442,-6587.832884,3447.429741,-74.020594
1397.899754,-10140.821405,1608.800546,888.247130
1397.900065,-13101.645173,-2451.505594,1406.391290
1397.900377,-14285.974681,-1838.629195,1776.494261
1397.900688,-13101.645173,1991.848295,1258.350101
1397.901000,-11473.192101,4826.401637,-666.185348
1397.901311,-8586.388927,3140.991542,-1776.494261
1397.901622,-5995.668130,0.000000,-3182.885551
1397.901934,-6291.750507,153.219100,-3552.988522
1397.902245,-4737.318029,4826.401637,-2812.782580
1397.902557,-5699.585753,6052.154434,-1554.432478
1397.902868,-8808.450710,3524.039291,666.185348
1397.903180,-12065.356855,0.000000,2146.597232
1397.903491,-13619.789333,1455.581446,888.247130
1397.903803,-10807.006753,5975.544884,-444.123565
1397.904114,-7772.162391,8503.660028,-1628.453072
1397.904425,-6143.709319,5669.106685,-2664.741391
1397.904737,-5181.441594,76.609550,-3701.029710
1397.905048,-4737.318029,229.828649,-2960.823768
1397.905360,-5699.585753,2068.457845,-1776.494261
1397.905671,-7994.224174,3217.601092,888.247130
1397.905983,-11103.089130,153.219100,1998.556043
1397.906294,-13545.768739,-3524.039291,3108.864956
1397.906606,-12953.603985,-3064.381992,3404.947333
1397.906917,-10510.924376,1225.752797,3034.844362
1397.907228,-7772.162391,1991.848295,2516.700203
1397.907540,-5625.565159,-2221.676944,1184.329507
1397.907851,-5699.585753,-6588.421283,888.247130
1397.908163,-5625.565159,-4749.792088,-148.041188
1397.908474,-5107.421000,612.876398,888.247130
1397.908786,-7920.203579,1225.752797,1628.453072
1397.909097,-10955.047942,-2528.115143,3108.864956
1397.909408,-12435.459826,-4979.620737,4515.256246
1397.909720,-12879.583391,-3370.820191,3775.050304
1397.910031,-11325.150913,612.876398,3404.947333
1397.910343,-9400.615463,1378.971896,2294.638420
1397.910654,-7772.162391,-1838.629195,740.205942
1397.910966,-5477.523971,-5132.839837,-518.144159
1397.911277,-4959.379811,-4213.525239,-1036.288319
1397.911589,-6587.832884,-842.705048,148.041188
1397.911900,-9030.512492,-536.266849,1184.329507
1397.912211,-12509.480420,-2834.553343,2590.720797
1397.912523,-14211.954086,-4979.620737,3182.885551
1397.912834,-14211.954086,-2451.505594,2664.741391
1397.913146,-11251.130318,612.876398,1924.535449
1397.913457,-7550.100608,306.438199,1184.329507
1397.913769,-5699.585753,-2757.943793,-370.102971
1397.914080,-5995.668130,-4366.744339,-1258.350101
1397.914391,-6365.771101,-1991.848295,-1332.370696
1397.914703,-6661.853478,1838.629195,-148.041188
1397.915014,-9178.553681,1915.238745,592.164754
1397.915326,-11769.274478,-306.438199,1628.453072
1397.915637,-14063.912898,-1532.190996,962.267725
1397.915949,-12953.603985,2145.067394,1110.308913
1397.916260,-10214.842000,6511.811733,-222.061783
1397.916572,-7624.121203,5209.449386,-962.267725
1397.916883,-5921.647536,1608.800546,-1406.391290
1397.917194,-4811.338623,0.000000,-2738.761985
1397.917506,-4737.318029,2834.553343,-3108.864956
1397.917817,-5329.482782,6971.469032,-2072.576638
1397.918129,-7772.162391,5975.544884,-1702.473667
1397.918440,-11769.274478,1838.629195,370.102971
1397.918752,-13767.830521,-842.705048,592.164754
1397.919063,-12805.562797,2757.943793,740.205942
1397.919374,-9918.759623,6435.202183,-740.205942
1397.919686,-7550.100608,4903.011187,-1110.308913
1397.919997,-5995.668130,-842.705048,-1554.432478
1397.920309,-4811.338623,-2911.162892,-2664.741391
1397.920620,-3997.112087,-229.828649,-1924.535449
1397.920932,-6587.832884,2987.772442,-740.205942
1397.921243,-9770.718434,2068.457845,1998.556043
1397.921555,-13693.809927,-1072.533697,2960.823768
1397.921866,-15544.324782,-1838.629195,2812.782580
1397.922177,-12435.459826,612.876398,2960.823768
1397.922489,-9178.553681,3524.039291,1998.556043
1397.922800,-6809.894666,1378.971896,814.226536
1397.923112,-5033.400406,-2451.505594,-740.205942
1397.923423,-4293.194464,-2987.772442,-1406.391290
1397.923735,-3627.009116,0.000000,296.082377
1397.924046,-6735.874072,1455.581446,1702.473667
1397.924358,-10066.800811,-1532.190996,3552.988522
1397.924669,-13323.706956,-5056.230287,4293.194464
1397.924980,-13767.830521,-5209.449386,4515.256246
1397.925292,-11621.233289,-2145.067394,3997.112087
1397.925603,-9474.636058,-689.485948,2664.741391
1397.925915,-7105.977043,-4060.306139,1036.288319
1397.926226,-6217.729913,-6741.640382,-148.041188
1397.926538,-5995.668130,-6818.249932,-296.082377
1397.926849,-6513.812290,-1915.238745,-296.082377
1397.927160,-8734.430116,76.609550,1184.329507
1397.927472,-11399.171507,-3217.601092,2886.803174
1397.927783,-13323.706956,-5515.887586,3849.070898
1397.928095,-13619.789333,-3064.381992,2960.823768
1397.928406,-11251.130318,1838.629195,2220.617826
1397.928718,-9400.615463,3294.210641,592.164754
1397.929029,-7772.162391,153.219100,-666.185348
1397.929341,-5255.462188,-1838.629195,-1702.473667
1397.929652,-4737.318029,-1532.190996,-2146.597232
1397.929963,-5847.626942,612.876398,-1406.391290
1397.930275,-8216.285956,2374.896044,-296.082377
1397.930586,-11251.130318,689.485948,814.226536
1397.930898,-13989.892304,-2145.067394,1554.432478
1397.931209,-14137.933492,-229.828649,1850.514855
1397.931521,-11251.130318,4060.306139,740.205942
1397.931832,-8216.285956,5286.058936,-592.164754
1397.932143,-5403.503377,1991.848295,-2072.576638
1397.932455,-5107.421000,-1685.410096,-3627.009116
1397.932766,-5699.585753,0.000000,-4515.256246
1397.933078,-5477.523971,4596.572988,-3552.988522
1397.933389,-8586.388927,5056.230287,-2072.576638
1397.933701,-13027.624579,1915.238745,518.144159
1397.934012,-15248.242405,-1149.143247,1480.411884
1397.934324,-15396.283594,1072.533697,1924.535449
1397.934635,-11325.150913,5362.668486,1332.370696
1397.934946,-7179.997637,5975.544884,-0.000000
1397.935258,-4293.194464,2681.334243,-2368.659014
1397.935569,-2738.761985,153.219100,-3849.070898
1397.935881,-2516.700203,1532.190996,-3923.091493
1397.936192,-3775.050304,4673.182538,-2886.803174
1397.936504,-7624.121203,4290.134789,-222.061783
1397.936815,-13101.645173,-153.219100,2146.597232
1397.937127,-15988.448347,-4060.306139,4071.132681
1397.937438,-15100.201217,-2451.505594,4737.318029
1397.937749,-11251.130318,383.047749,3404.947333
1397.938061,-7476.080014,612.876398,2368.659014
1397.938372,-4071.132681,-3677.258390,370.102971
1397.938684,-2886.803174,-6741.640382,-1110.308913
1397.938995,-2886.803174,-5056.230287,-0.000000
1397.939307,-4885.359217,-766.095498,962.267725
1397.939618,-9918.759623,-842.705048,2960.823768
1397.939929,-13249.686362,-4136.915689,5033.400406
1397.940241,-15766.386565,-6205.373534,5107.421000
1397.940552,-13471.748144,-2911.162892,4589.276840
1397.940864,-10140.821405,842.705048,2590.720797
1397.941175,-8068.244768,459.657299,888.247130
1397.941487,-5551.544565,-2451.505594,-74.020594
1397.941798,-4663.297435,-3370.820191,-1480.411884
1397.942110,-5033.400406,-1685.410096,-1332.370696
1397.942421,-6809.894666,1225.752797,-0.000000
1397.942732,-9696.697840,0.000000,1998.556043
1397.943044,-12583.501014,-3677.258390,3108.864956
1397.943355,-14804.118840,-4443.353888,3404.947333
1397.943667,-12879.583391,-2298.286494,3552.988522
1397.943978,-9992.780217,459.657299,1776.494261
1397.944290,-8512.368333,-995.924147,-0.000000
1397.944601,-5995.668130,-3753.867940,-1332.370696
1397.944912,-5403.503377,-4290.134789,-2368.659014
1397.945224,-5255.462188,-995.924147,-1998.556043
1397.945535,-7179.997637,2451.505594,-296.082377
1397.945847,-10658.965565,1072.533697,1406.391290
1397.946158,-13101.645173,-1532.190996,3256.906145
1397.946470,-14137.933492,-1225.752797,2812.782580
1397.946781,-12805.562797,3983.696590,1332.370696
1397.947093,-9622.677246,7660.954980,-888.247130
1397.947404,-6587.832884,6052.154434,-2590.720797
1397.947715,-4663.297435,1838.629195,-3552.988522
1397.948027,-4293.194464,1455.581446,-4293.194464
1397.948338,-5403.503377,4366.744339,-3701.029710
1397.948650,-7179.997637,5822.325785,-2220.617826
1397.948961,-11029.068536,3447.429741,-0.000000
1397.949273,-14359.995275,-229.828649,1110.308913
1397.949584,-14211.954086,153.219100,518.144159
1397.949896,-11695.253884,4673.182538,444.123565
1397.950207,-8364.327145,4903.011187,-592.164754
1397.950518,-5107.421000,2451.505594,-1110.308913
1397.950830,-3478.967927,-1302.362347,-2812.782580
1397.951141,-4441.235652,-2757.943793,-3034.844362
1397.951453,-4737.318029,919.314598,-1554.432478
1397.951764,-7772.162391,2834.553343,-148.041188
1397.952076,-11991.336260,0.000000,2368.659014
1397.952387,-15692.365970,-4213.525239,3701.029710
1397.952698,-15248.242405,-3064.381992,3923.091493
1397.953010,-12361.439231,1378.971896,2442.679609
1397.953321,-8438.347739,3907.087040,592.164754
1397.953633,-5773.606348,153.219100,-74.020594
1397.953944,-3478.967927,-3140.991542,-1480.411884
1397.954256,-2294.638420,-1762.019645,-1184.329507
1397.954567,-3997.112087,459.657299,-518.144159
1397.954879,-7920.203579,919.314598,1110.308913
1397.955190,-11621.233289,-2145.067394,3404.947333
1397.955501,-14804.118840,-3907.087040,3923.091493
1397.955813,-14211.954086,-3524.039291,4589.276840
1397.956124,-12287.418637,-1532.190996,3404.947333
1397.956436,-9474.636058,-1225.752797,2220.617826
1397.956747,-6217.729913,-3753.867940,740.205942
1397.957059,-5403.503377,-6205.373534,-592.164754
1397.957370,-4811.338623,-4749.792088,-296.082377
1397.957681,-6143.709319,-1762.019645,-370.102971
1397.957993,-8956.491898,-766.095498,1850.514855
1397.958304,-11843.295072,-3294.210641,3182.885551
1397.958616,-14285.974681,-5056.230287,3478.967927
1397.958927,-13693.809927,-2374.896044,3182.885551
1397.959239,-11325.150913,1378.971896,1924.535449
1397.959550,-9030.512492,1455.581446,666.185348
1397.959862,-6217.729913,-1378.971896,-592.164754
1397.960173,-4441.235652,-1608.800546,-1036.288319
1397.960484,-4441.235652,-612.876398,-1776.494261
1397.960796,-5403.503377,2604.724693,-740.205942
1397.961107,-8142.265362,3524.039291,-0.000000
1397.961419,-11547.212695,766.095498,1554.432478
1397.961730,-14063.912898,-1225.752797,1406.391290
1397.962042,-13693.809927,1838.629195,1036.288319
1397.962353,-11029.068536,6588.421283,-370.102971
1397.962664,-9104.533087,5362.668486,-1258.350101
1397.962976,-6661.853478,689.485948,-1628.453072
1397.963287,-4737.318029,-1532.190996,-2442.679609
1397.963599,-5329.482782,0.000000,-2368.659014
1397.963910,-6143.709319,2681.334243,-962.267725
1397.964222,-8882.471304,3370.820191,296.082377
1397.964533,-12213.398043,1762.019645,1110.308913
1397.964845,-14508.036463,76.609550,592.164754
1397.965156,-12583.501014,3524.039291,666.185348
1397.965467,-10658.965565,7660.954980,-962.267725
1397.965779,-8068.244768,6588.421283,-1554.432478
1397.966090,-5847.626942,1532.190996,-2738.761985
1397.966402,-5033.400406,-612.876398,-2960.823768
1397.966713,-4589.276840,1455.581446,-2220.617826
1397.967025,-5033.400406,2987.772442,-1184.329507
1397.967336,-9622.677246,1762.019645,1036.288319
1397.967648,-13027.624579,-383.047749,3034.844362
1397.967959,-13101.645173,-2834.553343,3478.967927
1397.968270,-11621.233289,-995.924147,2960.823768
1397.968582,-9326.594869,1762.019645,2960.823768
1397.968893,-6661.853478,0.000000,1184.329507
1397.969205,-4441.235652,-4290.134789,-592.164754
1397.969516,-3552.988522,-4213.525239,-222.061783
1397.969828,-3330.926739,-2221.676944,-296.082377
1397.970139,-7105.977043,-306.438199,962.267725
1397.970450,-11029.068536,-2604.724693,3552.988522
1397.970762,-14063.912898,-5209.449386,4737.318029
1397.971073,-14952.160028,-5439.278036,5107.421000
1397.971385,-12805.562797,-1378.971896,3997.112087
1397.971696,-9696.697840,919.314598,2146.597232
1397.972008,-6809.894666,-995.924147,592.164754
1397.972319,-4219.173869,-3983.696590,-518.144159
1397.972631,-4515.256246,-4749.792088,-1850.514855
1397.972942,-5847.626942,-995.924147,-962.267725
1397.973253,-8438.347739,1072.533697,444.123565
1397.973565,-11325.150913,-919.314598,1998.556043
1397.973876,-13471.748144,-4903.011187,3034.844362
1397.974188,-14359.995275,-4596.572988,2590.720797
1397.974499,-12139.377449,-76.609550,1998.556043
1397.974811,-10510.924376,2221.676944,888.247130
1397.975122,-8808.450710,689.485948,-74.020594
1397.975433,-6291.750507,-3064.381992,-370.102971
1397.975745,-6069.688724,-2911.162892,-1628.453072
1397.976056,-4885.359217,842.705048,-1036.288319
1397.976368,-6587.832884,3447.429741,-296.082377
1397.976679,-10066.800811,766.095498,1036.288319
1397.976991,-12583.501014,-995.924147,1258.350101
1397.977302,-14137.933492,0.000000,814.226536
1397.977613,-11991.336260,4519.963438,1184.329507
1397.977925,-10436.903782,6894.859482,370.102971
1397.978236,-8142.265362,4136.915689,-370.102971
1397.978548,-5551.544565,306.438199,-2442.679609
1397.978859,-5107.421000,766.095498,-2886.803174
1397.979170,-3330.926739,5439.278036,-2220.617826
1397.979482,-5403.503377,6894.859482,-2664.741391
1397.979793,-8808.450710,4290.134789,-814.226536
1397.980104,-12213.398043,689.485948,-0.000000
1397.980416,-13323.706956,1378.971896,296.082377
1397.980727,-11399.171507,5286.058936,-0.000000
1397.981039,-9400.615463,5975.544884,296.082377
1397.981350,-6587.832884,1608.800546,-666.185348
1397.981661,-5477.523971,-2987.772442,-1702.473667
1397.981973,-4737.318029,-2068.457845,-1702.473667
1397.982284,-4367.215058,689.485948,-666.185348
1397.982595,-7772.162391,1838.629195,518.144159
1397.982907,-11399.171507,-1072.533697,2960.823768
1397.983218,-14434.015869,-3907.087040,2960.823768
1397.983530,-14211.954086,-2221.676944,3552.988522
1397.983841,-11843.295072,1685.410096,2368.659014
1397.984152,-8216.285956,3064.381992,1184.329507
1397.984464,-5699.585753,-766.095498,-74.020594
1397.984775,-4811.338623,-3983.696590,-888.247130
1397.985086,-3997.112087,-2451.505594,-666.185348
1397.985398,-4663.297435,1072.533697,148.041188
1397.985709,-9030.512492,459.657299,1406.391290
1397.986021,-11843.295072,-3064.381992,3034.844362
1397.986332,-13693.809927,-5439.278036,3552.988522
1397.986643,-13397.727550,-3983.696590,3923.091493
1397.986955,-11177.109724,-1149.143247,3108.864956
1397.987266,-9400.615463,-1685.410096,1924.535449
1397.987577,-7698.141797,-4979.620737,370.102971
1397.987889,-6513.812290,-7048.078582,-1110.308913
1397.988200,-5329.482782,-4060.306139,-1776.494261
1397.988512,-6365.771101,0.000000,-518.144159
1397.988823,-9622.677246,-1225.752797,1258.350101
1397.989134,-12065.356855,-3677.258390,2812.782580
1397.989446,-14137.933492,-4443.353888,3478.967927
1397.989757,-13915.871710,-1378.971896,3330.926739
1397.990068,-10807.006753,2604.724693,3034.844362
1397.990380,-8438.347739,2451.505594,1258.350101
1397.990691,-6513.812290,-766.095498,-444.123565
1397.991003,-4219.173869,-1838.629195,-1776.494261
1397.991314,-4145.153275,1225.752797,-2590.720797
1397.991625,-5699.585753,4749.792088,-1776.494261
1397.991937,-7994.224174,3983.696590,-444.123565
1397.992248,-11769.274478,-459.657299,666.185348
1397.992559,-14211.954086,-1685.410096,1036.288319
1397.992871,-13175.665768,2528.115143,1924.535449
1397.993182,-10807.006753,5898.935335,962.267725
1397.993494,-7105.977043,3753.867940,370.102971
1397.993805,-5625.565159,0.000000,-1628.453072
1397.994116,-4737.318029,-2528.115143,-2886.803174
1397.994428,-4589.276840,1608.800546,-3552.988522
1397.994739,-5847.626942,6511.811733,-2072.576638
1397.995050,-9030.512492,4673.182538,-666.185348
1397.995362,-13027.624579,153.219100,740.205942
1397.995673,-14508.036463,-306.438199,1554.432478
1397.995985,-12953.603985,3907.087040,1406.391290
1397.996296,-10362.883188,5898.935335,962.267725
1397.996607,-6883.915261,3677.258390,-0.000000
1397.996919,-5477.523971,-1685.410096,-1332.370696
1397.997230,-4737.318029,-1915.238745,-2738.761985
1397.997541,-4663.297435,1915.238745,-2146.597232
1397.997853,-5995.668130,4673.182538,-814.226536
1397.998164,-9474.636058,2068.457845,592.164754
1397.998476,-12509.480420,-2834.553343,2368.659014
1397.998787,-14211.954086,-4596.572988,2516.700203
1397.999098,-12657.521608,-995.924147,3552.988522
1397.999410,-9918.759623,766.095498,2590.720797
1397.999721,-7550.100608,-1838.629195,666.185348
1398.000032,-5847.626942,-4826.401637,-148.041188
1398.000344,-4441.235652,-4596.572988,-888.247130
1398.000655,-3701.029710,-919.314598,-0.000000
1398.000967,-6735.874072,0.000000,1480.411884
1398.001278,-10214.842000,-1685.410096,3108.864956
1398.001589,-13101.645173,-5286.058936,4145.153275
1398.001901,-14211.954086,-4979.620737,4441.235652
1398.002212,-12657.521608,-612.876398,3478.967927
1398.002523,-10214.842000,1072.533697,1998.556043
1398.002835,-7846.182985,-1685.410096,296.082377
1398.003146,-5773.606348,-4443.353888,-888.247130
1398.003458,-6069.688724,-3447.429741,-2146.597232
1398.003769,-5625.565159,0.000000,-962.267725
1398.004080,-8216.285956,383.047749,222.061783
1398.004392,-10732.986159,-2528.115143,2590.720797
1398.004703,-13101.645173,-5056.230287,3182.885551
1398.005014,-13471.748144,-3830.477490,3108.864956
1398.005326,-11621.233289,612.876398,2442.679609
1398.005637,-9474.636058,1838.629195,1110.308913
1398.005949,-7994.224174,-919.314598,-296.082377
1398.006260,-5921.647536,-2757.943793,-1776.494261
1398.006571,-5181.441594,-1455.581446,-1702.473667
1398.006883,-5477.523971,2145.067394,-1554.432478
1398.007194,-8290.306550,3830.477490,-740.205942
1398.007506,-10066.800811,2145.067394,740.205942
1398.007817,-12879.583391,-153.219100,666.185348
1398.008128,-13175.665768,1762.019645,1480.411884
1398.008440,-10658.965565,5975.544884,518.144159
1398.008751,-9178.553681,6741.640382,-740.205942
1398.009062,-6735.874072,3677.258390,-1554.432478
1398.009374,-5699.585753,995.924147,-3034.844362
1398.009685,-4959.379811,1915.238745,-3552.988522
1398.009997,-4589.276840,4903.011187,-2146.597232
1398.010308,-6735.874072,4673.182538,-666.185348
1398.010619,-9548.656652,766.095498,666.185348
1398.010931,-12731.542202,-1302.362347,1110.308913
1398.011242,-13545.768739,0.000000,592.164754
1398.011553,-11843.295072,4366.744339,740.205942
1398.011865,-8734.430116,4826.401637,74.020594
1398.012176,-6069.688724,459.657299,-888.247130
1398.012488,-6069.688724,-3217.601092,-2146.597232
1398.012799,-5403.503377,-1838.629195,-1110.308913
1398.013110,-5181.441594,612.876398,-888.247130
1398.013422,-7105.977043,1608.800546,1554.432478
1398.013733,-10881.027347,-2451.505594,3108.864956
1398.014044,-14730.098246,-4903.011187,3404.947333
1398.014356,-13989.892304,-2451.505594,3552.988522
1398.014667,-10362.883188,2145.067394,2442.679609
1398.014979,-7994.224174,1915.238745,888.247130
1398.015290,-6217.729913,-2374.896044,-518.144159
1398.015601,-5329.482782,-4519.963438,-1998.556043
1398.015913,-5255.462188,-2911.162892,-1628.453072
1398.016224,-6069.688724,229.828649,518.144159
1398.016535,-8364.327145,-383.047749,2072.576638
1398.016847,-12435.459826,-4903.011187,3997.112087
1398.017158,-14582.057057,-6588.421283,4293.194464
1398.017470,-12731.542202,-2681.334243,3775.050304
1398.017781,-10881.027347,1072.533697,2072.576638
1398.018092,-9178.553681,612.876398,1406.391290
1398.018404,-7254.018232,-3447.429741,-370.102971
1398.018715,-6587.832884,-5592.497135,-1332.370696
1398.019026,-5403.503377,-2451.505594,-1110.308913
1398.019338,-7031.956449,1072.533697,-148.041188
1398.019649,-9992.780217,-229.828649,1776.494261
1398.019961,-12879.583391,-3830.477490,2960.823768
1398.020272,-13249.686362,-4979.620737,3034.844362
1398.020583,-11843.295072,-842.705048,2886.803174
1398.020895,-10658.965565,3140.991542,1998.556043
1398.021206,-7550.100608,1302.362347,962.267725
1398.021517,-5403.503377,-2068.457845,-888.247130
1398.021829,-4441.235652,-2451.505594,-1998.556043
1398.022140,-3849.070898,1685.410096,-2368.659014
1398.022452,-5551.544565,4903.011187,-1184.329507
1398.022763,-9030.512492,2834.553343,-148.041188
1398.023074,-12583.501014,-229.828649,1110.308913
1398.023386,-14434.015869,-842.705048,1702.473667
1398.023697,-12805.562797,2757.943793,1554.432478
1398.024008,-10214.842000,5439.278036,444.123565
1398.024320,-7476.080014,3064.381992,-740.205942
1398.024631,-4441.235652,-306.438199,-2072.576638
1398.024943,-3552.988522,-766.095498,-3330.926739
1398.025254,-4293.194464,2987.772442,-3182.885551
1398.025565,-6143.709319,4749.792088,-1110.308913
1398.025877,-9770.718434,2987.772442,444.123565
1398.026188,-13545.768739,-842.705048,2072.576638
1398.026499,-14359.995275,-689.485948,1998.556043
1398.026811,-13249.686362,3830.477490,1184.329507
1398.027122,-10584.944971,6281.983084,74.020594
1398.027434,-7031.956449,3294.210641,-1036.288319
1398.027745,-4959.379811,-536.266849,-2294.638420
1398.028056,-5033.400406,-1608.800546,-3330.926739
1398.028368,-5699.585753,2068.457845,-2146.597232
1398.028679,-7994.224174,3294.210641,-370.102971
1398.028990,-11399.171507,612.876398,1776.494261
1398.029302,-14730.098246,-3600.648841,2812.782580
1398.029613,-15396.283594,-3830.477490,2516.700203
1398.029925,-11251.130318,536.266849,2886.803174
1398.030236,-8586.388927,1915.238745,1258.350101
1398.030547,-5699.585753,-2068.457845,814.226536
1398.030859,-3627.009116,-5822.325785,-444.123565
1398.031170,-4515.256246,-4826.401637,-1628.453072
1398.031481,-5699.585753,-459.657299,-592.164754
1398.031793,-8364.327145,766.095498,1184.329507
1398.032104,-11843.295072,-2834.553343,3182.885551
1398.032416,-14656.077652,-5898.935335,4293.194464
1398.032727,-14582.057057,-4596.572988,4293.194464
1398.033038,-11991.336260,-383.047749,3552.988522
1398.033350,-10140.821405,919.314598,2664.741391
1398.033661,-7105.977043,-1378.971896,1258.350101
1398.033972,-4885.359217,-3600.648841,-1036.288319
1398.034284,-4071.132681,-2145.067394,-1850.514855
1398.034595,-4145.153275,995.924147,-296.082377
1398.034907,-6809.894666,689.485948,814.226536
1398.035218,-10362.883188,-2757.943793,2368.659014
1398.035529,-12509.480420,-4749.792088,3108.864956
1398.035841,-13175.665768,-2221.676944,2738.761985
1398.036152,-10955.047942,1532.190996,2368.659014
1398.036464,-8660.409521,1685.410096,666.185348
1398.036775,-6069.688724,-2068.457845,-592.164754
1398.037086,-4811.338623,-2911.162892,-2220.617826
1398.037398,-5033.400406,-919.314598,-1702.473667
1398.037709,-5921.647536,3217.601092,-666.185348
1398.038020,-8808.450710,2604.724693,1036.288319
1398.038332,-11843.295072,-536.266849,2368.659014
1398.038643,-14137.933492,-1762.019645,1702.473667
1398.038955,-13323.706956,2221.676944,1184.329507
1398.039266,-10807.006753,6818.249932,-0.000000
1398.039577,-8512.368333,5439.278036,-1110.308913
1398.039889,-7920.203579,1685.410096,-2664.741391
1398.040200,-6735.874072,995.924147,-3775.050304
1398.040511,-5625.565159,3907.087040,-2738.761985
1398.040823,-5995.668130,6205.373534,-1628.453072
1398.041134,-8364.327145,4290.134789,-222.061783
1398.041446,-11547.212695,-153.219100,740.205942
1398.041757,-13101.645173,-1072.533697,296.082377
1398.042068,-12583.501014,2451.505594,740.205942
1398.042380,-10436.903782,5822.325785,-0.000000
1398.042691,-8068.244768,4136.915689,-1110.308913
1398.043002,-6291.750507,-1225.752797,-1258.350101
1398.043314,-5847.626942,-3524.039291,-1998.556043
1398.043625,-5403.503377,-306.438199,-814.226536
1398.043937,-6513.812290,2604.724693,666.185348
1398.044248,-9770.718434,536.266849,2738.761985
1398.044559,-12213.398043,-3064.381992,3775.050304
1398.044871,-13619.789333,-3217.601092,2664.741391
1398.045182,-12213.398043,842.705048,2072.576638
1398.045493,-9178.553681,3447.429741,1924.535449
1398.045805,-7105.977043,842.705048,222.061783
1398.046116,-5181.441594,-2911.162892,-74.020594
1398.046428,-4589.276840,-3983.696590,-1184.329507
1398.046739,-4589.276840,-1608.800546,-148.041188
1398.047050,-5255.462188,0.000000,1554.432478
1398.047362,-8882.471304,-1762.019645,2220.617826
1398.047673,-11621.233289,-5209.449386,3627.009116
1398.047984,-13545.768739,-5439.278036,3330.926739
1398.048296,-12213.398043,-1608.800546,3108.864956
1398.048607,-10362.883188,612.876398,2368.659014
1398.048919,-9030.512492,-1838.629195,1628.453072
1398.049230,-7179.997637,-4826.401637,-0.000000
1398.049541,-6365.771101,-4443.353888,-592.164754
1398.049853,-5921.647536,-919.314598,-296.082377
1398.050164,-6883.915261,995.924147,1110.308913
1398.050475,-10658.965565,-1378.971896,1406.391290
1398.050787,-11917.315666,-3677.258390,3034.844362
1398.051098,-12657.521608,-2451.505594,2516.700203
1398.051410,-11547.212695,1991.848295,1924.535449
1398.051721,-9474.636058,4213.525239,1554.432478
1398.052032,-8586.388927,459.657299,-0.000000
1398.052344,-6365.771101,-1838.629195,-1258.350101
1398.052655,-5773.606348,-153.219100,-2146.597232
1398.052966,-5551.544565,2757.943793,-2220.617826
1398.053278,-6809.894666,3677.258390,-1036.288319
1398.053589,-9474.636058,689.485948,-0.000000
1398.053901,-12805.562797,-2374.896044,962.267725
1398.054212,-13323.706956,-842.705048,1776.494261
1398.054523,-11843.295072,3753.867940,888.247130
1398.054835,-10288.862594,4749.792088,296.082377
1398.055146,-8068.244768,1302.362347,-592.164754
1398.055457,-6365.771101,-1225.752797,-2072.576638
1398.055769,-6143.709319,229.828649,-3256.906145
1398.056080,-5847.626942,4290.134789,-2368.659014
1398.056392,-6439.791695,5515.887586,-740.205942
1398.056703,-9844.739029,2145.067394,296.082377
1398.057014,-13323.706956,-612.876398,2072.576638
1398.057326,-14137.933492,229.828649,1554.432478
1398.057637,-11251.130318,4903.011187,1036.288319
1398.057948,-8142.265362,6818.249932,-0.000000
1398.058260,-5921.647536,2451.505594,-1480.411884
1398.058571,-5625.565159,-1608.800546,-2738.761985
1398.058883,-4515.256246,-306.438199,-1850.514855
1398.059194,-5255.462188,2604.724693,-1110.308913
1398.059505,-7624.121203,2528.115143,1184.329507
1398.059817,-10881.027347,-1532.190996,2664.741391
1398.060128,-13989.892304,-4903.011187,3404.947333
1398.060439,-13249.686362,-3217.601092,3330.926739
1398.060751,-9992.780217,1072.533697,2738.761985
1398.061062,-7476.080014,1762.019645,1702.473667
1398.061374,-5477.523971,-3217.601092,666.185348
1398.061685,-5699.585753,-6665.030833,-148.041188
1398.061996,-5921.647536,-4290.134789,-444.123565
1398.062308,-5699.585753,306.438199,962.267725
1398.062619,-8290.306550,-459.657299,1702.473667
1398.062930,-12509.480420,-4519.963438,2812.782580
1398.063242,-14063.912898,-5898.935335,3404.947333
1398.063553,-12805.562797,-2221.676944,2738.761985
1398.063865,-10658.965565,2451.505594,2368.659014
1398.064176,-8438.347739,1685.410096,1554.432478
1398.064487,-9696.697840,-3907.087040,-444.123565
1398.064799,-7179.997637,-3907.087040,-1628.453072
1398.065110,-4293.194464,-153.219100,-1702.473667
1398.065422,-6365.771101,2298.286494,-444.123565
1398.065733,-7624.121203,0.000000,1480.411884
1398.066044,-11029.068536,-5056.230287,1554.432478
1398.066356,-12879.583391,-5975.544884,2738.761985
1398.066667,-11695.253884,-1302.362347,3701.029710
1398.066978,-11473.192101,2068.457845,1702.473667
1398.067290,-9548.656652,1378.971896,666.185348
1398.067601,-6883.915261,-2528.115143,370.102971
1398.067913,-5107.421000,-4366.744339,-1998.556043
1398.068224,-6143.709319,306.438199,-2220.617826
1398.068535,-6291.750507,4673.182538,-444.123565
1398.068847,-8216.285956,1685.410096,148.041188
1398.069158,-12065.356855,-2987.772442,1406.391290
1398.069469,-13471.748144,-1915.238745,2072.576638
1398.069781,-13027.624579,3294.210641,1332.370696
1398.070092,-11621.233289,5898.935335,592.164754
1398.070404,-8808.450710,4519.963438,-0.000000
1398.070715,-5699.585753,1532.190996,-2368.659014
1398.071027,-4737.318029,1072.533697,-3256.906145
1398.071338,-4589.276840,2911.162892,-2220.617826
1398.071650,-5033.400406,5362.668486,-1480.411884
1398.071961,-8142.265362,3447.429741,-222.061783
1398.072273,-11843.295072,-536.266849,1258.350101
1398.072584,-14434.015869,-1149.143247,296.082377
1398.072896,-13471.748144,3907.087040,1258.350101
1398.073207,-9474.636058,6818.249932,-0.000000
1398.073519,-6513.812290,2681.334243,-1258.350101
1398.073830,-5107.421000,-1991.848295,-1258.350101
1398.074141,-5625.565159,-3447.429741,-1924.535449
1398.074453,-5033.400406,306.438199,-1184.329507
1398.074764,-6291.750507,2298.286494,518.144159
1398.075076,-10066.800811,-229.828649,2220.617826
1398.075387,-13915.871710,-4060.306139,3108.864956
1398.075699,-14434.015869,-3524.039291,3034.844362
1398.076010,-11473.192101,1378.971896,2368.659014
1398.076322,-9104.533087,3753.867940,1332.370696
1398.076633,-6439.791695,0.000000,814.226536
1398.076945,-5403.503377,-3677.258390,-592.164754
1398.077256,-4737.318029,-2604.724693,-1110.308913
1398.077568,-3923.091493,1072.533697,-666.185348
1398.077879,-6439.791695,1762.019645,888.247130
1398.078191,-10362.883188,-1302.362347,2368.659014
1398.078502,-13175.665768,-4826.401637,2738.761985
1398.078814,-13249.686362,-4519.963438,3034.844362
1398.079125,-11917.315666,-1225.752797,3256.906145
1398.079437,-10436.903782,-459.657299,2516.700203
1398.079748,-8290.306550,-4290.134789,888.247130
1398.080060,-6217.729913,-7048.078582,-444.123565
1398.080371,-5995.668130,-5362.668486,-1628.453072
1398.080683,-5699.585753,-919.314598,-888.247130
1398.080994,-8216.285956,536.266849,222.061783
1398.081306,-11177.109724,-2451.505594,2072.576638
1398.081617,-13471.748144,-5286.058936,3330.926739
1398.081929,-13841.851115,-2528.115143,2960.823768
1398.082240,-11769.274478,2911.162892,2368.659014
1398.082552,-9104.533087,3753.867940,1702.473667
1398.082863,-7179.997637,0.000000,-74.020594
1398.083175,-5255.462188,-995.924147,-1332.370696
1398.083486,-4367.215058,306.438199,-2664.741391
1398.083798,-5255.462188,3524.039291,-2516.700203
1398.084109,-7031.956449,2528.115143,-74.020594
1398.084421,-9992.780217,-383.047749,148.041188
1398.084732,-13693.809927,-2911.162892,1036.288319
1398.085044,-13471.748144,-536.266849,1776.494261
1398.085355,-12213.398043,3447.429741,740.205942
1398.085666,-10288.862594,4903.011187,592.164754
1398.085978,-6883.915261,919.314598,-666.185348
1398.086289,-5329.482782,-2451.505594,-2368.659014
1398.086601,-5107.421000,-383.047749,-2368.659014
1398.086912,-4663.297435,3753.867940,-1036.288319
1398.087224,-7698.141797,3294.210641,-444.123565
1398.087535,-11769.274478,76.609550,1110.308913
1398.087847,-14656.077652,-995.924147,1924.535449
1398.088158,-13915.871710,2298.286494,1184.329507
1398.088470,-10436.903782,5822.325785,666.185348
1398.088781,-8512.368333,5056.230287,-814.226536
1398.089093,-5847.626942,1608.800546,-1924.535449
1398.089404,-5329.482782,459.657299,-2886.803174
1398.089716,-4071.132681,2145.067394,-1554.432478
1398.090027,-4441.235652,3753.867940,-0.000000
1398.090339,-8290.306550,2451.505594,1850.514855
1398.090650,-11029.068536,-1532.190996,3478.967927
1398.090962,-13101.645173,-3753.867940,2220.617826
1398.091273,-13027.624579,-306.438199,2516.700203
1398.091585,-9844.739029,2604.724693,2220.617826
1398.091896,-7402.059420,153.219100,666.185348
1398.092208,-6069.688724,-4979.620737,222.061783
1398.092519,-5107.421000,-5898.935335,-148.041188
1398.092831,-4589.276840,-2757.943793,-370.102971
1398.093142,-6883.915261,536.266849,814.226536
1398.093454,-9696.697840,-995.924147,3108.864956
1398.093765,-12435.459826,-4519.963438,3849.070898
1398.094077,-13545.768739,-4596.572988,4145.153275
1398.094388,-11917.315666,-995.924147,3701.029710
1398.094700,-10214.842000,1838.629195,2146.597232
1398.095011,-8142.265362,689.485948,1184.329507
1398.095323,-5773.606348,-2681.334243,222.061783
1398.095634,-5625.565159,-4290.134789,-2146.597232
1398.095946,-5699.585753,-842.705048,-1702.473667
1398.096257,-7031.956449,1915.238745,-666.185348
1398.096569,-9844.739029,-383.047749,814.226536
1398.096880,-12583.501014,-4826.401637,2294.638420
1398.097192,-13619.789333,-5515.887586,2146.597232
1398.097503,-12287.418637,-1378.971896,2368.659014
1398.097814,-9918.759623,1072.533697,1998.556043
1398.098126,-8142.265362,-1608.800546,518.144159
1398.098437,-6291.750507,-5132.839837,-814.226536
1398.098749,-5921.647536,-4060.306139,-1554.432478
1398.099060,-6217.729913,306.438199,-2294.638420
1398.099372,-7476.080014,4213.525239,-1628.453072
1398.099683,-10510.924376,2681.334243,-0.000000
1398.099995,-13101.645173,-1608.800546,1258.350101
1398.100306,-13545.768739,-1608.800546,1332.370696
1398.100618,-11621.233289,3830.477490,666.185348
1398.100929,-9178.553681,6665.030833,222.061783
1398.101241,-8290.306550,3524.039291,-1184.329507
1398.101552,-6069.688724,0.000000,-2886.803174
1398.101864,-5477.523971,995.924147,-4145.153275
1398.102175,-5033.400406,4136.915689,-2812.782580
1398.102487,-6291.750507,5286.058936,-740.205942
1398.102798,-10658.965565,1225.752797,-0.000000
1398.103110,-13101.645173,-2145.067394,2220.617826
1398.103421,-13323.706956,-2068.457845,1850.514855
1398.103733,-11399.171507,3294.210641,1554.432478
1398.104044,-9548.656652,5898.935335,148.041188
1398.104356,-7550.100608,1762.019645,-444.123565
1398.104667,-3997.112087,-1302.362347,-2072.576638
1398.104979,-3552.988522,-1149.143247,-1628.453072
1398.105290,-5847.626942,1378.971896,-962.267725
1398.105602,-8216.285956,2298.286494,740.205942
1398.105913,-11473.192101,383.047749,2516.700203
1398.106225,-14211.954086,-3140.991542,4219.173869
1398.106536,-13619.789333,-2068.457845,3923.091493
1398.106848,-10658.965565,2145.067394,2516.700203
1398.107159,-7920.203579,3753.867940,1036.288319
1398.107471,-3997.112087,-612.876398,1184.329507
1398.107782,-3997.112087,-3600.648841,-1110.308913
1398.108094,-5551.544565,-2068.457845,-1036.288319
1398.108405,-5625.565159,2374.896044,-0.000000
1398.108717,-7772.162391,2298.286494,1480.411884
1398.109028,-11177.109724,-306.438199,2664.741391
1398.109339,-13693.809927,-3064.381992,3701.029710
1398.109651,-13767.830521,-2604.724693,3256.906145
1398.109962,-10732.986159,383.047749,3034.844362
1398.110274,-8438.347739,1302.362347,2072.576638
1398.110585,-6735.874072,-1915.238745,-0.000000
1398.110897,-6365.771101,-4979.620737,-592.164754
1398.111208,-5477.523971,-3983.696590,-222.061783
1398.111520,-4885.359217,-459.657299,-0.000000
1398.111831,-8290.306550,-383.047749,1924.535449
1398.112143,-12287.418637,-4060.306139,3701.029710
1398.112454,-14063.912898,-6665.030833,3627.009116
1398.112766,-12287.418637,-2757.943793,2812.782580
1398.113077,-10510.924376,2987.772442,1554.432478
1398.113389,-8438.347739,2681.334243,-296.082377
1398.113700,-7031.956449,-1608.800546,-1184.329507
1398.114012,-5773.606348,-2911.162892,-1406.391290
1398.114323,-4367.215058,-229.828649,-1776.494261
1398.114635,-6365.771101,2374.896044,-1184.329507
1398.114946,-9474.636058,2068.457845,370.102971
1398.115258,-12509.480420,-1532.190996,1184.329507
1398.115569,-13101.645173,-2604.724693,1258.350101
1398.115881,-12583.501014,1685.410096,814.226536
1398.116192,-10510.924376,5132.839837,-370.102971
1398.116504,-9326.594869,2987.772442,-518.144159
1398.116815,-8216.285956,-1685.410096,-1480.411884
1398.117127,-5847.626942,-2068.457845,-2886.803174
1398.117438,-5995.668130,1378.971896,-3330.926739
1398.117750,-6513.812290,3524.039291,-1258.350101
1398.118061,-8216.285956,1608.800546,-0.000000
1398.118373,-11029.068536,-2145.067394,1332.370696
1398.118684,-12805.562797,-2528.115143,1776.494261
1398.118996,-12139.377449,1915.238745,1332.370696
1398.119307,-11325.150913,5515.887586,-0.000000
1398.119619,-9770.718434,5439.278036,-1184.329507
1398.119930,-6661.853478,1608.800546,-2294.638420
1398.120242,-5995.668130,-842.705048,-2886.803174
1398.120553,-5847.626942,2374.896044,-2220.617826
1398.120864,-6439.791695,5745.716235,-666.185348
1398.121176,-9326.594869,2068.457845,1184.329507
1398.121487,-11843.295072,-3064.381992,3330.926739
1398.121799,-12509.480420,-3524.039291,3552.988522
1398.122110,-11695.253884,1225.752797,2220.617826
1398.122422,-9844.739029,3983.696590,1036.288319
1398.122733,-7105.977043,995.924147,370.102971
1398.123045,-4441.235652,-2911.162892,-370.102971
1398.123356,-5255.462188,-4596.572988,-1184.329507
1398.123668,-4441.235652,-1225.752797,-0.000000
1398.123979,-6217.729913,995.924147,888.247130
1398.124291,-9992.780217,-1225.752797,2960.823768
1398.124602,-12435.459826,-4826.401637,4071.132681
1398.124914,-13619.789333,-4826.401637,3256.906145
1398.125225,-11547.212695,229.828649,3108.864956
1398.125537,-9252.574275,2451.505594,2886.803174
1398.125848,-7846.182985,-459.657299,962.267725
1398.126160,-6291.750507,-2911.162892,148.041188
1398.126471,-5995.668130,-2068.457845,-518.144159
1398.126783,-4663.297435,842.705048,-444.123565
1398.127094,-6439.791695,2451.505594,148.041188
1398.127406,-9474.636058,-306.438199,1628.453072
1398.127717,-11991.336260,-4979.620737,2146.597232
1398.128029,-13101.645173,-3907.087040,2146.597232
1398.128340,-11399.171507,1532.190996,2294.638420
1398.128652,-10955.047942,2298.286494,1258.350101
1398.128963,-9326.594869,-1838.629195,296.082377
1398.129275,-6513.812290,-4213.525239,-74.020594
1398.129586,-5699.585753,-3677.258390,-1702.473667
1398.129898,-5107.421000,689.485948,-1258.350101
1398.130209,-7105.977043,1225.752797,-814.226536
1398.130521,-10362.883188,-1762.019645,518.144159
1398.130832,-12805.562797,-2987.772442,1554.432478
1398.131144,-13767.830521,-612.876398,1258.350101
1398.131455,-12361.439231,4290.134789,740.205942
1398.131767,-10881.027347,4903.011187,740.205942
1398.132078,-8734.430116,1225.752797,-148.041188
1398.132390,-6809.894666,-459.657299,-1480.411884
1398.132701,-5255.462188,995.924147,-2960.823768
1398.133012,-5625.565159,4443.353888,-2590.720797
1398.133324,-7476.080014,4519.963438,-962.267725
1398.133635,-9844.739029,1685.410096,-222.061783
1398.133947,-12805.562797,-842.705048,518.144159
1398.134258,-13471.748144,0.000000,740.205942
1398.134570,-10955.047942,3677.258390,1184.329507
1398.134881,-9474.636058,3447.429741,-0.000000
1398.135193,-7105.977043,-919.314598,-370.102971
1398.135504,-6069.688724,-3294.210641,-1332.370696
1398.135816,-5625.565159,-306.438199,-2220.617826
1398.136127,-5033.400406,4443.353888,-1184.329507
1398.136439,-7328.038826,3524.039291,-370.102971
1398.136750,-9918.759623,-995.924147,1628.453072
1398.137062,-12435.459826,-2451.505594,1702.473667
1398.137373,-12805.562797,459.657299,1628.453072
1398.137685,-10288.862594,4749.792088,1628.453072
1398.137996,-8364.327145,3524.039291,666.185348
1398.138308,-6957.935855,-919.314598,-296.082377
1398.138619,-5699.585753,-3907.087040,-518.144159
1398.138931,-3849.070898,-1838.629195,-0.000000
1398.139242,-4589.276840,1302.362347,-74.020594
1398.139554,-7698.141797,0.000000,1628.453072
1398.139865,-10807.006753,-3907.087040,2960.823768
1398.140177,-13249.686362,-5592.497135,3627.009116
1398.140488,-13249.686362,-2451.505594,4367.215058
1398.140800,-10807.006753,766.095498,3478.967927
1398.141111,-9400.615463,-1072.533697,2072.576638
1398.141423,-7550.100608,-3983.696590,666.185348
1398.141734,-6143.709319,-4519.963438,-1110.308913
1398.142046,-4663.297435,-1532.190996,-1850.514855
1398.142357,-5921.647536,1685.410096,-592.164754
1398.142669,-7994.224174,229.828649,666.185348
1398.142980,-10732.986159,-3524.039291,2442.679609
1398.143292,-13471.748144,-4366.744339,3182.885551
1398.143603,-12435.459826,-1762.019645,2664.741391
1398.143915,-11177.109724,1991.848295,1850.514855
1398.144226,-10510.924376,1302.362347,666.185348
1398.144537,-7846.182985,-2068.457845,-740.205942
1398.144849,-6217.729913,-2757.943793,-2146.597232
1398.145160,-5107.421000,-459.657299,-1702.473667
1398.145472,-6513.812290,1455.581446,-666.185348
1398.145783,-9474.636058,-383.047749,518.144159
1398.146095,-12287.418637,-2834.553343,2220.617826
1398.146406,-13545.768739,-2911.162892,1554.432478
1398.146718,-12731.542202,1455.581446,1776.494261
1398.147029,-11103.089130,3677.258390,888.247130
1398.147341,-8438.347739,1608.800546,296.082377
1398.147652,-5699.585753,-1532.190996,-1258.350101
1398.147964,-5329.482782,-919.314598,-1776.494261
1398.148275,-5403.503377,3677.258390,-1406.391290
1398.148587,-6439.791695,4979.620737,-1110.308913
1398.148898,-8956.491898,2834.553343,-0.000000
1398.149210,-11251.130318,-612.876398,1554.432478
1398.149521,-12139.377449,76.609550,592.164754
1398.149833,-11177.109724,4519.963438,-0.000000
1398.150144,-9474.636058,6511.811733,-370.102971
1398.150456,-8068.244768,2987.772442,-1110.308913
1398.150767,-5181.441594,-153.219100,-1184.329507
1398.151079,-5329.482782,-306.438199,-1998.556043
1398.151390,-5995.668130,2451.505594,-2072.576638
1398.151702,-6217.729913,4136.915689,-888.247130
1398.152013,-9474.636058,1225.752797,888.247130
1398.152325,-11917.315666,-2145.067394,2590.720797
1398.152636,-13915.871710,-2834.553343,2442.679609
1398.152948,-13323.706956,459.657299,2886.803174
1398.153259,-10510.924376,2681.334243,2442.679609
1398.153571,-7772.162391,383.047749,814.226536
1398.153882,-6365.771101,-3064.381992,-1850.514855
1398.154194,-4589.276840,-2221.676944,-1850.514855
1398.154505,-3478.967927,459.657299,-666.185348
1398.154817,-6217.729913,383.047749,444.123565
1398.155128,-9770.718434,-1608.800546,2294.638420
1398.155440,-13397.727550,-3600.648841,3701.029710
1398.155751,-14730.098246,-3370.820191,3701.029710
1398.156063,-11917.315666,536.266849,3330.926739
1398.156374,-9474.636058,1685.410096,1850.514855
1398.156685,-7476.080014,-2298.286494,296.082377
1398.156997,-5107.421000,-4749.792088,-0.000000
1398.157308,-4589.276840,-3677.258390,-1480.411884
1398.157620,-4737.318029,-536.266849,-814.226536
1398.157931,-7105.977043,0.000000,1406.391290
1398.158243,-11325.150913,-3370.820191,1998.556043
1398.158554,-14137.933492,-4903.011187,2812.782580
1398.158866,-13915.871710,-2528.115143,3182.885551
1398.159177,-11251.130318,612.876398,2664.741391
1398.159489,-9992.780217,689.485948,962.267725
1398.159800,-8364.327145,-2145.067394,148.041188
1398.160112,-5921.647536,-3753.867940,-1332.370696
1398.160423,-5329.482782,-1608.800546,-1924.535449
1398.160735,-5403.503377,1072.533697,-740.205942
1398.161046,-7772.162391,1455.581446,296.082377
1398.161358,-10214.842000,-1532.190996,1702.473667
1398.161669,-11621.233289,-3064.381992,2368.659014
1398.161981,-11991.336260,-306.438199,1628.453072
1398.162292,-10955.047942,4290.134789,1406.391290
1398.162604,-9548.656652,4673.182538,592.164754
1398.162915,-7476.080014,153.219100,-740.205942
1398.163227,-5625.565159,-459.657299,-1776.494261
1398.163538,-4737.318029,1302.362347,-2812.782580
1398.163850,-6365.771101,4443.353888,-2294.638420
1398.164161,-8290.306550,3983.696590,-148.041188
1398.164473,-11769.274478,1149.143247,222.061783
1398.164784,-14137.933492,-153.219100,888.247130
1398.165096,-13175.665768,2145.067394,1184.329507
1398.165407,-11029.068536,4673.182538,666.185348
1398.165719,-7698.141797,3524.039291,-0.000000
1398.166030,-5699.585753,-229.828649,-1850.514855
1398.166342,-5625.565159,-1838.629195,-2590.720797
1398.166653,-4885.359217,995.924147,-2368.659014
1398.166965,-5921.647536,3830.477490,-666.185348
1398.167276,-8512.368333,2068.457845,962.267725
1398.167588,-11177.109724,-1455.581446,1998.556043
1398.167899,-13175.665768,-2145.067394,2294.638420
1398.168210,-12953.603985,995.924147,2146.597232
1398.168522,-10658.965565,3907.087040,1554.432478
1398.168833,-7846.182985,2451.505594,666.185348
1398.169145,-6439.791695,-1685.410096,-370.102971
1398.169456,-5033.400406,-3830.477490,-518.144159
1398.169768,-4145.153275,-1149.143247,-666.185348
1398.170079,-5477.523971,2068.457845,888.247130
1398.170391,-8734.430116,-306.438199,2146.597232
1398.170702,-12509.480420,-4136.915689,3108.864956
1398.171014,-14211.954086,-4749.792088,3701.029710
1398.171325,-12361.439231,-1532.190996,3404.947333
1398.171637,-10140.821405,689.485948,2368.659014
1398.171948,-7402.059420,-995.924147,962.267725
1398.172260,-5551.544565,-3830.477490,-518.144159
1398.172571,-4441.235652,-4673.182538,-1184.329507
1398.172883,-3849.070898,-1685.410096,-666.185348
1398.173194,-6069.688724,-229.828649,-74.020594
1398.173506,-9548.656652,-2451.505594,1554.432478
1398.173817,-12805.562797,-4213.525239,2960.823768
1398.174129,-13915.871710,-4366.744339,2664.741391
1398.174440,-12509.480420,-919.314598,2960.823768
1398.174752,-10288.862594,536.266849,2368.659014
1398.175063,-9474.636058,-1302.362347,444.123565
1398.175375,-8438.347739,-2451.505594,-1480.411884
1398.175686,-7105.977043,-1072.533697,-2072.576638
1398.175998,-6069.688724,2298.286494,-1850.514855
1398.176309,-7328.038826,3140.991542,-222.061783
1398.176621,-10955.047942,919.314598,1184.329507
1398.176932,-13471.748144,-1915.238745,2072.576638
1398.177244,-13397.727550,-383.047749,1924.535449
1398.177555,-12287.418637,4136.915689,1110.308913
1398.177867,-9548.656652,5822.325785,-0.000000
1398.178178,-6809.894666,1838.629195,-1776.494261
1398.178490,-4589.276840,-1302.362347,-2442.679609
1398.178801,-4663.297435,-612.876398,-2960.823768
1398.179113,-5255.462188,3294.210641,-2220.617826
1398.179424,-7846.182985,4749.792088,-592.164754
1398.179736,-10881.027347,1608.800546,1036.288319
1398.180047,-12953.603985,-689.485948,1998.556043
1398.180359,-12657.521608,766.095498,1184.329507
1398.180670,-11325.150913,5056.230287,370.102971
1398.180982,-8438.347739,6205.373534,-0.000000
1398.181293,-6513.812290,3370.820191,-1480.411884
1398.181605,-5107.421000,383.047749,-2220.617826
1398.181916,-4663.297435,76.609550,-1924.535449
1398.182228,-5551.544565,1762.019645,-518.144159
1398.182539,-7105.977043,1991.848295,1258.350101
1398.182851,-10732.986159,0.000000,2368.659014
1398.183162,-14359.995275,-3217.601092,3256.906145
1398.183474,-12435.459826,-1915.238745,3108.864956
1398.183785,-9622.677246,995.924147,2146.597232
1398.184097,-6883.915261,995.924147,1332.370696
1398.184408,-4737.318029,-2451.505594,-296.082377
1398.184720,-4071.132681,-4366.744339,-888.247130
1398.185031,-4071.132681,-2451.505594,-740.205942
1398.185343,-5181.441594,-306.438199,444.123565
1398.185654,-8216.285956,-995.924147,1628.453072
1398.185966,-11991.336260,-2987.772442,3478.967927
1398.186277,-13989.892304,-4749.792088,3627.009116
1398.186589,-13471.748144,-2374.896044,2664.741391
1398.186900,-12065.356855,1838.629195,1924.535449
1398.187212,-9104.533087,1455.581446,1480.411884
1398.187523,-6809.894666,-2911.162892,222.061783
1398.187835,-6661.853478,-4903.011187,-1184.329507
1398.188146,-5477.523971,-3294.210641,-740.205942
1398.188458,-5625.565159,-689.485948,-222.061783
1398.188769,-8586.388927,-2604.724693,1332.370696
1398.189081,-11399.171507,-6052.154434,3108.864956
1398.189392,-12879.583391,-8273.831378,3108.864956
1398.189704,-13323.706956,-5822.325785,1628.453072
1398.190015,-11103.089130,-2374.896044,1850.514855
1398.190327,-9992.780217,-2221.676944,518.144159
1398.190638,-8290.306550,-5515.887586,-1036.288319
1398.190949,-5995.668130,-6281.983084,-962.267725
1398.191261,-5921.647536,-4673.182538,-1850.514855
1398.191572,-6513.812290,-1378.971896,-370.102971
1398.191884,-8808.450710,0.000000,592.164754
1398.192195,-11843.295072,-2451.505594,888.247130
1398.192507,-12657.521608,-3907.087040,1406.391290
1398.192818,-12213.398043,0.000000,1258.350101
1398.193130,-10658.965565,3370.820191,222.061783
1398.193441,-9252.574275,3830.477490,-740.205942
1398.193753,-7254.018232,1455.581446,-1998.556043
1398.194064,-5329.482782,689.485948,-2590.720797
1398.194376,-3997.112087,2145.067394,-2590.720797
1398.194687,-5033.400406,2604.724693,-1924.535449
1398.194999,-8364.327145,1991.848295,-1258.350101
1398.195310,-9770.718434,0.000000,296.082377
1398.195622,-10732.986159,-1685.410096,740.205942
1398.195933,-11843.295072,-2528.115143,1110.308913
1398.196245,-12361.439231,-2757.943793,888.247130
1398.196556,-9918.759623,-2681.334243,592.164754
1398.196868,-7402.059420,-3064.381992,-74.020594
1398.197179,-6069.688724,-2834.553343,-370.102971
1398.197491,-5625.565159,-4443.353888,-0.000000
1398.197802,-5477.523971,-5286.058936,-296.082377
1398.198114,-6365.771101,-4596.572988,518.144159
1398.198425,-7846.182985,-2451.505594,888.247130
1398.198737,-9696.697840,-919.314598,1110.308913
1398.199048,-10955.047942,-689.485948,1850.514855
1398.199360,-11325.150913,-2604.724693,1998.556043
1398.199671,-11547.212695,-3217.601092,2886.803174
1398.199983,-10214.842000,-2911.162892,3330.926739
1398.200294,-9474.636058,-2068.457845,1924.535449
1398.200606,-8512.368333,-2451.505594,1036.288319
1398.200917,-6069.688724,-3370.820191,222.061783
1398.201229,-4737.318029,-4519.963438,-962.267725
1398.201540,-4441.235652,-4903.011187,-1850.514855
1398.201852,-6069.688724,-3907.087040,-1702.473667
1398.202163,-8512.368333,-2451.505594,296.082377
1398.202475,-11177.109724,-1991.848295,962.267725
1398.202786,-12879.583391,-3677.258390,2738.761985
1398.203098,-14063.912898,-5132.839837,3997.112087
1398.203409,-13175.665768,-5898.935335,4959.379811
1398.203721,-11399.171507,-7124.688131,3997.112087
1398.204032,-9178.553681,-7737.564530,1850.514855
1398.204344,-7254.018232,-7354.516781,-444.123565
1398.204655,-5773.606348,-6281.983084,-1332.370696
1398.204967,-4737.318029,-5745.716235,-1480.411884
1398.205278,-5625.565159,-5669.106685,-814.226536
1398.205590,-7031.956449,-6052.154434,-222.061783
1398.205901,-8734.430116,-4826.401637,666.185348
1398.206213,-10955.047942,-4290.134789,1184.329507
1398.206524,-12065.356855,-3294.210641,1924.535449
1398.206836,-13101.645173,-3140.991542,1850.514855
1398.207147,-13397.727550,-2298.286494,1184.329507
1398.207459,-13027.624579,-1302.362347,1480.411884
1398.207770,-11177.109724,-536.266849,592.164754
1398.208082,-8660.409521,-1378.971896,1036.288319
1398.208393,-6069.688724,-3140.991542,666.185348
1398.208705,-3701.029710,-3600.648841,-962.267725
1398.209016,-3182.885551,-1991.848295,-3108.864956
1398.209328,-3849.070898,-306.438199,-3923.091493
1398.209639,-4663.297435,0.000000,-3627.009116
1398.209951,-7031.956449,229.828649,-2220.617826
1398.210262,-9992.780217,-612.876398,-518.144159
1398.210574,-12287.418637,-1915.238745,1184.329507
1398.210885,-12953.603985,-2528.115143,2442.679609
1398.211197,-12657.521608,-3217.601092,2664.741391
1398.211508,-10658.965565,-3524.039291,2072.576638
1398.211820,-9622.677246,-3907.087040,518.144159
1398.212131,-8734.430116,-3447.429741,-296.082377
1398.212443,-6883.915261,-1378.971896,-148.041188
1398.212754,-6513.812290,-612.876398,-444.123565
1398.213066,-7031.956449,-459.657299,-740.205942
1398.213377,-7105.977043,-383.047749,-222.061783
1398.213689,-7179.997637,-842.705048,-592.164754
1398.214000,-6809.894666,-1608.800546,-74.020594
1398.214312,-7698.141797,-1149.143247,-370.102971
1398.214623,-9844.739029,-3600.648841,296.082377
1398.214935,-11399.171507,-4443.353888,1554.432478
1398.215246,-11473.192101,-4749.792088,2590.720797
1398.215558,-11103.089130,-5209.449386,2738.761985
1398.215869,-10288.862594,-5209.449386,2664.741391
1398.216181,-9178.553681,-4903.011187,1850.514855
1398.216492,-7698.141797,-4136.915689,814.226536
1398.216804,-6143.709319,-2757.943793,-148.041188
1398.217115,-5921.647536,-1149.143247,-1258.350101
1398.217427,-5551.544565,-1225.752797,-1036.288319
1398.217738,-6217.729913,-1991.848295,-962.267725
1398.218050,-7846.182985,-2911.162892,296.082377
1398.218361,-10066.800811,-4213.525239,1184.329507
1398.218673,-12139.377449,-5439.278036,2664.741391
1398.218984,-13101.645173,-7048.078582,3701.029710
1398.219296,-14137.933492,-7354.516781,3478.967927
1398.219607,-13693.809927,-5822.325785,3034.844362
1398.219919,-12065.356855,-3370.820191,2072.576638
1398.220230,-9474.636058,-1302.362347,518.144159
1398.220542,-6069.688724,0.000000,-148.041188
1398.220853,-4219.173869,229.828649,-1776.494261
1398.221165,-2812.782580,-383.047749,-1628.453072
1398.221476,-3034.844362,-995.924147,-1850.514855
1398.221787,-5033.400406,-3217.601092,-592.164754
1398.222099,-7328.038826,-4366.744339,-0.000000
1398.222410,-10362.883188,-5745.716235,1184.329507
1398.222722,-12879.583391,-6818.249932,2368.659014
1398.223033,-14137.933492,-6894.859482,2368.659014
1398.223345,-13471.748144,-5898.935335,2442.679609
1398.223656,-12213.398043,-4903.011187,2072.576638
1398.223968,-9474.636058,-4979.620737,1480.411884
1398.224279,-6439.791695,-3447.429741,888.247130
1398.224591,-4663.297435,-919.314598,-370.102971
1398.224902,-3552.988522,0.000000,-370.102971
1398.225214,-3627.009116,76.609550,-740.205942
1398.225525,-4737.318029,0.000000,-666.185348
1398.225837,-6217.729913,-76.609550,-518.144159
1398.226148,-9696.697840,-1455.581446,-592.164754
1398.226460,-11621.233289,-2451.505594,814.226536
1398.226771,-12287.418637,-2528.115143,444.123565
1398.227083,-12509.480420,-2528.115143,518.144159
1398.227394,-11399.171507,-2451.505594,1184.329507
1398.227706,-8660.409521,-2451.505594,962.267725
1398.228017,-9178.553681,-3140.991542,-0.000000
1398.228329,-6143.709319,-1838.629195,222.061783
1398.228640,-4663.297435,-766.095498,-1924.535449
1398.228952,-6439.791695,-2374.896044,-814.226536
1398.229263,-9474.636058,-3983.696590,-370.102971
1398.229575,-12435.459826,-4903.011187,370.102971
1398.229886,-12805.562797,-3524.039291,1110.308913
1398.230198,-12805.562797,-3217.601092,2664.741391
1398.230509,-12731.542202,-4826.401637,2812.782580
1398.230821,-12213.398043,-6205.373534,2516.700203
1398.231132,-10362.883188,-5056.230287,2886.803174
1398.231444,-8142.265362,-2068.457845,3108.864956
1398.231755,-9400.615463,0.000000,1702.473667
1398.232067,-10066.800811,1685.410096,740.205942
1398.232378,-8512.368333,1685.410096,1110.308913
1398.232690,-7328.038826,383.047749,222.061783
1398.233001,-5181.441594,536.266849,1332.370696
1398.233313,-6735.874072,-536.266849,444.123565
1398.233624,-7328.038826,-3370.820191,2368.659014
1398.233936,-9326.594869,-5362.668486,3404.947333
1398.234247,-9918.759623,-4366.744339,4737.318029
1398.234559,-11399.171507,-2374.896044,6587.832884
1398.234870,-13841.851115,-2834.553343,6143.709319
1398.235182,-10807.006753,-1991.848295,6587.832884
1398.235493,-7698.141797,76.609550,3775.050304
1398.235805,-5847.626942,1915.238745,3330.926739
1398.236116,-4219.173869,2298.286494,2368.659014
1398.236428,-4885.359217,-153.219100,1332.370696
1398.236739,-5699.585753,0.000000,2368.659014
1398.237051,-5107.421000,459.657299,3404.947333
1398.237362,-10436.903782,-383.047749,3256.906145
1398.237674,-11843.295072,-383.047749,6957.935855
1398.237985,-11621.233289,-1455.581446,6365.771101
1398.238297,-9178.553681,-1915.238745,7254.018232
1398.238608,-8290.306550,-842.705048,6439.791695
1398.238920,-8586.388927,612.876398,6069.688724
1398.239231,-6513.812290,1225.752797,4737.318029
1398.239543,-5699.585753,1608.800546,3182.885551
1398.239854,-4811.338623,3140.991542,3034.844362
1398.240166,-6809.894666,3447.429741,2220.617826
1398.240477,-8438.347739,2528.115143,3182.885551
1398.240789,-8734.430116,689.485948,4071.132681
1398.241100,-7846.182985,-766.095498,5329.482782
1398.241412,-9400.615463,-1762.019645,5181.441594
1398.241723,-9992.780217,-3524.039291,6439.791695
1398.242035,-9400.615463,-3830.477490,5921.647536
1398.242346,-8660.409521,-1608.800546,6143.709319
1398.242658,-8882.471304,229.828649,4293.194464
1398.242969,-10066.800811,1838.629195,3701.029710
1398.243281,-11029.068536,2528.115143,3034.844362
1398.243592,-9030.512492,4136.915689,3108.864956
1398.243904,-8216.285956,3064.381992,2294.638420
1398.244215,-7254.018232,1378.971896,2960.823768
1398.244527,-7179.997637,-153.219100,2960.823768
1398.244838,-6513.812290,-1149.143247,3108.864956
1398.245150,-6439.791695,-1149.143247,3775.050304
1398.245461,-7328.038826,-2681.334243,4071.132681
1398.245773,-9178.553681,-2145.067394,4367.215058
1398.246084,-10584.944971,-2604.724693,4737.318029
1398.246396,-11103.089130,-1225.752797,4515.256246
1398.246707,-11547.212695,229.828649,4219.173869
1398.247019,-11325.150913,536.266849,3108.864956
1398.247330,-9918.759623,689.485948,2146.597232
1398.247642,-8216.285956,229.828649,1184.329507
1398.247953,-6291.750507,1225.752797,740.205942
1398.248265,-7105.977043,0.000000,1628.453072
1398.248576,-9400.615463,-995.924147,3478.967927
1398.248888,-11177.109724,-2528.115143,4737.318029
1398.249199,-11399.171507,-2987.772442,5625.565159
1398.249511,-9400.615463,-2451.505594,5107.421000
1398.249822,-7846.182985,-2068.457845,3330.926739
1398.250134,-6735.874072,-153.219100,1480.411884
1398.250445,-4663.297435,1378.971896,-296.082377
1398.250757,-5329.482782,2221.676944,-2368.659014
1398.251068,-6439.791695,3370.820191,-2146.597232
1398.251380,-9474.636058,3830.477490,-740.205942
1398.251691,-11843.295072,3140.991542,814.226536
1398.252002,-13175.665768,2145.067394,2960.823768
1398.252314,-13323.706956,842.705048,4367.215058
1398.252625,-11769.274478,-995.924147,4885.359217
1398.252937,-9104.533087,-2068.457845,4219.173869
1398.253248,-6069.688724,-2757.943793,2146.597232
1398.253560,-3849.070898,-2451.505594,1332.370696
1398.253871,-4515.256246,-1762.019645,296.082377
1398.254183,-7105.977043,-766.095498,814.226536
1398.254494,-10732.986159,76.609550,2294.638420
1398.254806,-13693.809927,1225.752797,4145.153275
1398.255117,-15100.201217,1915.238745,5625.565159
1398.255429,-14359.995275,995.924147,5699.585753
1398.255740,-11251.130318,-153.219100,5625.565159
1398.256052,-6809.894666,-689.485948,4737.318029
1398.256363,-3775.050304,-919.314598,2664.741391
1398.256675,-3034.844362,-995.924147,1332.370696
1398.256986,-3330.926739,-459.657299,1258.350101
1398.257298,-6291.750507,153.219100,2368.659014
1398.257609,-10214.842000,766.095498,3923.091493
1398.257921,-13841.851115,306.438199,5403.503377
1398.258232,-14804.118840,689.485948,6587.832884
1398.258544,-12361.439231,842.705048,5921.647536
1398.258855,-8734.430116,-383.047749,4737.318029
1398.259167,-6809.894666,-919.314598,3923.091493
1398.259478,-5181.441594,0.000000,3552.988522
1398.259790,-5847.626942,-229.828649,4145.153275
1398.260101,-6957.935855,76.609550,6069.688724
1398.260413,-9696.697840,612.876398,7624.121203
1398.260724,-11621.233289,153.219100,8438.347739
1398.261036,-11029.068536,612.876398,8438.347739
1398.261347,-9178.553681,1378.971896,6069.688724
1398.261659,-6439.791695,2681.334243,3997.112087
1398.261970,-4737.318029,3447.429741,1184.329507
1398.262282,-2812.782580,3064.381992,-0.000000
1398.262593,-3849.070898,2221.676944,-370.102971
1398.262905,-6513.812290,1915.238745,1110.308913
1398.263216,-9474.636058,995.924147,3478.967927
1398.263528,-12805.562797,-1455.581446,6365.771101
1398.263839,-15026.180623,-2911.162892,8882.471304
1398.264151,-15174.221811,-3140.991542,10214.842000
1398.264462,-13323.706956,-1838.629195,9696.697840
1398.264774,-8882.471304,-1225.752797,7328.038826
1398.265085,-4959.379811,-383.047749,4219.173869
1398.265397,-2812.782580,919.314598,814.226536
1398.265708,-296.082377,2528.115143,-740.205942
1398.266020,-2146.597232,3217.601092,-1110.308913
1398.266331,-5847.626942,2757.943793,666.185348
1398.266643,-9622.677246,1225.752797,2294.638420
1398.266954,-12361.439231,-612.876398,4441.235652
1398.267266,-14582.057057,-1532.190996,5995.668130
1398.267577,-15618.345376,-2068.457845,7476.080014
1398.267889,-14730.098246,-1455.581446,6661.853478
1398.268200,-11399.171507,-689.485948,5255.462188
1398.268512,-8438.347739,0.000000,4811.338623
1398.268823,-6809.894666,-459.657299,3627.009116
1398.269135,-4145.153275,459.657299,3478.967927
1398.269446,-3478.967927,842.705048,2442.679609
1398.269758,-3182.885551,536.266849,1924.535449
1398.270069,-3849.070898,383.047749,148.041188
1398.270381,-5551.544565,-995.924147,-592.164754
1398.270692,-7254.018232,-995.924147,-222.061783
1398.271004,-10732.986159,-1378.971896,1110.308913
1398.271315,-15322.262999,-1455.581446,2886.803174
1398.271627,-18579.169144,-1072.533697,5847.626942
1398.271938,-18431.127956,-536.266849,7328.038826
1398.272250,-15766.386565,-306.438199,7254.018232
1398.272561,-9844.739029,0.000000,6957.935855
1398.272871,-3552.988522,-306.438199,2886.803174
1398.273183,1628.453072,1455.581446,-1110.308913
1398.273494,4367.215058,1991.848295,-5329.482782
1398.273806,3478.967927,2374.896044,-7105.977043
1398.274117,-666.185348,2068.457845,-6957.935855
1398.274429,-7328.038826,1455.581446,-4293.194464
1398.274740,-15322.262999,229.828649,-0.000000
1398.275052,-22132.157666,-919.314598,5181.441594
1398.275363,-26055.249158,-1532.190996,8364.327145
1398.275675,-23020.404796,-1072.533697,9030.512492
1398.275986,-16136.489536,-689.485948,6587.832884
1398.276297,-8068.244768,76.609550,3108.864956
1398.276609,-592.164754,689.485948,-1480.411884
1398.276920,4071.132681,919.314598,-6365.771101
1398.277232,4219.173869,1991.848295,-7624.121203
1398.277543,666.185348,2451.505594,-6217.729913
1398.277855,-6069.688724,-766.095498,-4737.318029
1398.278166,-13175.665768,-2145.067394,-962.267725
1398.278478,-18727.210333,-1608.800546,2590.720797
1398.278789,-23464.528361,-1072.533697,5107.421000
1398.279101,-22798.343014,-689.485948,7031.956449
1398.279412,-17320.819043,-1608.800546,6217.729913
1398.279724,-10510.924376,-1991.848295,3404.947333
1398.280035,-2590.720797,-995.924147,1406.391290
1398.280347,3108.864956,306.438199,-3108.864956
1398.280658,4959.379811,766.095498,-6069.688724
1398.280969,2368.659014,0.000000,-5477.523971
1398.281281,-4071.132681,-536.266849,-4589.276840
1398.281592,-11547.212695,0.000000,-1924.535449
1398.281904,-18505.148550,766.095498,2146.597232
1398.282215,-21836.075289,-306.438199,3997.112087
1398.282527,-20281.642811,-1149.143247,5773.606348
1398.282838,-15174.221811,-1532.190996,5699.585753
1398.283150,-8808.450710,-1762.019645,4441.235652
1398.283461,-2960.823768,-383.047749,2146.597232
1398.283773,296.082377,76.609550,1110.308913
1398.284084,962.267725,612.876398,-222.061783
1398.284396,-2368.659014,1762.019645,-74.020594
1398.284707,-8438.347739,2528.115143,-370.102971
1398.285019,-10510.924376,3753.867940,-1184.329507
1398.285330,-10807.006753,4749.792088,-888.247130
1398.285642,-9400.615463,2757.943793,-814.226536
1398.285953,-8882.471304,-306.438199,-0.000000
1398.286264,-8956.491898,-2757.943793,1776.494261
1398.286576,-9104.533087,-2834.553343,3108.864956
1398.286887,-9622.677246,-2145.067394,5551.544565
1398.287199,-10881.027347,-2451.505594,6217.729913
1398.287510,-12287.418637,-1532.190996,6883.915261
1398.287822,-12213.398043,-1225.752797,5699.585753
1398.288133,-9474.636058,306.438199,3701.029710
1398.288445,-5625.565159,1838.629195,148.041188
1398.288756,-2960.823768,2681.334243,-2516.700203
1398.289068,-1998.556043,995.924147,-3923.091493
1398.289379,-1702.473667,-2451.505594,-3849.070898
1398.289691,-4293.194464,-2145.067394,-2664.741391
1398.290002,-7920.203579,-1225.752797,222.061783
1398.290314,-13323.706956,-919.314598,4071.132681
1398.290625,-19097.313304,-2374.896044,6883.915261
1398.290936,-21317.931130,-1991.848295,8512.368333
1398.291248,-18283.086767,612.876398,6809.894666
1398.291559,-11177.109724,2374.896044,2886.803174
1398.291871,-4515.256246,3217.601092,-2368.659014
1398.292182,1554.432478,1608.800546,-7550.100608
1398.292494,5625.565159,1838.629195,-10881.027347
1398.292805,4737.318029,1225.752797,-10140.821405
1398.293117,-1554.432478,766.095498,-7254.018232
1398.293428,-11473.192101,-766.095498,-2072.576638
1398.293740,-20355.663405,-3294.210641,3182.885551
1398.294051,-26055.249158,-3753.867940,7402.059420
1398.294363,-25537.104999,-1762.019645,8512.368333
1398.294674,-19097.313304,383.047749,6217.729913
1398.294986,-9770.718434,229.828649,222.061783
1398.295297,-962.267725,-1302.362347,-4293.194464
1398.295608,5329.482782,0.000000,-8438.347739
1398.295920,5551.544565,919.314598,-10214.842000
1398.296231,1554.432478,2528.115143,-8660.409521
1398.296543,-6439.791695,0.000000,-5033.400406
1398.296854,-14952.160028,-2221.676944,-2368.659014
1398.297166,-19615.457463,-1532.190996,1110.308913
1398.297477,-22206.178260,-229.828649,2960.823768
1398.297789,-18949.272115,0.000000,3478.967927
1398.298100,-15248.242405,-1225.752797,2442.679609
1398.298412,-9474.636058,-1455.581446,-222.061783
1398.298723,-3256.906145,-919.314598,-2590.720797
1398.299035,296.082377,-229.828649,-4219.173869
1398.299346,74.020594,842.705048,-3627.009116
1398.299658,-5033.400406,0.000000,-3108.864956
1398.299969,-11695.253884,-153.219100,-1258.350101
1398.300280,-16062.468941,0.000000,-0.000000
1398.300592,-16728.654289,919.314598,1480.411884
1398.300903,-13101.645173,842.705048,1554.432478
1398.301215,-9400.615463,-1608.800546,-0.000000
1398.301526,-5995.668130,-2987.772442,592.164754
1398.301838,-3330.926739,-2298.286494,-518.144159
1398.302149,-2368.659014,-919.314598,1332.370696
1398.302461,-5477.523971,229.828649,2960.823768
1398.302772,-11103.089130,-766.095498,4441.235652
1398.303084,-15026.180623,0.000000,5699.585753
1398.303395,-14285.974681,2451.505594,3627.009116
1398.303707,-10807.006753,4136.915689,1406.391290
1398.304018,-5921.647536,2451.505594,-1036.288319
1398.304330,-2886.803174,612.876398,-2220.617826
1398.304641,-2072.576638,-1762.019645,-2442.679609
1398.304952,-2368.659014,-2834.553343,-222.061783
1398.305264,-4515.256246,-3677.258390,2368.659014
1398.305575,-7772.162391,-3753.867940,4589.276840
1398.305887,-12509.480420,-3064.381992,6735.874072
1398.306198,-16802.674883,-2451.505594,8290.306550
1398.306510,-18209.066173,229.828649,8142.265362
1398.306821,-15100.201217,995.924147,5847.626942
1398.307133,-8956.491898,1991.848295,2146.597232
1398.307444,-1554.432478,1455.581446,-2368.659014
1398.307756,4367.215058,1762.019645,-5625.565159
1398.308067,4959.379811,995.924147,-7698.141797
1398.308379,444.123565,306.438199,-5033.400406
1398.308690,-6661.853478,536.266849,-1628.453072
1398.309002,-15470.304188,383.047749,3849.070898
1398.309313,-23168.445985,-229.828649,8512.368333
1398.309625,-26055.249158,-229.828649,9548.656652
1398.309936,-20429.683999,1455.581446,8068.244768
1398.310247,-10362.883188,2221.676944,2072.576638
1398.310559,-666.185348,1532.190996,-3330.926739
1398.310870,6217.729913,1685.410096,-8512.368333
1398.311182,6735.874072,766.095498,-10140.821405
1398.311493,2368.659014,919.314598,-7624.121203
1398.311805,-7328.038826,-1149.143247,-3330.926739
1398.312116,-17394.839637,-2528.115143,1850.514855
1398.312428,-23982.672521,-2911.162892,5625.565159
1398.312739,-24722.878463,-2911.162892,6735.874072
1398.313051,-18949.272115,-2681.334243,5921.647536
1398.313362,-11251.130318,-1685.410096,2590.720797
1398.313674,-3849.070898,-1915.238745,-2442.679609
1398.313985,592.164754,-1302.362347,-4885.359217
1398.314297,1628.453072,-536.266849,-5625.565159
1398.314608,-1850.514855,995.924147,-4367.215058
1398.314919,-7624.121203,1838.629195,-2146.597232
1398.315231,-14285.974681,153.219100,-0.000000
1398.315542,-17246.798449,153.219100,1554.432478
1398.315854,-17098.757260,1455.581446,1480.411884
1398.316165,-13323.706956,1608.800546,888.247130
1398.316477,-8956.491898,0.000000,-444.123565
1398.316788,-5329.482782,-689.485948,-962.267725
1398.317100,-2146.597232,-1685.410096,-2072.576638
1398.317411,-1554.432478,-995.924147,-2368.659014
1398.317723,-2960.823768,229.828649,-222.061783
1398.318034,-7105.977043,229.828649,814.226536
1398.318346,-12139.377449,-1838.629195,1628.453072
1398.318657,-15174.221811,-919.314598,814.226536
1398.318969,-15026.180623,1455.581446,666.185348
1398.319280,-12731.542202,2145.067394,-148.041188
1398.319591,-9844.739029,995.924147,-814.226536
1398.319903,-6661.853478,-1608.800546,-1702.473667
1398.320214,-3923.091493,-3294.210641,-1702.473667
1398.320526,-2812.782580,-2145.067394,-222.061783
1398.320837,-4515.256246,-1455.581446,592.164754
1398.321149,-9696.697840,76.609550,2368.659014
1398.321460,-16580.613101,383.047749,3997.112087
1398.321772,-19837.519246,919.314598,4515.256246
1398.322083,-17838.963202,3294.210641,3330.926739
1398.322395,-11325.150913,4366.744339,1036.288319
1398.322706,-4219.173869,2528.115143,-2812.782580
1398.323018,1036.288319,383.047749,-5403.503377
1398.323329,2886.803174,-459.657299,-5477.523971
1398.323641,888.247130,-1762.019645,-2590.720797
1398.323952,-6735.874072,-2298.286494,888.247130
1398.324263,-15692.365970,-2681.334243,5181.441594
1398.324575,-20799.786970,-2681.334243,7994.224174
1398.324886,-21910.095883,-1532.190996,7698.141797
1398.325198,-17320.819043,1072.533697,6143.709319
1398.325509,-9030.512492,2451.505594,2442.679609
1398.325821,-2442.679609,1302.362347,-1480.411884
1398.326132,3034.844362,919.314598,-3478.967927
1398.326444,2368.659014,383.047749,-4219.173869
1398.326755,-1998.556043,766.095498,-2146.597232
1398.327067,-7994.224174,1838.629195,1628.453072
1398.327378,-13693.809927,536.266849,3923.091493
1398.327690,-16358.551318,-1225.752797,5625.565159
1398.328001,-16580.613101,-842.705048,5181.441594
1398.328313,-12509.480420,995.924147,4145.153275
1398.328624,-8438.347739,2221.676944,3182.885551
1398.328936,-6365.771101,689.485948,1480.411884
1398.329247,-4441.235652,-459.657299,-296.082377
1398.329558,-3256.906145,-306.438199,-1554.432478
1398.329870,-1554.432478,689.485948,-1406.391290
1398.330181,-3034.844362,1302.362347,-296.082377
1398.330493,-9474.636058,-1378.971896,1110.308913
1398.330804,-14211.954086,-2298.286494,3849.070898
1398.331116,-17024.736666,-2451.505594,5033.400406
1398.331427,-17098.757260,-1072.533697,6809.894666
1398.331739,-14063.912898,0.000000,6439.791695
1398.332050,-9178.553681,-1149.143247,3478.967927
1398.332362,-3330.926739,-2145.067394,962.267725
1398.332673,0.000000,-919.314598,-1776.494261
1398.332985,74.020594,1302.362347,-1480.411884
1398.333296,-4663.297435,2681.334243,-962.267725
1398.333608,-10288.862594,1915.238745,1258.350101
1398.333919,-15026.180623,1608.800546,2886.803174
1398.334230,-17246.798449,1915.238745,2886.803174
1398.334542,-13915.871710,3370.820191,2738.761985
1398.334853,-8586.388927,2221.676944,814.226536
1398.335165,-4589.276840,0.000000,-1184.329507
1398.335476,-1036.288319,-1608.800546,-2516.700203
1398.335788,-1480.411884,-2451.505594,-3108.864956
1398.336099,-5107.421000,-766.095498,-1258.350101
1398.336411,-10732.986159,0.000000,296.082377
1398.336722,-15766.386565,-612.876398,1998.556043
1398.337034,-17320.819043,-766.095498,3034.844362
1398.337345,-16210.510130,0.000000,1702.473667
1398.337657,-11325.150913,229.828649,666.185348
1398.337968,-5773.606348,153.219100,-1258.350101
1398.338280,-2368.659014,-1149.143247,-3256.906145
1398.338591,-1702.473667,-2604.724693,-3256.906145
1398.338902,-4663.297435,-2834.553343,-2812.782580
1398.339214,-6957.935855,-612.876398,-888.247130
1398.339525,-10214.842000,383.047749,222.061783
1398.339837,-13767.830521,0.000000,888.247130
1398.340148,-16062.468941,689.485948,1702.473667
1398.340460,-16580.613101,2221.676944,740.205942
1398.340771,-13027.624579,3753.867940,444.123565
1398.341083,-9104.533087,2834.553343,-1998.556043
1398.341394,-5255.462188,995.924147,-3552.988522
1398.341706,-2368.659014,0.000000,-5329.482782
1398.342017,-592.164754,-766.095498,-5551.544565
1398.342329,-3256.906145,-1072.533697,-3627.009116
1398.342640,-9770.718434,-1608.800546,-740.205942
1398.342952,-16432.571912,-2757.943793,2590.720797
1398.343263,-21984.116477,-2757.943793,4737.318029
1398.343574,-22428.240043,-1762.019645,5847.626942
1398.343886,-17024.736666,-153.219100,4441.235652
1398.344197,-9622.677246,-459.657299,740.205942
1398.344509,-1776.494261,-1072.533697,-3404.947333
1398.344820,3775.050304,-689.485948,-5255.462188
1398.345132,3256.906145,-383.047749,-5403.503377
1398.345443,-1406.391290,1455.581446,-2368.659014
1398.345755,-10584.944971,229.828649,962.267725
1398.346066,-18283.086767,-229.828649,4959.379811
1398.346378,-22058.137072,612.876398,6957.935855
1398.346689,-18875.251521,2681.334243,5921.647536
1398.347001,-11843.295072,3830.477490,3997.112087
1398.347312,-5181.441594,1838.629195,1332.370696
1398.347624,0.000000,76.609550,-740.205942
1398.347935,1850.514855,0.000000,-1776.494261
1398.348247,592.164754,306.438199,-1480.411884
1398.348558,-3034.844362,229.828649,888.247130
1398.348869,-8734.430116,0.000000,2294.638420
1398.349181,-12953.603985,76.609550,4811.338623
1398.349492,-16506.592507,76.609550,6291.750507
1398.349804,-16432.571912,153.219100,7031.956449
1398.350115,-13323.706956,0.000000,6143.709319
1398.350427,-8216.285956,-1685.410096,4589.276840
1398.350738,-2738.761985,-2757.943793,2738.761985
1398.351050,-444.123565,-2374.896044,-74.020594
1398.351361,74.020594,-1149.143247,-1850.514855
1398.351673,-1998.556043,995.924147,-592.164754
1398.351984,-7772.162391,1532.190996,1702.473667
1398.352296,-14285.974681,995.924147,4737.318029
1398.352607,-18579.169144,536.266849,6217.729913
1398.352919,-18283.086767,1685.410096,5699.585753
1398.353230,-11621.233289,2528.115143,3552.988522
1398.353541,-4811.338623,1991.848295,592.164754
1398.353853,-222.061783,1072.533697,-2294.638420
1398.354164,444.123565,-612.876398,-3627.009116
1398.354476,-1332.370696,-1149.143247,-2664.741391
1398.354787,-6365.771101,229.828649,-0.000000
1398.355099,-12805.562797,459.657299,1702.473667
1398.355410,-17838.963202,-459.657299,4663.297435
1398.355722,-19541.436869,-1762.019645,3997.112087
1398.356033,-16136.489536,-842.705048,2664.741391
1398.356345,-9400.615463,536.266849,148.041188
1398.356656,-3404.947333,229.828649,-3182.885551
1398.356968,296.082377,-612.876398,-5329.482782
1398.357279,-1702.473667,-1455.581446,-6587.832884
1398.357591,-4071.132681,-1685.410096,-4367.215058
1398.357902,-9696.697840,229.828649,-1258.350101
1398.358213,-15396.283594,0.000000,1036.288319
1398.358525,-19467.416275,-766.095498,2886.803174
1398.358836,-19541.436869,-612.876398,2368.659014
1398.359148,-14211.954086,1608.800546,592.164754
1398.359459,-8068.244768,2451.505594,-2294.638420
1398.359771,-4145.153275,1762.019645,-4811.338623
1398.360082,-1332.370696,-766.095498,-6217.729913
1398.360394,-666.185348,-1378.971896,-6365.771101
1398.360705,-2442.679609,-1455.581446,-4737.318029
1398.361017,-7402.059420,-306.438199,-1850.514855
1398.361328,-13841.851115,-842.705048,518.144159
1398.361640,-18727.210333,-1685.410096,2960.823768
1398.361951,-20207.622217,-1991.848295,3330.926739
1398.362263,-17838.963202,-689.485948,2664.741391
1398.362574,-11769.274478,306.438199,740.205942
1398.362885,-4737.318029,-766.095498,-2886.803174
1398.363197,148.041188,-2221.676944,-4959.379811
1398.363508,1924.535449,-2221.676944,-6291.750507
1398.363820,-444.123565,-459.657299,-3775.050304
1398.364131,-7179.997637,842.705048,-1258.350101
1398.364443,-14656.077652,-229.828649,2442.679609
1398.364754,-20577.725188,-536.266849,4589.276840
1398.365066,-21465.972318,536.266849,4885.359217
1398.365377,-16432.571912,1455.581446,3108.864956
1398.365689,-8364.327145,1225.752797,148.041188
1398.366000,-1776.494261,0.000000,-2664.741391
1398.366312,2442.679609,229.828649,-5255.462188
1398.366623,2368.659014,-459.657299,-4663.297435
1398.366935,-2294.638420,229.828649,-2368.659014
1398.367246,-9474.636058,383.047749,666.185348
1398.367558,-15544.324782,0.000000,3034.844362
1398.367869,-18431.127956,766.095498,4145.153275
1398.368180,-17542.880825,1838.629195,4367.215058
1398.368492,-13027.624579,2145.067394,3404.947333
1398.368803,-8142.265362,1149.143247,1998.556043
1398.369115,-4071.132681,-383.047749,-0.000000
1398.369426,-1554.432478,-1072.533697,-962.267725
1398.369738,-444.123565,-1532.190996,-592.164754
1398.370049,-1480.411884,-1608.800546,-444.123565
1398.370361,-5847.626942,-1149.143247,296.082377
1398.370672,-11177.109724,-459.657299,2590.720797
1398.370984,-16728.654289,536.266849,5255.462188
1398.371295,-19763.498651,1608.800546,5699.585753
1398.371607,-17024.736666,2221.676944,5477.523971
1398.371918,-10658.965565,1302.362347,3108.864956
1398.372230,-3478.967927,-842.705048,-0.000000
1398.372541,1850.514855,-689.485948,-2664.741391
1398.372853,3256.906145,-995.924147,-4219.173869
1398.373164,-148.041188,-842.705048,-2220.617826
1398.373476,-8142.265362,-689.485948,814.226536
1398.373787,-16506.592507,-919.314598,4959.379811
1398.374099,-21762.054695,-1685.410096,7105.977043
1398.374410,-20947.828159,-766.095498,6883.915261
1398.374722,-14137.933492,306.438199,4441.235652
1398.375033,-5995.668130,-229.828649,1110.308913
1398.375345,888.247130,-995.924147,-2294.638420
1398.375656,3256.906145,-1685.410096,-4589.276840
1398.375968,740.205942,-612.876398,-4219.173869
1398.376279,-4071.132681,689.485948,-814.226536
1398.376591,-11473.192101,919.314598,1480.411884
1398.376902,-17616.901420,0.000000,4811.338623
1398.377214,-20503.704593,0.000000,4737.318029
1398.377525,-17542.880825,1225.752797,3923.091493
1398.377837,-10732.986159,2374.896044,1184.329507
1398.378148,-4959.379811,1762.019645,-1998.556043
1398.378460,-296.082377,1225.752797,-4737.318029
1398.378771,518.144159,0.000000,-6069.688724
1398.379083,-1480.411884,153.219100,-4811.338623
1398.379394,-5921.647536,766.095498,-2294.638420
1398.379706,-11917.315666,306.438199,-0.000000
1398.380017,-16358.551318,-842.705048,3330.926739
1398.380329,-18357.107362,-2451.505594,3627.009116
1398.380640,-17246.798449,-1762.019645,3627.009116
1398.380952,-12361.439231,-919.314598,1480.411884
1398.381263,-7179.997637,-1378.971896,-1924.535449
1398.381575,-1702.473667,-2528.115143,-4071.132681
1398.381886,74.020594,-2528.115143,-6069.688724
1398.382198,-1332.370696,-995.924147,-4737.318029
1398.382509,-6587.832884,306.438199,-2072.576638
1398.382821,-14063.912898,-459.657299,444.123565
1398.383132,-19911.539840,-459.657299,3701.029710
1398.383444,-21614.013506,0.000000,4441.235652
1398.383755,-17246.798449,1378.971896,2516.700203
1398.384067,-9622.677246,1149.143247,-740.205942
1398.384378,-2442.679609,-153.219100,-4071.132681
1398.384690,2220.617826,-1608.800546,-5773.606348
1398.385001,888.247130,-1915.238745,-5847.626942
1398.385313,-3552.988522,-766.095498,-2368.659014
1398.385624,-10140.821405,-306.438199,592.164754
1398.385936,-16876.695478,-536.266849,2960.823768
1398.386247,-19393.395680,459.657299,3923.091493
1398.386559,-17690.922014,1149.143247,3182.885551
1398.386870,-12065.356855,1072.533697,1628.453072
1398.387182,-6513.812290,1225.752797,-888.247130
1398.387493,-2368.659014,0.000000,-2664.741391
1398.387805,-888.247130,-1378.971896,-3256.906145
1398.388117,-2442.679609,-1762.019645,-2516.700203
1398.388428,-4737.318029,-383.047749,-740.205942
1398.388740,-9844.739029,-383.047749,1332.370696
1398.389051,-14508.036463,-536.266849,2812.782580
1398.389363,-17764.942608,-383.047749,3923.091493
1398.389674,-17098.757260,1149.143247,3627.009116
1398.389986,-11547.212695,2374.896044,2516.700203
1398.390297,-6587.832884,2451.505594,222.061783
1398.390609,-2516.700203,1378.971896,-962.267725
1398.390920,-1258.350101,995.924147,-1628.453072
1398.391232,-2442.679609,1532.190996,-666.185348
1398.391543,-5255.462188,766.095498,2590.720797
1398.391855,-9770.718434,-1072.533697,3627.009116
1398.392166,-12583.501014,-2068.457845,4219.173869
1398.392478,-14211.954086,-1302.362347,4737.318029
1398.392789,-14211.954086,-153.219100,5255.462188
1398.393101,-12361.439231,306.438199,4293.194464
1398.393412,-10510.924376,-919.314598,3108.864956
1398.393724,-5551.544565,-919.314598,3108.864956
1398.394035,-2664.741391,-1838.629195,2146.597232
1398.394347,-1480.411884,-1378.971896,1406.391290
1398.394658,-2516.700203,-459.657299,814.226536
1398.394970,-6587.832884,0.000000,1850.514855
1398.395281,-10584.944971,0.000000,3627.009116
1398.395593,-14434.015869,459.657299,4885.359217
1398.395904,-17024.736666,1685.410096,5033.400406
1398.396216,-14508.036463,2451.505594,5255.462188
1398.396527,-8660.409521,1225.752797,2664.741391
1398.396839,-2368.659014,306.438199,-444.123565
1398.397150,1480.411884,689.485948,-2220.617826
1398.397462,814.226536,0.000000,-2442.679609
1398.397773,-3330.926739,0.000000,-1110.308913
1398.398085,-9252.574275,1149.143247,148.041188
1398.398396,-14285.974681,1455.581446,2960.823768
1398.398708,-18135.045579,612.876398,3701.029710
1398.399019,-17172.777854,459.657299,4145.153275
1398.399331,-12139.377449,1149.143247,2368.659014
1398.399642,-7105.977043,0.000000,-222.061783
1398.399954,-2368.659014,-1072.533697,-1924.535449
1398.400265,-592.164754,-1915.238745,-3997.112087
1398.400577,-2516.700203,-1072.533697,-3627.009116
1398.400888,-6439.791695,-459.657299,-1480.411884
1398.401200,-11029.068536,153.219100,-222.061783
1398.401511,-15914.427753,306.438199,1998.556043
1398.401823,-17838.963202,306.438199,1924.535449
1398.402134,-15026.180623,1072.533697,1184.329507
1398.402446,-10140.821405,1762.019645,-222.061783
1398.402757,-5921.647536,459.657299,-2738.761985
1398.403069,-3404.947333,-689.485948,-4811.338623
1398.403380,-3256.906145,-995.924147,-5921.647536
1398.403692,-5107.421000,0.000000,-4293.194464
1398.404004,-8956.491898,0.000000,-1702.473667
1398.404315,-14804.118840,-1149.143247,-74.020594
1398.404627,-18579.169144,-1608.800546,2368.659014
1398.404938,-18209.066173,-1532.190996,2220.617826
1398.405250,-15174.221811,-383.047749,1554.432478
1398.405561,-10436.903782,0.000000,-370.102971
1398.405873,-5255.462188,-995.924147,-2442.679609
1398.406184,-2368.659014,-1991.848295,-3627.009116
1398.406496,-1776.494261,-2528.115143,-3404.947333
1398.406807,-3552.988522,-2068.457845,-2368.659014
1398.407119,-7624.121203,-1225.752797,-0.000000
1398.407430,-12361.439231,-1378.971896,2294.638420
1398.407742,-16950.716072,-536.266849,3182.885551
1398.408053,-17616.901420,459.657299,3034.844362
1398.408365,-14285.974681,1838.629195,2294.638420
1398.408676,-9252.574275,2757.943793,666.185348
1398.408988,-4145.153275,2374.896044,-1036.288319
1398.409299,-1258.350101,1378.971896,-2442.679609
1398.409611,-518.144159,766.095498,-2812.782580
1398.409922,-1480.411884,1149.143247,-1184.329507
1398.410234,-5773.606348,1608.800546,888.247130
1398.410545,-11695.253884,1149.143247,2738.761985
1398.410857,-15766.386565,1072.533697,4663.297435
1398.411168,-16580.613101,306.438199,5255.462188
1398.411480,-13693.809927,383.047749,4885.359217
1398.411791,-9474.636058,76.609550,3849.070898
1398.412103,-5181.441594,-766.095498,1702.473667
1398.412414,-1924.535449,-1991.848295,-222.061783
1398.412726,-666.185348,-995.924147,-1184.329507
1398.413037,-2738.761985,0.000000,-148.041188
1398.413349,-6809.894666,383.047749,2072.576638
1398.413660,-12953.603985,76.609550,3627.009116
1398.413972,-16432.571912,842.705048,5625.565159
1398.414283,-16654.633695,995.924147,5773.606348
1398.414595,-13101.645173,1608.800546,4811.338623
1398.414906,-7550.100608,1455.581446,3404.947333
1398.415218,-3775.050304,-459.657299,814.226536
1398.415529,-1036.288319,-612.876398,-666.185348
1398.415841,-2220.617826,0.000000,-1184.329507
1398.416152,-5921.647536,995.924147,518.144159
1398.416464,-10436.903782,1149.143247,2738.761985
1398.416775,-14582.057057,0.000000,5181.441594
1398.417087,-15174.221811,-1302.362347,5403.503377
1398.417398,-12731.542202,-1302.362347,3775.050304
1398.417710,-8216.285956,76.609550,1628.453072
1398.418021,-4367.215058,1915.238745,1184.329507
1398.418333,-4367.215058,536.266849,-740.205942
1398.418644,-4959.379811,-1608.800546,-1480.411884
1398.418956,-6439.791695,-1762.019645,-1702.473667
1398.419267,-7105.977043,-383.047749,-666.185348
1398.419579,-8882.471304,612.876398,518.144159
1398.419890,-12953.603985,0.000000,444.123565
1398.420202,-15248.242405,-1302.362347,1184.329507
1398.420514,-14656.077652,0.000000,1406.391290
1398.420825,-11325.150913,1762.019645,888.247130
1398.421137,-7994.224174,1532.190996,-740.205942
1398.421448,-5329.482782,-229.828649,-2516.700203
1398.421760,-3404.947333,-919.314598,-4145.153275
1398.422071,-2220.617826,689.485948,-4663.297435
1398.422383,-3330.926739,1072.533697,-3108.864956
1398.422694,-7772.162391,0.000000,-1702.473667
1398.423006,-13471.748144,-1072.533697,370.102971
1398.423317,-16432.571912,-1225.752797,1554.432478
1398.423629,-16728.654289,0.000000,1332.370696
1398.423940,-13397.727550,689.485948,-0.000000
1398.424252,-9474.636058,612.876398,-2072.576638
1398.424563,-5255.462188,153.219100,-3552.988522
1398.424875,-3923.091493,-995.924147,-4959.379811
1398.425186,-4663.297435,-842.705048,-3775.050304
1398.425498,-6439.791695,-612.876398,-2442.679609
1398.425809,-10140.821405,-536.266849,-1184.329507
1398.426121,-13841.851115,-1149.143247,222.061783
1398.426432,-16358.551318,-1072.533697,1184.329507
1398.426744,-15470.304188,306.438199,1406.391290
1398.427055,-12731.542202,1532.190996,1184.329507
1398.427367,-9696.697840,-383.047749,-370.102971
1398.427678,-5403.503377,-2374.896044,-1924.535449
1398.427990,-3627.009116,-2298.286494,-3034.844362
1398.428301,-2590.720797,-1225.752797,-3552.988522
1398.428613,-4071.132681,-842.705048,-2220.617826
1398.428924,-8882.471304,-919.314598,-592.164754
1398.429236,-13915.871710,-306.438199,2072.576638
1398.429547,-17320.819043,0.000000,3404.947333
1398.429859,-17838.963202,383.047749,4071.132681
1398.430170,-14508.036463,1149.143247,3404.947333
1398.430482,-8364.327145,459.657299,962.267725
1398.430793,-1998.556043,-153.219100,-1184.329507
1398.431105,1776.494261,-995.924147,-3108.864956
1398.431416,1184.329507,-995.924147,-3182.885551
1398.431728,-3256.906145,229.828649,-1628.453072
1398.432039,-10658.965565,766.095498,1184.329507
1398.432351,-15544.324782,1149.143247,3849.070898
1398.432662,-18209.066173,1532.190996,4885.359217
1398.432974,-15544.324782,2604.724693,4663.297435
1398.433285,-9918.759623,2451.505594,2442.679609
1398.433597,-4589.276840,459.657299,888.247130
1398.433908,-370.102971,-919.314598,-1480.411884
1398.434220,814.226536,-689.485948,-2368.659014
1398.434531,-1406.391290,153.219100,-962.267725
1398.434843,-6217.729913,-995.924147,1110.308913
1398.435154,-12657.521608,-766.095498,3552.988522
1398.435466,-17246.798449,-1302.362347,5699.585753
1398.435777,-18431.127956,-1225.752797,6439.791695
1398.436089,-15248.242405,-612.876398,6291.750507
1398.436401,-9696.697840,-383.047749,3627.009116
1398.436712,-3701.029710,-995.924147,740.205942
1398.437024,74.020594,-842.705048,-1036.288319
1398.437335,74.020594,-842.705048,-2442.679609
1398.437647,-2664.741391,0.000000,-1036.288319
1398.437958,-7476.080014,919.314598,814.226536
1398.438270,-14211.954086,1455.581446,2960.823768
1398.438581,-18801.230927,1762.019645,6069.688724
1398.438893,-19393.395680,1302.362347,6069.688724
1398.439204,-14359.995275,1149.143247,5403.503377
1398.439516,-7772.162391,383.047749,2220.617826
1398.439827,-1184.329507,-1378.971896,-2442.679609
1398.440139,4145.153275,-1302.362347,-4959.379811
1398.440450,2886.803174,-229.828649,-5033.400406
1398.440762,-2812.782580,383.047749,-2146.597232
1398.441073,-11029.068536,0.000000,962.267725
1398.441385,-19171.333898,-1838.629195,4515.256246
1398.441696,-21984.116477,-1225.752797,6809.894666
1398.442008,-19985.560434,-766.095498,5477.523971
1398.442319,-12435.459826,459.657299,2368.659014
1398.442631,-5181.441594,0.000000,-1702.473667
1398.442942,814.226536,-459.657299,-4737.318029
1398.443254,3627.009116,-1378.971896,-6365.771101
1398.443565,222.061783,-536.266849,-5921.647536
1398.443877,-5551.544565,689.485948,-2738.761985
1398.444188,-12509.480420,612.876398,-148.041188
1398.444500,-17838.963202,-306.438199,2960.823768
1398.444811,-19319.375086,-612.876398,3034.844362
1398.445123,-16580.613101,153.219100,1332.370696
1398.445434,-10807.006753,842.705048,-1036.288319
1398.445746,-5773.606348,842.705048,-3849.070898
1398.446057,-2812.782580,-306.438199,-5995.668130
1398.446369,-2368.659014,-1532.190996,-6439.791695
1398.446680,-3775.050304,-919.314598,-3849.070898
1398.446992,-7179.997637,-536.266849,-2220.617826
1398.447303,-12435.459826,-1149.143247,296.082377
1398.447615,-16728.654289,-1915.238745,1850.514855
1398.447926,-17838.963202,-1302.362347,2294.638420
1398.448238,-16580.613101,229.828649,1110.308913
1398.448549,-12583.501014,995.924147,-518.144159
1398.448861,-7994.224174,-153.219100,-1998.556043
1398.449172,-4515.256246,-1149.143247,-4145.153275
1398.449484,-2072.576638,-2374.896044,-4515.256246
1398.449795,-2442.679609,-1762.019645,-3701.029710
1398.450107,-5255.462188,-842.705048,-1776.494261
1398.450418,-10732.986159,-842.705048,1184.329507
1398.450730,-16580.613101,-1302.362347,3404.947333
1398.451041,-19319.375086,-383.047749,3552.988522
1398.451353,-17616.901420,1378.971896,2886.803174
1398.451664,-10214.842000,2145.067394,1036.288319
1398.451976,-4959.379811,1838.629195,-666.185348
1398.452287,-1110.308913,76.609550,-2220.617826
1398.452599,222.061783,-1378.971896,-2812.782580
1398.452911,-1036.288319,-995.924147,-1406.391290
1398.453222,-5477.523971,-612.876398,1332.370696
1398.453534,-12065.356855,-612.876398,3552.988522
