#time,accel_x,accel_y,accel_z
1434.613409,-9178.553681,-229.828649,592.164754
1434.613721,-8956.491898,0.000000,592.164754
1434.614032,-9104.533087,-153.219100,592.164754
1434.614343,-9178.553681,0.000000,518.144159
1434.614655,-9104.533087,-153.219100,518.144159
1434.614966,-8660.409521,0.000000,444.123565
1434.615277,-8660.409521,-306.438199,222.061783
1434.615589,-8956.491898,-153.219100,222.061783
1434.615900,-8882.471304,-153.219100,518.144159
1434.616211,-8956.491898,-153.219100,740.205942
1434.616523,-9030.512492,-306.438199,444.123565
1434.616834,-8882.471304,153.219100,518.144159
1434.617145,-8586.388927,0.000000,666.185348
1434.617457,-8660.409521,-306.438199,444.123565
1434.617768,-9104.533087,153.219100,444.123565
1434.618079,-9104.533087,0.000000,666.185348
1434.618391,-8956.491898,0.000000,444.123565
1434.618702,-9030.512492,0.000000,666.185348
1434.619013,-9178.553681,0.000000,518.144159
1434.619325,-9474.636058,0.000000,-0.000000
1434.619636,-8882.471304,459.657299,666.185348
1434.619947,-8586.388927,153.219100,444.123565
1434.620259,-8586.388927,0.000000,370.102971
1434.620570,-8882.471304,0.000000,592.164754
1434.620881,-9030.512492,0.000000,592.164754
1434.621193,-9178.553681,-229.828649,444.123565
1434.621504,-8882.471304,-153.219100,518.144159
1434.621815,-8734.430116,0.000000,370.102971
1434.622127,-8734.430116,0.000000,740.205942
1434.622438,-9104.533087,-459.657299,148.041188
1434.622749,-9104.533087,76.609550,444.123565
1434.623061,-9104.533087,-229.828649,518.144159
1434.623372,-9030.512492,0.000000,518.144159
1434.623683,-8956.491898,-153.219100,518.144159
1434.623995,-9104.533087,-229.828649,518.144159
1434.624306,-8956.491898,-306.438199,518.144159
1434.624617,-8660.409521,-153.219100,518.144159
1434.624928,-8512.368333,153.219100,444.123565
1434.625240,-8882.471304,-229.828649,592.164754
1434.625551,-8808.450710,-153.219100,592.164754
1434.625862,-8882.471304,-153.219100,592.164754
1434.626174,-8808.450710,0.000000,518.144159
1434.626485,-8882.471304,0.000000,518.144159
1434.626796,-8734.430116,-229.828649,296.082377
1434.627108,-8586.388927,0.000000,518.144159
1434.627419,-8808.450710,-229.828649,370.102971
1434.627730,-8586.388927,0.000000,962.267725
1434.628042,-8734.430116,153.219100,592.164754
1434.628353,-8956.491898,0.000000,666.185348
1434.628664,-9030.512492,0.000000,518.144159
1434.628976,-9104.533087,-383.047749,370.102971
1434.629287,-8586.388927,612.876398,814.226536
1434.629598,-8956.491898,0.000000,444.123565
1434.629910,-8660.409521,229.828649,518.144159
1434.630221,-9030.512492,0.000000,518.144159
1434.630532,-9030.512492,-153.219100,518.144159
1434.630844,-8808.450710,0.000000,592.164754
1434.631155,-8882.471304,0.000000,592.164754
1434.631466,-8734.430116,-153.219100,518.144159
1434.631778,-8586.388927,0.000000,444.123565
1434.632089,-8956.491898,76.609550,148.041188
1434.632400,-8734.430116,-306.438199,296.082377
1434.632712,-8956.491898,0.000000,592.164754
1434.633023,-9030.512492,0.000000,592.164754
1434.633334,-9104.533087,-229.828649,444.123565
1434.633646,-9252.574275,0.000000,518.144159
1434.633957,-8882.471304,0.000000,-0.000000
1434.634268,-8512.368333,0.000000,296.082377
1434.634580,-8956.491898,-306.438199,444.123565
1434.634891,-8660.409521,0.000000,592.164754
1434.635202,-9030.512492,0.000000,444.123565
1434.635514,-8882.471304,0.000000,370.102971
1434.635825,-9030.512492,-229.828649,518.144159
1434.636136,-9030.512492,0.000000,518.144159
1434.636448,-8808.450710,0.000000,592.164754
1434.636759,-8882.471304,-383.047749,444.123565
1434.637070,-8808.450710,0.000000,148.041188
1434.637382,-8734.430116,-306.438199,592.164754
1434.637693,-8808.450710,0.000000,518.144159
1434.638004,-9178.553681,0.000000,444.123565
1434.638316,-9104.533087,0.000000,518.144159
1434.638627,-8882.471304,0.000000,592.164754
1434.638938,-8808.450710,306.438199,296.082377
1434.639250,-8808.450710,919.314598,370.102971
1434.639561,-8956.491898,76.609550,296.082377
1434.639872,-8882.471304,0.000000,444.123565
1434.640184,-8808.450710,0.000000,518.144159
1434.640495,-8956.491898,76.609550,592.164754
1434.640806,-8808.450710,0.000000,592.164754
1434.641118,-9030.512492,76.609550,666.185348
1434.641429,-8290.306550,0.000000,518.144159
1434.641740,-9030.512492,-229.828649,222.061783
1434.642052,-8586.388927,-229.828649,370.102971
1434.642363,-8882.471304,0.000000,740.205942
1434.642674,-8956.491898,0.000000,666.185348
1434.642986,-9030.512492,-229.828649,518.144159
1434.643297,-9030.512492,-306.438199,592.164754
1434.643608,-8808.450710,76.609550,444.123565
1434.643920,-8956.491898,459.657299,296.082377
1434.644231,-8660.409521,76.609550,592.164754
1434.644542,-8956.491898,-536.266849,370.102971
1434.644853,-9030.512492,-153.219100,814.226536
1434.645165,-8956.491898,0.000000,518.144159
1434.645476,-8808.450710,0.000000,518.144159
1434.645787,-8808.450710,0.000000,592.164754
1434.646099,-8882.471304,76.609550,296.082377
1434.646410,-8586.388927,0.000000,444.123565
1434.646721,-9030.512492,0.000000,-0.000000
1434.647033,-8734.430116,-76.609550,444.123565
1434.647344,-9030.512492,-153.219100,666.185348
1434.647655,-9178.553681,0.000000,518.144159
1434.647967,-8808.450710,76.609550,592.164754
1434.648278,-8734.430116,0.000000,518.144159
1434.648589,-8808.450710,383.047749,148.041188
1434.648901,-8882.471304,229.828649,296.082377
1434.649212,-8808.450710,383.047749,666.185348
1434.649523,-8882.471304,76.609550,444.123565
1434.649835,-8882.471304,0.000000,592.164754
1434.650146,-8808.450710,0.000000,592.164754
1434.650457,-8660.409521,76.609550,666.185348
1434.650769,-9030.512492,459.657299,296.082377
1434.651080,-8808.450710,0.000000,666.185348
1434.651391,-8438.347739,76.609550,666.185348
1434.651703,-9030.512492,0.000000,296.082377
1434.652014,-9030.512492,76.609550,814.226536
1434.652325,-9030.512492,0.000000,444.123565
1434.652637,-9178.553681,0.000000,296.082377
1434.652948,-9178.553681,153.219100,518.144159
1434.653259,-9030.512492,612.876398,740.205942
1434.653571,-8586.388927,0.000000,444.123565
1434.653882,-8734.430116,-153.219100,222.061783
1434.654193,-8734.430116,-306.438199,370.102971
1434.654505,-9104.533087,-306.438199,444.123565
1434.654816,-8882.471304,-229.828649,740.205942
1434.655127,-8808.450710,0.000000,592.164754
1434.655439,-8882.471304,-76.609550,592.164754
1434.655750,-8808.450710,0.000000,370.102971
1434.656061,-8882.471304,-459.657299,222.061783
1434.656373,-8808.450710,0.000000,518.144159
1434.656684,-8882.471304,76.609550,518.144159
1434.656995,-9770.718434,229.828649,518.144159
1434.657307,-11843.295072,1149.143247,-0.000000
1434.657618,-9992.780217,3907.087040,592.164754
1434.657929,-7920.203579,5515.887586,592.164754
1434.658241,-6957.935855,2681.334243,962.267725
1434.658552,-6439.791695,-153.219100,962.267725
1434.658863,-7402.059420,-1378.971896,-296.082377
1434.659175,-7105.977043,-1072.533697,-0.000000
1434.659486,-9326.594869,-306.438199,-666.185348
1434.659797,-13101.645173,-689.485948,-1184.329507
1434.660109,-11695.253884,536.266849,-0.000000
1434.660420,-9326.594869,689.485948,518.144159
1434.660731,-8364.327145,229.828649,2368.659014
1434.661043,-10140.821405,-1149.143247,2368.659014
1434.661354,-11251.130318,2221.676944,1776.494261
1434.661665,-6069.688724,4903.011187,2368.659014
1434.661977,-6217.729913,4443.353888,1776.494261
1434.662288,-8586.388927,2451.505594,444.123565
1434.662599,-7624.121203,2757.943793,-962.267725
1434.662911,-8364.327145,2987.772442,-1998.556043
1434.663222,-9030.512492,3600.648841,-888.247130
1434.663533,-9104.533087,3907.087040,-962.267725
1434.663845,-14434.015869,612.876398,-1332.370696
1434.664156,-10881.027347,-995.924147,2294.638420
1434.664467,-8586.388927,-689.485948,1480.411884
1434.664778,-10214.842000,2604.724693,1554.432478
1434.665090,-7624.121203,6052.154434,2368.659014
1434.665401,-8216.285956,4366.744339,1036.288319
1434.665712,-6513.812290,3600.648841,2738.761985
1434.666024,-6587.832884,5362.668486,1924.535449
1434.666335,-8586.388927,6665.030833,-0.000000
1434.666646,-8734.430116,5592.497135,-1184.329507
1434.666958,-9178.553681,4519.963438,-888.247130
1434.667269,-9474.636058,5132.839837,-1406.391290
1434.667580,-10955.047942,5898.935335,-518.144159
1434.667892,-11843.295072,5515.887586,-222.061783
1434.668203,-10214.842000,4366.744339,1850.514855
1434.668514,-9474.636058,4519.963438,2146.597232
1434.668826,-8882.471304,4749.792088,2516.700203
1434.669137,-6513.812290,5209.449386,518.144159
1434.669448,-5995.668130,5822.325785,296.082377
1434.669760,-5107.421000,5286.058936,814.226536
1434.670071,-5773.606348,5515.887586,-1036.288319
1434.670382,-7328.038826,3983.696590,-888.247130
1434.670694,-8364.327145,3447.429741,-1184.329507
1434.671005,-9770.718434,2604.724693,-0.000000
1434.671316,-11103.089130,1225.752797,888.247130
1434.671628,-11325.150913,383.047749,1776.494261
1434.671939,-11177.109724,-383.047749,1776.494261
1434.672250,-9770.718434,1532.190996,2368.659014
1434.672562,-8068.244768,3600.648841,1850.514855
1434.672873,-7105.977043,5209.449386,592.164754
1434.673184,-6735.874072,3447.429741,-0.000000
1434.673496,-6587.832884,3677.258390,-592.164754
1434.673807,-7105.977043,4136.915689,-518.144159
1434.674118,-7328.038826,2911.162892,-1258.350101
1434.674430,-8216.285956,612.876398,-888.247130
1434.674741,-9548.656652,-1838.629195,-518.144159
1434.675052,-10732.986159,-2145.067394,518.144159
1434.675364,-12435.459826,-2374.896044,1184.329507
1434.675675,-13323.706956,-1455.581446,1702.473667
1434.675986,-13249.686362,-383.047749,1332.370696
1434.676298,-11843.295072,1532.190996,592.164754
1434.676609,-9770.718434,3753.867940,148.041188
1434.676920,-7031.956449,4443.353888,-0.000000
1434.677232,-5477.523971,4443.353888,518.144159
1434.677543,-5773.606348,3907.087040,1332.370696
1434.677854,-7476.080014,1762.019645,1036.288319
1434.678166,-9252.574275,1838.629195,-74.020594
1434.678477,-10881.027347,1608.800546,-0.000000
1434.678788,-12583.501014,612.876398,-740.205942
1434.679100,-13693.809927,0.000000,-518.144159
1434.679411,-13841.851115,0.000000,-148.041188
1434.679722,-12657.521608,1685.410096,740.205942
1434.680034,-10807.006753,2911.162892,1702.473667
1434.680345,-8364.327145,3830.477490,2220.617826
1434.680656,-5699.585753,4903.011187,2442.679609
1434.680968,-3034.844362,5362.668486,1258.350101
1434.681279,-1850.514855,6052.154434,-296.082377
1434.681590,-1702.473667,6052.154434,-1924.535449
1434.681902,-4515.256246,4366.744339,-2368.659014
1434.682213,-8734.430116,2681.334243,-1924.535449
1434.682524,-12509.480420,2911.162892,-740.205942
1434.682836,-15914.427753,2374.896044,740.205942
1434.683147,-16210.510130,3294.210641,3552.988522
1434.683458,-14211.954086,2221.676944,3775.050304
1434.683770,-9548.656652,3600.648841,3330.926739
1434.684081,-5625.565159,3907.087040,1850.514855
1434.684392,-2516.700203,5132.839837,296.082377
1434.684703,-1702.473667,6894.859482,-888.247130
1434.685015,-2368.659014,7584.345430,-1924.535449
1434.685326,-5329.482782,5515.887586,-1998.556043
1434.685637,-7994.224174,3830.477490,-1184.329507
1434.685949,-9474.636058,2451.505594,222.061783
1434.686260,-10140.821405,0.000000,592.164754
1434.686571,-11621.233289,-3140.991542,1406.391290
1434.686883,-12065.356855,-3064.381992,1406.391290
1434.687194,-12657.521608,-842.705048,1184.329507
1434.687505,-12583.501014,1302.362347,1702.473667
1434.687817,-11547.212695,3294.210641,1998.556043
1434.688128,-11029.068536,4673.182538,2368.659014
1434.688439,-7328.038826,5898.935335,2294.638420
1434.688751,-6143.709319,4903.011187,518.144159
1434.689062,-6587.832884,4136.915689,-148.041188
1434.689373,-6365.771101,3447.429741,-1258.350101
1434.689685,-8438.347739,3294.210641,-2442.679609
1434.689996,-10658.965565,2987.772442,-2294.638420
1434.690307,-11251.130318,3294.210641,-1702.473667
1434.690619,-13027.624579,2681.334243,-888.247130
1434.690930,-11769.274478,1762.019645,1850.514855
1434.691241,-11917.315666,842.705048,2664.741391
1434.691553,-12361.439231,2221.676944,2886.803174
1434.691864,-10584.944971,4903.011187,2442.679609
1434.692175,-8808.450710,7660.954980,444.123565
1434.692487,-6809.894666,7431.126331,-740.205942
1434.692798,-5847.626942,6511.811733,-1702.473667
1434.693109,-5921.647536,4596.572988,-1702.473667
1434.693421,-7624.121203,2604.724693,-1850.514855
1434.693732,-8808.450710,2221.676944,-0.000000
1434.694043,-9400.615463,1072.533697,888.247130
1434.694355,-9474.636058,-1302.362347,1702.473667
1434.694666,-7994.224174,-3447.429741,2516.700203
1434.694977,-7179.997637,-2528.115143,1850.514855
1434.695289,-7994.224174,842.705048,814.226536
1434.695600,-9252.574275,6052.154434,-222.061783
1434.695911,-10214.842000,9116.536426,-814.226536
1434.696223,-10807.006753,9346.365076,518.144159
1434.696534,-9696.697840,6894.859482,962.267725
1434.696845,-8660.409521,4519.963438,666.185348
1434.697157,-8142.265362,3753.867940,518.144159
1434.697468,-7031.956449,3983.696590,-0.000000
1434.697779,-5551.544565,3830.477490,666.185348
1434.698091,-5847.626942,1685.410096,148.041188
1434.698402,-6217.729913,-383.047749,814.226536
1434.698713,-7254.018232,-612.876398,444.123565
1434.699025,-9400.615463,2374.896044,-74.020594
1434.699336,-11103.089130,6128.763984,-370.102971
1434.699647,-12213.398043,5822.325785,-0.000000
1434.699959,-12657.521608,4596.572988,2072.576638
1434.700270,-13397.727550,2451.505594,2664.741391
1434.700581,-12065.356855,1762.019645,2960.823768
1434.700893,-9548.656652,3140.991542,2220.617826
1434.701204,-6883.915261,2374.896044,2146.597232
1434.701516,-3775.050304,-1302.362347,1554.432478
1434.701827,-4145.153275,-5439.278036,222.061783
1434.702139,-5477.523971,-5362.668486,-444.123565
1434.702450,-5107.421000,0.000000,-518.144159
1434.702762,-8586.388927,4060.306139,-1258.350101
1434.703073,-13915.871710,4826.401637,-888.247130
1434.703385,-16358.551318,3907.087040,962.267725
1434.703696,-18135.045579,3677.258390,2146.597232
1434.704008,-14878.139434,6128.763984,3108.864956
1434.704320,-9918.759623,7660.954980,1924.535449
1434.704631,-6587.832884,4519.963438,962.267725
1434.704943,-3108.864956,153.219100,370.102971
1434.705254,-1036.288319,-1455.581446,-1036.288319
1434.705566,-1110.308913,1378.971896,-1702.473667
1434.705877,-4219.173869,4596.572988,-592.164754
1434.706189,-10362.883188,3370.820191,-74.020594
1434.706500,-15100.201217,1838.629195,148.041188
1434.706812,-15840.407159,2681.334243,370.102971
1434.707123,-13471.748144,6511.811733,370.102971
1434.707435,-11843.295072,4903.011187,-518.144159
1434.707746,-11103.089130,1302.362347,-814.226536
1434.708058,-8142.265362,0.000000,-1184.329507
1434.708369,-4367.215058,1302.362347,-1036.288319
1434.708681,-3256.906145,1762.019645,1850.514855
1434.708992,-5403.503377,-459.657299,2072.576638
1434.709304,-9622.677246,-2834.553343,2886.803174
1434.709615,-9992.780217,-2757.943793,3923.091493
1434.709927,-8956.491898,2604.724693,1850.514855
1434.710238,-10436.903782,6971.469032,-518.144159
1434.710550,-9918.759623,6818.249932,-2516.700203
1434.710861,-8068.244768,4290.134789,-4145.153275
1434.711173,-5773.606348,4060.306139,-3256.906145
1434.711485,-7105.977043,6665.030833,-1998.556043
1434.711796,-12583.501014,4903.011187,-74.020594
1434.712108,-13989.892304,1455.581446,2294.638420
1434.712419,-11621.233289,-2145.067394,4441.235652
1434.712731,-8808.450710,-3294.210641,4293.194464
1434.713042,-6661.853478,-1838.629195,2590.720797
1434.713354,-5477.523971,-1072.533697,-148.041188
1434.713665,-2368.659014,0.000000,-962.267725
1434.713977,-2812.782580,306.438199,-1036.288319
1434.714288,-9400.615463,1532.190996,-222.061783
1434.714600,-14063.912898,2145.067394,740.205942
1434.714911,-14359.995275,1378.971896,1554.432478
1434.715223,-12731.542202,383.047749,2812.782580
1434.715534,-10214.842000,-383.047749,2368.659014
1434.715846,-9400.615463,-1762.019645,-666.185348
1434.716157,-5921.647536,-2987.772442,-1258.350101
1434.716469,-2442.679609,-3983.696590,518.144159
1434.716780,-4885.359217,-4903.011187,1776.494261
1434.717092,-9844.739029,-3830.477490,1554.432478
1434.717403,-12953.603985,-3064.381992,2072.576638
1434.717715,-10140.821405,-1915.238745,3478.967927
1434.718027,-9104.533087,-1915.238745,3034.844362
1434.718338,-9400.615463,-2068.457845,-148.041188
1434.718650,-7105.977043,-2221.676944,-2886.803174
1434.718961,-5921.647536,-1762.019645,-3108.864956
1434.719273,-6957.935855,0.000000,-814.226536
1434.719584,-13027.624579,-1991.848295,-148.041188
1434.719896,-15174.221811,-2451.505594,1332.370696
1434.720207,-13989.892304,-3064.381992,3775.050304
1434.720519,-12065.356855,-1072.533697,4293.194464
1434.720830,-10140.821405,1532.190996,2072.576638
1434.721142,-7772.162391,2221.676944,-2294.638420
1434.721453,-3182.885551,2834.553343,-2072.576638
1434.721765,-2664.741391,4443.353888,-2072.576638
1434.722076,-7624.121203,5439.278036,-2516.700203
1434.722388,-12139.377449,5209.449386,-2368.659014
1434.722699,-13545.768739,2757.943793,-1406.391290
1434.723011,-12065.356855,2145.067394,1998.556043
1434.723322,-12657.521608,1838.629195,1110.308913
1434.723634,-13027.624579,1225.752797,-1036.288319
1434.723945,-8068.244768,-1225.752797,-370.102971
1434.724257,-4811.338623,-1685.410096,1850.514855
1434.724569,-6143.709319,-612.876398,2664.741391
1434.724880,-8956.491898,306.438199,1480.411884
1434.725192,-9178.553681,1072.533697,1332.370696
1434.725503,-5773.606348,1762.019645,2294.638420
1434.725815,-6217.729913,3524.039291,1184.329507
1434.726126,-8068.244768,2911.162892,-2072.576638
1434.726438,-6809.894666,2298.286494,-4441.235652
1434.726749,-5551.544565,306.438199,-2294.638420
1434.727061,-7698.141797,-1838.629195,1184.329507
1434.727372,-13841.851115,-1762.019645,1998.556043
1434.727684,-14211.954086,-1915.238745,3923.091493
1434.727995,-10955.047942,-3217.601092,4885.359217
1434.728307,-8660.409521,-3064.381992,5921.647536
1434.728618,-6513.812290,-306.438199,2738.761985
1434.728930,-3330.926739,1302.362347,-1702.473667
1434.729241,222.061783,842.705048,-1702.473667
1434.729553,-1406.391290,-306.438199,-74.020594
1434.729864,-7031.956449,383.047749,-222.061783
1434.730176,-10658.965565,229.828649,296.082377
1434.730487,-10807.006753,-2298.286494,1998.556043
1434.730799,-11251.130318,-3907.087040,3701.029710
1434.731111,-12805.562797,-3294.210641,2516.700203
1434.731422,-12731.542202,-2451.505594,-444.123565
1434.731734,-9548.656652,-3140.991542,-370.102971
1434.732045,-9178.553681,-2757.943793,888.247130
1434.732357,-11325.150913,153.219100,1628.453072
1434.732668,-11695.253884,766.095498,592.164754
1434.732980,-9696.697840,-1378.971896,888.247130
1434.733291,-7031.956449,-1915.238745,2220.617826
1434.733603,-7179.997637,-459.657299,370.102971
1434.733914,-8660.409521,0.000000,-3182.885551
1434.734226,-6883.915261,-536.266849,-3034.844362
1434.734537,-8068.244768,-2757.943793,-1036.288319
1434.734849,-11843.295072,-2451.505594,1480.411884
1434.735160,-16284.530724,-2145.067394,1184.329507
1434.735472,-16580.613101,-1838.629195,2368.659014
1434.735783,-13397.727550,-1838.629195,4441.235652
1434.736095,-11251.130318,612.876398,3330.926739
1434.736406,-10066.800811,3064.381992,-592.164754
1434.736718,-6513.812290,4673.182538,-3478.967927
1434.737029,-2960.823768,4826.401637,-3701.029710
1434.737341,-5033.400406,6358.592633,-3404.947333
1434.737653,-9252.574275,8197.221829,-3552.988522
1434.737964,-10288.862594,6281.983084,-2368.659014
1434.738276,-9030.512492,1225.752797,518.144159
1434.738587,-9326.594869,-612.876398,3108.864956
1434.738899,-9696.697840,-612.876398,2072.576638
1434.739210,-7254.018232,-612.876398,-0.000000
1434.739522,-4293.194464,-842.705048,370.102971
1434.739833,-5699.585753,-1149.143247,814.226536
1434.740145,-8290.306550,383.047749,-0.000000
1434.740456,-8956.491898,1915.238745,-740.205942
1434.740768,-7698.141797,1378.971896,962.267725
1434.741079,-6439.791695,612.876398,2368.659014
1434.741391,-7402.059420,306.438199,-74.020594
1434.741702,-6365.771101,-383.047749,-1332.370696
1434.742014,-4589.276840,-2451.505594,222.061783
1434.742325,-5995.668130,-3294.210641,1776.494261
1434.742637,-10732.986159,-1838.629195,1628.453072
1434.742948,-13693.809927,-1532.190996,1850.514855
1434.743260,-11843.295072,-2681.334243,3627.009116
1434.743571,-9992.780217,-3983.696590,4737.318029
1434.743883,-9474.636058,-3830.477490,2368.659014
1434.744194,-7402.059420,-2451.505594,-1258.350101
1434.744506,-4441.235652,-1149.143247,-1998.556043
1434.744818,-4145.153275,-1072.533697,-1850.514855
1434.745129,-7624.121203,0.000000,-1184.329507
1434.745441,-11843.295072,-766.095498,-1036.288319
1434.745752,-11251.130318,-995.924147,1406.391290
1434.746064,-11251.130318,-2145.067394,4145.153275
1434.746375,-12583.501014,-1991.848295,4219.173869
1434.746687,-13471.748144,-689.485948,1480.411884
1434.746998,-10510.924376,0.000000,-148.041188
1434.747310,-6661.853478,153.219100,296.082377
1434.747621,-9030.512492,919.314598,-1184.329507
1434.747933,-12509.480420,2987.772442,-1998.556043
1434.748244,-11843.295072,2451.505594,-2146.597232
1434.748556,-11547.212695,1149.143247,-518.144159
1434.748867,-11325.150913,766.095498,740.205942
1434.749179,-11399.171507,1072.533697,-1184.329507
1434.749490,-9326.594869,0.000000,-1480.411884
1434.749802,-6735.874072,-1608.800546,962.267725
1434.750113,-7772.162391,-1225.752797,2146.597232
1434.750425,-10881.027347,0.000000,1998.556043
1434.750736,-12509.480420,995.924147,2146.597232
1434.751048,-10362.883188,306.438199,3108.864956
1434.751360,-9030.512492,1072.533697,2738.761985
1434.751671,-8956.491898,3447.429741,-814.226536
1434.751983,-6513.812290,4136.915689,-3923.091493
1434.752294,-1924.535449,2987.772442,-3108.864956
1434.752606,-1924.535449,2451.505594,-1776.494261
1434.752917,-6217.729913,2911.162892,-888.247130
1434.753229,-9252.574275,2987.772442,-74.020594
1434.753540,-10140.821405,1149.143247,2664.741391
1434.753852,-9030.512492,536.266849,4367.215058
1434.754163,-8734.430116,919.314598,2516.700203
1434.754475,-7624.121203,306.438199,814.226536
1434.754786,-3552.988522,-1685.410096,222.061783
1434.755098,-3627.009116,-2834.553343,1332.370696
1434.755409,-6661.853478,-2145.067394,666.185348
1434.755721,-8586.388927,-306.438199,-666.185348
1434.756032,-8290.306550,-1608.800546,962.267725
1434.756344,-7550.100608,-2757.943793,2294.638420
1434.756655,-8586.388927,-2298.286494,888.247130
1434.756967,-7772.162391,-1532.190996,-1554.432478
1434.757278,-6439.791695,-1532.190996,-1110.308913
1434.757590,-6513.812290,-2681.334243,1628.453072
1434.757902,-9844.739029,-1685.410096,1332.370696
1434.758213,-13915.871710,-1838.629195,1628.453072
1434.758525,-13101.645173,-2681.334243,2442.679609
1434.758836,-11177.109724,-2987.772442,3034.844362
1434.759148,-11473.192101,-1225.752797,1332.370696
1434.759459,-11547.212695,459.657299,-2146.597232
1434.759771,-9326.594869,536.266849,-4071.132681
1434.760082,-7846.182985,612.876398,-2664.741391
1434.760394,-9622.677246,306.438199,-1036.288319
1434.760705,-12731.542202,229.828649,-222.061783
1434.761017,-14285.974681,-842.705048,1258.350101
1434.761328,-11843.295072,-2068.457845,3923.091493
1434.761640,-10066.800811,-1762.019645,4811.338623
1434.761951,-10807.006753,-842.705048,1850.514855
1434.762263,-9622.677246,536.266849,-1258.350101
1434.762574,-7328.038826,919.314598,-1850.514855
1434.762886,-8290.306550,1455.581446,-1554.432478
1434.763197,-12509.480420,2757.943793,-1776.494261
1434.763509,-13989.892304,3217.601092,-1850.514855
1434.763820,-11399.171507,1915.238745,518.144159
1434.764132,-8956.491898,995.924147,2886.803174
1434.764444,-8808.450710,1072.533697,1184.329507
1434.764755,-7105.977043,2221.676944,-1036.288319
1434.765067,-2146.597232,1991.848295,-962.267725
1434.765378,-2516.700203,1455.581446,1184.329507
1434.765690,-7105.977043,1378.971896,2516.700203
1434.766001,-8068.244768,1532.190996,1480.411884
1434.766313,-7772.162391,383.047749,3330.926739
1434.766624,-5847.626942,-1991.848295,4737.318029
1434.766936,-6883.915261,-1608.800546,1480.411884
1434.767247,-6291.750507,1072.533697,-1776.494261
1434.767559,-3849.070898,612.876398,-3330.926739
1434.767870,-3182.885551,-689.485948,-1332.370696
1434.768182,-5477.523971,0.000000,-592.164754
1434.768493,-10510.924376,1149.143247,-222.061783
1434.768805,-11621.233289,-459.657299,3478.967927
1434.769116,-9178.553681,-2145.067394,6365.771101
1434.769428,-8068.244768,-1838.629195,4737.318029
1434.769739,-7920.203579,-1225.752797,1036.288319
1434.770051,-6143.709319,-1838.629195,-1628.453072
1434.770362,-4515.256246,-842.705048,-1184.329507
1434.770674,-6957.935855,689.485948,-518.144159
1434.770986,-10510.924376,153.219100,-1184.329507
1434.771297,-13175.665768,-1532.190996,-370.102971
1434.771609,-12731.542202,-2298.286494,1628.453072
1434.771920,-11695.253884,0.000000,1776.494261
1434.772232,-12139.377449,842.705048,-814.226536
1434.772543,-10658.965565,1685.410096,-2368.659014
1434.772855,-7624.121203,1149.143247,-444.123565
1434.773166,-8734.430116,459.657299,-0.000000
1434.773478,-12583.501014,1608.800546,888.247130
1434.773789,-14434.015869,1991.848295,740.205942
1434.774101,-12805.562797,229.828649,1850.514855
1434.774412,-12139.377449,0.000000,1628.453072
1434.774724,-12879.583391,689.485948,-1110.308913
1434.775035,-10955.047942,1378.971896,-3552.988522
1434.775347,-7920.203579,0.000000,-3256.906145
1434.775658,-7476.080014,-1149.143247,-148.041188
1434.775970,-10658.965565,-689.485948,888.247130
1434.776281,-12879.583391,-612.876398,1406.391290
1434.776593,-11621.233289,-1072.533697,4071.132681
1434.776904,-9178.553681,-1378.971896,4885.359217
1434.777216,-7254.018232,1302.362347,2590.720797
1434.777527,-6735.874072,1608.800546,-666.185348
1434.777839,-4515.256246,2068.457845,-2220.617826
1434.778151,-2812.782580,1838.629195,-592.164754
1434.778462,-6735.874072,2298.286494,-74.020594
1434.778774,-9918.759623,2528.115143,-0.000000
1434.779085,-9474.636058,689.485948,962.267725
1434.779397,-7328.038826,-383.047749,3701.029710
1434.779708,-5995.668130,-919.314598,3256.906145
1434.780020,-4959.379811,-842.705048,-888.247130
1434.780331,-4071.132681,-612.876398,-1184.329507
1434.780643,-3478.967927,-2374.896044,518.144159
1434.780954,-4811.338623,-1838.629195,1480.411884
1434.781266,-9104.533087,-1608.800546,1702.473667
1434.781577,-11547.212695,-2298.286494,2664.741391
1434.781889,-9104.533087,-5362.668486,4441.235652
1434.782200,-7994.224174,-3447.429741,1998.556043
1434.782512,-8660.409521,-1225.752797,-0.000000
1434.782823,-6809.894666,0.000000,-1924.535449
1434.783135,-5551.544565,0.000000,-1554.432478
1434.783446,-7476.080014,459.657299,-1036.288319
1434.783758,-11029.068536,1532.190996,-1480.411884
1434.784069,-13323.706956,2221.676944,-1702.473667
1434.784381,-13101.645173,1762.019645,296.082377
1434.784693,-11399.171507,1225.752797,1258.350101
1434.785004,-11325.150913,153.219100,-518.144159
1434.785316,-10510.924376,459.657299,-2368.659014
1434.785627,-8438.347739,689.485948,-1924.535449
1434.785939,-7994.224174,-306.438199,-0.000000
1434.786250,-11991.336260,-536.266849,962.267725
1434.786562,-14878.139434,76.609550,592.164754
1434.786873,-12805.562797,-459.657299,1850.514855
1434.787185,-11547.212695,-1225.752797,2516.700203
1434.787496,-10436.903782,612.876398,1110.308913
1434.787808,-9474.636058,2068.457845,-2220.617826
1434.788119,-7624.121203,1378.971896,-2442.679609
1434.788431,-7698.141797,306.438199,-222.061783
1434.788742,-11621.233289,1685.410096,592.164754
1434.789054,-14359.995275,2451.505594,370.102971
1434.789365,-12953.603985,1455.581446,1628.453072
1434.789677,-9252.574275,306.438199,2960.823768
1434.789988,-7624.121203,383.047749,2442.679609
1434.790300,-6069.688724,1072.533697,-74.020594
1434.790611,-3330.926739,153.219100,-962.267725
1434.790923,-3404.947333,-306.438199,740.205942
1434.791235,-5625.565159,0.000000,2590.720797
1434.791546,-6809.894666,1149.143247,1776.494261
1434.791858,-8882.471304,-306.438199,2590.720797
1434.792169,-7698.141797,-2374.896044,4145.153275
1434.792481,-5847.626942,-1225.752797,2516.700203
1434.792792,-6143.709319,766.095498,222.061783
1434.793104,-5181.441594,-153.219100,-1110.308913
1434.793415,-3552.988522,-2221.676944,592.164754
1434.793727,-4811.338623,-2068.457845,1036.288319
1434.794038,-8956.491898,-1991.848295,1628.453072
1434.794350,-11621.233289,-2528.115143,1406.391290
1434.794661,-10807.006753,-4060.306139,2664.741391
1434.794973,-7624.121203,-2834.553343,2886.803174
1434.795284,-7550.100608,-2528.115143,-0.000000
1434.795596,-8438.347739,-2374.896044,-1924.535449
1434.795907,-6291.750507,-995.924147,-1258.350101
1434.796219,-7846.182985,-1608.800546,-814.226536
1434.796530,-10807.006753,-1532.190996,370.102971
1434.796842,-12361.439231,995.924147,148.041188
1434.797153,-13397.727550,0.000000,814.226536
1434.797465,-11325.150913,76.609550,2146.597232
1434.797777,-9918.759623,1532.190996,-592.164754
1434.798088,-9474.636058,3753.867940,-3775.050304
1434.798400,-6735.874072,3524.039291,-3256.906145
1434.798711,-7328.038826,0.000000,-2738.761985
1434.799023,-11621.233289,-383.047749,-962.267725
1434.799334,-14878.139434,842.705048,-740.205942
1434.799646,-15396.283594,612.876398,592.164754
1434.799957,-14063.912898,-1455.581446,2294.638420
1434.800269,-13027.624579,-995.924147,1258.350101
1434.800580,-10881.027347,0.000000,-1850.514855
1434.800891,-7994.224174,459.657299,-2664.741391
1434.801203,-6735.874072,1302.362347,296.082377
1434.801514,-8512.368333,2374.896044,1110.308913
1434.801825,-10732.986159,1455.581446,1480.411884
1434.802137,-10584.944971,766.095498,2220.617826
1434.802448,-7698.141797,76.609550,3701.029710
1434.802759,-7328.038826,536.266849,2146.597232
1434.803071,-6735.874072,2451.505594,-962.267725
1434.803382,-5107.421000,2681.334243,-3108.864956
1434.803693,-4219.173869,1455.581446,-1036.288319
1434.804005,-5551.544565,766.095498,1480.411884
1434.804316,-9622.677246,383.047749,1332.370696
1434.804627,-12213.398043,0.000000,2590.720797
1434.804939,-10732.986159,-766.095498,4663.297435
1434.805250,-6883.915261,-612.876398,4663.297435
1434.805561,-6291.750507,612.876398,1036.288319
1434.805873,-4737.318029,0.000000,-74.020594
1434.806184,-1110.308913,-2374.896044,-0.000000
1434.806495,-1998.556043,-2604.724693,1554.432478
1434.806807,-5995.668130,-2145.067394,2146.597232
1434.807118,-10140.821405,-2451.505594,1850.514855
1434.807429,-10881.027347,-4213.525239,3923.091493
1434.807741,-8734.430116,-4596.572988,3997.112087
1434.808052,-8660.409521,-3524.039291,1628.453072
1434.808363,-8364.327145,-1762.019645,-1628.453072
1434.808675,-6809.894666,-766.095498,-1850.514855
1434.808986,-6143.709319,-2757.943793,-888.247130
1434.809297,-9696.697840,-3064.381992,-370.102971
1434.809609,-14063.912898,-536.266849,296.082377
1434.809920,-13693.809927,459.657299,814.226536
1434.810231,-12509.480420,306.438199,962.267725
1434.810543,-11769.274478,1378.971896,-0.000000
1434.810854,-9696.697840,3217.601092,-2886.803174
1434.811165,-6735.874072,1838.629195,-3997.112087
1434.811477,-5625.565159,-689.485948,-2072.576638
1434.811788,-9622.677246,-919.314598,-518.144159
1434.812099,-13619.789333,766.095498,-296.082377
1434.812411,-15174.221811,383.047749,962.267725
1434.812722,-13989.892304,-1149.143247,2442.679609
1434.813033,-12361.439231,-612.876398,1776.494261
1434.813345,-11473.192101,1991.848295,-1332.370696
1434.813656,-7698.141797,2681.334243,-2664.741391
1434.813967,-6513.812290,383.047749,-1998.556043
1434.814279,-8586.388927,1302.362347,-74.020594
1434.814590,-11991.336260,2451.505594,-0.000000
1434.814901,-12509.480420,2374.896044,-0.000000
1434.815213,-10807.006753,766.095498,2516.700203
1434.815524,-8734.430116,1225.752797,3256.906145
1434.815835,-7031.956449,1915.238745,-296.082377
1434.816147,-4737.318029,1455.581446,-1628.453072
1434.816458,-3552.988522,842.705048,-666.185348
1434.816769,-3552.988522,0.000000,1406.391290
1434.817081,-7031.956449,766.095498,1406.391290
1434.817392,-9622.677246,0.000000,1776.494261
1434.817703,-9474.636058,-1149.143247,3256.906145
1434.818015,-7105.977043,-383.047749,4515.256246
1434.818326,-4737.318029,995.924147,1924.535449
1434.818637,-5255.462188,-229.828649,148.041188
1434.818949,-3182.885551,-2374.896044,222.061783
1434.819260,-3997.112087,-1532.190996,666.185348
1434.819571,-7254.018232,0.000000,962.267725
1434.819883,-10436.903782,-459.657299,962.267725
1434.820194,-11103.089130,-2451.505594,2590.720797
1434.820505,-8808.450710,-3140.991542,2886.803174
1434.820817,-7624.121203,-3447.429741,1850.514855
1434.821128,-7105.977043,-2528.115143,-0.000000
1434.821440,-6957.935855,-3217.601092,-1184.329507
1434.821751,-7772.162391,-3447.429741,148.041188
1434.822062,-9104.533087,-3140.991542,888.247130
1434.822374,-13101.645173,-2145.067394,814.226536
1434.822685,-13323.706956,-995.924147,1480.411884
1434.822996,-11029.068536,-1532.190996,1702.473667
1434.823308,-10658.965565,-612.876398,814.226536
1434.823619,-10214.842000,1838.629195,-1184.329507
1434.823930,-9030.512492,2451.505594,-3775.050304
1434.824242,-8068.244768,1991.848295,-2146.597232
1434.824553,-10807.006753,1532.190996,-666.185348
1434.824864,-13693.809927,2451.505594,-1036.288319
1434.825176,-15100.201217,2145.067394,-1258.350101
1434.825487,-12805.562797,1225.752797,296.082377
1434.825798,-11251.130318,0.000000,962.267725
1434.826110,-11103.089130,-536.266849,-1406.391290
1434.826421,-8660.409521,0.000000,-2812.782580
1434.826732,-7105.977043,-766.095498,-1702.473667
1434.827044,-8512.368333,-919.314598,370.102971
1434.827355,-11029.068536,306.438199,1850.514855
1434.827666,-12361.439231,612.876398,1480.411884
1434.827978,-10955.047942,306.438199,2738.761985
1434.828289,-9252.574275,1532.190996,2442.679609
1434.828600,-7476.080014,3753.867940,370.102971
1434.828912,-5107.421000,4596.572988,-1998.556043
1434.829223,-3108.864956,2911.162892,-2220.617826
1434.829534,-3627.009116,1302.362347,148.041188
1434.829846,-7254.018232,2145.067394,-0.000000
1434.830157,-9918.759623,2987.772442,1184.329507
1434.830468,-10584.944971,1072.533697,2442.679609
1434.830780,-8956.491898,-1838.629195,3478.967927
1434.831091,-6957.935855,383.047749,1850.514855
1434.831402,-5551.544565,459.657299,-592.164754
1434.831714,-2072.576638,-919.314598,-222.061783
1434.832025,-1554.432478,-2681.334243,1184.329507
1434.832336,-5699.585753,-2757.943793,1998.556043
1434.832648,-10288.862594,-1838.629195,3034.844362
1434.832959,-10436.903782,-2298.286494,4145.153275
1434.833270,-9548.656652,-1991.848295,4737.318029
1434.833582,-8660.409521,-1072.533697,3330.926739
1434.833893,-8142.265362,-995.924147,-888.247130
1434.834204,-6587.832884,-459.657299,-2072.576638
1434.834516,-4737.318029,-153.219100,-1110.308913
1434.834827,-7994.224174,-689.485948,-518.144159
1434.835138,-12509.480420,-1685.410096,518.144159
1434.835450,-13619.789333,-2298.286494,1480.411884
1434.835761,-13101.645173,-2145.067394,2146.597232
1434.836072,-12509.480420,-1455.581446,1184.329507
1434.836384,-11991.336260,-995.924147,-814.226536
1434.836695,-9474.636058,-995.924147,-2590.720797
1434.837006,-7402.059420,-995.924147,-1776.494261
1434.837318,-8808.450710,0.000000,-0.000000
1434.837629,-12583.501014,1455.581446,888.247130
1434.837940,-15100.201217,1762.019645,370.102971
1434.838252,-11991.336260,1685.410096,2368.659014
1434.838563,-10214.842000,1608.800546,2072.576638
1434.838874,-9548.656652,2298.286494,-444.123565
1434.839186,-8068.244768,2145.067394,-4219.173869
1434.839497,-6291.750507,689.485948,-3775.050304
1434.839808,-7624.121203,229.828649,-1332.370696
1434.840120,-12879.583391,919.314598,-74.020594
1434.840431,-15100.201217,76.609550,-0.000000
1434.840742,-13323.706956,-995.924147,2368.659014
1434.841054,-9844.739029,-1915.238745,4219.173869
1434.841365,-7402.059420,-1225.752797,2146.597232
1434.841676,-5329.482782,612.876398,-888.247130
1434.841988,-4293.194464,459.657299,-1184.329507
1434.842299,-2368.659014,459.657299,1110.308913
1434.842610,-3923.091493,1532.190996,592.164754
1434.842922,-8882.471304,2145.067394,1332.370696
1434.843233,-10584.944971,-76.609550,2738.761985
1434.843544,-8364.327145,-306.438199,4145.153275
1434.843856,-5699.585753,1915.238745,2516.700203
1434.844167,-5699.585753,1991.848295,-888.247130
1434.844478,-4441.235652,0.000000,-1850.514855
1434.844790,-3552.988522,-919.314598,-814.226536
1434.845101,-6291.750507,306.438199,444.123565
1434.845412,-9400.615463,-229.828649,1110.308913
1434.845724,-11769.274478,-1608.800546,2220.617826
1434.846035,-11473.192101,-2604.724693,4145.153275
1434.846346,-9252.574275,-3447.429741,3034.844362
1434.846658,-7476.080014,-2298.286494,592.164754
1434.846969,-5329.482782,-383.047749,-962.267725
1434.847280,-4589.276840,-2068.457845,-1480.411884
1434.847592,-7105.977043,-3064.381992,-74.020594
1434.847903,-11621.233289,-383.047749,-0.000000
1434.848214,-13397.727550,1302.362347,740.205942
1434.848526,-12287.418637,459.657299,2368.659014
1434.848837,-12435.459826,-459.657299,1628.453072
1434.849148,-11621.233289,1302.362347,-222.061783
1434.849460,-8438.347739,2298.286494,-2886.803174
1434.849771,-7550.100608,842.705048,-2442.679609
1434.850082,-7994.224174,459.657299,-0.000000
1434.850394,-13249.686362,842.705048,-444.123565
1434.850705,-16358.551318,689.485948,-296.082377
1434.851016,-13841.851115,766.095498,962.267725
1434.851328,-12139.377449,1225.752797,1924.535449
1434.851639,-10066.800811,2068.457845,666.185348
1434.851950,-8068.244768,1455.581446,-2738.761985
1434.852262,-5699.585753,-306.438199,-1850.514855
1434.852573,-5625.565159,-612.876398,296.082377
1434.852884,-9622.677246,536.266849,962.267725
1434.853196,-12509.480420,1685.410096,-0.000000
1434.853507,-12139.377449,1455.581446,1628.453072
1434.853818,-10140.821405,-306.438199,2960.823768
1434.854130,-8216.285956,0.000000,1480.411884
1434.854441,-7105.977043,1302.362347,-1184.329507
1434.854752,-5033.400406,842.705048,-1332.370696
1434.855064,-4071.132681,-842.705048,370.102971
1434.855375,-7624.121203,536.266849,1184.329507
1434.855686,-10510.924376,2451.505594,1110.308913
1434.855998,-10584.944971,1838.629195,1628.453072
1434.856309,-8660.409521,-229.828649,3923.091493
1434.856620,-6069.688724,-153.219100,3034.844362
1434.856932,-4515.256246,383.047749,296.082377
1434.857243,-3478.967927,-842.705048,-740.205942
1434.857554,-2146.597232,-3447.429741,1480.411884
1434.857866,-3182.885551,-3447.429741,1184.329507
1434.858177,-7624.121203,-2298.286494,1110.308913
1434.858488,-11177.109724,-2604.724693,1850.514855
1434.858800,-11251.130318,-2987.772442,2738.761985
1434.859111,-9770.718434,-1915.238745,3404.947333
1434.859422,-9474.636058,-2221.676944,518.144159
1434.859734,-8660.409521,-1762.019645,-666.185348
1434.860045,-6291.750507,-612.876398,-1258.350101
1434.860356,-7994.224174,-689.485948,-740.205942
1434.860668,-10436.903782,612.876398,-148.041188
1434.860979,-12805.562797,919.314598,148.041188
1434.861290,-13249.686362,153.219100,1184.329507
1434.861602,-10807.006753,-766.095498,2294.638420
1434.861913,-10732.986159,383.047749,-444.123565
1434.862224,-10362.883188,1455.581446,-2590.720797
1434.862536,-7402.059420,383.047749,-2442.679609
1434.862847,-8438.347739,-919.314598,-1036.288319
1434.863158,-11917.315666,0.000000,-0.000000
1434.863470,-14878.139434,1149.143247,-0.000000
1434.863781,-14582.057057,1149.143247,444.123565
1434.864092,-12509.480420,766.095498,2072.576638
1434.864404,-11029.068536,1608.800546,888.247130
1434.864715,-9844.739029,842.705048,-1998.556043
1434.865026,-6069.688724,919.314598,-1924.535449
1434.865338,-5995.668130,-153.219100,-0.000000
1434.865649,-9992.780217,612.876398,296.082377
1434.865960,-12805.562797,2145.067394,740.205942
1434.866272,-14285.974681,1915.238745,-0.000000
1434.866583,-10288.862594,2604.724693,2072.576638
1434.866894,-7254.018232,1915.238745,1184.329507
1434.867206,-6143.709319,612.876398,-1184.329507
1434.867517,-3256.906145,-459.657299,-1480.411884
1434.867828,-2960.823768,-1608.800546,444.123565
1434.868140,-5477.523971,-1608.800546,1702.473667
1434.868451,-8512.368333,459.657299,2220.617826
1434.868762,-10140.821405,0.000000,2664.741391
1434.869074,-9178.553681,-2298.286494,4441.235652
1434.869385,-5625.565159,-1608.800546,3997.112087
1434.869696,-5329.482782,153.219100,666.185348
1434.870008,-5625.565159,-766.095498,-814.226536
1434.870319,-3256.906145,-1991.848295,-148.041188
1434.870630,-4145.153275,-1608.800546,814.226536
1434.870942,-7920.203579,-995.924147,1258.350101
1434.871253,-11695.253884,-1149.143247,1184.329507
1434.871564,-11547.212695,-2298.286494,2812.782580
1434.871876,-9770.718434,-2757.943793,2738.761985
1434.872187,-7994.224174,-2451.505594,1184.329507
1434.872498,-7105.977043,-2374.896044,-74.020594
1434.872810,-6365.771101,-2834.553343,-814.226536
1434.873121,-6365.771101,-3677.258390,-0.000000
1434.873432,-9400.615463,-2374.896044,-0.000000
1434.873744,-12879.583391,76.609550,-592.164754
1434.874055,-13175.665768,1072.533697,592.164754
1434.874366,-12657.521608,0.000000,2220.617826
1434.874678,-12361.439231,76.609550,740.205942
1434.874989,-11251.130318,1991.848295,-1406.391290
1434.875300,-8068.244768,2451.505594,-2220.617826
1434.875612,-8216.285956,1991.848295,-2442.679609
1434.875923,-11473.192101,2451.505594,-1702.473667
1434.876235,-13249.686362,3064.381992,-1184.329507
1434.876546,-14211.954086,1149.143247,-518.144159
1434.876857,-12731.542202,459.657299,1480.411884
1434.877169,-11547.212695,766.095498,592.164754
1434.877480,-11029.068536,689.485948,-1776.494261
1434.877791,-7550.100608,0.000000,-1924.535449
1434.878103,-6217.729913,-1302.362347,-74.020594
1434.878414,-8956.491898,-766.095498,1628.453072
1434.878725,-11103.089130,1532.190996,1850.514855
1434.879037,-11843.295072,1838.629195,1036.288319
1434.879348,-8512.368333,1149.143247,3330.926739
1434.879659,-6069.688724,1991.848295,2146.597232
1434.879971,-5403.503377,2451.505594,-962.267725
1434.880282,-4811.338623,2757.943793,-2368.659014
1434.880593,-3627.009116,995.924147,-888.247130
1434.880905,-5181.441594,229.828649,-0.000000
1434.881216,-8956.491898,842.705048,444.123565
1434.881527,-11177.109724,-229.828649,1184.329507
1434.881839,-10214.842000,-2221.676944,3182.885551
1434.882150,-7624.121203,-2374.896044,4071.132681
1434.882461,-6883.915261,-2145.067394,1998.556043
1434.882773,-5625.565159,-2374.896044,740.205942
1434.883084,-3923.091493,-3830.477490,444.123565
1434.883395,-3478.967927,-3524.039291,1110.308913
1434.883707,-5477.523971,-2068.457845,1554.432478
1434.884018,-9030.512492,-766.095498,1776.494261
1434.884329,-10066.800811,-2528.115143,2960.823768
1434.884641,-9104.533087,-3600.648841,3108.864956
1434.884952,-9326.594869,-2221.676944,1110.308913
1434.885263,-9178.553681,-1149.143247,-370.102971
1434.885575,-7031.956449,-1455.581446,-1110.308913
1434.885886,-7105.977043,-2834.553343,-518.144159
1434.886197,-11177.109724,-2374.896044,-296.082377
1434.886509,-13545.768739,-1225.752797,-592.164754
1434.886820,-14434.015869,459.657299,-148.041188
1434.887131,-13619.789333,459.657299,1850.514855
1434.887443,-11991.336260,842.705048,1480.411884
1434.887754,-11177.109724,306.438199,-1480.411884
1434.888065,-7920.203579,612.876398,-1554.432478
1434.888377,-5847.626942,1072.533697,-370.102971
1434.888688,-8660.409521,1915.238745,-0.000000
1434.888999,-11843.295072,2681.334243,-222.061783
1434.889311,-14063.912898,1302.362347,-444.123565
1434.889622,-12435.459826,1149.143247,1702.473667
1434.889933,-11177.109724,1991.848295,1480.411884
1434.890245,-11325.150913,2681.334243,-1924.535449
1434.890556,-8586.388927,2451.505594,-3182.885551
1434.890867,-6809.894666,1072.533697,-2590.720797
1434.891179,-8216.285956,2374.896044,296.082377
1434.891490,-11177.109724,3064.381992,370.102971
1434.891801,-12361.439231,1991.848295,666.185348
1434.892113,-10584.944971,919.314598,2886.803174
1434.892424,-8882.471304,536.266849,3701.029710
1434.892735,-6661.853478,689.485948,1258.350101
1434.893047,-3923.091493,1072.533697,-666.185348
1434.893358,-1924.535449,-842.705048,-148.041188
1434.893669,-2960.823768,-1838.629195,370.102971
1434.893981,-6439.791695,995.924147,1924.535449
1434.894292,-10732.986159,1608.800546,1480.411884
1434.894603,-9918.759623,0.000000,2590.720797
1434.894915,-5625.565159,-612.876398,3182.885551
1434.895226,-5995.668130,-153.219100,370.102971
1434.895537,-5181.441594,-995.924147,-2072.576638
1434.895849,-2812.782580,-2451.505594,-1628.453072
1434.896160,-4367.215058,-3370.820191,444.123565
1434.896471,-8142.265362,-1838.629195,1036.288319
1434.896783,-12287.418637,-2145.067394,1776.494261
1434.897094,-13767.830521,-2987.772442,2516.700203
1434.897405,-10436.903782,-2987.772442,4737.318029
1434.897717,-7772.162391,-2834.553343,2220.617826
1434.898028,-7698.141797,-2298.286494,-518.144159
1434.898339,-6069.688724,-1225.752797,-1702.473667
1434.898651,-5551.544565,-2145.067394,-1480.411884
1434.898962,-8734.430116,-1838.629195,-0.000000
1434.899273,-11621.233289,0.000000,370.102971
1434.899585,-13841.851115,-229.828649,592.164754
1434.899896,-13693.809927,-1838.629195,1406.391290
1434.900207,-12583.501014,-842.705048,1184.329507
1434.900519,-12065.356855,1991.848295,-1184.329507
1434.900830,-9178.553681,1378.971896,-1924.535449
1434.901142,-7328.038826,0.000000,-1036.288319
1434.901453,-10436.903782,-306.438199,-888.247130
1434.901764,-13915.871710,1838.629195,-592.164754
1434.902076,-14508.036463,2528.115143,-0.000000
1434.902387,-12953.603985,1838.629195,888.247130
1434.902698,-11547.212695,1378.971896,1554.432478
1434.903010,-10881.027347,1532.190996,-962.267725
1434.903321,-7179.997637,1302.362347,-2442.679609
1434.903633,-5255.462188,1302.362347,-1850.514855
1434.903944,-6809.894666,1149.143247,370.102971
1434.904255,-9844.739029,1532.190996,888.247130
1434.904567,-11991.336260,1685.410096,962.267725
1434.904878,-9918.759623,1072.533697,3108.864956
1434.905190,-7476.080014,919.314598,3627.009116
1434.905501,-6957.935855,1302.362347,1184.329507
1434.905812,-5477.523971,3064.381992,-1554.432478
1434.906124,-3182.885551,1608.800546,-1628.453072
1434.906435,-2738.761985,766.095498,-296.082377
1434.906747,-6217.729913,2298.286494,444.123565
1434.907058,-10584.944971,2451.505594,592.164754
1434.907369,-10066.800811,383.047749,2516.700203
1434.907681,-6513.812290,0.000000,3923.091493
1434.907992,-4959.379811,-459.657299,2590.720797
1434.908304,-5625.565159,-2221.676944,814.226536
1434.908615,-3701.029710,-2528.115143,1036.288319
1434.908926,-2886.803174,-3217.601092,1480.411884
1434.909238,-6439.791695,-3064.381992,1776.494261
1434.909549,-9770.718434,-2374.896044,1480.411884
1434.909860,-11917.315666,-2374.896044,1628.453072
1434.910172,-9992.780217,-2451.505594,2960.823768
1434.910483,-8216.285956,-2911.162892,2812.782580
1434.910795,-10584.944971,-3370.820191,-592.164754
1434.911106,-9326.594869,-1378.971896,-888.247130
1434.911417,-7105.977043,-1149.143247,-296.082377
1434.911729,-9326.594869,-2298.286494,-444.123565
1434.912040,-12731.542202,0.000000,444.123565
1434.912352,-13397.727550,459.657299,296.082377
1434.912663,-11843.295072,-1455.581446,1184.329507
1434.912974,-10510.924376,-1225.752797,1332.370696
1434.913286,-11103.089130,459.657299,-518.144159
1434.913597,-10066.800811,153.219100,-2368.659014
1434.913909,-7698.141797,-1991.848295,-1258.350101
1434.914220,-8956.491898,-1455.581446,370.102971
1434.914531,-13101.645173,153.219100,518.144159
1434.914843,-14434.015869,1149.143247,296.082377
1434.915154,-13471.748144,0.000000,1702.473667
1434.915465,-12065.356855,306.438199,2146.597232
1434.915777,-9770.718434,2604.724693,222.061783
1434.916088,-9104.533087,3677.258390,-3034.844362
1434.916400,-5625.565159,2911.162892,-2220.617826
1434.916711,-6513.812290,1991.848295,-296.082377
1434.917022,-9918.759623,3217.601092,-0.000000
1434.917334,-11695.253884,4136.915689,-1184.329507
1434.917645,-11251.130318,3140.991542,592.164754
1434.917957,-8438.347739,229.828649,2886.803174
1434.918268,-7105.977043,-995.924147,518.144159
1434.918579,-5699.585753,1072.533697,-1702.473667
1434.918891,-4145.153275,766.095498,-1110.308913
1434.919202,-4219.173869,-689.485948,1110.308913
1434.919514,-6217.729913,536.266849,2738.761985
1434.919825,-10140.821405,766.095498,2220.617826
1434.920136,-10214.842000,306.438199,3330.926739
1434.920448,-6513.812290,0.000000,4663.297435
1434.920759,-5329.482782,2068.457845,1850.514855
1434.921070,-4737.318029,1378.971896,-740.205942
1434.921382,-2664.741391,-1455.581446,-1702.473667
1434.921693,-1776.494261,-2451.505594,222.061783
1434.922005,-5477.523971,-1149.143247,666.185348
1434.922316,-10436.903782,-536.266849,74.020594
1434.922627,-13175.665768,-1378.971896,1480.411884
1434.922939,-11325.150913,-2911.162892,2812.782580
1434.923250,-8734.430116,-3753.867940,2664.741391
1434.923562,-8734.430116,-3524.039291,-296.082377
1434.923873,-7920.203579,-2757.943793,-1184.329507
1434.924184,-7031.956449,-2834.553343,-444.123565
1434.924496,-9622.677246,-2757.943793,518.144159
1434.924807,-12361.439231,536.266849,1480.411884
1434.925119,-13323.706956,995.924147,740.205942
1434.925430,-11473.192101,-459.657299,2072.576638
1434.925741,-9844.739029,-842.705048,2442.679609
1434.926053,-10066.800811,842.705048,-740.205942
1434.926364,-8808.450710,2145.067394,-2442.679609
1434.926676,-7179.997637,919.314598,-1776.494261
1434.926987,-9918.759623,-842.705048,-740.205942
1434.927298,-14508.036463,-229.828649,-0.000000
1434.927610,-16506.592507,1149.143247,-888.247130
1434.927921,-14508.036463,459.657299,888.247130
1434.928232,-12657.521608,0.000000,1924.535449
1434.928544,-11399.171507,-153.219100,222.061783
1434.928855,-8882.471304,459.657299,-1776.494261
1434.929167,-5699.585753,383.047749,-1480.411884
1434.929478,-5773.606348,1225.752797,1258.350101
1434.929789,-9622.677246,1915.238745,1924.535449
1434.930101,-11103.089130,995.924147,1480.411884
1434.930412,-9252.574275,842.705048,2220.617826
1434.930724,-7698.141797,0.000000,3108.864956
1434.931035,-7550.100608,1762.019645,1480.411884
1434.931346,-7105.977043,3600.648841,-1258.350101
1434.931658,-4811.338623,2451.505594,-2368.659014
1434.931969,-2442.679609,766.095498,-740.205942
1434.932281,-4663.297435,1378.971896,-296.082377
1434.932592,-9696.697840,2757.943793,-0.000000
1434.932903,-10658.965565,919.314598,1776.494261
1434.933215,-7772.162391,-1302.362347,4293.194464
1434.933526,-6587.832884,-1072.533697,3404.947333
1434.933837,-6439.791695,229.828649,444.123565
1434.934149,-5995.668130,-919.314598,-444.123565
1434.934460,-2886.803174,-2911.162892,1480.411884
1434.934772,-3108.864956,-1991.848295,1110.308913
1434.935083,-7994.224174,-2145.067394,740.205942
1434.935394,-10510.924376,-1838.629195,1776.494261
1434.935706,-10658.965565,-2604.724693,2812.782580
1434.936017,-9770.718434,-2604.724693,2590.720797
1434.936329,-8660.409521,-1149.143247,-74.020594
1434.936640,-7994.224174,-842.705048,-2664.741391
1434.936951,-6439.791695,-1225.752797,-1702.473667
1434.937263,-8216.285956,-1302.362347,-518.144159
1434.937574,-11843.295072,-1762.019645,-222.061783
1434.937886,-13545.768739,-536.266849,518.144159
1434.938197,-14211.954086,-1915.238745,1258.350101
1434.938508,-12435.459826,-1532.190996,1776.494261
1434.938820,-11769.274478,0.000000,-370.102971
1434.939131,-10362.883188,689.485948,-2812.782580
1434.939443,-7105.977043,459.657299,-2516.700203
1434.939754,-8290.306550,-995.924147,-592.164754
1434.940065,-11695.253884,0.000000,-0.000000
1434.940377,-14137.933492,459.657299,-296.082377
1434.940688,-13397.727550,306.438199,1406.391290
1434.940999,-11695.253884,-306.438199,2590.720797
1434.941311,-11103.089130,229.828649,1258.350101
1434.941622,-10140.821405,1991.848295,-2072.576638
1434.941934,-7772.162391,1149.143247,-2516.700203
1434.942245,-6661.853478,153.219100,-0.000000
1434.942556,-10066.800811,306.438199,962.267725
1434.942868,-13101.645173,2298.286494,148.041188
1434.943179,-11621.233289,2528.115143,1628.453072
1434.943491,-9770.718434,842.705048,2738.761985
1434.943802,-7698.141797,383.047749,2368.659014
1434.944113,-5255.462188,2528.115143,-1258.350101
1434.944425,-2886.803174,1685.410096,-2368.659014
1434.944736,-2368.659014,0.000000,1110.308913
1434.945048,-4441.235652,0.000000,1850.514855
1434.945359,-10066.800811,1149.143247,1554.432478
1434.945670,-10436.903782,76.609550,3034.844362
1434.945982,-6587.832884,-1532.190996,4737.318029
1434.946293,-5921.647536,-842.705048,4589.276840
1434.946604,-7179.997637,153.219100,666.185348
1434.946916,-5699.585753,-229.828649,-1258.350101
1434.947227,-3330.926739,-995.924147,-74.020594
1434.947539,-4663.297435,153.219100,962.267725
1434.947850,-8734.430116,459.657299,296.082377
1434.948161,-11621.233289,-995.924147,518.144159
1434.948473,-9326.594869,-1991.848295,2886.803174
1434.948784,-6439.791695,-3140.991542,3404.947333
1434.949096,-7476.080014,-2911.162892,518.144159
1434.949407,-7476.080014,-1532.190996,-740.205942
1434.949718,-6957.935855,-2068.457845,-1406.391290
1434.950030,-7031.956449,-3370.820191,370.102971
1434.950341,-10140.821405,-1225.752797,148.041188
1434.950653,-13915.871710,153.219100,-814.226536
1434.950964,-13989.892304,-536.266849,1184.329507
1434.951275,-12805.562797,-842.705048,2146.597232
1434.951587,-12139.377449,842.705048,814.226536
1434.951898,-11917.315666,2068.457845,-1702.473667
1434.952210,-8808.450710,919.314598,-2368.659014
1434.952521,-7179.997637,383.047749,-1184.329507
1434.952832,-9696.697840,766.095498,-1110.308913
1434.953144,-12361.439231,1991.848295,-888.247130
1434.953455,-12805.562797,0.000000,-0.000000
1434.953766,-11621.233289,-1225.752797,2072.576638
1434.954078,-12509.480420,-1838.629195,1554.432478
1434.954389,-12657.521608,0.000000,-2072.576638
1434.954701,-8512.368333,459.657299,-2886.803174
1434.955012,-7402.059420,-995.924147,-1332.370696
1434.955323,-7920.203579,-919.314598,888.247130
1434.955635,-11399.171507,229.828649,-296.082377
1434.955946,-12583.501014,919.314598,1036.288319
1434.956258,-9252.574275,459.657299,4737.318029
1434.956569,-7846.182985,919.314598,3701.029710
1434.956880,-6587.832884,2911.162892,-0.000000
1434.957192,-4885.359217,2298.286494,-2442.679609
1434.957503,-3849.070898,306.438199,-1554.432478
1434.957815,-5625.565159,2528.115143,-592.164754
1434.958126,-9104.533087,5822.325785,-0.000000
1434.958437,-11325.150913,3524.039291,592.164754
1434.958749,-9622.677246,-1608.800546,3701.029710
1434.959060,-6587.832884,-3064.381992,4071.132681
1434.959371,-5995.668130,-1149.143247,1110.308913
1434.959683,-4145.153275,76.609550,-1110.308913
1434.959994,-2072.576638,-766.095498,-444.123565
1434.960306,-3552.988522,-2298.286494,-0.000000
1434.960617,-7254.018232,-1302.362347,1554.432478
1434.960928,-11843.295072,-1762.019645,2368.659014
1434.961240,-11029.068536,-1838.629195,3627.009116
1434.961551,-9326.594869,-766.095498,4293.194464
1434.961863,-8068.244768,-1072.533697,2294.638420
1434.962174,-7105.977043,-1149.143247,-1628.453072
1434.962485,-4959.379811,-995.924147,-1628.453072
1434.962797,-4293.194464,-1915.238745,-518.144159
1434.963108,-9252.574275,-842.705048,-740.205942
1434.963420,-12953.603985,919.314598,296.082377
1434.963731,-14137.933492,-1378.971896,1480.411884
1434.964042,-12805.562797,-3907.087040,3182.885551
1434.964354,-11991.336260,-3217.601092,1628.453072
1434.964665,-10955.047942,-459.657299,-1776.494261
1434.964976,-8808.450710,0.000000,-3330.926739
1434.965288,-8512.368333,-153.219100,-1258.350101
1434.965599,-10658.965565,459.657299,-74.020594
1434.965911,-13693.809927,1685.410096,-0.000000
1434.966222,-13027.624579,383.047749,2368.659014
1434.966533,-11991.336260,-995.924147,3182.885551
1434.966845,-9844.739029,766.095498,2072.576638
1434.967156,-8882.471304,3677.258390,-1850.514855
1434.967468,-7402.059420,3600.648841,-3775.050304
1434.967779,-5847.626942,2145.067394,-2442.679609
1434.968090,-10288.862594,1838.629195,-370.102971
1434.968402,-14137.933492,2834.553343,-0.000000
1434.968713,-14285.974681,1915.238745,666.185348
1434.969025,-10584.944971,-842.705048,3627.009116
1434.969336,-8216.285956,-2911.162892,3997.112087
1434.969647,-8216.285956,-2374.896044,1110.308913
1434.969959,-4737.318029,0.000000,-962.267725
1434.970270,-3997.112087,536.266849,-1036.288319
1434.970582,-4441.235652,1302.362347,740.205942
1434.970893,-7698.141797,3140.991542,296.082377
1434.971204,-9844.739029,1762.019645,1554.432478
1434.971516,-6291.750507,689.485948,3997.112087
1434.971827,-4293.194464,-612.876398,4663.297435
1434.972138,-5255.462188,306.438199,1702.473667
1434.972450,-5477.523971,1378.971896,-740.205942
1434.972761,-4515.256246,-153.219100,-1554.432478
1434.973073,-4959.379811,383.047749,-444.123565
1434.973384,-8364.327145,2145.067394,-296.082377
1434.973695,-11621.233289,1225.752797,296.082377
1434.974007,-11695.253884,-3064.381992,1924.535449
1434.974318,-8512.368333,-4903.011187,3997.112087
1434.974630,-7920.203579,-4826.401637,2664.741391
1434.974941,-7772.162391,-3753.867940,-592.164754
1434.975252,-6439.791695,-3217.601092,-1184.329507
1434.975564,-6513.812290,-2757.943793,-370.102971
1434.975875,-7994.224174,-1455.581446,296.082377
1434.976187,-11251.130318,0.000000,444.123565
1434.976498,-13027.624579,-919.314598,2442.679609
1434.976809,-11621.233289,-2068.457845,3034.844362
1434.977121,-9844.739029,-919.314598,1776.494261
1434.977432,-10066.800811,842.705048,-1776.494261
1434.977743,-9474.636058,1838.629195,-3701.029710
1434.978055,-8364.327145,1072.533697,-2590.720797
1434.978366,-10881.027347,1455.581446,-1110.308913
1434.978678,-14211.954086,1991.848295,-888.247130
1434.978989,-15766.386565,76.609550,-74.020594
1434.979300,-15396.283594,-842.705048,1554.432478
1434.979612,-12213.398043,-306.438199,1628.453072
1434.979923,-10955.047942,1225.752797,-1776.494261
1434.980235,-7846.182985,2374.896044,-3330.926739
1434.980546,-4589.276840,1302.362347,-2368.659014
1434.980857,-5995.668130,-689.485948,444.123565
1434.981169,-10732.986159,-306.438199,1406.391290
1434.981480,-14285.974681,0.000000,1850.514855
1434.981792,-12139.377449,153.219100,3330.926739
1434.982103,-10510.924376,0.000000,3701.029710
1434.982414,-8216.285956,536.266849,740.205942
1434.982726,-6217.729913,1608.800546,-2516.700203
1434.983037,-3849.070898,1608.800546,-1332.370696
1434.983349,-2886.803174,1991.848295,740.205942
1434.983660,-8068.244768,2757.943793,1406.391290
1434.983971,-10436.903782,2604.724693,2294.638420
1434.984283,-9548.656652,536.266849,3997.112087
1434.984594,-6957.935855,-1915.238745,4959.379811
1434.984905,-4663.297435,229.828649,1702.473667
1434.985217,-3849.070898,2451.505594,-1924.535449
1434.985528,-1554.432478,995.924147,-1702.473667
1434.985840,-1924.535449,-1685.410096,1554.432478
1434.986151,-6291.750507,-2298.286494,2146.597232
1434.986462,-10881.027347,-1455.581446,3478.967927
1434.986774,-11547.212695,-2374.896044,4145.153275
1434.987085,-9178.553681,-2451.505594,4219.173869
1434.987397,-8216.285956,-1762.019645,2294.638420
1434.987708,-7550.100608,-229.828649,-1258.350101
1434.988019,-5329.482782,-536.266849,-1924.535449
1434.988331,-6365.771101,-1838.629195,-666.185348
1434.988642,-9770.718434,-153.219100,740.205942
1434.988954,-13545.768739,1915.238745,518.144159
1434.989265,-14730.098246,842.705048,1110.308913
1434.989576,-12065.356855,-2068.457845,3330.926739
1434.989888,-9474.636058,-2987.772442,2294.638420
1434.990199,-9548.656652,-842.705048,-1406.391290
1434.990510,-7698.141797,766.095498,-2886.803174
1434.990822,-6365.771101,-536.266849,-2516.700203
1434.991133,-9844.739029,-1149.143247,-222.061783
1434.991445,-13619.789333,-153.219100,-74.020594
1434.991756,-14804.118840,-229.828649,-0.000000
1434.992067,-13619.789333,-842.705048,1480.411884
1434.992379,-11399.171507,0.000000,2442.679609
1434.992690,-10510.924376,919.314598,-592.164754
1434.993002,-8956.491898,1455.581446,-3108.864956
1434.993313,-5995.668130,1608.800546,-2368.659014
1434.993624,-7105.977043,1838.629195,-74.020594
1434.993936,-11917.315666,2911.162892,-74.020594
1434.994247,-14211.954086,2604.724693,-0.000000
1434.994559,-12805.562797,612.876398,814.226536
1434.994870,-9696.697840,-689.485948,2738.761985
1434.995181,-7772.162391,0.000000,518.144159
1434.995493,-7994.224174,689.485948,-2368.659014
1434.995804,-5477.523971,-995.924147,-1332.370696
1434.996115,-2738.761985,-2298.286494,222.061783
1434.996427,-5847.626942,0.000000,962.267725
1434.996738,-10436.903782,612.876398,962.267725
1434.997050,-10881.027347,0.000000,2812.782580
1434.997361,-7624.121203,-459.657299,5033.400406
1434.997672,-6069.688724,1532.190996,3182.885551
1434.997984,-5551.544565,2528.115143,-444.123565
1434.998295,-3923.091493,1991.848295,-2368.659014
1434.998607,-2294.638420,842.705048,296.082377
1434.998918,-4219.173869,612.876398,148.041188
1434.999229,-9178.553681,766.095498,-444.123565
1434.999541,-12287.418637,-536.266849,962.267725
1434.999852,-10584.944971,-2834.553343,3478.967927
1435.000164,-9918.759623,-4136.915689,3182.885551
1435.000475,-9030.512492,-1685.410096,814.226536
1435.000787,-7254.018232,-1915.238745,-370.102971
1435.001098,-6069.688724,-3753.867940,222.061783
1435.001409,-6661.853478,-3830.477490,1184.329507
1435.001721,-9992.780217,-153.219100,444.123565
1435.002032,-11029.068536,0.000000,1110.308913
1435.002344,-11769.274478,-1302.362347,2516.700203
1435.002655,-11547.212695,-1225.752797,2738.761985
1435.002967,-9622.677246,2451.505594,-222.061783
1435.003278,-9252.574275,2757.943793,-2738.761985
1435.003589,-7772.162391,919.314598,-2220.617826
1435.003901,-9252.574275,1455.581446,-888.247130
1435.004212,-12065.356855,2987.772442,-518.144159
1435.004524,-13693.809927,1915.238745,-1332.370696
1435.004835,-14063.912898,-383.047749,666.185348
1435.005147,-12435.459826,-612.876398,2146.597232
1435.005458,-11177.109724,-383.047749,-0.000000
1435.005769,-9252.574275,-306.438199,-1702.473667
1435.006081,-6439.791695,-1685.410096,-1998.556043
1435.006392,-7179.997637,-1762.019645,370.102971
1435.006704,-10732.986159,-689.485948,1628.453072
1435.007015,-12213.398043,-306.438199,1332.370696
1435.007327,-10362.883188,229.828649,2516.700203
1435.007638,-8364.327145,-612.876398,4071.132681
1435.007949,-8660.409521,76.609550,2072.576638
1435.008261,-7698.141797,2068.457845,-740.205942
1435.008572,-5255.462188,1685.410096,-2590.720797
1435.008884,-4885.359217,1072.533697,-444.123565
1435.009195,-6661.853478,2757.943793,-0.000000
1435.009507,-10510.924376,3830.477490,-222.061783
1435.009818,-12065.356855,1149.143247,1110.308913
1435.010129,-8586.388927,-1915.238745,3034.844362
1435.010441,-6883.915261,-689.485948,3034.844362
1435.010752,-5995.668130,612.876398,-444.123565
1435.011064,-4441.235652,-995.924147,-1406.391290
1435.011375,-2368.659014,-3217.601092,666.185348
1435.011687,-3997.112087,-2604.724693,1110.308913
1435.011998,-7328.038826,-1838.629195,2368.659014
1435.012310,-9992.780217,-2451.505594,1998.556043
1435.012621,-10362.883188,-2681.334243,3997.112087
1435.012932,-9992.780217,-1915.238745,3552.988522
1435.013244,-8882.471304,-842.705048,222.061783
1435.013555,-7476.080014,153.219100,-1998.556043
1435.013867,-5625.565159,689.485948,-1036.288319
1435.014178,-7105.977043,-306.438199,-666.185348
1435.014490,-10807.006753,-306.438199,-1036.288319
1435.014801,-12287.418637,153.219100,1036.288319
1435.015112,-13101.645173,0.000000,1702.473667
1435.015424,-11843.295072,-995.924147,2664.741391
1435.015735,-11695.253884,76.609550,-0.000000
1435.016047,-10066.800811,536.266849,-2368.659014
1435.016358,-6291.750507,-306.438199,-2368.659014
1435.016670,-7105.977043,-919.314598,-740.205942
1435.016981,-11029.068536,459.657299,-518.144159
1435.017292,-13175.665768,612.876398,-370.102971
1435.017604,-12583.501014,0.000000,1406.391290
1435.017915,-10955.047942,-995.924147,3108.864956
1435.018227,-10658.965565,0.000000,740.205942
1435.018538,-9474.636058,1838.629195,-1776.494261
1435.018850,-7179.997637,1149.143247,-2960.823768
1435.019161,-7179.997637,919.314598,-962.267725
1435.019472,-11325.150913,1685.410096,-370.102971
1435.019784,-14285.974681,2068.457845,-296.082377
1435.020095,-14211.954086,306.438199,740.205942
1435.020407,-11547.212695,-153.219100,2738.761985
1435.020718,-8068.244768,1225.752797,2146.597232
1435.021030,-7772.162391,1455.581446,-370.102971
1435.021341,-4737.318029,-153.219100,-74.020594
1435.021652,-1628.453072,-1838.629195,888.247130
1435.021964,-3330.926739,0.000000,1554.432478
1435.022275,-7254.018232,1532.190996,1184.329507
1435.022587,-9696.697840,383.047749,1554.432478
1435.022898,-7476.080014,-842.705048,3256.906145
1435.023210,-5847.626942,-1302.362347,2664.741391
1435.023521,-5477.523971,-229.828649,-0.000000
1435.023833,-5403.503377,306.438199,-1924.535449
1435.024144,-4885.359217,-1302.362347,-888.247130
1435.024455,-6217.729913,-1608.800546,296.082377
1435.024767,-10066.800811,-1072.533697,888.247130
1435.025078,-11621.233289,-536.266849,2072.576638
1435.025390,-11917.315666,-2834.553343,2664.741391
1435.025701,-10955.047942,-3600.648841,3627.009116
1435.026013,-7550.100608,-1455.581446,1628.453072
1435.026324,-7105.977043,-1532.190996,-888.247130
1435.026635,-4885.359217,-2681.334243,740.205942
1435.026947,-5551.544565,-3524.039291,592.164754
1435.027258,-9474.636058,-1455.581446,444.123565
1435.027570,-11621.233289,229.828649,814.226536
1435.027881,-12435.459826,-842.705048,1406.391290
1435.028193,-11621.233289,-536.266849,1110.308913
1435.028504,-11621.233289,1685.410096,-444.123565
1435.028815,-9548.656652,2911.162892,-2294.638420
1435.029127,-7994.224174,1378.971896,-2516.700203
1435.029438,-8956.491898,612.876398,-814.226536
1435.029750,-11695.253884,1915.238745,-74.020594
1435.030061,-14730.098246,2451.505594,-666.185348
1435.030373,-14137.933492,1608.800546,592.164754
1435.030684,-11325.150913,76.609550,2368.659014
1435.030995,-10140.821405,-689.485948,888.247130
1435.031307,-8660.409521,0.000000,-444.123565
1435.031618,-5847.626942,0.000000,-2072.576638
1435.031930,-6661.853478,-1072.533697,-666.185348
1435.032241,-9104.533087,-1455.581446,2146.597232
1435.032553,-11473.192101,229.828649,296.082377
1435.032864,-12805.562797,1302.362347,1924.535449
1435.033175,-11103.089130,842.705048,3330.926739
1435.033487,-8512.368333,1225.752797,2664.741391
1435.033798,-7328.038826,3217.601092,-740.205942
1435.034110,-5847.626942,2451.505594,-1702.473667
1435.034421,-1258.350101,1225.752797,-0.000000
1435.034733,-4071.132681,2451.505594,-296.082377
1435.035044,-8882.471304,3524.039291,518.144159
1435.035356,-10881.027347,766.095498,296.082377
1435.035667,-9548.656652,-1225.752797,2960.823768
1435.035978,-6291.750507,-306.438199,3701.029710
1435.036290,-5921.647536,-1455.581446,148.041188
1435.036601,-5477.523971,-2604.724693,-74.020594
1435.036913,-3256.906145,-3983.696590,592.164754
1435.037224,-3923.091493,-3983.696590,1924.535449
1435.037536,-7698.141797,-2528.115143,2220.617826
1435.037847,-11103.089130,-1225.752797,1702.473667
1435.038158,-11843.295072,-1378.971896,2442.679609
1435.038470,-9696.697840,-2987.772442,2664.741391
1435.038781,-7624.121203,-2068.457845,888.247130
1435.039093,-8216.285956,689.485948,-1850.514855
1435.039404,-6957.935855,612.876398,-1924.535449
1435.039716,-7846.182985,-1915.238745,-74.020594
1435.040027,-11325.150913,-842.705048,-0.000000
1435.040338,-13841.851115,919.314598,666.185348
1435.040650,-13989.892304,-459.657299,888.247130
1435.040961,-12583.501014,-1225.752797,962.267725
1435.041273,-10214.842000,-229.828649,888.247130
1435.041584,-8586.388927,-229.828649,-2442.679609
1435.041896,-6069.688724,-1915.238745,-2590.720797
1435.042207,-6661.853478,-2528.115143,-1036.288319
1435.042518,-8956.491898,-1991.848295,444.123565
1435.042830,-12657.521608,-2298.286494,1110.308913
1435.043141,-14285.974681,-2451.505594,1702.473667
1435.043453,-12805.562797,-2987.772442,2146.597232
1435.043764,-10584.944971,-842.705048,1480.411884
1435.044076,-9770.718434,229.828649,-1110.308913
1435.044387,-7772.162391,0.000000,-3256.906145
1435.044698,-5403.503377,-1532.190996,-1332.370696
1435.045010,-7031.956449,-1838.629195,-0.000000
1435.045321,-10658.965565,-842.705048,1036.288319
1435.045633,-13175.665768,-459.657299,1998.556043
1435.045944,-12509.480420,-2528.115143,3034.844362
1435.046256,-9252.574275,-3140.991542,3701.029710
1435.046567,-5773.606348,-2604.724693,1258.350101
1435.046879,-4737.318029,-2451.505594,-1702.473667
1435.047190,-3404.947333,-3370.820191,-1702.473667
1435.047501,-2368.659014,-1915.238745,-222.061783
1435.047813,-5477.523971,-766.095498,518.144159
1435.048124,-9992.780217,-919.314598,1776.494261
1435.048436,-11917.315666,-2298.286494,3330.926739
1435.048747,-9918.759623,-1991.848295,4515.256246
1435.049059,-6883.915261,-1225.752797,3701.029710
1435.049370,-6069.688724,-1838.629195,814.226536
1435.049681,-4885.359217,-4290.134789,-814.226536
1435.049993,-2738.761985,-4903.011187,-814.226536
1435.050304,-1850.514855,-4060.306139,-666.185348
1435.050616,-5551.544565,-4979.620737,296.082377
1435.050927,-13027.624579,-8886.707777,888.247130
1435.051239,-14804.118840,-9576.193725,3034.844362
1435.051550,-12953.603985,-7124.688131,3849.070898
1435.051861,-11621.233289,-4903.011187,2738.761985
1435.052173,-9548.656652,-6052.154434,1184.329507
1435.052484,-8290.306550,-9039.926876,-666.185348
1435.052796,-5847.626942,-7814.174080,-962.267725
1435.053107,-3997.112087,-2374.896044,-1332.370696
1435.053419,-7846.182985,0.000000,-1628.453072
1435.053730,-11251.130318,-2068.457845,1036.288319
1435.054041,-13841.851115,-4903.011187,2072.576638
1435.054353,-13693.809927,-3217.601092,1332.370696
1435.054664,-12065.356855,919.314598,-0.000000
1435.054976,-12361.439231,2145.067394,-1776.494261
1435.055287,-11399.171507,-306.438199,-3182.885551
1435.055599,-9474.636058,-1149.143247,-4589.276840
1435.055910,-8290.306550,612.876398,-4293.194464
1435.056221,-9770.718434,2298.286494,-3182.885551
1435.056533,-12657.521608,2068.457845,-1406.391290
1435.056844,-11547.212695,1072.533697,1776.494261
1435.057156,-9622.677246,-2911.162892,3775.050304
1435.057467,-8512.368333,-6665.030833,3997.112087
1435.057779,-7550.100608,-5592.497135,3256.906145
1435.058090,-9548.656652,-3830.477490,1628.453072
1435.058402,-6069.688724,-3983.696590,148.041188
1435.058713,-5033.400406,-3447.429741,-1998.556043
1435.059024,-5995.668130,-4213.525239,-2146.597232
1435.059336,-8364.327145,-4596.572988,-888.247130
1435.059647,-9696.697840,-4136.915689,888.247130
1435.059959,-9770.718434,-1608.800546,1554.432478
1435.060270,-10732.986159,-536.266849,2220.617826
1435.060582,-10362.883188,-459.657299,2738.761985
1435.060893,-9918.759623,-536.266849,2368.659014
1435.061204,-6883.915261,-766.095498,3182.885551
1435.061516,-4737.318029,-1149.143247,2146.597232
1435.061827,-3775.050304,-1072.533697,1036.288319
1435.062139,-2960.823768,0.000000,-296.082377
1435.062450,-2664.741391,-1302.362347,-518.144159
1435.062762,-2294.638420,-4136.915689,-444.123565
1435.063073,-4071.132681,-5898.935335,-518.144159
1435.063384,-7105.977043,-4903.011187,-0.000000
1435.063696,-11769.274478,-2451.505594,-148.041188
1435.064007,-15692.365970,-229.828649,592.164754
1435.064319,-15914.427753,306.438199,2072.576638
1435.064630,-15174.221811,-2221.676944,3775.050304
1435.064942,-12435.459826,-4060.306139,5033.400406
1435.065253,-9474.636058,-4903.011187,3478.967927
1435.065564,-5403.503377,-4519.963438,1258.350101
1435.065876,-2812.782580,-5362.668486,-444.123565
1435.066187,-1924.535449,-5439.278036,-1554.432478
1435.066499,-2738.761985,-5362.668486,-2220.617826
1435.066810,-5847.626942,-6052.154434,-2368.659014
1435.067122,-9400.615463,-6358.592633,-2072.576638
1435.067433,-12879.583391,-4979.620737,-0.000000
1435.067744,-14804.118840,-4826.401637,666.185348
1435.068056,-15396.283594,-4136.915689,2442.679609
1435.068367,-15544.324782,-4979.620737,2738.761985
1435.068679,-15396.283594,-4979.620737,3034.844362
1435.068990,-12805.562797,-3370.820191,2812.782580
1435.069302,-9474.636058,-2987.772442,1702.473667
1435.069613,-6735.874072,-3983.696590,962.267725
1435.069925,-4071.132681,-6588.421283,444.123565
1435.070236,-2812.782580,-7201.297681,-962.267725
1435.070547,-4811.338623,-5209.449386,-2294.638420
1435.070859,-7105.977043,-2757.943793,-2146.597232
1435.071170,-9992.780217,-1302.362347,-2368.659014
1435.071482,-14063.912898,-612.876398,-1332.370696
1435.071793,-15544.324782,383.047749,518.144159
1435.072105,-15470.304188,689.485948,1480.411884
1435.072416,-13175.665768,0.000000,1554.432478
1435.072727,-10140.821405,-1072.533697,1554.432478
1435.073039,-4959.379811,-2145.067394,-518.144159
1435.073350,-3701.029710,-2604.724693,-1036.288319
1435.073662,-4811.338623,-3217.601092,-444.123565
1435.073973,-3404.947333,-3370.820191,-1554.432478
1435.074285,-5181.441594,-612.876398,-1110.308913
1435.074596,-7402.059420,-1685.410096,-444.123565
1435.074907,-8808.450710,-2987.772442,-444.123565
1435.075219,-9252.574275,-2528.115143,296.082377
1435.075530,-8364.327145,-1225.752797,-0.000000
1435.075842,-8142.265362,-2451.505594,1554.432478
1435.076153,-9326.594869,-4060.306139,1036.288319
1435.076465,-11029.068536,-2528.115143,1924.535449
1435.076776,-10807.006753,-2681.334243,2516.700203
1435.077087,-8808.450710,-3370.820191,2368.659014
1435.077399,-7031.956449,-4366.744339,2886.803174
1435.077710,-5699.585753,-4213.525239,1036.288319
1435.078022,-5181.441594,-5286.058936,-0.000000
1435.078333,-4737.318029,-4366.744339,-148.041188
1435.078645,-4885.359217,-2451.505594,-814.226536
1435.078956,-6957.935855,-2221.676944,-666.185348
1435.079267,-8512.368333,-2145.067394,-74.020594
1435.079579,-10658.965565,-2374.896044,-0.000000
1435.079890,-11103.089130,-2528.115143,1480.411884
1435.080202,-11621.233289,-4596.572988,2442.679609
1435.080513,-11917.315666,-4903.011187,2886.803174
1435.080825,-11695.253884,-4596.572988,2590.720797
1435.081136,-11547.212695,-3983.696590,1776.494261
1435.081448,-10436.903782,-2298.286494,814.226536
1435.081759,-9178.553681,153.219100,222.061783
1435.082070,-8660.409521,995.924147,-222.061783
1435.082382,-7624.121203,153.219100,-740.205942
1435.082693,-7476.080014,0.000000,296.082377
1435.083005,-7994.224174,-919.314598,518.144159
1435.083316,-8660.409521,-3294.210641,1036.288319
1435.083628,-9622.677246,-5056.230287,1332.370696
1435.083939,-9918.759623,-5286.058936,1110.308913
1435.084250,-11695.253884,-6128.763984,666.185348
1435.084562,-12139.377449,-6741.640382,1776.494261
1435.084873,-11695.253884,-6971.469032,1110.308913
1435.085185,-10288.862594,-6588.421283,1480.411884
1435.085496,-9252.574275,-6281.983084,1776.494261
1435.085808,-8216.285956,-5132.839837,1406.391290
1435.086119,-6809.894666,-2757.943793,1332.370696
1435.086430,-5699.585753,-1532.190996,518.144159
1435.086742,-4811.338623,-995.924147,-148.041188
1435.087053,-5107.421000,0.000000,-888.247130
1435.087365,-7254.018232,459.657299,-1332.370696
1435.087676,-8438.347739,-1072.533697,-592.164754
1435.087988,-10066.800811,-2757.943793,-296.082377
1435.088299,-9992.780217,-2987.772442,222.061783
1435.088610,-10510.924376,-3600.648841,-296.082377
1435.088922,-9400.615463,-3677.258390,444.123565
1435.089233,-8660.409521,-3600.648841,-0.000000
1435.089545,-8660.409521,-3370.820191,-0.000000
1435.089856,-5921.647536,-1915.238745,888.247130
1435.090168,-6217.729913,-1991.848295,-1184.329507
1435.090479,-6809.894666,-2298.286494,814.226536
1435.090790,-9548.656652,-3447.429741,-222.061783
1435.091102,-9696.697840,-2757.943793,666.185348
1435.091413,-10362.883188,-1149.143247,222.061783
1435.091725,-10288.862594,-1378.971896,1110.308913
1435.092036,-10658.965565,-3524.039291,370.102971
1435.092348,-10436.903782,-5132.839837,814.226536
1435.092659,-9548.656652,-4060.306139,1850.514855
1435.092971,-9696.697840,-2681.334243,1776.494261
1435.093282,-11769.274478,-1455.581446,2072.576638
1435.093593,-11843.295072,76.609550,1924.535449
1435.093905,-10140.821405,-612.876398,1850.514855
1435.094216,-8290.306550,-766.095498,2294.638420
1435.094528,-5699.585753,-229.828649,2072.576638
1435.094839,-7698.141797,-1378.971896,1184.329507
1435.095151,-7328.038826,-3370.820191,3034.844362
1435.095462,-9770.718434,-4673.182538,3182.885551
1435.095773,-9548.656652,-2145.067394,4589.276840
1435.096085,-12213.398043,-1378.971896,4885.359217
1435.096396,-13471.748144,-2911.162892,6143.709319
1435.096708,-10584.944971,-1915.238745,4885.359217
1435.097019,-8142.265362,995.924147,4885.359217
1435.097331,-6957.935855,1991.848295,4293.194464
1435.097642,-5995.668130,1072.533697,3627.009116
1435.097953,-7105.977043,-459.657299,2368.659014
1435.098265,-4811.338623,766.095498,4145.153275
1435.098576,-6217.729913,612.876398,3034.844362
1435.098888,-9918.759623,0.000000,4071.132681
1435.099199,-10584.944971,0.000000,6217.729913
1435.099511,-10066.800811,-1378.971896,5403.503377
1435.099822,-7920.203579,-1532.190996,7105.977043
1435.100133,-8438.347739,-1378.971896,5921.647536
1435.100445,-8142.265362,-306.438199,5995.668130
1435.100756,-6365.771101,229.828649,4737.318029
1435.101068,-5403.503377,919.314598,3775.050304
1435.101379,-5181.441594,2604.724693,3478.967927
1435.101691,-8142.265362,2834.553343,2886.803174
1435.102002,-8734.430116,2451.505594,4071.132681
1435.102313,-7772.162391,1455.581446,4441.235652
1435.102625,-7328.038826,229.828649,4293.194464
1435.102936,-7624.121203,-919.314598,4145.153275
1435.103248,-8216.285956,-2987.772442,5107.421000
1435.103559,-7920.203579,-3447.429741,4885.359217
1435.103871,-7698.141797,-1608.800546,5477.523971
1435.104182,-8512.368333,-536.266849,4515.256246
1435.104494,-10362.883188,383.047749,5033.400406
1435.104805,-11177.109724,2528.115143,3552.988522
1435.105116,-9474.636058,2757.943793,3849.070898
1435.105428,-8734.430116,2528.115143,2960.823768
1435.105739,-7994.224174,1149.143247,2664.741391
1435.106051,-7994.224174,459.657299,2220.617826
1435.106362,-5847.626942,306.438199,1998.556043
1435.106674,-5773.606348,-459.657299,2590.720797
1435.106985,-7846.182985,-1378.971896,3182.885551
1435.107297,-9474.636058,-1762.019645,3627.009116
1435.107608,-11695.253884,-1225.752797,4071.132681
1435.107919,-11695.253884,-995.924147,4367.215058
1435.108231,-12287.418637,229.828649,4219.173869
1435.108542,-12065.356855,536.266849,3552.988522
1435.108854,-10807.006753,1455.581446,1924.535449
1435.109165,-8882.471304,1225.752797,888.247130
1435.109477,-7402.059420,2298.286494,1184.329507
1435.109788,-7772.162391,612.876398,1554.432478
1435.110100,-8734.430116,-995.924147,2590.720797
1435.110411,-9104.533087,-2374.896044,3552.988522
1435.110722,-9326.594869,-2528.115143,4663.297435
1435.111034,-9326.594869,-2834.553343,4737.318029
1435.111345,-9030.512492,-3064.381992,3627.009116
1435.111657,-7994.224174,-1532.190996,2812.782580
1435.111968,-6957.935855,536.266849,370.102971
1435.112280,-6735.874072,1072.533697,-0.000000
1435.112591,-8364.327145,1838.629195,-296.082377
1435.112903,-10732.986159,2757.943793,444.123565
1435.113214,-12509.480420,2681.334243,2368.659014
1435.113525,-13619.789333,1915.238745,3627.009116
1435.113837,-13101.645173,919.314598,4515.256246
1435.114148,-10732.986159,-919.314598,4515.256246
1435.114460,-6735.874072,-995.924147,3775.050304
1435.114771,-3627.009116,-2145.067394,1998.556043
1435.115083,-2368.659014,-1915.238745,1036.288319
1435.115394,-3701.029710,-1762.019645,888.247130
1435.115706,-7402.059420,-919.314598,1776.494261
1435.116017,-10732.986159,306.438199,3627.009116
1435.116328,-13471.748144,1455.581446,5477.523971
1435.116640,-16284.530724,1302.362347,5477.523971
1435.116951,-14211.954086,536.266849,5847.626942
1435.117263,-10214.842000,0.000000,4737.318029
1435.117574,-5921.647536,-459.657299,3552.988522
1435.117886,-3256.906145,-919.314598,1702.473667
1435.118197,-2072.576638,-1072.533697,666.185348
1435.118509,-2220.617826,-689.485948,518.144159
1435.118820,-5255.462188,-229.828649,1702.473667
1435.119131,-9918.759623,766.095498,3330.926739
1435.119443,-14137.933492,842.705048,5551.544565
1435.119754,-15914.427753,1072.533697,7254.018232
1435.120066,-14211.954086,766.095498,6513.812290
1435.120377,-10288.862594,0.000000,5329.482782
1435.120689,-6513.812290,-153.219100,3478.967927
1435.121000,-3997.112087,0.000000,2516.700203
1435.121312,-3923.091493,-383.047749,2664.741391
1435.121623,-6587.832884,689.485948,4293.194464
1435.121934,-10362.883188,459.657299,6365.771101
1435.122246,-13027.624579,459.657299,8438.347739
1435.122557,-13545.768739,0.000000,8438.347739
1435.122869,-10658.965565,919.314598,6513.812290
1435.123180,-6735.874072,2298.286494,3478.967927
1435.123492,-3849.070898,2374.896044,814.226536
1435.123803,-2738.761985,2145.067394,-296.082377
1435.124115,-4589.276840,2298.286494,-0.000000
1435.124426,-8660.409521,1532.190996,2294.638420
1435.124737,-12953.603985,383.047749,5403.503377
1435.125049,-15766.386565,-766.095498,8364.327145
1435.125360,-16580.613101,-2298.286494,10658.965565
1435.125672,-13915.871710,-2451.505594,11251.130318
1435.125983,-9696.697840,-2911.162892,9696.697840
1435.126295,-4219.173869,-2681.334243,6735.874072
1435.126606,-222.061783,-1225.752797,3108.864956
1435.126918,1258.350101,842.705048,666.185348
1435.127229,-222.061783,2451.505594,-444.123565
1435.127540,-4885.359217,2451.505594,-0.000000
1435.127852,-9252.574275,2068.457845,1924.535449
1435.128163,-12731.542202,1455.581446,3923.091493
1435.128475,-14508.036463,153.219100,5773.606348
1435.128786,-15026.180623,-612.876398,6735.874072
1435.129098,-14508.036463,-766.095498,6513.812290
1435.129409,-12435.459826,-1302.362347,5181.441594
1435.129720,-8660.409521,-612.876398,3552.988522
1435.130032,-6069.688724,153.219100,2738.761985
1435.130343,-4589.276840,1378.971896,1702.473667
1435.130655,-2738.761985,1915.238745,1628.453072
1435.130966,-3034.844362,1532.190996,888.247130
1435.131278,-4663.297435,919.314598,1702.473667
1435.131589,-6217.729913,459.657299,962.267725
1435.131901,-7624.121203,0.000000,592.164754
1435.132212,-9622.677246,-536.266849,370.102971
1435.132523,-12879.583391,-1072.533697,1480.411884
1435.132835,-15618.345376,-1302.362347,3256.906145
1435.133146,-17690.922014,-1838.629195,5329.482782
1435.133458,-16950.716072,-1378.971896,7031.956449
1435.133769,-14582.057057,-1378.971896,7698.141797
1435.134081,-10732.986159,-1762.019645,7105.977043
1435.134392,-5107.421000,-1685.410096,4663.297435
1435.134704,0.000000,-306.438199,-148.041188
1435.135015,3552.988522,1225.752797,-4145.153275
1435.135326,3404.947333,2221.676944,-6217.729913
1435.135638,-2072.576638,1762.019645,-3997.112087
1435.135949,-9326.594869,153.219100,-296.082377
1435.136261,-17838.963202,-995.924147,4737.318029
1435.136572,-24500.816680,-1608.800546,9178.553681
1435.136884,-25092.981434,-1915.238745,11399.171507
1435.137195,-21095.869347,-2374.896044,10584.944971
1435.137507,-12287.418637,-1991.848295,8290.306550
1435.137818,-4219.173869,-612.876398,3330.926739
1435.138129,2886.803174,-612.876398,-370.102971
1435.138441,6143.709319,383.047749,-4885.359217
1435.138752,3849.070898,2528.115143,-4589.276840
1435.139064,-2368.659014,4136.915689,-2368.659014
1435.139375,-10658.965565,3370.820191,666.185348
1435.139687,-17616.901420,1685.410096,4589.276840
1435.139998,-20725.766376,76.609550,7624.121203
1435.140310,-18283.086767,-383.047749,9474.636058
1435.140621,-13471.748144,-1685.410096,7994.224174
1435.140932,-9474.636058,-2145.067394,5773.606348
1435.141244,-4367.215058,-2145.067394,3034.844362
1435.141555,-444.123565,-689.485948,1258.350101
1435.141867,1332.370696,919.314598,444.123565
1435.142178,-2220.617826,1838.629195,1406.391290
1435.142490,-7550.100608,1225.752797,2294.638420
1435.142801,-10658.965565,842.705048,2664.741391
1435.143113,-10510.924376,1762.019645,3182.885551
1435.143424,-8956.491898,1762.019645,2442.679609
1435.143735,-8956.491898,-689.485948,1924.535449
1435.144047,-9326.594869,-2604.724693,1850.514855
1435.144358,-9030.512492,-1378.971896,2960.823768
1435.144670,-9622.677246,-306.438199,4811.338623
1435.144981,-11695.253884,0.000000,5699.585753
1435.145293,-13619.789333,-689.485948,6883.915261
1435.145604,-12213.398043,-919.314598,5625.565159
1435.145916,-7328.038826,76.609550,3627.009116
1435.146227,-2664.741391,2145.067394,-592.164754
1435.146538,-814.226536,3524.039291,-3775.050304
1435.146850,-1850.514855,2374.896044,-5181.441594
1435.147161,-3923.091493,919.314598,-3701.029710
1435.147473,-7846.182985,-766.095498,-888.247130
1435.147784,-13545.768739,-1608.800546,2590.720797
1435.148096,-17838.963202,-2451.505594,6217.729913
1435.148407,-18949.272115,-2757.943793,9770.718434
1435.148719,-16284.530724,-4366.744339,9474.636058
1435.149030,-11917.315666,-5515.887586,5329.482782
1435.149341,-7476.080014,-3370.820191,1036.288319
1435.149653,-2590.720797,153.219100,-3478.967927
1435.149964,1776.494261,2681.334243,-6513.812290
1435.150276,1110.308913,3983.696590,-7772.162391
1435.150587,-4219.173869,4519.963438,-6809.894666
1435.150899,-9474.636058,2834.553343,-3108.864956
1435.151210,-13323.706956,0.000000,1702.473667
1435.151522,-16284.530724,-995.924147,3034.844362
1435.151833,-17912.983796,-1225.752797,3627.009116
1435.152144,-16358.551318,-1532.190996,2146.597232
1435.152456,-13027.624579,-1225.752797,296.082377
1435.152767,-8808.450710,-1072.533697,370.102971
1435.153079,-6217.729913,0.000000,-1850.514855
1435.153390,-6291.750507,0.000000,-2960.823768
1435.153702,-5773.606348,1378.971896,-1998.556043
1435.154013,-4811.338623,-383.047749,-2368.659014
1435.154324,-4515.256246,-2221.676944,-2442.679609
1435.154636,-5699.585753,-2451.505594,-2590.720797
1435.154947,-7846.182985,-1149.143247,-2960.823768
1435.155259,-10362.883188,-306.438199,-1480.411884
1435.155570,-14804.118840,612.876398,888.247130
1435.155882,-17616.901420,0.000000,2886.803174
1435.156193,-17394.839637,-306.438199,3701.029710
1435.156505,-14211.954086,-1225.752797,4219.173869
1435.156816,-8734.430116,-1225.752797,1628.453072
1435.157127,-3923.091493,-306.438199,-1702.473667
1435.157439,-518.144159,1302.362347,-4293.194464
1435.157750,296.082377,536.266849,-5107.421000
1435.158062,-2368.659014,689.485948,-3552.988522
1435.158373,-7920.203579,1225.752797,-2294.638420
1435.158685,-11399.171507,229.828649,-296.082377
1435.158996,-12805.562797,-689.485948,2294.638420
1435.159308,-12657.521608,-2987.772442,3552.988522
1435.159619,-10658.965565,-4826.401637,2812.782580
1435.159930,-10362.883188,-4290.134789,1850.514855
1435.160242,-10807.006753,-2681.334243,1776.494261
1435.160553,-10584.944971,-536.266849,1628.453072
1435.160865,-10510.924376,1302.362347,1184.329507
1435.161176,-11029.068536,2374.896044,-0.000000
1435.161488,-8438.347739,2757.943793,-1036.288319
1435.161799,-4959.379811,2298.286494,-2146.597232
1435.162111,-2960.823768,1685.410096,-3256.906145
1435.162422,-3701.029710,2298.286494,-2738.761985
1435.162733,-6439.791695,383.047749,-1554.432478
1435.163045,-10066.800811,-1685.410096,2072.576638
1435.163356,-14063.912898,-1532.190996,4737.318029
1435.163668,-17172.777854,-1838.629195,6291.750507
1435.163979,-16284.530724,-1072.533697,6439.791695
1435.164291,-11251.130318,-383.047749,4515.256246
1435.164602,-6069.688724,153.219100,1998.556043
1435.164914,-3330.926739,1302.362347,-740.205942
1435.165225,-2664.741391,2911.162892,-2146.597232
1435.165536,-3034.844362,3370.820191,-2146.597232
1435.165848,-3997.112087,1838.629195,-1406.391290
1435.166159,-6069.688724,1072.533697,-1406.391290
1435.166471,-8586.388927,1072.533697,-74.020594
1435.166782,-10362.883188,842.705048,2294.638420
1435.167094,-12509.480420,-2834.553343,3701.029710
1435.167405,-14878.139434,-3830.477490,3997.112087
1435.167717,-15396.283594,-3217.601092,4367.215058
1435.168028,-13027.624579,-2911.162892,3478.967927
1435.168339,-8734.430116,-2757.943793,2368.659014
1435.168651,-6217.729913,-919.314598,-0.000000
1435.168962,-4737.318029,1149.143247,-1406.391290
1435.169274,-2664.741391,1532.190996,-1628.453072
1435.169585,-2442.679609,-306.438199,-2220.617826
1435.169897,-4515.256246,153.219100,-1924.535449
1435.170208,-7328.038826,1608.800546,-1998.556043
1435.170520,-9622.677246,2298.286494,-666.185348
1435.170831,-10732.986159,1532.190996,444.123565
1435.171142,-12065.356855,229.828649,1036.288319
1435.171454,-12953.603985,76.609550,1480.411884
1435.171765,-13323.706956,842.705048,1628.453072
1435.172077,-12731.542202,153.219100,666.185348
1435.172388,-10214.842000,689.485948,-666.185348
1435.172700,-7254.018232,919.314598,-2442.679609
1435.173011,-4145.153275,1455.581446,-4367.215058
1435.173323,-2960.823768,689.485948,-5625.565159
1435.173634,-5329.482782,0.000000,-4145.153275
1435.173945,-9326.594869,459.657299,-1258.350101
1435.174257,-12805.562797,-1608.800546,1258.350101
1435.174568,-14211.954086,-3524.039291,3923.091493
1435.174880,-14952.160028,-6205.373534,4367.215058
1435.175191,-13619.789333,-4673.182538,2664.741391
1435.175503,-9770.718434,-2145.067394,888.247130
1435.175814,-7920.203579,-766.095498,-444.123565
1435.176126,-7179.997637,919.314598,-740.205942
1435.176437,-9474.636058,2145.067394,-888.247130
1435.176748,-8956.491898,2528.115143,-666.185348
1435.177060,-7550.100608,2221.676944,-740.205942
1435.177371,-6809.894666,1225.752797,-2368.659014
1435.177683,-5107.421000,766.095498,-2886.803174
1435.177994,-5255.462188,1378.971896,-3330.926739
1435.178306,-7846.182985,919.314598,-1480.411884
1435.178617,-11769.274478,153.219100,1924.535449
1435.178929,-15766.386565,-842.705048,3775.050304
1435.179240,-16580.613101,-1072.533697,5181.441594
1435.179551,-13027.624579,-1149.143247,4589.276840
1435.179863,-6809.894666,-1685.410096,2220.617826
1435.180174,-2590.720797,-459.657299,-740.205942
1435.180486,-1406.391290,536.266849,-3256.906145
1435.180797,-1924.535449,1838.629195,-3775.050304
1435.181109,-5403.503377,2604.724693,-2738.761985
1435.181420,-9548.656652,2987.772442,-518.144159
1435.181731,-12583.501014,1838.629195,1480.411884
1435.182043,-13841.851115,-1225.752797,2368.659014
1435.182354,-11177.109724,-1838.629195,2516.700203
1435.182666,-9326.594869,-1378.971896,962.267725
1435.182977,-8956.491898,76.609550,1554.432478
1435.183289,-10362.883188,1072.533697,2072.576638
1435.183600,-11473.192101,-306.438199,2812.782580
1435.183912,-10955.047942,-919.314598,2960.823768
1435.184223,-9326.594869,-536.266849,1554.432478
1435.184534,-4293.194464,2221.676944,740.205942
1435.184846,-2368.659014,383.047749,-0.000000
1435.185157,-3849.070898,-2451.505594,-444.123565
1435.185469,-6661.853478,-3140.991542,296.082377
1435.185780,-9622.677246,-2374.896044,2220.617826
1435.186092,-12879.583391,-1149.143247,3923.091493
1435.186403,-14434.015869,-1302.362347,4737.318029
1435.186715,-14063.912898,-1072.533697,3108.864956
1435.187026,-11473.192101,459.657299,2294.638420
1435.187337,-6957.935855,0.000000,1850.514855
1435.187649,-5181.441594,-383.047749,592.164754
1435.187960,-5921.647536,1838.629195,-666.185348
1435.188272,-6513.812290,2987.772442,-962.267725
1435.188583,-6661.853478,1991.848295,-2368.659014
1435.188895,-7402.059420,3294.210641,-1998.556043
1435.189206,-8438.347739,4213.525239,-814.226536
1435.189518,-9770.718434,1915.238745,296.082377
1435.189829,-9918.759623,-1149.143247,1924.535449
1435.190140,-9770.718434,-2451.505594,2146.597232
1435.190452,-9696.697840,-2451.505594,1776.494261
1435.190763,-8290.306550,-1838.629195,1554.432478
1435.191075,-7624.121203,-612.876398,-0.000000
1435.191386,-8512.368333,612.876398,-592.164754
1435.191698,-9474.636058,1762.019645,-666.185348
1435.192009,-10510.924376,1762.019645,-518.144159
1435.192321,-8882.471304,1455.581446,-370.102971
1435.192632,-7105.977043,689.485948,-962.267725
1435.192943,-7105.977043,-842.705048,-1924.535449
1435.193255,-7994.224174,-1225.752797,-1776.494261
1435.193566,-8364.327145,-1225.752797,-1036.288319
1435.193878,-9548.656652,-842.705048,296.082377
1435.194189,-12731.542202,0.000000,2516.700203
1435.194501,-15174.221811,-919.314598,3997.112087
1435.194812,-14285.974681,-2451.505594,4145.153275
1435.195124,-10140.821405,-2757.943793,2220.617826
1435.195435,-5921.647536,-1608.800546,-444.123565
1435.195746,-3330.926739,0.000000,-2812.782580
1435.196058,-2960.823768,1225.752797,-4441.235652
1435.196369,-5625.565159,612.876398,-3034.844362
1435.196681,-9622.677246,536.266849,-1406.391290
1435.196992,-13693.809927,536.266849,1406.391290
1435.197304,-15692.365970,459.657299,3330.926739
1435.197615,-14582.057057,-153.219100,3997.112087
1435.197927,-11325.150913,-1378.971896,2368.659014
1435.198238,-8586.388927,-1838.629195,740.205942
1435.198549,-6439.791695,459.657299,-74.020594
1435.198861,-7179.997637,689.485948,-0.000000
1435.199172,-8512.368333,766.095498,888.247130
1435.199484,-10584.944971,1455.581446,1776.494261
1435.199795,-10584.944971,842.705048,2516.700203
1435.200107,-6957.935855,-919.314598,1850.514855
1435.200418,-4071.132681,-1685.410096,74.020594
1435.200730,-2072.576638,-919.314598,-444.123565
1435.201041,-4145.153275,0.000000,-296.082377
1435.201352,-8364.327145,-383.047749,1628.453072
1435.201664,-12139.377449,1302.362347,3775.050304
1435.201975,-15322.262999,1915.238745,5625.565159
1435.202287,-12805.562797,612.876398,5477.523971
1435.202598,-7476.080014,0.000000,2812.782580
1435.202909,-3552.988522,1225.752797,-296.082377
1435.203221,-2368.659014,2681.334243,-1554.432478
1435.203532,-4515.256246,2451.505594,-1924.535449
1435.203843,-7846.182985,1378.971896,-444.123565
1435.204155,-11399.171507,459.657299,1110.308913
1435.204466,-12213.398043,76.609550,2220.617826
1435.204778,-10436.903782,-383.047749,2516.700203
1435.205089,-7550.100608,-842.705048,1998.556043
1435.205400,-5477.523971,-2451.505594,1036.288319
1435.205712,-5847.626942,-3830.477490,814.226536
1435.206023,-6957.935855,-2068.457845,962.267725
1435.206334,-9770.718434,0.000000,666.185348
1435.206646,-12139.377449,2145.067394,814.226536
1435.206957,-14211.954086,2604.724693,1110.308913
1435.207268,-13915.871710,3370.820191,518.144159
1435.207580,-10288.862594,2451.505594,-296.082377
1435.207891,-6365.771101,153.219100,-1480.411884
1435.208203,-3701.029710,-1149.143247,-2886.803174
1435.208514,-3627.009116,-919.314598,-3701.029710
1435.208825,-6661.853478,-689.485948,-3256.906145
1435.209137,-11325.150913,-612.876398,-74.020594
1435.209448,-15470.304188,-459.657299,2886.803174
1435.209759,-18727.210333,-842.705048,4441.235652
1435.210071,-16950.716072,-1302.362347,4811.338623
1435.210382,-11695.253884,-1915.238745,2960.823768
1435.210693,-5921.647536,-2068.457845,-0.000000
1435.211005,-2220.617826,-1378.971896,-3404.947333
1435.211316,-1406.391290,-229.828649,-4367.215058
1435.211627,-3701.029710,-306.438199,-3182.885551
1435.211939,-8142.265362,383.047749,-1036.288319
1435.212250,-12139.377449,689.485948,1554.432478
1435.212562,-14804.118840,0.000000,3256.906145
1435.212873,-13693.809927,-995.924147,4219.173869
1435.213184,-10140.821405,-1685.410096,2294.638420
1435.213496,-7328.038826,-153.219100,740.205942
1435.213807,-5773.606348,1072.533697,-1110.308913
1435.214118,-5403.503377,2068.457845,-1036.288319
1435.214430,-6809.894666,1991.848295,-518.144159
1435.214741,-9696.697840,2528.115143,222.061783
1435.215052,-11103.089130,2528.115143,1702.473667
1435.215364,-8512.368333,995.924147,2368.659014
1435.215675,-6217.729913,-1838.629195,592.164754
1435.215987,-5773.606348,-1608.800546,-296.082377
1435.216298,-5181.441594,-842.705048,-518.144159
1435.216609,-7328.038826,-229.828649,-74.020594
1435.216921,-9326.594869,76.609550,1702.473667
1435.217232,-11991.336260,-229.828649,2294.638420
1435.217543,-12361.439231,229.828649,2664.741391
1435.217855,-10066.800811,1378.971896,2738.761985
1435.218166,-7624.121203,459.657299,1628.453072
1435.218477,-6439.791695,-766.095498,444.123565
1435.218789,-6365.771101,-536.266849,-962.267725
1435.219100,-6587.832884,76.609550,-444.123565
1435.219412,-8216.285956,-306.438199,-296.082377
1435.219723,-10140.821405,-459.657299,-0.000000
1435.220034,-11325.150913,153.219100,1110.308913
1435.220346,-11325.150913,-995.924147,1998.556043
1435.220657,-9696.697840,-2221.676944,2664.741391
1435.220968,-8586.388927,-2757.943793,1850.514855
1435.221280,-8290.306550,-1762.019645,1110.308913
1435.221591,-8142.265362,-459.657299,592.164754
1435.221902,-8734.430116,229.828649,518.144159
1435.222214,-10214.842000,2145.067394,740.205942
1435.222525,-11325.150913,1532.190996,-222.061783
1435.222837,-9770.718434,383.047749,-518.144159
1435.223148,-7772.162391,-306.438199,-0.000000
1435.223459,-6217.729913,-1302.362347,-1998.556043
1435.223771,-6143.709319,-1532.190996,-2368.659014
1435.224082,-7920.203579,-306.438199,-2072.576638
1435.224393,-11547.212695,766.095498,-0.000000
1435.224705,-14508.036463,536.266849,2516.700203
1435.225016,-15618.345376,0.000000,2294.638420
1435.225327,-12953.603985,689.485948,1998.556043
1435.225639,-9252.574275,1455.581446,1850.514855
1435.225950,-4885.359217,229.828649,-74.020594
1435.226261,-3404.947333,-1378.971896,-1776.494261
1435.226573,-4071.132681,-919.314598,-2812.782580
1435.226884,-5773.606348,-612.876398,-1184.329507
1435.227196,-7624.121203,-612.876398,222.061783
1435.227507,-10288.862594,-306.438199,814.226536
1435.227818,-11251.130318,-1225.752797,296.082377
1435.228130,-10362.883188,-1915.238745,-0.000000
1435.228441,-7550.100608,-689.485948,370.102971
1435.228752,-6291.750507,-229.828649,-814.226536
1435.229064,-7772.162391,689.485948,-1332.370696
1435.229375,-9474.636058,1838.629195,-222.061783
1435.229686,-10881.027347,2451.505594,-148.041188
1435.229998,-11547.212695,2987.772442,962.267725
1435.230309,-11473.192101,2068.457845,814.226536
1435.230621,-9178.553681,766.095498,444.123565
1435.230932,-6587.832884,-1149.143247,-592.164754
1435.231243,-4663.297435,-2221.676944,-1480.411884
1435.231555,-4071.132681,-2221.676944,-1554.432478
1435.231866,-6513.812290,-1915.238745,-1480.411884
1435.232177,-9178.553681,-1378.971896,-0.000000
1435.232489,-12361.439231,-689.485948,740.205942
1435.232800,-13545.768739,76.609550,2812.782580
1435.233111,-12805.562797,766.095498,3108.864956
1435.233423,-11621.233289,-153.219100,1628.453072
1435.233734,-8882.471304,-766.095498,-0.000000
1435.234046,-7105.977043,-153.219100,-1332.370696
1435.234357,-5847.626942,1532.190996,-2368.659014
1435.234668,-6957.935855,1991.848295,-1036.288319
1435.234980,-9918.759623,0.000000,666.185348
1435.235291,-11547.212695,-1685.410096,1702.473667
1435.235602,-12139.377449,-1149.143247,2960.823768
1435.235914,-10584.944971,-1378.971896,3552.988522
1435.236225,-8734.430116,-2528.115143,2072.576638
1435.236536,-7328.038826,-2451.505594,1554.432478
1435.236848,-6217.729913,-1838.629195,222.061783
1435.237159,-7254.018232,-383.047749,518.144159
1435.237470,-9252.574275,383.047749,666.185348
1435.237782,-9474.636058,1302.362347,1258.350101
1435.238093,-10066.800811,383.047749,1776.494261
1435.238405,-9104.533087,-919.314598,3108.864956
1435.238716,-8290.306550,-1762.019645,2146.597232
1435.239027,-7328.038826,-1608.800546,888.247130
1435.239339,-7624.121203,0.000000,-0.000000
1435.239650,-8438.347739,383.047749,-666.185348
1435.239961,-8882.471304,1455.581446,296.082377
1435.240273,-9992.780217,1072.533697,740.205942
1435.240584,-11695.253884,766.095498,1628.453072
1435.240895,-10214.842000,1378.971896,2368.659014
1435.241207,-6217.729913,766.095498,1184.329507
1435.241518,-4441.235652,536.266849,-444.123565
1435.241830,-4071.132681,76.609550,-1184.329507
1435.242141,-5699.585753,383.047749,-1628.453072
1435.242452,-6809.894666,1149.143247,-2146.597232
1435.242764,-9030.512492,2374.896044,-1184.329507
1435.243075,-11325.150913,1762.019645,-0.000000
1435.243386,-12361.439231,383.047749,518.144159
1435.243698,-10288.862594,-689.485948,296.082377
1435.244009,-7698.141797,-2068.457845,-1480.411884
1435.244320,-7328.038826,-612.876398,-2738.761985
1435.244632,-7254.018232,1072.533697,-2072.576638
1435.244943,-8734.430116,612.876398,-1776.494261
1435.245255,-11473.192101,-1072.533697,-592.164754
1435.245566,-13693.809927,-842.705048,1776.494261
1435.245877,-14656.077652,383.047749,2368.659014
1435.246189,-12731.542202,0.000000,2664.741391
1435.246500,-8956.491898,-2451.505594,1554.432478
1435.246811,-5255.462188,-3830.477490,-1480.411884
1435.247123,-2960.823768,-2987.772442,-4293.194464
1435.247434,-2368.659014,-842.705048,-3256.906145
1435.247745,-7920.203579,536.266849,-1258.350101
1435.248057,-14656.077652,0.000000,1036.288319
1435.248368,-18505.148550,919.314598,3256.906145
1435.248679,-17542.880825,766.095498,4663.297435
1435.248991,-12509.480420,229.828649,4219.173869
1435.249302,-7031.956449,229.828649,1258.350101
1435.249614,-2886.803174,612.876398,-2590.720797
1435.249925,-592.164754,0.000000,-2886.803174
1435.250236,-2368.659014,-612.876398,-1628.453072
1435.250548,-7179.997637,0.000000,740.205942
1435.250859,-13619.789333,0.000000,3256.906145
1435.251170,-15766.386565,-1302.362347,4959.379811
1435.251482,-12583.501014,-2528.115143,4589.276840
1435.251793,-8216.285956,-766.095498,1850.514855
1435.252104,-4811.338623,0.000000,666.185348
1435.252416,-3330.926739,-459.657299,-1110.308913
1435.252727,-3701.029710,0.000000,-888.247130
1435.253039,-6587.832884,2451.505594,-0.000000
1435.253350,-9770.718434,3294.210641,814.226536
1435.253661,-11325.150913,2451.505594,3256.906145
1435.253973,-9178.553681,383.047749,2442.679609
1435.254284,-7179.997637,0.000000,296.082377
1435.254595,-6809.894666,229.828649,-74.020594
1435.254907,-7402.059420,-153.219100,-0.000000
1435.255218,-7772.162391,0.000000,-296.082377
1435.255529,-9252.574275,-995.924147,-0.000000
1435.255841,-11029.068536,-459.657299,1332.370696
1435.256152,-11843.295072,383.047749,2664.741391
1435.256464,-9696.697840,229.828649,2738.761985
1435.256775,-7179.997637,-919.314598,1850.514855
1435.257086,-6513.812290,-1455.581446,888.247130
1435.257398,-6365.771101,-1225.752797,444.123565
1435.257709,-7105.977043,-229.828649,-74.020594
1435.258020,-8956.491898,153.219100,-592.164754
1435.258332,-10214.842000,153.219100,-370.102971
1435.258643,-11325.150913,76.609550,-740.205942
1435.258954,-10732.986159,-766.095498,-592.164754
1435.259266,-9622.677246,-1149.143247,444.123565
1435.259577,-10066.800811,-2068.457845,-962.267725
1435.259888,-9622.677246,-459.657299,-222.061783
1435.260200,-9770.718434,0.000000,-592.164754
1435.260511,-11029.068536,153.219100,444.123565
1435.260823,-11843.295072,1302.362347,1184.329507
1435.261134,-11621.233289,2068.457845,592.164754
1435.261445,-9918.759623,1378.971896,-222.061783
1435.261757,-7476.080014,-1149.143247,296.082377
1435.262068,-5995.668130,-689.485948,-296.082377
1435.262379,-6365.771101,-536.266849,-2072.576638
1435.262691,-7105.977043,-612.876398,-666.185348
1435.263002,-9622.677246,-766.095498,-148.041188
1435.263313,-12287.418637,612.876398,1258.350101
1435.263625,-12731.542202,842.705048,2220.617826
1435.263936,-10881.027347,-153.219100,2146.597232
1435.264248,-8808.450710,-689.485948,1036.288319
1435.264559,-7031.956449,0.000000,370.102971
1435.264870,-6513.812290,1915.238745,-518.144159
1435.265182,-6291.750507,1532.190996,370.102971
1435.265493,-6735.874072,-459.657299,1036.288319
1435.265804,-7920.203579,-1608.800546,-148.041188
1435.266116,-9326.594869,612.876398,1184.329507
1435.266427,-10066.800811,3677.258390,2738.761985
1435.266738,-11621.233289,1378.971896,3256.906145
1435.267050,-10955.047942,-1149.143247,2590.720797
1435.267361,-9178.553681,-2528.115143,1628.453072
1435.267673,-6809.894666,-842.705048,1110.308913
1435.267984,-3627.009116,1455.581446,222.061783
1435.268295,-4737.318029,2681.334243,-1628.453072
1435.268607,-7476.080014,766.095498,-444.123565
1435.268918,-8808.450710,0.000000,1702.473667
1435.269229,-9030.512492,-1149.143247,2590.720797
1435.269541,-9474.636058,-995.924147,1258.350101
1435.269852,-9918.759623,-459.657299,-74.020594
1435.270163,-9030.512492,-229.828649,-296.082377
1435.270475,-8290.306550,-459.657299,-370.102971
1435.270786,-9474.636058,-536.266849,888.247130
1435.271098,-11547.212695,-766.095498,1850.514855
1435.271409,-12657.521608,76.609550,2442.679609
1435.271720,-10658.965565,306.438199,2738.761985
1435.272032,-8438.347739,-383.047749,1850.514855
1435.272343,-6735.874072,-1608.800546,740.205942
1435.272654,-5255.462188,-766.095498,-592.164754
1435.272966,-4737.318029,919.314598,-1924.535449
1435.273277,-6735.874072,2374.896044,-888.247130
1435.273588,-10807.006753,2451.505594,592.164754
1435.273900,-13767.830521,766.095498,2368.659014
1435.274211,-13693.809927,0.000000,3330.926739
1435.274522,-10288.862594,-1838.629195,2590.720797
1435.274834,-7846.182985,-1991.848295,1628.453072
1435.275145,-6587.832884,-1072.533697,-740.205942
1435.275457,-5625.565159,-689.485948,-666.185348
1435.275768,-6365.771101,-1608.800546,-0.000000
1435.276079,-9104.533087,-1685.410096,1850.514855
1435.276391,-12509.480420,0.000000,1998.556043
1435.276702,-12731.542202,153.219100,3034.844362
1435.277013,-10288.862594,-689.485948,3034.844362
1435.277325,-7698.141797,-2145.067394,2220.617826
1435.277636,-6587.832884,-2068.457845,1406.391290
1435.277947,-6513.812290,-766.095498,-0.000000
1435.278259,-5995.668130,383.047749,-296.082377
1435.278570,-6883.915261,1762.019645,-518.144159
1435.278882,-9178.553681,2451.505594,-370.102971
1435.279193,-11473.192101,2068.457845,370.102971
1435.279504,-11325.150913,1455.581446,1406.391290
1435.279816,-9400.615463,842.705048,592.164754
1435.280127,-7179.997637,766.095498,-0.000000
1435.280438,-6883.915261,919.314598,-1406.391290
1435.280750,-5921.647536,383.047749,-2368.659014
1435.281061,-5625.565159,0.000000,-2294.638420
1435.281372,-7846.182985,766.095498,-1406.391290
1435.281684,-10288.862594,1225.752797,296.082377
1435.281995,-11473.192101,-995.924147,1850.514855
1435.282307,-12139.377449,-2911.162892,2738.761985
1435.282618,-11251.130318,-3217.601092,1554.432478
1435.282929,-9400.615463,-1225.752797,-962.267725
1435.283241,-7624.121203,1455.581446,-2146.597232
1435.283552,-8438.347739,2298.286494,-1924.535449
1435.283863,-9770.718434,1532.190996,-1480.411884
1435.284175,-10584.944971,612.876398,-1110.308913
1435.284486,-10140.821405,689.485948,-1184.329507
1435.284797,-8956.491898,919.314598,-148.041188
1435.285109,-7994.224174,1072.533697,592.164754
1435.285420,-7920.203579,0.000000,148.041188
1435.285731,-9474.636058,-919.314598,-148.041188
1435.286043,-10955.047942,-1762.019645,740.205942
1435.286354,-11695.253884,-536.266849,1924.535449
1435.286666,-11547.212695,536.266849,2146.597232
1435.286977,-10140.821405,-1072.533697,888.247130
1435.287288,-7920.203579,-2987.772442,814.226536
1435.287600,-5033.400406,-2911.162892,-0.000000
1435.287911,-4737.318029,-1608.800546,-296.082377
1435.288222,-7179.997637,-306.438199,740.205942
1435.288534,-10140.821405,-383.047749,1998.556043
1435.288845,-12805.562797,536.266849,2442.679609
1435.289156,-13323.706956,1455.581446,3256.906145
1435.289468,-11251.130318,919.314598,3627.009116
1435.289779,-8364.327145,306.438199,2442.679609
1435.290091,-5773.606348,383.047749,740.205942
1435.290402,-3627.009116,153.219100,-740.205942
1435.290713,-5107.421000,306.438199,-148.041188
1435.291025,-5625.565159,842.705048,1258.350101
1435.291336,-8142.265362,76.609550,1332.370696
1435.291647,-11029.068536,0.000000,2146.597232
1435.291959,-11695.253884,536.266849,3108.864956
1435.292270,-8808.450710,1072.533697,3552.988522
1435.292581,-5255.462188,0.000000,2072.576638
1435.292893,-4589.276840,-1072.533697,296.082377
1435.293204,-5403.503377,-383.047749,-444.123565
1435.293516,-7031.956449,153.219100,444.123565
1435.293827,-8142.265362,1225.752797,-148.041188
1435.294138,-9326.594869,1685.410096,222.061783
1435.294450,-11251.130318,919.314598,296.082377
1435.294761,-12139.377449,76.609550,370.102971
1435.295072,-10732.986159,0.000000,444.123565
1435.295384,-8882.471304,-383.047749,-1332.370696
1435.295695,-7550.100608,-153.219100,-2146.597232
1435.296006,-6883.915261,76.609550,-2294.638420
1435.296318,-7698.141797,-1225.752797,-2146.597232
1435.296629,-9474.636058,-1225.752797,-370.102971
1435.296940,-12139.377449,0.000000,814.226536
1435.297252,-13619.789333,-229.828649,2072.576638
1435.297563,-12657.521608,-2451.505594,2072.576638
1435.297875,-9844.739029,-4519.963438,518.144159
1435.298186,-8142.265362,-2451.505594,-1850.514855
1435.298497,-6439.791695,-612.876398,-3034.844362
1435.298809,-6661.853478,76.609550,-3256.906145
1435.299120,-9400.615463,229.828649,-2442.679609
1435.299431,-12509.480420,306.438199,-444.123565
1435.299743,-13767.830521,383.047749,814.226536
1435.300054,-13397.727550,153.219100,1702.473667
1435.300365,-11917.315666,-153.219100,888.247130
1435.300677,-10510.924376,-306.438199,-222.061783
1435.300988,-8290.306550,612.876398,-814.226536
1435.301300,-6291.750507,612.876398,-1628.453072
1435.301611,-5921.647536,-995.924147,-1850.514855
1435.301922,-6365.771101,-919.314598,-1554.432478
1435.302234,-8364.327145,153.219100,814.226536
1435.302545,-9548.656652,0.000000,1702.473667
1435.302856,-9474.636058,-919.314598,2146.597232
1435.303168,-9474.636058,-1378.971896,2220.617826
1435.303479,-9178.553681,-689.485948,1036.288319
1435.303790,-7031.956449,1225.752797,518.144159
1435.304102,-5773.606348,1838.629195,-0.000000
1435.304413,-7105.977043,2145.067394,-370.102971
1435.304725,-7402.059420,2298.286494,-518.144159
1435.305025,-7550.100608,919.314598,296.082377
1435.305337,-7105.977043,612.876398,1184.329507
1435.305648,-7476.080014,76.609550,222.061783
1435.305960,-8956.491898,-153.219100,-148.041188
1435.306271,-8660.409521,536.266849,-0.000000
1435.306583,-9474.636058,-306.438199,370.102971
1435.306894,-9918.759623,-536.266849,1702.473667
1435.307206,-10140.821405,383.047749,1628.453072
1435.307517,-9178.553681,0.000000,1480.411884
1435.307829,-7698.141797,-1378.971896,1850.514855
1435.308140,-6735.874072,-2451.505594,2368.659014
1435.308451,-6661.853478,-1149.143247,1110.308913
1435.308763,-8216.285956,-153.219100,148.041188
1435.309074,-10214.842000,-229.828649,666.185348
1435.309386,-12139.377449,383.047749,1998.556043
1435.309697,-12583.501014,459.657299,1406.391290
1435.310009,-11251.130318,-842.705048,1110.308913
1435.310320,-9548.656652,-1302.362347,518.144159
1435.310632,-8216.285956,-919.314598,-370.102971
1435.310943,-7402.059420,-612.876398,-296.082377
1435.311254,-7476.080014,-1149.143247,-370.102971
1435.311566,-9770.718434,-1072.533697,592.164754
1435.311877,-11547.212695,-229.828649,2072.576638
1435.312189,-12953.603985,1072.533697,3108.864956
1435.312500,-12805.562797,459.657299,2886.803174
1435.312812,-9622.677246,-459.657299,2146.597232
1435.313123,-5995.668130,-1762.019645,666.185348
1435.313435,-3330.926739,-1378.971896,-1036.288319
1435.313746,-2886.803174,-1149.143247,-1776.494261
1435.314057,-4737.318029,-306.438199,-1332.370696
1435.314369,-8734.430116,383.047749,-296.082377
1435.314680,-12065.356855,1072.533697,1776.494261
1435.314992,-14285.974681,76.609550,3034.844362
1435.315303,-12509.480420,76.609550,3701.029710
1435.315615,-9104.533087,0.000000,1776.494261
1435.315926,-4959.379811,-306.438199,-962.267725
1435.316238,-3404.947333,306.438199,-2368.659014
1435.316549,-4071.132681,1225.752797,-1924.535449
1435.316860,-6957.935855,1225.752797,-1332.370696
1435.317172,-10362.883188,76.609550,740.205942
1435.317483,-13471.748144,229.828649,2664.741391
1435.317795,-13915.871710,0.000000,3404.947333
1435.318106,-11177.109724,-766.095498,2664.741391
1435.318418,-7846.182985,-1378.971896,962.267725
1435.318729,-4589.276840,-2298.286494,-1036.288319
1435.319041,-2072.576638,-1762.019645,-3404.947333
1435.319352,-2960.823768,229.828649,-3775.050304
1435.319664,-6809.894666,3140.991542,-1776.494261
1435.319975,-11843.295072,2298.286494,-0.000000
1435.320286,-16654.633695,1149.143247,2664.741391
1435.320598,-17542.880825,0.000000,3701.029710
1435.320909,-13471.748144,-459.657299,2146.597232
1435.321221,-8364.327145,0.000000,-814.226536
1435.321532,-4515.256246,995.924147,-3108.864956
1435.321844,-4737.318029,306.438199,-4737.318029
1435.322155,-6291.750507,-1378.971896,-3478.967927
1435.322467,-9992.780217,76.609550,-666.185348
1435.322778,-14137.933492,0.000000,2368.659014
1435.323089,-15100.201217,-842.705048,4219.173869
1435.323401,-12805.562797,-2298.286494,2590.720797
1435.323712,-8586.388927,-2068.457845,370.102971
1435.324024,-4515.256246,-1149.143247,-1184.329507
1435.324335,-4145.153275,0.000000,-2368.659014
1435.324647,-5625.565159,459.657299,-2368.659014
1435.324958,-9474.636058,995.924147,-148.041188
1435.325270,-13027.624579,229.828649,740.205942
1435.325581,-13693.809927,536.266849,3330.926739
1435.325892,-11177.109724,612.876398,3404.947333
1435.326204,-8068.244768,-306.438199,1480.411884
1435.326515,-7031.956449,-766.095498,296.082377
1435.326827,-5551.544565,76.609550,-0.000000
1435.327138,-5847.626942,1762.019645,-74.020594
1435.327450,-8142.265362,1302.362347,740.205942
1435.327761,-10140.821405,1072.533697,2664.741391
1435.328073,-10214.842000,-766.095498,3182.885551
1435.328384,-7624.121203,-2068.457845,3034.844362
1435.328695,-5921.647536,-2834.553343,2368.659014
1435.329007,-5255.462188,-2757.943793,962.267725
1435.329318,-6365.771101,-536.266849,1036.288319
1435.329630,-9104.533087,-766.095498,1258.350101
1435.329941,-12287.418637,153.219100,2146.597232
1435.330253,-14508.036463,842.705048,3108.864956
1435.330564,-12287.418637,1762.019645,2812.782580
1435.330876,-7550.100608,1838.629195,1332.370696
1435.331187,-4441.235652,1838.629195,-666.185348
1435.331499,-3775.050304,2374.896044,-1184.329507
1435.331810,-5107.421000,1685.410096,-888.247130
1435.332121,-8438.347739,1762.019645,666.185348
1435.332433,-12139.377449,689.485948,2146.597232
1435.332744,-13767.830521,306.438199,2812.782580
1435.333056,-11991.336260,383.047749,2516.700203
1435.333367,-8216.285956,-1149.143247,1702.473667
1435.333679,-4737.318029,-2298.286494,-0.000000
1435.333990,-3182.885551,-3140.991542,-1332.370696
1435.334302,-4737.318029,-995.924147,-962.267725
1435.334613,-7994.224174,306.438199,-222.061783
1435.334924,-11991.336260,383.047749,962.267725
1435.335236,-14508.036463,1149.143247,2146.597232
1435.335547,-14952.160028,1378.971896,2072.576638
1435.335859,-12657.521608,995.924147,1850.514855
1435.336170,-9252.574275,536.266849,370.102971
1435.336482,-7476.080014,689.485948,-1110.308913
1435.336793,-6513.812290,-842.705048,-2146.597232
1435.337105,-4663.297435,-2374.896044,-2146.597232
1435.337416,-5477.523971,-2145.067394,-1480.411884
1435.337727,-9622.677246,0.000000,814.226536
1435.338039,-13397.727550,383.047749,2442.679609
1435.338350,-15248.242405,-229.828649,3404.947333
1435.338662,-13175.665768,-612.876398,3552.988522
1435.338973,-9622.677246,-1991.848295,1702.473667
1435.339285,-5033.400406,-1762.019645,-222.061783
1435.339596,-2886.803174,-536.266849,-2738.761985
1435.339908,-4515.256246,1225.752797,-3627.009116
1435.340219,-6217.729913,1225.752797,-1850.514855
1435.340530,-9178.553681,76.609550,-74.020594
1435.340842,-13323.706956,612.876398,2886.803174
1435.341153,-14063.912898,-1149.143247,3997.112087
1435.341465,-12065.356855,-1302.362347,2590.720797
1435.341776,-9252.574275,766.095498,222.061783
1435.342088,-5329.482782,1532.190996,-1406.391290
1435.342399,-3552.988522,919.314598,-2442.679609
1435.342711,-4959.379811,1302.362347,-2072.576638
1435.343022,-8512.368333,1915.238745,-370.102971
1435.343334,-11029.068536,2987.772442,1110.308913
1435.343645,-11843.295072,766.095498,2516.700203
1435.343956,-9474.636058,-536.266849,2368.659014
1435.344268,-6957.935855,-766.095498,814.226536
1435.344579,-5847.626942,-536.266849,-1110.308913
1435.344891,-6143.709319,766.095498,-1110.308913
1435.345202,-7920.203579,919.314598,-1554.432478
1435.345514,-9104.533087,1532.190996,-222.061783
1435.345825,-10584.944971,1608.800546,148.041188
1435.346137,-11029.068536,76.609550,1554.432478
1435.346448,-9770.718434,-1455.581446,1036.288319
1435.346759,-7994.224174,-1302.362347,518.144159
1435.347071,-7105.977043,-766.095498,-592.164754
1435.347382,-7698.141797,-536.266849,-666.185348
1435.347694,-11177.109724,-459.657299,592.164754
1435.348005,-14359.995275,-612.876398,2072.576638
1435.348317,-15618.345376,-229.828649,2886.803174
1435.348628,-12879.583391,0.000000,2960.823768
1435.348940,-8956.491898,-306.438199,1628.453072
1435.349251,-6143.709319,-1608.800546,-0.000000
1435.349562,-3330.926739,-2374.896044,-1332.370696
1435.349874,-3552.988522,-689.485948,-1702.473667
1435.350185,-6735.874072,689.485948,-592.164754
1435.350497,-11473.192101,1378.971896,666.185348
1435.350808,-13841.851115,1302.362347,1998.556043
1435.351120,-13841.851115,153.219100,3256.906145
1435.351431,-10362.883188,-459.657299,2738.761985
1435.351743,-7476.080014,-1302.362347,1332.370696
1435.352054,-5921.647536,-1149.143247,222.061783
1435.352366,-4811.338623,-1149.143247,-0.000000
1435.352677,-5995.668130,-766.095498,296.082377
1435.352988,-9178.553681,-919.314598,1776.494261
1435.353300,-12065.356855,689.485948,3034.844362
1435.353611,-11843.295072,383.047749,3330.926739
1435.353923,-9252.574275,0.000000,2738.761985
1435.354234,-6883.915261,76.609550,1998.556043
1435.354546,-6587.832884,0.000000,1258.350101
1435.354857,-7105.977043,-459.657299,2072.576638
1435.355169,-5995.668130,-1302.362347,740.205942
1435.355480,-5107.421000,-842.705048,-814.226536
1435.355791,-4589.276840,1149.143247,-74.020594
1435.356103,-7328.038826,2834.553343,518.144159
1435.356414,-9622.677246,1455.581446,1110.308913
1435.356726,-11621.233289,-229.828649,1184.329507
1435.357037,-11621.233289,306.438199,1406.391290
1435.357349,-10658.965565,1915.238745,592.164754
1435.357660,-8882.471304,2374.896044,-1036.288319
1435.357972,-6069.688724,2068.457845,-2368.659014
1435.358283,-5773.606348,612.876398,-3182.885551
1435.358594,-6957.935855,-153.219100,-2072.576638
1435.358906,-7772.162391,995.924147,-0.000000
1435.359217,-10658.965565,-842.705048,962.267725
1435.359529,-13027.624579,-2987.772442,1628.453072
1435.359840,-12361.439231,-2987.772442,1110.308913
1435.360152,-10510.924376,-1608.800546,222.061783
1435.360463,-8808.450710,76.609550,-1258.350101
1435.360775,-8290.306550,306.438199,-2368.659014
1435.361086,-7698.141797,766.095498,-2738.761985
1435.361397,-8216.285956,0.000000,-2220.617826
1435.361709,-8956.491898,0.000000,-962.267725
1435.362020,-11103.089130,-766.095498,-592.164754
1435.362332,-11399.171507,0.000000,-814.226536
1435.362643,-10510.924376,1302.362347,-666.185348
1435.362955,-11621.233289,229.828649,-666.185348
1435.363266,-12435.459826,459.657299,962.267725
1435.363578,-11991.336260,536.266849,1554.432478
1435.363889,-10214.842000,-536.266849,1332.370696
1435.364201,-7698.141797,-1838.629195,962.267725
1435.364512,-6439.791695,-2604.724693,222.061783
1435.364823,-5551.544565,-2068.457845,-0.000000
1435.365135,-4959.379811,-2068.457845,-962.267725
1435.365446,-5847.626942,-1838.629195,-74.020594
1435.365758,-11547.212695,536.266849,222.061783
1435.366069,-14063.912898,1149.143247,2368.659014
1435.366381,-13693.809927,383.047749,2886.803174
1435.366692,-11547.212695,-1302.362347,3108.864956
1435.367004,-9178.553681,-1225.752797,2516.700203
1435.367315,-6883.915261,76.609550,666.185348
1435.367626,-4811.338623,1378.971896,-0.000000
1435.367938,-4367.215058,1455.581446,370.102971
1435.368249,-6291.750507,1532.190996,1184.329507
1435.368561,-9030.512492,1838.629195,1998.556043
1435.368872,-10362.883188,2068.457845,2960.823768
1435.369184,-9252.574275,1378.971896,2886.803174
1435.369495,-6809.894666,153.219100,1258.350101
1435.369807,-4885.359217,-536.266849,-592.164754
1435.370118,-4219.173869,-689.485948,-1406.391290
1435.370429,-4811.338623,-383.047749,-148.041188
1435.370741,-7698.141797,689.485948,222.061783
1435.371052,-10584.944971,919.314598,1406.391290
1435.371364,-12583.501014,76.609550,2442.679609
1435.371675,-12509.480420,-459.657299,3627.009116
1435.371987,-9696.697840,-612.876398,2442.679609
1435.372298,-7920.203579,-919.314598,-74.020594
1435.372610,-7105.977043,-459.657299,-1702.473667
1435.372921,-8438.347739,229.828649,-1628.453072
1435.373232,-9474.636058,1225.752797,222.061783
1435.373544,-11325.150913,0.000000,740.205942
1435.373855,-12435.459826,-2528.115143,1702.473667
1435.374167,-11325.150913,-3983.696590,1406.391290
1435.374478,-8068.244768,-2221.676944,814.226536
1435.374790,-6735.874072,-153.219100,296.082377
