#time,accel_x,accel_y,accel_z
1220.043271,-8734.430116,76.609550,518.144159
1220.043583,-8956.491898,0.000000,518.144159
1220.043894,-8882.471304,-459.657299,296.082377
1220.044205,-8882.471304,0.000000,740.205942
1220.044516,-8956.491898,0.000000,740.205942
1220.044827,-9030.512492,0.000000,592.164754
1220.045138,-8956.491898,-153.219100,592.164754
1220.045449,-8660.409521,-612.876398,592.164754
1220.045760,-8438.347739,0.000000,814.226536
1220.046072,-8956.491898,0.000000,370.102971
1220.046383,-9104.533087,0.000000,370.102971
1220.046694,-9104.533087,0.000000,444.123565
1220.047005,-9178.553681,0.000000,370.102971
1220.047316,-8956.491898,0.000000,518.144159
1220.047627,-9030.512492,0.000000,370.102971
1220.047938,-9030.512492,306.438199,518.144159
1220.048249,-8882.471304,-1149.143247,444.123565
1220.048561,-8586.388927,-153.219100,666.185348
1220.048872,-8882.471304,0.000000,518.144159
1220.049183,-8808.450710,-229.828649,592.164754
1220.049494,-9030.512492,-153.219100,518.144159
1220.049805,-8956.491898,0.000000,592.164754
1220.050116,-8438.347739,0.000000,592.164754
1220.050427,-8808.450710,153.219100,444.123565
1220.050738,-8438.347739,-383.047749,666.185348
1220.051050,-8438.347739,-153.219100,148.041188
1220.051361,-8882.471304,-306.438199,666.185348
1220.051672,-8956.491898,-153.219100,592.164754
1220.051983,-9030.512492,0.000000,518.144159
1220.052294,-8734.430116,0.000000,518.144159
1220.052605,-9030.512492,0.000000,592.164754
1220.052916,-8734.430116,0.000000,296.082377
1220.053227,-8882.471304,229.828649,-0.000000
1220.053539,-8882.471304,689.485948,444.123565
1220.053850,-8882.471304,76.609550,518.144159
1220.054161,-8882.471304,-153.219100,592.164754
1220.054472,-8882.471304,-229.828649,666.185348
1220.054783,-8956.491898,-153.219100,740.205942
1220.055094,-8956.491898,153.219100,592.164754
1220.055405,-8882.471304,0.000000,296.082377
1220.055716,-8364.327145,229.828649,592.164754
1220.056027,-8660.409521,-153.219100,444.123565
1220.056339,-8956.491898,0.000000,518.144159
1220.056650,-9030.512492,0.000000,518.144159
1220.056961,-9104.533087,0.000000,592.164754
1220.057272,-8882.471304,-153.219100,518.144159
1220.057583,-8882.471304,0.000000,296.082377
1220.057894,-8808.450710,76.609550,592.164754
1220.058205,-8956.491898,76.609550,222.061783
1220.058516,-8956.491898,76.609550,222.061783
1220.058828,-9030.512492,0.000000,370.102971
1220.059139,-8882.471304,0.000000,592.164754
1220.059450,-8882.471304,0.000000,592.164754
1220.059761,-8808.450710,229.828649,740.205942
1220.060072,-8956.491898,-306.438199,370.102971
1220.060383,-8512.368333,-306.438199,296.082377
1220.060694,-8734.430116,-536.266849,222.061783
1220.061005,-8586.388927,0.000000,666.185348
1220.061317,-8808.450710,0.000000,592.164754
1220.061628,-8956.491898,0.000000,592.164754
1220.061939,-9104.533087,0.000000,518.144159
1220.062250,-9252.574275,76.609550,740.205942
1220.062561,-8734.430116,-306.438199,148.041188
1220.062872,-8808.450710,0.000000,962.267725
1220.063183,-8956.491898,0.000000,518.144159
1220.063494,-8808.450710,-383.047749,814.226536
1220.063806,-9178.553681,0.000000,592.164754
1220.064117,-8956.491898,0.000000,518.144159
1220.064428,-9104.533087,0.000000,444.123565
1220.064739,-8660.409521,76.609550,148.041188
1220.065050,-8660.409521,0.000000,370.102971
1220.065361,-8734.430116,-306.438199,370.102971
1220.065672,-8660.409521,-229.828649,592.164754
1220.065983,-9104.533087,0.000000,444.123565
1220.066295,-8660.409521,0.000000,518.144159
1220.066606,-8956.491898,-76.609550,666.185348
1220.066917,-8882.471304,-76.609550,444.123565
1220.067228,-8660.409521,0.000000,444.123565
1220.067539,-9252.574275,0.000000,444.123565
1220.067850,-8808.450710,536.266849,740.205942
1220.068161,-8956.491898,0.000000,370.102971
1220.068472,-8882.471304,0.000000,518.144159
1220.068784,-8956.491898,0.000000,370.102971
1220.069095,-9104.533087,0.000000,518.144159
1220.069406,-10807.006753,612.876398,222.061783
1220.069717,-11547.212695,2221.676944,222.061783
1220.070028,-9030.512492,4826.401637,370.102971
1220.070339,-7476.080014,4366.744339,814.226536
1220.070650,-6957.935855,1838.629195,1332.370696
1220.070961,-6365.771101,-842.705048,222.061783
1220.071272,-7402.059420,-1149.143247,-148.041188
1220.071584,-6957.935855,-306.438199,-222.061783
1220.071895,-10807.006753,-919.314598,-1480.411884
1220.072206,-13027.624579,-536.266849,-592.164754
1220.072517,-10807.006753,536.266849,592.164754
1220.072828,-9252.574275,229.828649,1332.370696
1220.073139,-9326.594869,-536.266849,2960.823768
1220.073450,-11843.295072,0.000000,1702.473667
1220.073761,-9030.512492,3907.087040,2368.659014
1220.074073,-4737.318029,5439.278036,2146.597232
1220.074384,-6809.894666,3524.039291,740.205942
1220.074695,-7624.121203,2451.505594,-444.123565
1220.075006,-7179.997637,3370.820191,-2072.576638
1220.075317,-9030.512492,3524.039291,-1998.556043
1220.075628,-8882.471304,3677.258390,-222.061783
1220.075939,-11695.253884,2451.505594,-1406.391290
1220.076250,-14211.954086,-612.876398,370.102971
1220.076562,-9104.533087,-1532.190996,2886.803174
1220.076873,-9918.759623,-229.828649,1110.308913
1220.077184,-8660.409521,4826.401637,2516.700203
1220.077495,-7550.100608,6818.249932,1702.473667
1220.077806,-8364.327145,2911.162892,1998.556043
1220.078117,-5921.647536,3983.696590,2294.638420
1220.078428,-7105.977043,6971.469032,444.123565
1220.078739,-7846.182985,7354.516781,-740.205942
1220.079051,-9474.636058,5209.449386,-1480.411884
1220.079362,-9844.739029,4903.011187,-666.185348
1220.079673,-9474.636058,5362.668486,-1702.473667
1220.079984,-11325.150913,5669.106685,-74.020594
1220.080295,-11547.212695,4443.353888,222.061783
1220.080606,-10955.047942,3677.258390,1628.453072
1220.080917,-9104.533087,4826.401637,2590.720797
1220.081228,-7698.141797,4903.011187,2294.638420
1220.081540,-6365.771101,5056.230287,962.267725
1220.081851,-6291.750507,4673.182538,296.082377
1220.082162,-4737.318029,5592.497135,-296.082377
1220.082473,-5255.462188,4596.572988,-1776.494261
1220.082784,-7179.997637,4213.525239,-444.123565
1220.083095,-9326.594869,2374.896044,-814.226536
1220.083406,-10066.800811,766.095498,148.041188
1220.083717,-10362.883188,-459.657299,1036.288319
1220.084029,-10732.986159,-1072.533697,2072.576638
1220.084340,-11325.150913,-1149.143247,1924.535449
1220.084651,-10436.903782,-536.266849,2442.679609
1220.084962,-8216.285956,1455.581446,2072.576638
1220.085273,-6587.832884,1685.410096,370.102971
1220.085584,-6587.832884,1455.581446,-296.082377
1220.085895,-6957.935855,2068.457845,-666.185348
1220.086206,-6735.874072,2451.505594,-740.205942
1220.086517,-6883.915261,459.657299,-666.185348
1220.086829,-8734.430116,-1915.238745,-444.123565
1220.087140,-9548.656652,-2757.943793,-0.000000
1220.087451,-10807.006753,-2374.896044,518.144159
1220.087762,-11399.171507,-3064.381992,1702.473667
1220.088073,-12139.377449,-4060.306139,1702.473667
1220.088384,-12287.418637,-3064.381992,1776.494261
1220.088695,-11547.212695,-2451.505594,-0.000000
1220.089006,-9770.718434,-459.657299,-666.185348
1220.089318,-8142.265362,612.876398,-1036.288319
1220.089629,-8216.285956,1225.752797,-518.144159
1220.089940,-8586.388927,1072.533697,-296.082377
1220.090251,-9400.615463,76.609550,-148.041188
1220.090562,-9696.697840,-306.438199,518.144159
1220.090873,-10066.800811,-612.876398,1406.391290
1220.091184,-10510.924376,-1838.629195,1628.453072
1220.091495,-11251.130318,-3447.429741,1036.288319
1220.091807,-10732.986159,-3370.820191,1110.308913
1220.092118,-10436.903782,-1685.410096,740.205942
1220.092429,-10140.821405,-229.828649,-0.000000
1220.092740,-9326.594869,1455.581446,-370.102971
1220.093051,-8660.409521,2221.676944,-962.267725
1220.093362,-7846.182985,2528.115143,-1036.288319
1220.093673,-6883.915261,2987.772442,-814.226536
1220.093984,-6439.791695,3140.991542,-296.082377
1220.094296,-5995.668130,3524.039291,1702.473667
1220.094607,-6809.894666,1762.019645,2368.659014
1220.094918,-7402.059420,0.000000,2516.700203
1220.095229,-8216.285956,-919.314598,2294.638420
1220.095540,-8364.327145,-306.438199,740.205942
1220.095851,-8586.388927,383.047749,-0.000000
1220.096162,-9400.615463,689.485948,-1480.411884
1220.096473,-9104.533087,689.485948,-1184.329507
1220.096785,-9104.533087,306.438199,-888.247130
1220.097096,-8808.450710,842.705048,-0.000000
1220.097407,-7476.080014,995.924147,814.226536
1220.097718,-7402.059420,919.314598,1110.308913
1220.098029,-7772.162391,1072.533697,1850.514855
1220.098340,-7105.977043,612.876398,2738.761985
1220.098651,-7476.080014,306.438199,2664.741391
1220.098962,-8956.491898,153.219100,1628.453072
1220.099274,-8956.491898,-536.266849,1998.556043
1220.099585,-9252.574275,-689.485948,518.144159
1220.099896,-9918.759623,-153.219100,-148.041188
1220.100207,-10140.821405,76.609550,-0.000000
1220.100518,-10066.800811,-995.924147,-222.061783
1220.100829,-10362.883188,-1378.971896,-296.082377
1220.101140,-9844.739029,-1149.143247,-444.123565
1220.101451,-9178.553681,-536.266849,370.102971
1220.101762,-8734.430116,-536.266849,370.102971
1220.102074,-8364.327145,-689.485948,1110.308913
1220.102385,-8438.347739,-1225.752797,1628.453072
1220.102696,-8734.430116,-1149.143247,1998.556043
1220.103007,-8586.388927,-306.438199,1924.535449
1220.103318,-8586.388927,-459.657299,1776.494261
1220.103629,-8956.491898,-842.705048,814.226536
1220.103940,-8956.491898,-459.657299,-222.061783
1220.104251,-9104.533087,-536.266849,-666.185348
1220.104563,-9696.697840,-306.438199,-1924.535449
1220.104874,-9474.636058,-229.828649,-1850.514855
1220.105185,-9696.697840,153.219100,-1850.514855
1220.105496,-10288.862594,-306.438199,-1406.391290
1220.105807,-10214.842000,-842.705048,-296.082377
1220.106118,-10807.006753,-153.219100,666.185348
1220.106429,-10584.944971,-1608.800546,1332.370696
1220.106740,-9104.533087,-306.438199,1702.473667
1220.107052,-9178.553681,459.657299,814.226536
1220.107363,-8438.347739,1149.143247,740.205942
1220.107674,-8142.265362,2068.457845,888.247130
1220.107985,-8068.244768,2068.457845,666.185348
1220.108296,-8290.306550,1532.190996,-0.000000
1220.108607,-8808.450710,1915.238745,-0.000000
1220.108918,-8586.388927,1608.800546,-1258.350101
1220.109229,-7920.203579,1532.190996,-1406.391290
1220.109541,-8068.244768,995.924147,-666.185348
1220.109852,-8956.491898,0.000000,-0.000000
1220.110163,-9326.594869,-919.314598,1110.308913
1220.110474,-8734.430116,-1608.800546,1776.494261
1220.110785,-8586.388927,-1455.581446,2146.597232
1220.111096,-7994.224174,-153.219100,2146.597232
1220.111407,-8364.327145,-612.876398,2294.638420
1220.111718,-8216.285956,229.828649,1850.514855
1220.112030,-7772.162391,1685.410096,962.267725
1220.112341,-7550.100608,2911.162892,296.082377
1220.112652,-7550.100608,2681.334243,222.061783
1220.112963,-7254.018232,1302.362347,-444.123565
1220.113274,-6735.874072,689.485948,-222.061783
1220.113585,-6439.791695,229.828649,-740.205942
1220.113896,-7476.080014,-383.047749,-0.000000
1220.114207,-9400.615463,-1072.533697,-0.000000
1220.114519,-10732.986159,-1991.848295,740.205942
1220.114830,-11399.171507,-2528.115143,1702.473667
1220.115141,-11695.253884,-2298.286494,2072.576638
1220.115453,-11547.212695,-2145.067394,2072.576638
1220.115764,-10807.006753,-1685.410096,1628.453072
1220.116075,-9918.759623,-995.924147,666.185348
1220.116387,-8660.409521,383.047749,814.226536
1220.116698,-8438.347739,1225.752797,296.082377
1220.117009,-7476.080014,995.924147,592.164754
1220.117321,-7179.997637,612.876398,592.164754
1220.117632,-7994.224174,0.000000,518.144159
1220.117943,-8290.306550,229.828649,888.247130
1220.118255,-9178.553681,-459.657299,518.144159
1220.118566,-9696.697840,-919.314598,1110.308913
1220.118877,-11103.089130,-2451.505594,962.267725
1220.119189,-11251.130318,-2374.896044,1036.288319
1220.119500,-11103.089130,-2068.457845,666.185348
1220.119811,-10066.800811,-1149.143247,740.205942
1220.120123,-8882.471304,-919.314598,592.164754
1220.120434,-8068.244768,306.438199,-0.000000
1220.120745,-6957.935855,76.609550,-0.000000
1220.121057,-6439.791695,1072.533697,222.061783
1220.121368,-6513.812290,1608.800546,666.185348
1220.121679,-6661.853478,1225.752797,370.102971
1220.121991,-6809.894666,536.266849,222.061783
1220.122302,-7254.018232,76.609550,-0.000000
1220.122613,-8364.327145,0.000000,-370.102971
1220.122925,-9770.718434,0.000000,-888.247130
1220.123236,-10732.986159,76.609550,-962.267725
1220.123547,-10807.006753,-1225.752797,-296.082377
1220.123859,-10955.047942,-1378.971896,-0.000000
1220.124170,-10436.903782,-1225.752797,222.061783
1220.124481,-10066.800811,-536.266849,518.144159
1220.124793,-9030.512492,-306.438199,814.226536
1220.125104,-9030.512492,995.924147,592.164754
1220.125415,-8512.368333,1915.238745,518.144159
1220.125727,-8438.347739,2834.553343,518.144159
1220.126038,-8142.265362,2528.115143,962.267725
1220.126349,-7772.162391,2298.286494,814.226536
1220.126660,-7920.203579,2145.067394,296.082377
1220.126972,-8068.244768,1685.410096,-666.185348
1220.127283,-8438.347739,1225.752797,-888.247130
1220.127594,-9252.574275,0.000000,-888.247130
1220.127906,-10066.800811,-1532.190996,-296.082377
1220.128217,-10955.047942,-1915.238745,148.041188
1220.128528,-10881.027347,-2604.724693,1036.288319
1220.128840,-10214.842000,-3064.381992,1924.535449
1220.129151,-9474.636058,-2834.553343,2146.597232
1220.129462,-8660.409521,-2298.286494,2294.638420
1220.129774,-8290.306550,-1455.581446,1998.556043
1220.130085,-8216.285956,-306.438199,1702.473667
1220.130396,-7254.018232,1532.190996,2220.617826
1220.130708,-7179.997637,1608.800546,1110.308913
1220.131019,-6957.935855,1378.971896,740.205942
1220.131330,-6957.935855,229.828649,148.041188
1220.131642,-7179.997637,0.000000,-370.102971
1220.131953,-7624.121203,0.000000,-740.205942
1220.132264,-8512.368333,-536.266849,-666.185348
1220.132576,-9622.677246,-1532.190996,-0.000000
1220.132887,-10584.944971,-2298.286494,888.247130
1220.133198,-11103.089130,-2451.505594,1258.350101
1220.133510,-10510.924376,-1685.410096,2072.576638
1220.133821,-9918.759623,-1378.971896,2220.617826
1220.134132,-9474.636058,-536.266849,1776.494261
1220.134444,-8956.491898,383.047749,1184.329507
1220.134755,-8660.409521,1532.190996,962.267725
1220.135066,-7846.182985,1225.752797,518.144159
1220.135378,-8142.265362,1762.019645,148.041188
1220.135689,-8068.244768,689.485948,-0.000000
1220.136000,-8290.306550,153.219100,-296.082377
1220.136312,-8882.471304,-229.828649,-370.102971
1220.136623,-9474.636058,-459.657299,-222.061783
1220.136934,-10436.903782,-1072.533697,-0.000000
1220.137246,-10881.027347,-1378.971896,518.144159
1220.137557,-11325.150913,-1762.019645,444.123565
1220.137868,-10362.883188,-1149.143247,1036.288319
1220.138180,-9400.615463,-766.095498,1036.288319
1220.138491,-8512.368333,-229.828649,1036.288319
1220.138802,-7624.121203,689.485948,370.102971
1220.139114,-7105.977043,1685.410096,-0.000000
1220.139425,-6513.812290,2374.896044,-74.020594
1220.139736,-5847.626942,2451.505594,-444.123565
1220.140048,-6735.874072,842.705048,-888.247130
1220.140359,-6809.894666,306.438199,-814.226536
1220.140670,-7846.182985,-153.219100,-370.102971
1220.140982,-9474.636058,0.000000,-444.123565
1220.141293,-9844.739029,-995.924147,296.082377
1220.141604,-10362.883188,-2145.067394,592.164754
1220.141916,-10436.903782,-2221.676944,1110.308913
1220.142227,-9992.780217,-1762.019645,962.267725
1220.142538,-9770.718434,-2451.505594,518.144159
1220.142850,-9178.553681,-1302.362347,962.267725
1220.143161,-9178.553681,0.000000,1258.350101
1220.143472,-8734.430116,1149.143247,740.205942
1220.143784,-8808.450710,1915.238745,888.247130
1220.144095,-8956.491898,1915.238745,1110.308913
1220.144406,-8586.388927,2451.505594,666.185348
1220.144718,-7994.224174,1915.238745,518.144159
1220.145029,-7772.162391,1608.800546,-0.000000
1220.145340,-7994.224174,459.657299,-74.020594
1220.145652,-9252.574275,-842.705048,-0.000000
1220.145963,-9918.759623,-1685.410096,-0.000000
1220.146274,-10584.944971,-2451.505594,740.205942
1220.146586,-11029.068536,-2911.162892,1332.370696
1220.146897,-11177.109724,-2911.162892,1628.453072
1220.147208,-10066.800811,-2528.115143,1554.432478
1220.147520,-9104.533087,-2145.067394,1554.432478
1220.147831,-8364.327145,-383.047749,1332.370696
1220.148142,-7846.182985,919.314598,1110.308913
1220.148454,-7920.203579,1762.019645,740.205942
1220.148765,-7179.997637,1991.848295,1036.288319
1220.149076,-6365.771101,2298.286494,222.061783
1220.149388,-6143.709319,1302.362347,148.041188
1220.149699,-6661.853478,919.314598,-370.102971
1220.150010,-7476.080014,536.266849,-370.102971
1220.150322,-9030.512492,-306.438199,-666.185348
1220.150633,-10140.821405,-995.924147,-148.041188
1220.150944,-10510.924376,-1225.752797,296.082377
1220.151256,-10658.965565,-1378.971896,592.164754
1220.151567,-10140.821405,-919.314598,1184.329507
1220.151878,-9696.697840,-383.047749,1184.329507
1220.152190,-8882.471304,-612.876398,814.226536
1220.152501,-8364.327145,842.705048,1110.308913
1220.152812,-8216.285956,1532.190996,1184.329507
1220.153124,-8808.450710,2145.067394,592.164754
1220.153435,-8216.285956,2374.896044,444.123565
1220.153746,-7846.182985,1915.238745,-148.041188
1220.154058,-7994.224174,689.485948,-666.185348
1220.154369,-8290.306550,-536.266849,-666.185348
1220.154680,-9104.533087,0.000000,-888.247130
1220.154992,-9622.677246,-919.314598,-296.082377
1220.155303,-10658.965565,-1838.629195,740.205942
1220.155614,-10881.027347,-2221.676944,1480.411884
1220.155926,-10436.903782,-2528.115143,1628.453072
1220.156237,-9474.636058,-2451.505594,1702.473667
1220.156548,-8512.368333,-1455.581446,1406.391290
1220.156860,-8216.285956,229.828649,814.226536
1220.157171,-7476.080014,766.095498,518.144159
1220.157482,-7772.162391,919.314598,296.082377
1220.157794,-7254.018232,1225.752797,-0.000000
1220.158105,-7179.997637,1225.752797,-148.041188
1220.158416,-7402.059420,1225.752797,-74.020594
1220.158728,-7402.059420,536.266849,-370.102971
1220.159039,-7624.121203,-153.219100,-370.102971
1220.159350,-8956.491898,-1378.971896,-370.102971
1220.159662,-10066.800811,-1302.362347,444.123565
1220.159973,-11029.068536,-1608.800546,740.205942
1220.160284,-11695.253884,-2068.457845,962.267725
1220.160596,-11251.130318,-1532.190996,1184.329507
1220.160907,-10732.986159,-1149.143247,962.267725
1220.161218,-9696.697840,-306.438199,1110.308913
1220.161530,-8956.491898,1302.362347,740.205942
1220.161841,-8586.388927,1991.848295,-0.000000
1220.162152,-8068.244768,3140.991542,296.082377
1220.162464,-8068.244768,3447.429741,148.041188
1220.162775,-7920.203579,2987.772442,-0.000000
1220.163086,-7994.224174,1991.848295,296.082377
1220.163398,-8142.265362,842.705048,296.082377
1220.163709,-9252.574275,0.000000,296.082377
1220.164020,-10288.862594,-1225.752797,222.061783
1220.164332,-10510.924376,-2068.457845,518.144159
1220.164643,-10807.006753,-2298.286494,962.267725
1220.164954,-10140.821405,-2604.724693,1184.329507
1220.165266,-8882.471304,-2298.286494,1554.432478
1220.165577,-8512.368333,-1149.143247,1480.411884
1220.165888,-7920.203579,383.047749,1554.432478
1220.166200,-7254.018232,1378.971896,1628.453072
1220.166511,-6957.935855,1762.019645,1628.453072
1220.166822,-6143.709319,2987.772442,1110.308913
1220.167134,-6291.750507,2987.772442,962.267725
1220.167445,-6439.791695,2374.896044,-0.000000
1220.167756,-6735.874072,1762.019645,-592.164754
1220.168068,-7402.059420,1302.362347,-888.247130
1220.168379,-8586.388927,612.876398,-1110.308913
1220.168690,-10214.842000,-459.657299,-444.123565
1220.169002,-10214.842000,-1685.410096,814.226536
1220.169313,-10732.986159,-2068.457845,962.267725
1220.169624,-10732.986159,-2068.457845,962.267725
1220.169936,-9696.697840,-1302.362347,1332.370696
1220.170247,-9474.636058,-612.876398,1332.370696
1220.170558,-9104.533087,0.000000,1110.308913
1220.170870,-8882.471304,919.314598,962.267725
1220.171181,-9104.533087,995.924147,592.164754
1220.171492,-8586.388927,1991.848295,888.247130
1220.171804,-8068.244768,1149.143247,518.144159
1220.172115,-8216.285956,153.219100,-0.000000
1220.172426,-8364.327145,-383.047749,-74.020594
1220.172738,-9252.574275,-919.314598,-148.041188
1220.173049,-10214.842000,-1455.581446,-0.000000
1220.173360,-10881.027347,-1991.848295,444.123565
1220.173672,-10881.027347,-2987.772442,1110.308913
1220.173983,-11103.089130,-2298.286494,814.226536
1220.174294,-10066.800811,-2221.676944,1480.411884
1220.174606,-9474.636058,-2068.457845,1036.288319
1220.174917,-8808.450710,-842.705048,962.267725
1220.175228,-7772.162391,306.438199,740.205942
1220.175540,-7550.100608,1991.848295,666.185348
1220.175851,-7624.121203,1225.752797,518.144159
1220.176162,-7328.038826,919.314598,-148.041188
1220.176474,-6883.915261,1532.190996,-148.041188
1220.176785,-6883.915261,766.095498,-370.102971
1220.177096,-7624.121203,0.000000,-592.164754
1220.177408,-9178.553681,-536.266849,-592.164754
1220.177719,-9474.636058,-766.095498,-148.041188
1220.178030,-9992.780217,-1225.752797,-0.000000
1220.178342,-10955.047942,-995.924147,814.226536
1220.178653,-11029.068536,-1225.752797,592.164754
1220.178964,-10732.986159,-1072.533697,962.267725
1220.179276,-9918.759623,-536.266849,1332.370696
1220.179587,-8956.491898,0.000000,1258.350101
1220.179898,-8882.471304,1302.362347,814.226536
1220.180210,-9252.574275,2374.896044,814.226536
1220.180521,-8734.430116,2681.334243,666.185348
1220.180832,-7476.080014,2681.334243,-0.000000
1220.181144,-7105.977043,3140.991542,444.123565
1220.181455,-7328.038826,1532.190996,-222.061783
1220.181766,-7994.224174,-536.266849,-74.020594
1220.182078,-9178.553681,-766.095498,-0.000000
1220.182389,-10140.821405,-766.095498,296.082377
1220.182700,-10362.883188,-1149.143247,740.205942
1220.183012,-10955.047942,-1838.629195,814.226536
1220.183323,-10288.862594,-2604.724693,1628.453072
1220.183634,-8808.450710,-2221.676944,1702.473667
1220.183946,-8364.327145,-766.095498,1850.514855
1220.184257,-7920.203579,306.438199,1628.453072
1220.184568,-7402.059420,1685.410096,1184.329507
1220.184880,-6883.915261,2451.505594,888.247130
1220.185191,-5921.647536,3370.820191,740.205942
1220.185502,-5477.523971,2911.162892,-0.000000
1220.185814,-6217.729913,2374.896044,-444.123565
1220.186125,-7105.977043,1149.143247,-370.102971
1220.186436,-7920.203579,153.219100,-296.082377
1220.186748,-9400.615463,-995.924147,-0.000000
1220.187059,-10955.047942,-2145.067394,518.144159
1220.187370,-11473.192101,-2604.724693,1258.350101
1220.187682,-11473.192101,-2681.334243,962.267725
1220.187993,-10436.903782,-2145.067394,1258.350101
1220.188304,-9844.739029,-2145.067394,1258.350101
1220.188616,-9326.594869,0.000000,962.267725
1220.188927,-8808.450710,766.095498,740.205942
1220.189238,-9104.533087,1149.143247,740.205942
1220.189550,-8734.430116,1838.629195,444.123565
1220.189861,-8216.285956,1762.019645,222.061783
1220.190172,-7772.162391,229.828649,-0.000000
1220.190484,-8364.327145,-383.047749,-74.020594
1220.190795,-8660.409521,-1378.971896,-222.061783
1220.191106,-9400.615463,-1915.238745,-74.020594
1220.191418,-10955.047942,-2834.553343,518.144159
1220.191729,-11473.192101,-3294.210641,888.247130
1220.192040,-11251.130318,-3370.820191,1110.308913
1220.192352,-10510.924376,-2757.943793,1036.288319
1220.192663,-9474.636058,-2068.457845,1110.308913
1220.192974,-8512.368333,-842.705048,444.123565
1220.193286,-8290.306550,229.828649,-148.041188
1220.193597,-7105.977043,1072.533697,-0.000000
1220.193908,-7179.997637,1991.848295,-0.000000
1220.194220,-6809.894666,2145.067394,-0.000000
1220.194531,-6883.915261,1378.971896,-296.082377
1220.194842,-7105.977043,919.314598,-74.020594
1220.195154,-7179.997637,612.876398,-222.061783
1220.195465,-8142.265362,-536.266849,-0.000000
1220.195776,-9474.636058,-1149.143247,-0.000000
1220.196088,-10510.924376,-1608.800546,-296.082377
1220.196399,-10955.047942,-1532.190996,-0.000000
1220.196710,-11103.089130,-1455.581446,444.123565
1220.197022,-10881.027347,-1225.752797,814.226536
1220.197333,-10066.800811,-1302.362347,1110.308913
1220.197644,-9400.615463,-383.047749,962.267725
1220.197956,-8734.430116,919.314598,1332.370696
1220.198267,-8808.450710,2145.067394,962.267725
1220.198578,-8512.368333,2911.162892,370.102971
1220.198890,-7846.182985,2987.772442,444.123565
1220.199201,-7402.059420,2451.505594,370.102971
1220.199512,-7920.203579,1149.143247,370.102971
1220.199824,-8290.306550,536.266849,-0.000000
1220.200135,-9252.574275,229.828649,-444.123565
1220.200446,-9622.677246,76.609550,-296.082377
1220.200758,-10066.800811,-1072.533697,814.226536
1220.201069,-10288.862594,-2374.896044,1258.350101
1220.201380,-10066.800811,-2681.334243,1776.494261
1220.201692,-9326.594869,-2374.896044,2072.576638
1220.202003,-8660.409521,-1685.410096,2072.576638
1220.202314,-8142.265362,-383.047749,1850.514855
1220.202626,-8068.244768,995.924147,1480.411884
1220.202937,-7179.997637,2068.457845,1184.329507
1220.203248,-6069.688724,2604.724693,1258.350101
1220.203560,-5847.626942,2911.162892,444.123565
1220.203871,-6661.853478,2145.067394,-148.041188
1220.204182,-7031.956449,1532.190996,-592.164754
1220.204494,-7105.977043,1072.533697,-518.144159
1220.204805,-8068.244768,0.000000,-296.082377
1220.205116,-9770.718434,-1378.971896,-74.020594
1220.205428,-10881.027347,-1915.238745,222.061783
1220.205739,-11177.109724,-2911.162892,740.205942
1220.206050,-11103.089130,-2757.943793,1406.391290
1220.206362,-10807.006753,-2221.676944,1554.432478
1220.206673,-10362.883188,-1685.410096,1554.432478
1220.206984,-9474.636058,-536.266849,1110.308913
1220.207296,-8882.471304,1072.533697,740.205942
1220.207607,-8512.368333,3140.991542,518.144159
1220.207918,-8216.285956,1378.971896,-0.000000
1220.208230,-7846.182985,1378.971896,-0.000000
1220.208541,-7772.162391,842.705048,-518.144159
1220.208852,-7920.203579,229.828649,-222.061783
1220.209164,-8882.471304,-612.876398,-222.061783
1220.209475,-9992.780217,-1991.848295,-148.041188
1220.209786,-10955.047942,-2451.505594,296.082377
1220.210098,-11177.109724,-2987.772442,666.185348
1220.210409,-11029.068536,-2451.505594,814.226536
1220.210720,-10807.006753,-1838.629195,1184.329507
1220.211032,-9622.677246,-1532.190996,1406.391290
1220.211343,-8216.285956,-689.485948,888.247130
1220.211654,-6957.935855,766.095498,148.041188
1220.211966,-6735.874072,2068.457845,-74.020594
1220.212277,-6957.935855,1762.019645,-148.041188
1220.212588,-6735.874072,1991.848295,-296.082377
1220.212900,-6513.812290,2068.457845,-296.082377
1220.213211,-7179.997637,1149.143247,-444.123565
1220.213522,-8438.347739,0.000000,-518.144159
1220.213834,-9548.656652,-1072.533697,-148.041188
1220.214145,-10436.903782,-1378.971896,-0.000000
1220.214456,-10436.903782,-1762.019645,370.102971
1220.214768,-10881.027347,-1762.019645,666.185348
1220.215079,-11103.089130,-1762.019645,814.226536
1220.215391,-10658.965565,-1149.143247,888.247130
1220.215702,-9622.677246,-306.438199,1406.391290
1220.216014,-7994.224174,689.485948,1110.308913
1220.216325,-7994.224174,1608.800546,814.226536
1220.216637,-8734.430116,1762.019645,1184.329507
1220.216948,-7698.141797,1915.238745,518.144159
1220.217260,-7550.100608,2221.676944,592.164754
1220.217571,-7254.018232,1762.019645,666.185348
1220.217882,-8364.327145,1149.143247,296.082377
1220.218194,-9326.594869,-153.219100,296.082377
1220.218505,-9474.636058,-1149.143247,518.144159
1220.218817,-9474.636058,-1915.238745,888.247130
1220.219128,-10288.862594,-1991.848295,1258.350101
1220.219440,-10510.924376,-1455.581446,888.247130
1220.219751,-9622.677246,-2681.334243,1332.370696
1220.220063,-8512.368333,-2757.943793,1702.473667
1220.220374,-7846.182985,-689.485948,1406.391290
1220.220685,-7550.100608,842.705048,962.267725
1220.220997,-7698.141797,1302.362347,1036.288319
1220.221308,-7328.038826,2298.286494,1110.308913
1220.221620,-6809.894666,2834.553343,518.144159
1220.221931,-6809.894666,2911.162892,-0.000000
1220.222243,-7179.997637,1685.410096,-222.061783
1220.222554,-7550.100608,919.314598,-814.226536
1220.222866,-8290.306550,153.219100,-740.205942
1220.223177,-9474.636058,-612.876398,-518.144159
1220.223489,-10807.006753,-1378.971896,-148.041188
1220.223800,-11325.150913,-1532.190996,444.123565
1220.224111,-11473.192101,-2298.286494,592.164754
1220.224423,-10510.924376,-1762.019645,962.267725
1220.224734,-9844.739029,-1302.362347,1036.288319
1220.225046,-9844.739029,-229.828649,962.267725
1220.225357,-9252.574275,612.876398,370.102971
1220.225669,-8882.471304,1915.238745,888.247130
1220.225980,-8586.388927,2298.286494,592.164754
1220.226292,-8068.244768,2145.067394,148.041188
1220.226603,-8586.388927,1532.190996,-666.185348
1220.226914,-7698.141797,1455.581446,-0.000000
1220.227226,-8660.409521,229.828649,-370.102971
1220.227537,-9474.636058,-1455.581446,-444.123565
1220.227849,-10584.944971,-2145.067394,-0.000000
1220.228160,-10732.986159,-2451.505594,1036.288319
1220.228472,-10510.924376,-2374.896044,1332.370696
1220.228783,-10288.862594,-2451.505594,1628.453072
1220.229095,-9252.574275,-1685.410096,1628.453072
1220.229406,-9030.512492,-995.924147,1406.391290
1220.229718,-7772.162391,76.609550,1480.411884
1220.230029,-6809.894666,1072.533697,814.226536
1220.230340,-6957.935855,1762.019645,296.082377
1220.230652,-6661.853478,1991.848295,-0.000000
1220.230963,-6439.791695,1225.752797,-0.000000
1220.231275,-6661.853478,766.095498,-518.144159
1220.231586,-7179.997637,0.000000,-592.164754
1220.231898,-8438.347739,-842.705048,-148.041188
1220.232209,-9622.677246,-1685.410096,222.061783
1220.232521,-10807.006753,-1685.410096,370.102971
1220.232832,-11547.212695,-1838.629195,888.247130
1220.233144,-11251.130318,-1762.019645,1110.308913
1220.233455,-10658.965565,-1455.581446,1406.391290
1220.233766,-9844.739029,-766.095498,1110.308913
1220.234078,-9104.533087,0.000000,1258.350101
1220.234389,-8216.285956,919.314598,1036.288319
1220.234701,-8068.244768,2068.457845,666.185348
1220.235012,-7994.224174,2451.505594,962.267725
1220.235324,-7772.162391,2221.676944,518.144159
1220.235635,-7698.141797,1685.410096,-0.000000
1220.235947,-8216.285956,1072.533697,-222.061783
1220.236258,-8438.347739,536.266849,-296.082377
1220.236569,-9696.697840,0.000000,-296.082377
1220.236881,-10288.862594,-919.314598,296.082377
1220.237192,-10732.986159,-1378.971896,592.164754
1220.237504,-11103.089130,-2145.067394,1110.308913
1220.237815,-10658.965565,-2145.067394,1480.411884
1220.238127,-9474.636058,-1608.800546,1184.329507
1220.238438,-8808.450710,-1072.533697,962.267725
1220.238750,-7994.224174,-153.219100,962.267725
1220.239061,-7105.977043,1149.143247,666.185348
1220.239373,-7105.977043,1991.848295,-0.000000
1220.239684,-6587.832884,2987.772442,592.164754
1220.239995,-6587.832884,2145.067394,444.123565
1220.240307,-6883.915261,1455.581446,-0.000000
1220.240618,-7105.977043,1149.143247,-592.164754
1220.240930,-7994.224174,306.438199,-666.185348
1220.241241,-8808.450710,0.000000,-370.102971
1220.241553,-10362.883188,-1225.752797,-148.041188
1220.241864,-10955.047942,-1762.019645,-0.000000
1220.242176,-10881.027347,-2374.896044,1184.329507
1220.242487,-10732.986159,-2298.286494,1406.391290
1220.242798,-9844.739029,-1532.190996,1406.391290
1220.243110,-9104.533087,-612.876398,1258.350101
1220.243421,-9326.594869,153.219100,1036.288319
1220.243733,-8364.327145,1378.971896,962.267725
1220.244044,-7920.203579,2451.505594,444.123565
1220.244356,-8216.285956,2681.334243,518.144159
1220.244667,-8068.244768,1685.410096,666.185348
1220.244979,-8734.430116,766.095498,-148.041188
1220.245290,-8734.430116,459.657299,-148.041188
1220.245602,-9326.594869,-459.657299,-296.082377
1220.245913,-9918.759623,-1532.190996,-296.082377
1220.246224,-10584.944971,-2298.286494,370.102971
1220.246536,-10732.986159,-2298.286494,1924.535449
1220.246847,-11029.068536,-2604.724693,1406.391290
1220.247159,-10510.924376,-2221.676944,1776.494261
1220.247470,-9548.656652,-612.876398,1480.411884
1220.247782,-8512.368333,153.219100,1184.329507
1220.248093,-7624.121203,1225.752797,666.185348
1220.248405,-6957.935855,2451.505594,148.041188
1220.248716,-6809.894666,2911.162892,222.061783
1220.249028,-6587.832884,2221.676944,-0.000000
1220.249339,-6365.771101,1532.190996,-222.061783
1220.249650,-6661.853478,919.314598,-518.144159
1220.249962,-7698.141797,0.000000,-740.205942
1220.250273,-8660.409521,-612.876398,-370.102971
1220.250585,-9548.656652,-1149.143247,-0.000000
1220.250896,-10584.944971,-1455.581446,370.102971
1220.251208,-11103.089130,-2528.115143,1406.391290
1220.251519,-10881.027347,-1532.190996,1776.494261
1220.251831,-10732.986159,-1225.752797,1628.453072
1220.252142,-9400.615463,-689.485948,1702.473667
1220.252453,-8364.327145,383.047749,962.267725
1220.252765,-7994.224174,1608.800546,518.144159
1220.253076,-7698.141797,2221.676944,518.144159
1220.253388,-7846.182985,1915.238745,444.123565
1220.253699,-7920.203579,2451.505594,-0.000000
1220.254011,-8216.285956,1455.581446,-0.000000
1220.254322,-8216.285956,383.047749,-444.123565
1220.254634,-8586.388927,-459.657299,-518.144159
1220.254945,-9474.636058,-1378.971896,-148.041188
1220.255257,-10510.924376,-2068.457845,222.061783
1220.255568,-10881.027347,-2604.724693,1036.288319
1220.255879,-11473.192101,-2834.553343,1110.308913
1220.256191,-10214.842000,-2145.067394,1776.494261
1220.256502,-8734.430116,-1685.410096,1628.453072
1220.256814,-8438.347739,-536.266849,1110.308913
1220.257125,-7846.182985,459.657299,962.267725
1220.257437,-7179.997637,1685.410096,370.102971
1220.257748,-6809.894666,2451.505594,740.205942
1220.258060,-6365.771101,2451.505594,-0.000000
1220.258371,-7105.977043,1685.410096,-148.041188
1220.258682,-7772.162391,1532.190996,-888.247130
1220.258994,-7772.162391,229.828649,-888.247130
1220.259305,-9474.636058,0.000000,-814.226536
1220.259617,-10732.986159,-919.314598,-592.164754
1220.259928,-11473.192101,-1685.410096,296.082377
1220.260240,-11621.233289,-2221.676944,814.226536
1220.260551,-10807.006753,-2221.676944,1628.453072
1220.260863,-10214.842000,-2068.457845,1776.494261
1220.261174,-9104.533087,-1455.581446,1406.391290
1220.261486,-8586.388927,229.828649,1332.370696
1220.261797,-8364.327145,1532.190996,1036.288319
1220.262108,-7698.141797,2528.115143,518.144159
1220.262420,-7994.224174,3140.991542,-0.000000
1220.262731,-7846.182985,2681.334243,-0.000000
1220.263043,-8438.347739,1915.238745,-0.000000
1220.263354,-8956.491898,459.657299,-592.164754
1220.263666,-8882.471304,689.485948,-370.102971
1220.263977,-9548.656652,-919.314598,-74.020594
1220.264289,-10214.842000,-1532.190996,444.123565
1220.264600,-10658.965565,-1991.848295,1258.350101
1220.264912,-10288.862594,-2451.505594,1554.432478
1220.265223,-9696.697840,-2681.334243,2072.576638
1220.265534,-9252.574275,-995.924147,1850.514855
1220.265846,-7698.141797,-459.657299,1628.453072
1220.266157,-7105.977043,536.266849,1036.288319
1220.266469,-6735.874072,1532.190996,962.267725
1220.266780,-6365.771101,1838.629195,370.102971
1220.267092,-6069.688724,1838.629195,148.041188
1220.267403,-6513.812290,1455.581446,-0.000000
1220.267715,-7105.977043,306.438199,-0.000000
1220.268026,-7624.121203,-229.828649,-0.000000
1220.268337,-9474.636058,-1072.533697,-370.102971
1220.268649,-10140.821405,-1608.800546,370.102971
1220.268960,-10732.986159,-1915.238745,222.061783
1220.269272,-11547.212695,-1991.848295,666.185348
1220.269583,-10732.986159,-2145.067394,1036.288319
1220.269895,-10140.821405,-2068.457845,1110.308913
1220.270206,-9474.636058,-1685.410096,1480.411884
1220.270518,-9030.512492,0.000000,740.205942
1220.270829,-8216.285956,612.876398,814.226536
1220.271141,-8216.285956,1149.143247,592.164754
1220.271452,-8216.285956,1378.971896,444.123565
1220.271763,-8068.244768,1608.800546,296.082377
1220.272075,-7920.203579,1225.752797,148.041188
1220.272386,-8438.347739,459.657299,-74.020594
1220.272698,-9030.512492,-153.219100,-370.102971
1220.273009,-9992.780217,-1149.143247,-0.000000
1220.273321,-10510.924376,-2068.457845,222.061783
1220.273632,-11325.150913,-2145.067394,740.205942
1220.273944,-11695.253884,-2451.505594,1110.308913
1220.274255,-11103.089130,-2298.286494,1480.411884
1220.274566,-9770.718434,-2068.457845,1480.411884
1220.274878,-8660.409521,-766.095498,1480.411884
1220.275189,-8438.347739,459.657299,888.247130
1220.275501,-7698.141797,1915.238745,1184.329507
1220.275812,-6439.791695,3447.429741,518.144159
1220.276124,-5921.647536,3140.991542,-0.000000
1220.276435,-5995.668130,2834.553343,-296.082377
1220.276747,-6735.874072,1532.190996,-666.185348
1220.277058,-7105.977043,1149.143247,-740.205942
1220.277370,-7624.121203,153.219100,-592.164754
1220.277681,-9178.553681,-842.705048,-814.226536
1220.277992,-10436.903782,-1762.019645,296.082377
1220.278304,-11029.068536,-1532.190996,740.205942
1220.278615,-10658.965565,-2834.553343,1332.370696
1220.278927,-10881.027347,-2221.676944,1702.473667
1220.279238,-9992.780217,-1072.533697,1480.411884
1220.279550,-9030.512492,153.219100,1258.350101
1220.279861,-8660.409521,1685.410096,1406.391290
1220.280173,-7254.018232,1915.238745,962.267725
1220.280484,-6809.894666,2451.505594,-0.000000
1220.280796,-6809.894666,1608.800546,-222.061783
1220.281107,-7624.121203,1455.581446,-0.000000
1220.281418,-7846.182985,766.095498,-296.082377
1220.281730,-8734.430116,0.000000,-0.000000
1220.282041,-9622.677246,-1225.752797,-0.000000
1220.282353,-10288.862594,-1685.410096,-222.061783
1220.282664,-10807.006753,-2451.505594,444.123565
1220.282976,-10955.047942,-2068.457845,592.164754
1220.283287,-10732.986159,-2757.943793,1480.411884
1220.283599,-10288.862594,-2221.676944,1406.391290
1220.283910,-9474.636058,-919.314598,1332.370696
1220.284221,-8364.327145,229.828649,666.185348
1220.284533,-7624.121203,1378.971896,518.144159
1220.284844,-7328.038826,2068.457845,-0.000000
1220.285156,-6883.915261,1838.629195,-0.000000
1220.285467,-7031.956449,1685.410096,-74.020594
1220.285779,-7402.059420,995.924147,-0.000000
1220.286090,-7550.100608,0.000000,-0.000000
1220.286402,-8660.409521,-1225.752797,-444.123565
1220.286713,-9548.656652,-1532.190996,-74.020594
1220.287025,-10584.944971,-1455.581446,74.020594
1220.287336,-11251.130318,-2221.676944,370.102971
1220.287647,-11843.295072,-2451.505594,1036.288319
1220.287959,-11325.150913,-2145.067394,1184.329507
1220.288270,-10140.821405,-1455.581446,1554.432478
1220.288582,-9252.574275,0.000000,1184.329507
1220.288893,-8290.306550,1302.362347,666.185348
1220.289205,-7698.141797,2298.286494,666.185348
1220.289516,-7105.977043,2528.115143,444.123565
1220.289828,-7105.977043,1915.238745,444.123565
1220.290139,-8068.244768,1685.410096,148.041188
1220.290450,-8290.306550,1838.629195,592.164754
1220.290762,-8438.347739,459.657299,-148.041188
1220.291073,-8956.491898,-536.266849,-222.061783
1220.291385,-10066.800811,-1302.362347,-0.000000
1220.291696,-10436.903782,-1762.019645,740.205942
1220.292008,-10362.883188,-2068.457845,888.247130
1220.292319,-10436.903782,-1608.800546,1480.411884
1220.292631,-9400.615463,-1378.971896,1258.350101
1220.292942,-8364.327145,-536.266849,1480.411884
1220.293254,-7920.203579,306.438199,1406.391290
1220.293565,-7624.121203,1455.581446,814.226536
1220.293876,-7105.977043,2604.724693,666.185348
1220.294188,-6883.915261,3064.381992,370.102971
1220.294499,-6217.729913,3217.601092,-0.000000
1220.294811,-7254.018232,1685.410096,-74.020594
1220.295122,-7179.997637,919.314598,-370.102971
1220.295434,-7328.038826,306.438199,-962.267725
1220.295745,-8660.409521,-383.047749,-666.185348
1220.296057,-10066.800811,-995.924147,-74.020594
1220.296368,-11251.130318,-1762.019645,296.082377
1220.296680,-11399.171507,-2374.896044,1110.308913
1220.296991,-11029.068536,-2068.457845,1998.556043
1220.297302,-9844.739029,-919.314598,1776.494261
1220.297614,-9696.697840,-459.657299,1332.370696
1220.297925,-8808.450710,612.876398,1036.288319
1220.298237,-8290.306550,1532.190996,740.205942
1220.298548,-7772.162391,2451.505594,222.061783
1220.298860,-7624.121203,2681.334243,-0.000000
1220.299171,-7920.203579,1838.629195,-0.000000
1220.299483,-8882.471304,459.657299,-592.164754
1220.299794,-8882.471304,0.000000,-222.061783
1220.300105,-9400.615463,-306.438199,-296.082377
1220.300417,-10362.883188,-1225.752797,-74.020594
1220.300728,-10955.047942,-2068.457845,518.144159
1220.301040,-10732.986159,-2911.162892,1480.411884
1220.301351,-10288.862594,-3370.820191,1998.556043
1220.301663,-9844.739029,-2834.553343,1924.535449
1220.301974,-8956.491898,-2145.067394,1628.453072
1220.302286,-7476.080014,-766.095498,1110.308913
1220.302597,-7772.162391,842.705048,666.185348
1220.302909,-7031.956449,1532.190996,370.102971
1220.303220,-6883.915261,2374.896044,74.020594
1220.303531,-6809.894666,2374.896044,-0.000000
1220.303843,-6957.935855,1838.629195,-296.082377
1220.304154,-6883.915261,919.314598,-518.144159
1220.304466,-8216.285956,229.828649,-962.267725
1220.304777,-8808.450710,-766.095498,-888.247130
1220.305089,-9622.677246,-919.314598,-370.102971
1220.305400,-10732.986159,-1762.019645,148.041188
1220.305712,-11029.068536,-1685.410096,666.185348
1220.306023,-10955.047942,-1762.019645,1332.370696
1220.306334,-10807.006753,-1455.581446,1406.391290
1220.306646,-9474.636058,-229.828649,1628.453072
1220.306957,-8882.471304,459.657299,1036.288319
1220.307269,-8142.265362,1302.362347,592.164754
1220.307580,-7624.121203,2374.896044,-148.041188
1220.307892,-7105.977043,2757.943793,148.041188
1220.308203,-7476.080014,2374.896044,-0.000000
1220.308515,-8364.327145,1378.971896,148.041188
1220.308826,-9030.512492,689.485948,222.061783
1220.309138,-9622.677246,0.000000,296.082377
1220.309449,-10436.903782,0.000000,222.061783
1220.309760,-11695.253884,-995.924147,-148.041188
1220.310072,-11695.253884,-1915.238745,962.267725
1220.310383,-10807.006753,-2451.505594,1184.329507
1220.310695,-9844.739029,-1915.238745,1776.494261
1220.311006,-8660.409521,-919.314598,1702.473667
1220.311318,-7624.121203,-229.828649,1850.514855
1220.311629,-6587.832884,1072.533697,1702.473667
1220.311941,-6291.750507,1762.019645,666.185348
1220.312252,-5847.626942,2987.772442,666.185348
1220.312564,-6217.729913,2911.162892,444.123565
1220.312875,-7179.997637,2221.676944,-0.000000
1220.313186,-7698.141797,1302.362347,-74.020594
1220.313498,-7920.203579,689.485948,-518.144159
1220.313809,-8512.368333,0.000000,-592.164754
1220.314121,-9696.697840,-1915.238745,-74.020594
1220.314432,-10510.924376,-2068.457845,444.123565
1220.314744,-11473.192101,-2451.505594,962.267725
1220.315055,-11029.068536,-2681.334243,1628.453072
1220.315367,-10732.986159,-2374.896044,1924.535449
1220.315678,-9992.780217,-1532.190996,1924.535449
1220.315990,-9178.553681,-536.266849,1406.391290
1220.316302,-8734.430116,842.705048,518.144159
1220.316613,-7402.059420,1762.019645,296.082377
1220.316925,-7994.224174,2987.772442,-0.000000
1220.317236,-7846.182985,2145.067394,-74.020594
1220.317548,-8216.285956,459.657299,-0.000000
1220.317859,-8734.430116,229.828649,-0.000000
1220.318171,-8882.471304,229.828649,-74.020594
1220.318482,-9770.718434,-383.047749,-148.041188
1220.318794,-10362.883188,-1608.800546,-0.000000
1220.319105,-10658.965565,-2145.067394,296.082377
1220.319417,-10881.027347,-2604.724693,592.164754
1220.319728,-10140.821405,-2068.457845,1036.288319
1220.320040,-9770.718434,-1455.581446,888.247130
1220.320351,-9400.615463,-689.485948,1184.329507
1220.320663,-8290.306550,76.609550,962.267725
1220.320974,-7328.038826,1455.581446,962.267725
1220.321286,-6883.915261,1685.410096,666.185348
1220.321597,-6735.874072,2374.896044,370.102971
1220.321909,-6291.750507,1608.800546,-222.061783
1220.322220,-6661.853478,536.266849,-222.061783
1220.322532,-6735.874072,0.000000,-370.102971
1220.322844,-7994.224174,-306.438199,-888.247130
1220.323155,-9252.574275,-536.266849,-444.123565
1220.323467,-10732.986159,-1149.143247,-222.061783
1220.323778,-11547.212695,-1608.800546,518.144159
1220.324090,-11399.171507,-1532.190996,962.267725
1220.324401,-11029.068536,-1991.848295,1850.514855
1220.324713,-10214.842000,-1378.971896,1406.391290
1220.325024,-9400.615463,-229.828649,1332.370696
1220.325336,-8586.388927,1149.143247,814.226536
1220.325647,-7920.203579,2068.457845,740.205942
1220.325959,-6957.935855,2221.676944,962.267725
1220.326270,-7328.038826,1762.019645,296.082377
1220.326582,-6661.853478,1378.971896,-0.000000
1220.326893,-7328.038826,766.095498,-222.061783
1220.327205,-9104.533087,-306.438199,-148.041188
1220.327516,-9696.697840,-536.266849,-370.102971
1220.327828,-10288.862594,-689.485948,-0.000000
1220.328139,-11177.109724,-1991.848295,740.205942
1220.328451,-11029.068536,-2451.505594,1110.308913
1220.328763,-10955.047942,-2451.505594,1480.411884
1220.329074,-9400.615463,-1455.581446,2146.597232
1220.329386,-8586.388927,-1072.533697,2072.576638
1220.329697,-8438.347739,-229.828649,1480.411884
1220.330009,-7328.038826,1302.362347,1184.329507
1220.330320,-6809.894666,1991.848295,592.164754
1220.330632,-6291.750507,2145.067394,222.061783
1220.330943,-6661.853478,2145.067394,-222.061783
1220.331255,-7031.956449,1455.581446,-518.144159
1220.331566,-7179.997637,0.000000,-666.185348
1220.331878,-7920.203579,-1072.533697,-518.144159
1220.332189,-9474.636058,-1302.362347,-148.041188
1220.332501,-10658.965565,-1608.800546,-0.000000
1220.332812,-11325.150913,-2221.676944,666.185348
1220.333124,-11547.212695,-2451.505594,1406.391290
1220.333435,-10807.006753,-1838.629195,1480.411884
1220.333747,-9548.656652,-1532.190996,1702.473667
1220.334058,-9474.636058,-766.095498,1258.350101
1220.334370,-8586.388927,383.047749,1110.308913
1220.334681,-8068.244768,1915.238745,296.082377
1220.334993,-7698.141797,2451.505594,-0.000000
1220.335305,-8142.265362,2221.676944,-296.082377
1220.335616,-8438.347739,1838.629195,-0.000000
1220.335928,-8142.265362,995.924147,-74.020594
1220.336239,-9104.533087,0.000000,-74.020594
1220.336551,-9548.656652,-995.924147,-74.020594
1220.336862,-10436.903782,-1302.362347,296.082377
1220.337174,-10807.006753,-2221.676944,592.164754
1220.337485,-10658.965565,-2298.286494,740.205942
1220.337797,-10658.965565,-2374.896044,518.144159
1220.338108,-10214.842000,-1302.362347,518.144159
1220.338420,-9030.512492,-459.657299,740.205942
1220.338731,-8438.347739,766.095498,296.082377
1220.339043,-7328.038826,1838.629195,296.082377
1220.339354,-7031.956449,2374.896044,-0.000000
1220.339666,-6217.729913,2221.676944,-0.000000
1220.339977,-6069.688724,1915.238745,-222.061783
1220.340289,-6661.853478,1302.362347,148.041188
1220.340600,-6957.935855,459.657299,-222.061783
1220.340912,-8216.285956,-153.219100,-592.164754
1220.341224,-9474.636058,-536.266849,-296.082377
1220.341535,-10288.862594,-842.705048,-222.061783
1220.341847,-11251.130318,-1915.238745,518.144159
1220.342158,-11399.171507,-2681.334243,1258.350101
1220.342470,-11103.089130,-2221.676944,2072.576638
1220.342781,-10066.800811,-1455.581446,1850.514855
1220.343093,-9474.636058,-919.314598,2294.638420
1220.343404,-8142.265362,0.000000,1702.473667
1220.343716,-7550.100608,1302.362347,814.226536
1220.344027,-7105.977043,2298.286494,666.185348
1220.344339,-7105.977043,2451.505594,148.041188
1220.344650,-7994.224174,2451.505594,-0.000000
1220.344962,-8216.285956,1838.629195,-0.000000
1220.345273,-8882.471304,1608.800546,-0.000000
1220.345585,-9104.533087,-76.609550,-0.000000
1220.345896,-9844.739029,-919.314598,592.164754
1220.346208,-10807.006753,-1225.752797,592.164754
1220.346519,-10732.986159,-1991.848295,1184.329507
1220.346831,-10584.944971,-2451.505594,2072.576638
1220.347142,-9696.697840,-2298.286494,2220.617826
1220.347454,-8660.409521,-1608.800546,2368.659014
1220.347766,-8068.244768,-919.314598,2294.638420
1220.348077,-7846.182985,76.609550,1258.350101
1220.348389,-7698.141797,1838.629195,888.247130
1220.348700,-6809.894666,2757.943793,296.082377
1220.349012,-6809.894666,2374.896044,-296.082377
1220.349323,-7105.977043,1455.581446,-666.185348
1220.349635,-7402.059420,766.095498,-518.144159
1220.349946,-7920.203579,0.000000,-962.267725
1220.350258,-8586.388927,-1378.971896,-296.082377
1220.350569,-9844.739029,-1302.362347,148.041188
1220.350881,-10881.027347,-995.924147,592.164754
1220.351192,-10881.027347,-1532.190996,1184.329507
1220.351504,-10362.883188,-2068.457845,1184.329507
1220.351815,-9474.636058,-1149.143247,1332.370696
1220.352127,-8734.430116,-689.485948,740.205942
1220.352438,-8290.306550,612.876398,370.102971
1220.352750,-8142.265362,1302.362347,370.102971
1220.353061,-8734.430116,1225.752797,-0.000000
1220.353373,-8586.388927,2068.457845,222.061783
1220.353685,-8660.409521,1685.410096,-0.000000
1220.353996,-9104.533087,919.314598,-74.020594
1220.354308,-9178.553681,76.609550,-592.164754
1220.354619,-9178.553681,-383.047749,-296.082377
1220.354931,-9770.718434,-612.876398,-222.061783
1220.355242,-10288.862594,-1685.410096,-0.000000
1220.355554,-10658.965565,-2451.505594,444.123565
1220.355865,-10584.944971,-1991.848295,444.123565
1220.356177,-9918.759623,-1685.410096,740.205942
1220.356488,-8364.327145,-1149.143247,1036.288319
1220.356800,-8142.265362,-766.095498,1110.308913
1220.357111,-7920.203579,0.000000,888.247130
1220.357423,-7476.080014,919.314598,296.082377
1220.357734,-7179.997637,1762.019645,444.123565
1220.358046,-6883.915261,1532.190996,592.164754
1220.358357,-7402.059420,306.438199,296.082377
1220.358669,-7994.224174,76.609550,222.061783
1220.358980,-8438.347739,0.000000,-148.041188
1220.359292,-9400.615463,0.000000,-222.061783
1220.359603,-9548.656652,-383.047749,-74.020594
1220.359915,-10214.842000,-1072.533697,-518.144159
1220.360227,-10658.965565,-1608.800546,370.102971
1220.360538,-10140.821405,-1608.800546,962.267725
1220.360850,-10288.862594,-766.095498,1184.329507
1220.361161,-9548.656652,-536.266849,2146.597232
1220.361473,-9326.594869,-306.438199,1924.535449
1220.361784,-8068.244768,612.876398,1628.453072
1220.362096,-7772.162391,2221.676944,814.226536
1220.362407,-7550.100608,2451.505594,518.144159
1220.362719,-7254.018232,2451.505594,370.102971
1220.363030,-8512.368333,1762.019645,-0.000000
1220.363342,-8808.450710,459.657299,-0.000000
1220.363653,-9030.512492,-229.828649,148.041188
1220.363965,-9474.636058,-536.266849,592.164754
1220.364276,-10362.883188,-1608.800546,814.226536
1220.364588,-11177.109724,-2145.067394,740.205942
1220.364899,-10658.965565,-1685.410096,1850.514855
1220.365211,-10510.924376,-1072.533697,1628.453072
1220.365522,-9252.574275,-766.095498,2072.576638
1220.365834,-8068.244768,-383.047749,2220.617826
1220.366146,-7550.100608,459.657299,1332.370696
1220.366457,-6365.771101,1455.581446,888.247130
1220.366769,-5921.647536,2145.067394,444.123565
1220.367080,-5847.626942,2145.067394,-74.020594
1220.367392,-6069.688724,1991.848295,-74.020594
1220.367703,-7105.977043,995.924147,-592.164754
1220.368015,-7550.100608,0.000000,-518.144159
1220.368326,-9178.553681,-306.438199,-518.144159
1220.368638,-9918.759623,-1302.362347,-296.082377
1220.368949,-10807.006753,-1685.410096,222.061783
1220.369261,-11399.171507,-1991.848295,592.164754
1220.369572,-11029.068536,-1838.629195,962.267725
1220.369884,-10807.006753,-919.314598,814.226536
1220.370195,-10288.862594,-306.438199,1258.350101
1220.370507,-9252.574275,-306.438199,1036.288319
1220.370818,-8882.471304,766.095498,666.185348
1220.371130,-8586.388927,1455.581446,296.082377
1220.371441,-8068.244768,1762.019645,-0.000000
1220.371753,-8216.285956,1608.800546,-222.061783
1220.372065,-8364.327145,1378.971896,-444.123565
1220.372376,-8586.388927,689.485948,-888.247130
1220.372688,-9030.512492,-306.438199,-740.205942
1220.372999,-9844.739029,-383.047749,-592.164754
1220.373311,-10214.842000,-1072.533697,-0.000000
1220.373622,-10436.903782,-1762.019645,370.102971
1220.373934,-10510.924376,-2681.334243,740.205942
1220.374245,-10436.903782,-2681.334243,1258.350101
1220.374557,-8734.430116,-2068.457845,1480.411884
1220.374868,-9326.594869,-1762.019645,1258.350101
1220.375180,-8660.409521,-536.266849,814.226536
1220.375491,-7994.224174,612.876398,222.061783
1220.375803,-7920.203579,1149.143247,740.205942
1220.376114,-6513.812290,1608.800546,740.205942
1220.376426,-6957.935855,536.266849,296.082377
1220.376737,-6587.832884,306.438199,370.102971
1220.377049,-6735.874072,766.095498,-222.061783
1220.377360,-8438.347739,536.266849,-148.041188
1220.377672,-8808.450710,153.219100,-0.000000
1220.377983,-9918.759623,-153.219100,-666.185348
1220.378295,-10807.006753,-842.705048,296.082377
1220.378607,-11177.109724,-995.924147,888.247130
1220.378918,-10955.047942,-1072.533697,1554.432478
1220.379230,-10214.842000,-306.438199,1110.308913
1220.379541,-9474.636058,-689.485948,1702.473667
1220.379853,-8290.306550,76.609550,1406.391290
1220.380164,-7476.080014,1915.238745,592.164754
1220.380476,-7105.977043,2374.896044,1332.370696
1220.380787,-7105.977043,2298.286494,740.205942
1220.381099,-7846.182985,1762.019645,592.164754
1220.381410,-8364.327145,1455.581446,370.102971
1220.381722,-8660.409521,842.705048,-0.000000
1220.382033,-9696.697840,76.609550,-222.061783
1220.382345,-10436.903782,-536.266849,-0.000000
1220.382656,-11103.089130,-995.924147,222.061783
1220.382968,-10955.047942,-2068.457845,962.267725
1220.383279,-10584.944971,-1915.238745,1998.556043
1220.383591,-9474.636058,-919.314598,1850.514855
1220.383902,-8660.409521,-306.438199,1998.556043
1220.384214,-7772.162391,-153.219100,1850.514855
1220.384526,-7105.977043,1378.971896,1110.308913
1220.384837,-6291.750507,2528.115143,370.102971
1220.385149,-6291.750507,2451.505594,222.061783
1220.385460,-6809.894666,2145.067394,-0.000000
1220.385772,-7179.997637,1302.362347,-296.082377
1220.386083,-7698.141797,383.047749,-296.082377
1220.386395,-8216.285956,-306.438199,-1036.288319
1220.386706,-8956.491898,-689.485948,-592.164754
1220.387018,-10066.800811,-1378.971896,-148.041188
1220.387329,-10955.047942,-2298.286494,518.144159
1220.387641,-11547.212695,-1685.410096,1184.329507
1220.387952,-11103.089130,-1608.800546,1702.473667
1220.388264,-10436.903782,-1149.143247,1776.494261
1220.388575,-9474.636058,-459.657299,1258.350101
1220.388887,-8512.368333,1225.752797,592.164754
1220.389198,-8512.368333,1149.143247,-0.000000
1220.389510,-8068.244768,1838.629195,-0.000000
1220.389821,-7772.162391,2451.505594,-666.185348
1220.390133,-8808.450710,1302.362347,-444.123565
1220.390444,-9400.615463,383.047749,-222.061783
1220.390756,-9548.656652,-229.828649,-296.082377
1220.391068,-9844.739029,-766.095498,-0.000000
1220.391379,-9696.697840,-1608.800546,222.061783
1220.391691,-9770.718434,-2221.676944,444.123565
1220.392002,-9992.780217,-2528.115143,666.185348
1220.392314,-9918.759623,-2757.943793,888.247130
1220.392625,-9548.656652,-1991.848295,962.267725
1220.392937,-9252.574275,-1149.143247,814.226536
1220.393248,-9252.574275,-536.266849,1332.370696
1220.393560,-8512.368333,229.828649,1110.308913
1220.393871,-7846.182985,1302.362347,888.247130
1220.394183,-7105.977043,2068.457845,592.164754
1220.394494,-6661.853478,1608.800546,296.082377
1220.394806,-6587.832884,1072.533697,-0.000000
1220.395117,-7031.956449,612.876398,-0.000000
1220.395429,-7476.080014,306.438199,-518.144159
1220.395740,-8364.327145,153.219100,-370.102971
1220.396052,-9622.677246,-536.266849,-296.082377
1220.396363,-10436.903782,-459.657299,-0.000000
1220.396675,-10955.047942,-1302.362347,518.144159
1220.396987,-10881.027347,-1378.971896,1184.329507
1220.397298,-10214.842000,-1225.752797,1628.453072
1220.397610,-9622.677246,-306.438199,1850.514855
1220.397921,-9030.512492,0.000000,1554.432478
1220.398233,-8142.265362,536.266849,1258.350101
1220.398544,-7402.059420,1762.019645,962.267725
1220.398856,-7624.121203,2221.676944,148.041188
1220.399167,-8438.347739,2528.115143,-0.000000
1220.399479,-8882.471304,1378.971896,-296.082377
1220.399790,-9400.615463,306.438199,-222.061783
1220.400102,-9696.697840,0.000000,-74.020594
1220.400413,-10066.800811,-459.657299,222.061783
1220.400725,-10288.862594,-1455.581446,222.061783
1220.401036,-10066.800811,-1991.848295,1110.308913
1220.401348,-9992.780217,-2298.286494,1480.411884
1220.401659,-9474.636058,-2145.067394,1850.514855
1220.401971,-8882.471304,-1302.362347,2220.617826
1220.402282,-8290.306550,-383.047749,1850.514855
1220.402594,-7920.203579,536.266849,1332.370696
1220.402905,-6957.935855,1532.190996,962.267725
1220.403217,-6661.853478,2451.505594,222.061783
1220.403529,-6735.874072,2528.115143,-370.102971
1220.403840,-6735.874072,1608.800546,-370.102971
1220.404152,-7254.018232,612.876398,-962.267725
1220.404463,-8216.285956,-612.876398,-740.205942
1220.404775,-9178.553681,-919.314598,-296.082377
1220.405086,-10214.842000,-842.705048,-74.020594
1220.405398,-11177.109724,-1378.971896,370.102971
1220.405709,-11251.130318,-766.095498,740.205942
1220.406021,-11029.068536,-2145.067394,1332.370696
1220.406332,-10066.800811,-1455.581446,1406.391290
1220.406644,-8956.491898,-919.314598,1110.308913
1220.406955,-9104.533087,153.219100,814.226536
1220.407267,-8734.430116,766.095498,296.082377
1220.407578,-8364.327145,1762.019645,-74.020594
1220.407890,-8142.265362,1762.019645,-0.000000
1220.408201,-8364.327145,1455.581446,148.041188
1220.408513,-8808.450710,153.219100,-518.144159
1220.408824,-8808.450710,-306.438199,-74.020594
1220.409136,-9400.615463,-612.876398,-74.020594
1220.409448,-9474.636058,-612.876398,-0.000000
1220.409759,-10140.821405,-1225.752797,592.164754
1220.410071,-10510.924376,-1838.629195,740.205942
1220.410382,-10510.924376,-2298.286494,1036.288319
1220.410694,-9622.677246,-1608.800546,1184.329507
1220.411005,-8586.388927,-995.924147,1332.370696
1220.411317,-8438.347739,-612.876398,1110.308913
1220.411628,-8216.285956,-229.828649,1258.350101
1220.411940,-7402.059420,842.705048,666.185348
1220.412251,-7031.956449,1685.410096,666.185348
1220.412563,-6809.894666,2145.067394,592.164754
1220.412874,-7179.997637,1225.752797,-0.000000
1220.413186,-7328.038826,229.828649,-0.000000
1220.413497,-6661.853478,153.219100,-0.000000
1220.413809,-7994.224174,-229.828649,-888.247130
1220.414120,-9030.512492,-229.828649,-370.102971
1220.414432,-10362.883188,-536.266849,-222.061783
1220.414743,-11103.089130,-1378.971896,296.082377
1220.415055,-11177.109724,-1762.019645,962.267725
1220.415366,-10955.047942,-1991.848295,1406.391290
1220.415678,-10066.800811,-1225.752797,1332.370696
1220.415990,-9252.574275,-1149.143247,1406.391290
1220.416301,-8882.471304,-536.266849,1036.288319
1220.416613,-7920.203579,612.876398,888.247130
1220.416924,-8216.285956,1532.190996,1036.288319
1220.417235,-8068.244768,1455.581446,592.164754
1220.417547,-8364.327145,995.924147,370.102971
1220.417858,-8216.285956,536.266849,222.061783
1220.418169,-9030.512492,306.438199,-370.102971
1220.418481,-9474.636058,-459.657299,518.144159
1220.418792,-10436.903782,-995.924147,222.061783
1220.419104,-10658.965565,-1915.238745,518.144159
1220.419415,-10436.903782,-2374.896044,1258.350101
1220.419726,-10214.842000,-2221.676944,1554.432478
1220.420038,-9400.615463,-1762.019645,1554.432478
1220.420349,-8438.347739,-536.266849,1110.308913
1220.420660,-7550.100608,536.266849,740.205942
1220.420972,-7402.059420,1762.019645,370.102971
1220.421283,-7402.059420,2221.676944,222.061783
1220.421595,-7105.977043,2604.724693,370.102971
1220.421906,-7254.018232,2374.896044,-74.020594
1220.422217,-7550.100608,1072.533697,-370.102971
1220.422529,-7476.080014,612.876398,-592.164754
1220.422840,-7476.080014,-612.876398,-1258.350101
1220.423152,-8364.327145,-383.047749,-1258.350101
1220.423463,-10510.924376,-1225.752797,-518.144159
1220.423774,-11325.150913,-1532.190996,296.082377
1220.424086,-11769.274478,-1149.143247,1406.391290
1220.424397,-11473.192101,-1378.971896,1850.514855
1220.424708,-10436.903782,-842.705048,1998.556043
1220.425020,-9474.636058,76.609550,1332.370696
1220.425331,-8216.285956,1225.752797,962.267725
1220.425643,-7624.121203,2451.505594,296.082377
1220.425954,-7328.038826,2451.505594,-518.144159
1220.426265,-7550.100608,2451.505594,-518.144159
1220.426577,-8364.327145,1455.581446,-74.020594
1220.426888,-8956.491898,689.485948,-0.000000
1220.427199,-9178.553681,153.219100,-0.000000
1220.427511,-9326.594869,-153.219100,-148.041188
1220.427822,-9770.718434,-1225.752797,444.123565
1220.428134,-10436.903782,-1685.410096,444.123565
1220.428445,-10288.862594,-1762.019645,888.247130
1220.428756,-10140.821405,-1991.848295,962.267725
1220.429068,-9400.615463,-1685.410096,1332.370696
1220.429379,-8808.450710,-1149.143247,1554.432478
1220.429690,-8364.327145,-306.438199,1258.350101
1220.430002,-7402.059420,306.438199,1110.308913
1220.430313,-7105.977043,1149.143247,296.082377
1220.430625,-6439.791695,1991.848295,518.144159
1220.430936,-6365.771101,1225.752797,518.144159
1220.431247,-7179.997637,612.876398,-74.020594
1220.431559,-7179.997637,153.219100,-0.000000
1220.431870,-7994.224174,-383.047749,-148.041188
1220.432181,-9030.512492,-612.876398,-74.020594
1220.432493,-9992.780217,-1532.190996,-296.082377
1220.432804,-11029.068536,-1608.800546,-0.000000
1220.433116,-11251.130318,-1149.143247,888.247130
1220.433427,-10881.027347,-1762.019645,1184.329507
1220.433738,-10140.821405,-1225.752797,1480.411884
1220.434050,-9696.697840,-995.924147,1850.514855
1220.434361,-8660.409521,-612.876398,1628.453072
1220.434672,-7920.203579,766.095498,1110.308913
1220.434984,-7476.080014,1762.019645,666.185348
1220.435295,-7402.059420,2221.676944,518.144159
1220.435607,-8142.265362,1838.629195,-0.000000
1220.435918,-9474.636058,1149.143247,-148.041188
1220.436229,-9918.759623,995.924147,-74.020594
1220.436541,-10288.862594,842.705048,-296.082377
1220.436852,-10436.903782,383.047749,-0.000000
1220.437163,-10140.821405,-689.485948,370.102971
1220.437475,-9770.718434,-1608.800546,814.226536
1220.437786,-8882.471304,-2145.067394,1554.432478
1220.438098,-9104.533087,-1378.971896,1258.350101
1220.438409,-8956.491898,-766.095498,1702.473667
1220.438720,-8364.327145,76.609550,1702.473667
1220.439032,-7698.141797,919.314598,1332.370696
1220.439343,-7550.100608,1991.848295,962.267725
1220.439654,-6883.915261,2834.553343,592.164754
1220.439966,-6957.935855,2451.505594,-296.082377
1220.440277,-6365.771101,1455.581446,-370.102971
1220.440589,-6661.853478,689.485948,-1036.288319
1220.440900,-7105.977043,0.000000,-814.226536
1220.441211,-8364.327145,-766.095498,-592.164754
1220.441523,-9622.677246,-1302.362347,-0.000000
1220.441834,-10658.965565,-1455.581446,592.164754
1220.442146,-11029.068536,-1455.581446,1258.350101
1220.442457,-11029.068536,-919.314598,1850.514855
1220.442768,-10955.047942,-1225.752797,1776.494261
1220.443080,-10066.800811,-306.438199,1480.411884
1220.443391,-9326.594869,229.828649,740.205942
1220.443702,-8142.265362,1455.581446,-0.000000
1220.444014,-7920.203579,2298.286494,-222.061783
1220.444325,-7624.121203,2221.676944,-0.000000
1220.444637,-7698.141797,1225.752797,-0.000000
1220.444948,-8438.347739,306.438199,370.102971
1220.445259,-8364.327145,-229.828649,370.102971
1220.445571,-9474.636058,-536.266849,148.041188
1220.445882,-9770.718434,-766.095498,370.102971
1220.446193,-10288.862594,-1915.238745,666.185348
1220.446505,-10732.986159,-2298.286494,888.247130
1220.446816,-10510.924376,-2451.505594,1036.288319
1220.447128,-9844.739029,-1991.848295,1480.411884
1220.447439,-9252.574275,-1149.143247,1036.288319
1220.447750,-9326.594869,-995.924147,1184.329507
1220.448062,-7846.182985,-459.657299,1332.370696
1220.448373,-7254.018232,612.876398,888.247130
1220.448684,-6587.832884,1455.581446,592.164754
1220.448996,-6513.812290,1762.019645,222.061783
1220.449307,-6735.874072,2068.457845,-296.082377
1220.449619,-7031.956449,1455.581446,-222.061783
1220.449930,-7476.080014,-229.828649,-370.102971
1220.450241,-8438.347739,153.219100,-518.144159
1220.450553,-9696.697840,-536.266849,-0.000000
1220.450864,-10807.006753,-1608.800546,-0.000000
1220.451175,-11325.150913,-1991.848295,888.247130
1220.451487,-11029.068536,-1838.629195,1406.391290
1220.451798,-10362.883188,-1378.971896,1332.370696
1220.452110,-9770.718434,-1991.848295,1776.494261
1220.452421,-9400.615463,-229.828649,1258.350101
1220.452732,-8216.285956,1225.752797,518.144159
1220.453044,-7920.203579,1915.238745,296.082377
1220.453355,-7920.203579,2604.724693,444.123565
1220.453666,-8142.265362,2145.067394,518.144159
1220.453978,-8882.471304,1378.971896,222.061783
1220.454289,-9474.636058,1225.752797,-0.000000
1220.454601,-9252.574275,459.657299,222.061783
1220.454912,-9474.636058,383.047749,-74.020594
1220.455223,-9474.636058,-1455.581446,296.082377
1220.455535,-9770.718434,-2068.457845,666.185348
1220.455846,-9696.697840,-2221.676944,1258.350101
1220.456157,-9474.636058,-1915.238745,1850.514855
1220.456469,-9326.594869,-1838.629195,1480.411884
1220.456780,-8586.388927,0.000000,1480.411884
1220.457092,-7402.059420,229.828649,1036.288319
1220.457403,-6661.853478,1225.752797,666.185348
1220.457714,-6809.894666,1991.848295,518.144159
1220.458026,-6735.874072,2145.067394,222.061783
1220.458337,-7179.997637,1302.362347,148.041188
1220.458648,-7550.100608,612.876398,-0.000000
1220.458960,-7772.162391,-536.266849,-296.082377
1220.459271,-8808.450710,-536.266849,-740.205942
1220.459583,-9178.553681,-1072.533697,-296.082377
1220.459894,-9918.759623,-1225.752797,-296.082377
1220.460205,-11177.109724,-1378.971896,592.164754
1220.460517,-11621.233289,-1225.752797,1110.308913
1220.460828,-11103.089130,-1378.971896,1406.391290
1220.461139,-9622.677246,-842.705048,1554.432478
1220.461451,-9030.512492,-153.219100,962.267725
1220.461762,-8142.265362,383.047749,518.144159
1220.462074,-8068.244768,1149.143247,-0.000000
1220.462385,-7920.203579,1532.190996,-518.144159
1220.462696,-7994.224174,1149.143247,148.041188
1220.463008,-9326.594869,229.828649,296.082377
1220.463319,-9770.718434,-536.266849,-0.000000
1220.463631,-9696.697840,-1149.143247,-0.000000
1220.463942,-9474.636058,-1225.752797,-148.041188
1220.464253,-10214.842000,-1378.971896,-74.020594
1220.464565,-10732.986159,-1915.238745,-0.000000
1220.464876,-10436.903782,-2068.457845,296.082377
1220.465187,-9992.780217,-2298.286494,1184.329507
1220.465499,-9178.553681,-1685.410096,1406.391290
1220.465810,-9030.512492,-1302.362347,1110.308913
1220.466122,-8734.430116,-536.266849,814.226536
1220.466433,-7105.977043,1149.143247,592.164754
1220.466744,-6365.771101,2681.334243,-0.000000
1220.467056,-6513.812290,2374.896044,-0.000000
1220.467367,-7031.956449,1302.362347,-0.000000
1220.467678,-7476.080014,995.924147,-296.082377
1220.467990,-7402.059420,842.705048,-370.102971
1220.468301,-8660.409521,383.047749,-518.144159
1220.468613,-9474.636058,-229.828649,-518.144159
1220.468924,-10584.944971,-919.314598,-222.061783
1220.469235,-10584.944971,-1225.752797,444.123565
1220.469547,-10510.924376,-1455.581446,814.226536
1220.469858,-10955.047942,-1608.800546,1184.329507
1220.470169,-10955.047942,-919.314598,1554.432478
1220.470481,-10140.821405,-536.266849,1628.453072
1220.470792,-8882.471304,459.657299,1110.308913
1220.471104,-7920.203579,2374.896044,666.185348
1220.471415,-7254.018232,2374.896044,370.102971
1220.471726,-8142.265362,1838.629195,-296.082377
1220.472038,-7846.182985,1532.190996,-74.020594
1220.472349,-8290.306550,1532.190996,222.061783
1220.472660,-9030.512492,689.485948,-0.000000
1220.472972,-9622.677246,0.000000,296.082377
1220.473283,-10066.800811,-1072.533697,592.164754
1220.473595,-10066.800811,-1685.410096,370.102971
1220.473906,-9252.574275,-1302.362347,1184.329507
1220.474217,-9252.574275,-2068.457845,1998.556043
1220.474529,-9326.594869,-2145.067394,1850.514855
1220.474840,-9252.574275,-1838.629195,2220.617826
1220.475151,-7994.224174,-153.219100,2072.576638
1220.475463,-7624.121203,1072.533697,1480.411884
1220.475774,-7105.977043,1685.410096,1258.350101
1220.476086,-6513.812290,1455.581446,444.123565
1220.476397,-6587.832884,1302.362347,222.061783
1220.476708,-6439.791695,1378.971896,-0.000000
1220.477020,-6883.915261,842.705048,296.082377
1220.477331,-7994.224174,0.000000,-518.144159
1220.477642,-8808.450710,-689.485948,148.041188
1220.477954,-9844.739029,-1532.190996,-0.000000
1220.478265,-11103.089130,-689.485948,518.144159
1220.478577,-11843.295072,-689.485948,1332.370696
1220.478888,-12065.356855,-153.219100,1776.494261
1220.479199,-11473.192101,-1225.752797,1406.391290
1220.479511,-10140.821405,-153.219100,1332.370696
1220.479822,-9030.512492,919.314598,518.144159
1220.480133,-7698.141797,1532.190996,-0.000000
1220.480445,-7476.080014,1762.019645,-296.082377
1220.480756,-7105.977043,1455.581446,-148.041188
1220.481068,-7920.203579,919.314598,-370.102971
1220.481379,-9548.656652,612.876398,-370.102971
1220.481690,-9918.759623,76.609550,-0.000000
1220.482002,-10362.883188,-536.266849,-222.061783
1220.482313,-10732.986159,-1072.533697,-74.020594
1220.482625,-10436.903782,-1455.581446,-0.000000
1220.482936,-10510.924376,-1685.410096,222.061783
1220.483247,-9992.780217,-1608.800546,296.082377
1220.483559,-9918.759623,-1532.190996,148.041188
1220.483870,-8956.491898,-766.095498,-0.000000
1220.484181,-7846.182985,-229.828649,592.164754
1220.484493,-7328.038826,689.485948,222.061783
1220.484804,-6735.874072,1455.581446,-0.000000
1220.485116,-6809.894666,1378.971896,296.082377
1220.485427,-6735.874072,1302.362347,296.082377
1220.485738,-6883.915261,1072.533697,-592.164754
1220.486050,-7772.162391,536.266849,-666.185348
1220.486361,-7846.182985,383.047749,-518.144159
1220.486672,-8660.409521,-306.438199,-888.247130
1220.486984,-9548.656652,-612.876398,-444.123565
1220.487295,-11103.089130,-1378.971896,-0.000000
1220.487607,-11325.150913,-1915.238745,592.164754
1220.487918,-11103.089130,-2068.457845,1406.391290
1220.488229,-10584.944971,-1532.190996,1406.391290
1220.488541,-9918.759623,-1685.410096,1554.432478
1220.488852,-9104.533087,0.000000,1332.370696
1220.489163,-8216.285956,229.828649,1332.370696
1220.489475,-7920.203579,1532.190996,814.226536
1220.489786,-7920.203579,2374.896044,666.185348
1220.490098,-8364.327145,2298.286494,370.102971
1220.490409,-8586.388927,2145.067394,592.164754
1220.490720,-9030.512492,1149.143247,518.144159
1220.491032,-9548.656652,0.000000,-0.000000
1220.491343,-9770.718434,0.000000,296.082377
1220.491654,-10436.903782,-995.924147,592.164754
1220.491966,-10658.965565,-1608.800546,1110.308913
1220.492277,-10362.883188,-1762.019645,1332.370696
1220.492589,-9622.677246,-1149.143247,1776.494261
1220.492900,-9400.615463,-536.266849,1776.494261
1220.493211,-8660.409521,0.000000,1554.432478
1220.493523,-7846.182985,612.876398,1480.411884
1220.493834,-6957.935855,1838.629195,1628.453072
1220.494145,-6069.688724,2451.505594,1184.329507
1220.494457,-5921.647536,1991.848295,740.205942
1220.494768,-6217.729913,1455.581446,-0.000000
1220.495080,-6661.853478,1378.971896,-222.061783
1220.495391,-7105.977043,-383.047749,-592.164754
1220.495702,-8142.265362,-306.438199,-222.061783
1220.496014,-9474.636058,-1225.752797,-74.020594
1220.496325,-10955.047942,-1532.190996,148.041188
1220.496636,-11029.068536,-1455.581446,1184.329507
1220.496948,-11029.068536,-1378.971896,1480.411884
1220.497259,-10436.903782,-1072.533697,1480.411884
1220.497571,-9400.615463,-612.876398,1332.370696
1220.497882,-8290.306550,76.609550,740.205942
1220.498193,-7254.018232,1685.410096,222.061783
1220.498505,-7772.162391,1378.971896,-74.020594
1220.498816,-7994.224174,1532.190996,148.041188
1220.499127,-8364.327145,1225.752797,-0.000000
1220.499439,-8956.491898,383.047749,-0.000000
1220.499750,-9104.533087,-229.828649,-0.000000
1220.500062,-9918.759623,-689.485948,-0.000000
1220.500373,-9918.759623,-1149.143247,-0.000000
1220.500684,-10066.800811,-1762.019645,518.144159
1220.500996,-10807.006753,-2681.334243,444.123565
1220.501307,-10955.047942,-2298.286494,888.247130
1220.501619,-10140.821405,-2068.457845,1110.308913
1220.501930,-9474.636058,-1608.800546,888.247130
1220.502241,-8956.491898,-689.485948,814.226536
1220.502553,-8512.368333,0.000000,-0.000000
1220.502864,-7550.100608,766.095498,148.041188
1220.503175,-7328.038826,2068.457845,-592.164754
1220.503487,-7031.956449,2298.286494,-148.041188
1220.503798,-7698.141797,1608.800546,-444.123565
1220.504110,-7624.121203,842.705048,-370.102971
1220.504421,-7624.121203,153.219100,-148.041188
1220.504732,-8660.409521,-459.657299,-444.123565
1220.505044,-9474.636058,-536.266849,-222.061783
1220.505355,-10288.862594,-1608.800546,-148.041188
1220.505666,-10732.986159,-1915.238745,518.144159
1220.505978,-11103.089130,-1762.019645,1036.288319
1220.506289,-11177.109724,-1762.019645,1258.350101
1220.506601,-10658.965565,-1378.971896,1480.411884
1220.506912,-9622.677246,-766.095498,1554.432478
1220.507223,-8808.450710,689.485948,1184.329507
1220.507535,-7698.141797,842.705048,1036.288319
1220.507846,-7031.956449,2298.286494,1036.288319
1220.508157,-7846.182985,2298.286494,592.164754
1220.508469,-7550.100608,1378.971896,444.123565
1220.508780,-7920.203579,766.095498,370.102971
1220.509092,-8512.368333,459.657299,-0.000000
1220.509403,-9252.574275,0.000000,-0.000000
1220.509714,-9622.677246,-612.876398,296.082377
1220.510026,-9918.759623,-1225.752797,592.164754
1220.510337,-9992.780217,-1762.019645,1332.370696
1220.510648,-9474.636058,-1991.848295,1258.350101
1220.510960,-9178.553681,-1532.190996,1850.514855
1220.511271,-8512.368333,-689.485948,1776.494261
1220.511583,-7328.038826,76.609550,1480.411884
1220.511894,-7105.977043,842.705048,1110.308913
1220.512205,-6661.853478,2068.457845,740.205942
1220.512517,-6661.853478,2757.943793,222.061783
1220.512828,-6661.853478,1762.019645,-148.041188
1220.513139,-6217.729913,1072.533697,-0.000000
1220.513451,-7698.141797,536.266849,-444.123565
1220.513762,-8734.430116,-306.438199,-666.185348
1220.514074,-9474.636058,-689.485948,-444.123565
1220.514385,-10436.903782,-995.924147,-222.061783
1220.514696,-11177.109724,-1455.581446,-0.000000
1220.515008,-11843.295072,-1608.800546,1332.370696
1220.515319,-11621.233289,-1532.190996,1480.411884
1220.515630,-10881.027347,-1072.533697,1850.514855
1220.515942,-9474.636058,-229.828649,1554.432478
1220.516253,-8660.409521,229.828649,592.164754
1220.516565,-8142.265362,919.314598,-0.000000
1220.516876,-7698.141797,1302.362347,-148.041188
1220.517187,-8068.244768,1762.019645,-888.247130
1220.517499,-8734.430116,1991.848295,-222.061783
1220.517810,-9474.636058,995.924147,-0.000000
1220.518121,-9844.739029,0.000000,-222.061783
1220.518433,-9918.759623,-383.047749,148.041188
1220.518744,-9844.739029,-995.924147,518.144159
1220.519055,-9992.780217,-1302.362347,222.061783
1220.519367,-10510.924376,-1455.581446,592.164754
1220.519678,-10436.903782,-1302.362347,1036.288319
1220.519989,-9474.636058,-919.314598,888.247130
1220.520301,-8882.471304,-153.219100,1184.329507
1220.520612,-8438.347739,229.828649,666.185348
1220.520923,-7105.977043,612.876398,666.185348
1220.521235,-6587.832884,1149.143247,444.123565
1220.521546,-6439.791695,1685.410096,518.144159
1220.521857,-6365.771101,1762.019645,-0.000000
1220.522169,-7328.038826,1532.190996,-148.041188
1220.522480,-7105.977043,459.657299,370.102971
1220.522791,-7920.203579,-153.219100,-296.082377
1220.523103,-8512.368333,-459.657299,-296.082377
1220.523414,-9918.759623,-536.266849,-370.102971
1220.523725,-11103.089130,-1608.800546,296.082377
1220.524037,-11325.150913,-2068.457845,1036.288319
1220.524348,-11029.068536,-1838.629195,1850.514855
1220.524659,-10362.883188,-1378.971896,1628.453072
1220.524971,-9474.636058,-995.924147,1406.391290
1220.525282,-8586.388927,153.219100,1184.329507
1220.525593,-7846.182985,1302.362347,592.164754
1220.525905,-7476.080014,2451.505594,666.185348
1220.526216,-7624.121203,2451.505594,518.144159
1220.526527,-8290.306550,2374.896044,-0.000000
1220.526839,-8512.368333,1838.629195,-222.061783
1220.527150,-9474.636058,1302.362347,-0.000000
1220.527462,-9326.594869,536.266849,-444.123565
1220.527773,-10066.800811,-383.047749,-74.020594
1220.528084,-10362.883188,-1302.362347,370.102971
1220.528396,-10288.862594,-2374.896044,1036.288319
1220.528707,-10066.800811,-2604.724693,1480.411884
1220.529018,-9992.780217,-1915.238745,1406.391290
1220.529330,-9400.615463,-459.657299,1332.370696
1220.529641,-8142.265362,-383.047749,1110.308913
1220.529952,-7846.182985,383.047749,1110.308913
1220.530264,-7402.059420,1532.190996,740.205942
1220.530575,-6883.915261,1915.238745,666.185348
1220.530886,-6735.874072,1685.410096,-0.000000
1220.531198,-6883.915261,1149.143247,-0.000000
1220.531509,-7105.977043,383.047749,-296.082377
1220.531820,-7550.100608,-612.876398,-962.267725
1220.532132,-8512.368333,-536.266849,-444.123565
1220.532443,-9918.759623,-766.095498,-444.123565
1220.532754,-11547.212695,-1225.752797,740.205942
1220.533066,-11769.274478,-1378.971896,1332.370696
1220.533377,-11695.253884,-1685.410096,1554.432478
1220.533688,-10955.047942,-1072.533697,1628.453072
1220.534000,-9474.636058,0.000000,1184.329507
1220.534311,-7698.141797,919.314598,370.102971
1220.534622,-7031.956449,1149.143247,-0.000000
1220.534934,-6883.915261,1762.019645,-148.041188
1220.535245,-7402.059420,1685.410096,-296.082377
1220.535556,-8364.327145,766.095498,296.082377
1220.535868,-9326.594869,153.219100,444.123565
1220.536179,-9844.739029,-306.438199,444.123565
1220.536490,-9696.697840,-229.828649,-0.000000
1220.536802,-9474.636058,-766.095498,148.041188
1220.537113,-9770.718434,-1455.581446,-0.000000
1220.537424,-9918.759623,-1685.410096,666.185348
1220.537736,-10214.842000,-2068.457845,814.226536
1220.538047,-9770.718434,-1455.581446,1406.391290
1220.538358,-9252.574275,-1149.143247,1406.391290
1220.538670,-8586.388927,-536.266849,1406.391290
1220.538981,-7476.080014,536.266849,888.247130
1220.539292,-7105.977043,689.485948,518.144159
1220.539604,-7105.977043,1991.848295,-0.000000
1220.539915,-7031.956449,2221.676944,-74.020594
1220.540227,-7402.059420,1685.410096,-222.061783
1220.540538,-7550.100608,919.314598,-296.082377
1220.540849,-7624.121203,383.047749,-222.061783
1220.541161,-8216.285956,0.000000,-296.082377
1220.541472,-9474.636058,-612.876398,-518.144159
1220.541783,-10214.842000,-1608.800546,370.102971
1220.542095,-11103.089130,-1915.238745,888.247130
1220.542406,-11103.089130,-2221.676944,1110.308913
1220.542717,-10955.047942,-1685.410096,1554.432478
1220.543029,-10362.883188,-1225.752797,1554.432478
1220.543340,-9178.553681,-612.876398,1258.350101
1220.543651,-8512.368333,612.876398,592.164754
1220.543963,-8142.265362,1762.019645,296.082377
1220.544274,-8068.244768,2757.943793,518.144159
1220.544585,-8586.388927,2911.162892,296.082377
1220.544897,-8734.430116,1685.410096,518.144159
1220.545208,-8512.368333,919.314598,222.061783
1220.545519,-8660.409521,76.609550,-74.020594
1220.545831,-9030.512492,-229.828649,-0.000000
1220.546142,-9474.636058,-766.095498,-296.082377
1220.546453,-9918.759623,-2221.676944,370.102971
1220.546765,-10362.883188,-2604.724693,1184.329507
1220.547076,-10140.821405,-2374.896044,1628.453072
1220.547387,-9844.739029,-1532.190996,1776.494261
1220.547699,-8956.491898,-459.657299,1702.473667
1220.548010,-7772.162391,306.438199,962.267725
1220.548321,-7328.038826,1149.143247,814.226536
1220.548633,-6809.894666,2145.067394,666.185348
1220.548944,-5995.668130,995.924147,666.185348
1220.549255,-6365.771101,1532.190996,222.061783
1220.549567,-6439.791695,919.314598,-74.020594
1220.549878,-6809.894666,229.828649,-666.185348
1220.550189,-8142.265362,0.000000,-888.247130
1220.550501,-9474.636058,-536.266849,-592.164754
1220.550812,-10658.965565,-842.705048,-148.041188
1220.551123,-11769.274478,-1225.752797,1184.329507
1220.551435,-11695.253884,-1915.238745,1702.473667
1220.551746,-11399.171507,-1532.190996,1628.453072
1220.552057,-10140.821405,-612.876398,1554.432478
1220.552369,-8660.409521,-229.828649,1110.308913
1220.552680,-7698.141797,229.828649,370.102971
1220.552991,-7698.141797,766.095498,-0.000000
1220.553303,-7772.162391,1532.190996,-74.020594
1220.553614,-8290.306550,1072.533697,-296.082377
1220.553926,-8956.491898,842.705048,370.102971
1220.554237,-9622.677246,-383.047749,148.041188
1220.554548,-9770.718434,-536.266849,-0.000000
1220.554860,-9992.780217,-612.876398,-148.041188
1220.555171,-10066.800811,-919.314598,370.102971
1220.555482,-9992.780217,-1685.410096,592.164754
1220.555794,-10288.862594,-2834.553343,1110.308913
1220.556105,-9474.636058,-2221.676944,1406.391290
1220.556416,-8882.471304,-1072.533697,1184.329507
1220.556728,-8290.306550,-536.266849,740.205942
1220.557039,-8290.306550,306.438199,444.123565
1220.557350,-7254.018232,536.266849,444.123565
1220.557662,-6587.832884,1149.143247,148.041188
1220.557973,-6513.812290,1532.190996,296.082377
1220.558284,-6809.894666,1072.533697,-148.041188
1220.558596,-7328.038826,766.095498,-370.102971
1220.558907,-7105.977043,536.266849,148.041188
1220.559218,-7846.182985,0.000000,-370.102971
1220.559530,-8882.471304,-383.047749,-444.123565
1220.559841,-10140.821405,-1225.752797,-222.061783
1220.560152,-11103.089130,-1762.019645,518.144159
1220.560464,-11103.089130,-2145.067394,888.247130
1220.560775,-11029.068536,-1915.238745,1258.350101
1220.561086,-10584.944971,-2068.457845,1554.432478
1220.561398,-10140.821405,-1302.362347,1480.411884
1220.561709,-9326.594869,0.000000,1184.329507
1220.562020,-8068.244768,995.924147,888.247130
1220.562332,-7920.203579,2221.676944,370.102971
1220.562643,-8438.347739,2298.286494,444.123565
1220.562954,-8364.327145,1838.629195,370.102971
1220.563266,-8364.327145,1302.362347,370.102971
1220.563577,-8882.471304,1225.752797,-0.000000
1220.563888,-9474.636058,-153.219100,-444.123565
1220.564200,-9844.739029,0.000000,-0.000000
1220.564511,-10140.821405,-995.924147,592.164754
1220.564822,-10362.883188,-1991.848295,888.247130
1220.565134,-10066.800811,-1915.238745,1554.432478
1220.565445,-9548.656652,-1378.971896,1776.494261
1220.565756,-8586.388927,-383.047749,1924.535449
1220.566068,-7254.018232,383.047749,1628.453072
1220.566379,-7031.956449,1149.143247,1332.370696
1220.566691,-6957.935855,1915.238745,814.226536
1220.567002,-6587.832884,2681.334243,444.123565
1220.567313,-6883.915261,2374.896044,-0.000000
1220.567625,-6957.935855,1762.019645,-74.020594
1220.567936,-7328.038826,0.000000,-740.205942
1220.568247,-7624.121203,0.000000,-740.205942
1220.568559,-8660.409521,-612.876398,-296.082377
1220.568870,-10066.800811,-995.924147,-370.102971
1220.569181,-11399.171507,-1532.190996,666.185348
1220.569493,-11547.212695,-1532.190996,1406.391290
1220.569804,-11399.171507,-1532.190996,1702.473667
1220.570115,-10510.924376,-1455.581446,1702.473667
1220.570427,-9326.594869,0.000000,962.267725
1220.570738,-8512.368333,766.095498,444.123565
1220.571049,-7846.182985,1685.410096,-370.102971
1220.571361,-7698.141797,2068.457845,-592.164754
1220.571672,-7550.100608,1762.019645,-444.123565
1220.571983,-8808.450710,919.314598,-0.000000
1220.572295,-9474.636058,153.219100,-0.000000
1220.572606,-9548.656652,153.219100,-0.000000
1220.572917,-9622.677246,-612.876398,-0.000000
1220.573229,-9770.718434,-919.314598,444.123565
1220.573540,-10140.821405,-2145.067394,888.247130
1220.573851,-10584.944971,-2068.457845,888.247130
1220.574163,-10288.862594,-2145.067394,1332.370696
1220.574474,-9622.677246,-1685.410096,1258.350101
1220.574785,-9104.533087,-919.314598,1184.329507
1220.575097,-8586.388927,0.000000,962.267725
1220.575408,-7254.018232,153.219100,740.205942
1220.575719,-6217.729913,459.657299,666.185348
1220.576031,-6661.853478,1608.800546,-0.000000
1220.576342,-6661.853478,1685.410096,296.082377
1220.576653,-7402.059420,612.876398,-0.000000
1220.576965,-7624.121203,229.828649,370.102971
1220.577276,-7994.224174,0.000000,-148.041188
1220.577587,-8956.491898,0.000000,-222.061783
1220.577899,-9696.697840,-919.314598,-222.061783
1220.578210,-10658.965565,-689.485948,-370.102971
1220.578521,-10807.006753,-1608.800546,666.185348
1220.578833,-11029.068536,-1762.019645,1184.329507
1220.579144,-10732.986159,-1302.362347,1332.370696
1220.579456,-9844.739029,-766.095498,1406.391290
1220.579767,-8808.450710,153.219100,1332.370696
1220.580078,-8512.368333,995.924147,444.123565
1220.580390,-7624.121203,2068.457845,1036.288319
1220.580701,-8660.409521,2374.896044,370.102971
1220.581012,-8438.347739,2068.457845,296.082377
1220.581324,-9104.533087,1455.581446,370.102971
1220.581635,-9474.636058,1072.533697,370.102971
1220.581946,-9548.656652,306.438199,-74.020594
1220.582258,-9474.636058,0.000000,-0.000000
1220.582569,-9696.697840,-1532.190996,-0.000000
1220.582880,-10066.800811,-1991.848295,592.164754
1220.583192,-9844.739029,-1762.019645,1184.329507
1220.583503,-9548.656652,-1532.190996,1406.391290
1220.583814,-8808.450710,-766.095498,1702.473667
1220.584126,-8290.306550,229.828649,1776.494261
1220.584437,-7476.080014,842.705048,1332.370696
1220.584748,-6661.853478,2298.286494,740.205942
1220.585060,-6661.853478,2451.505594,666.185348
1220.585371,-6291.750507,2374.896044,592.164754
1220.585682,-6957.935855,1762.019645,-444.123565
1220.585994,-7105.977043,383.047749,-592.164754
1220.586305,-7624.121203,76.609550,-814.226536
1220.586616,-8660.409521,-536.266849,-814.226536
1220.586928,-9918.759623,-1378.971896,-296.082377
1220.587239,-11103.089130,-1838.629195,370.102971
1220.587550,-11547.212695,-1838.629195,1332.370696
1220.587862,-11325.150913,-1685.410096,1406.391290
1220.588173,-11029.068536,-1455.581446,1628.453072
1220.588484,-9770.718434,-842.705048,1628.453072
1220.588796,-8734.430116,-153.219100,888.247130
1220.589107,-7624.121203,1072.533697,296.082377
1220.589418,-7772.162391,2374.896044,-74.020594
1220.589730,-7920.203579,1762.019645,-0.000000
1220.590041,-8956.491898,1149.143247,-0.000000
1220.590352,-9030.512492,306.438199,222.061783
1220.590664,-9178.553681,-612.876398,296.082377
1220.590975,-9770.718434,-689.485948,-0.000000
1220.591286,-9844.739029,-1149.143247,444.123565
1220.591598,-10362.883188,-1608.800546,296.082377
1220.591909,-10955.047942,-2298.286494,814.226536
1220.592220,-10510.924376,-2374.896044,1036.288319
1220.592532,-10436.903782,-1991.848295,1332.370696
1220.592843,-9474.636058,-1149.143247,1036.288319
1220.593155,-8216.285956,-919.314598,962.267725
1220.593466,-7402.059420,0.000000,518.144159
1220.593777,-6735.874072,766.095498,-0.000000
1220.594089,-6439.791695,1455.581446,148.041188
1220.594400,-7105.977043,1838.629195,-0.000000
1220.594711,-7402.059420,1072.533697,-74.020594
1220.595023,-7624.121203,766.095498,-296.082377
1220.595334,-8216.285956,0.000000,-0.000000
1220.595645,-8512.368333,-842.705048,-592.164754
1220.595957,-9104.533087,-383.047749,-222.061783
1220.596268,-9844.739029,-1225.752797,-296.082377
1220.596579,-10288.862594,-1991.848295,296.082377
1220.596891,-10584.944971,-2221.676944,1184.329507
1220.597202,-10362.883188,-1838.629195,1184.329507
1220.597513,-9918.759623,-1302.362347,1776.494261
1220.597825,-9030.512492,-383.047749,1258.350101
1220.598136,-8586.388927,383.047749,1110.308913
1220.598447,-7994.224174,1532.190996,444.123565
1220.598759,-7624.121203,2221.676944,666.185348
1220.599070,-7920.203579,1991.848295,518.144159
1220.599381,-8586.388927,1838.629195,370.102971
1220.599693,-8660.409521,1455.581446,296.082377
1220.600004,-9252.574275,612.876398,-0.000000
1220.600315,-9326.594869,-306.438199,-0.000000
1220.600627,-9918.759623,-612.876398,-0.000000
1220.600938,-10214.842000,-1685.410096,370.102971
1220.601249,-10436.903782,-2221.676944,814.226536
1220.601561,-10436.903782,-1991.848295,1332.370696
1220.601872,-9696.697840,-1225.752797,1480.411884
1220.602183,-8734.430116,153.219100,1258.350101
1220.602495,-7920.203579,842.705048,814.226536
1220.602806,-7105.977043,1072.533697,962.267725
1220.603117,-6735.874072,2374.896044,666.185348
1220.603429,-6587.832884,2298.286494,592.164754
1220.603740,-6883.915261,1608.800546,-0.000000
1220.604051,-6883.915261,306.438199,-0.000000
1220.604363,-7105.977043,153.219100,-0.000000
1220.604674,-8512.368333,-1378.971896,-518.144159
1220.604985,-9326.594869,-1532.190996,-518.144159
1220.605297,-10658.965565,-1608.800546,-0.000000
1220.605608,-11325.150913,-1991.848295,888.247130
1220.605920,-11917.315666,-1991.848295,1258.350101
1220.606231,-11769.274478,-1302.362347,1702.473667
1220.606542,-10140.821405,-306.438199,1480.411884
1220.606854,-8808.450710,0.000000,1036.288319
1220.607165,-7402.059420,842.705048,-0.000000
1220.607476,-6957.935855,1915.238745,-0.000000
1220.607788,-7031.956449,1838.629195,-74.020594
1220.608099,-7476.080014,1378.971896,-0.000000
1220.608410,-8882.471304,1149.143247,148.041188
1220.608722,-9696.697840,612.876398,-0.000000
1220.609033,-9918.759623,0.000000,-74.020594
1220.609344,-9918.759623,-689.485948,-74.020594
1220.609656,-9844.739029,-919.314598,-0.000000
1220.609967,-9770.718434,-1455.581446,222.061783
1220.610278,-10288.862594,-2145.067394,740.205942
1220.610590,-10436.903782,-2298.286494,1480.411884
1220.610901,-9326.594869,-1762.019645,1406.391290
1220.611212,-8808.450710,-1225.752797,1554.432478
1220.611524,-7994.224174,0.000000,814.226536
1220.611835,-7105.977043,76.609550,370.102971
1220.612146,-6661.853478,919.314598,-148.041188
1220.612458,-6661.853478,1455.581446,296.082377
1220.612769,-7624.121203,919.314598,-74.020594
1220.613080,-8142.265362,612.876398,-148.041188
1220.613392,-7920.203579,612.876398,-0.000000
1220.613703,-8438.347739,153.219100,-740.205942
1220.614014,-8660.409521,459.657299,-148.041188
1220.614326,-9918.759623,-1225.752797,-592.164754
1220.614637,-10658.965565,-689.485948,222.061783
1220.614948,-10807.006753,-1072.533697,444.123565
1220.615260,-10807.006753,-842.705048,1110.308913
1220.615571,-10510.924376,-1149.143247,1332.370696
1220.615882,-9770.718434,-842.705048,1110.308913
1220.616194,-8882.471304,153.219100,814.226536
1220.616505,-7846.182985,1455.581446,444.123565
1220.616817,-7994.224174,2451.505594,518.144159
1220.617128,-8216.285956,2757.943793,666.185348
1220.617440,-8512.368333,2068.457845,592.164754
1220.617751,-8660.409521,1225.752797,666.185348
1220.618062,-8734.430116,306.438199,518.144159
1220.618374,-9252.574275,0.000000,-74.020594
1220.618685,-9178.553681,153.219100,-0.000000
1220.618997,-9474.636058,-1532.190996,-0.000000
1220.619308,-9918.759623,-2604.724693,962.267725
1220.619619,-9992.780217,-2681.334243,1258.350101
1220.619931,-10066.800811,-2298.286494,1776.494261
1220.620242,-9474.636058,-1532.190996,1998.556043
1220.620554,-8586.388927,-612.876398,1776.494261
1220.620865,-7402.059420,842.705048,1480.411884
1220.621177,-6513.812290,1685.410096,888.247130
1220.621488,-5995.668130,2221.676944,370.102971
1220.621799,-5625.565159,1532.190996,296.082377
1220.622111,-6365.771101,1072.533697,-74.020594
1220.622422,-7402.059420,536.266849,-222.061783
1220.622734,-8216.285956,0.000000,-518.144159
1220.623045,-9474.636058,-306.438199,-740.205942
1220.623356,-10584.944971,-612.876398,-74.020594
1220.623668,-10881.027347,-1149.143247,444.123565
1220.623979,-11325.150913,-1378.971896,962.267725
1220.624291,-11029.068536,-1838.629195,1628.453072
1220.624602,-10066.800811,-536.266849,1480.411884
1220.624914,-9622.677246,-383.047749,1258.350101
1220.625225,-8512.368333,536.266849,888.247130
1220.625536,-7624.121203,1225.752797,666.185348
1220.625848,-7328.038826,1455.581446,296.082377
1220.626159,-7846.182985,1532.190996,370.102971
1220.626471,-8216.285956,383.047749,518.144159
1220.626782,-9326.594869,76.609550,296.082377
1220.627094,-10140.821405,0.000000,296.082377
1220.627405,-10362.883188,-459.657299,-0.000000
1220.627716,-9992.780217,-919.314598,-0.000000
1220.628028,-10658.965565,-1685.410096,296.082377
1220.628339,-10436.903782,-1991.848295,814.226536
1220.628651,-9992.780217,-1608.800546,1036.288319
1220.628962,-9474.636058,-1072.533697,1332.370696
1220.629273,-8512.368333,-383.047749,740.205942
1220.629585,-8364.327145,-689.485948,1110.308913
1220.629896,-7402.059420,153.219100,296.082377
1220.630208,-7105.977043,919.314598,-0.000000
1220.630519,-6883.915261,1302.362347,-0.000000
1220.630831,-7402.059420,1762.019645,-0.000000
1220.631142,-7772.162391,612.876398,-0.000000
1220.631453,-7550.100608,0.000000,-148.041188
1220.631765,-7624.121203,-459.657299,-370.102971
1220.632076,-8438.347739,-306.438199,-222.061783
1220.632388,-8734.430116,-229.828649,-222.061783
1220.632699,-9770.718434,-1072.533697,-74.020594
1220.633010,-10658.965565,-1455.581446,666.185348
1220.633322,-10955.047942,-919.314598,814.226536
1220.633633,-11103.089130,-612.876398,1332.370696
1220.633945,-10584.944971,-306.438199,1036.288319
1220.634256,-10214.842000,0.000000,592.164754
1220.634568,-9030.512492,459.657299,666.185348
1220.634879,-7994.224174,1378.971896,814.226536
1220.635190,-7698.141797,1991.848295,962.267725
1220.635502,-7772.162391,1608.800546,962.267725
1220.635813,-7846.182985,1149.143247,1258.350101
1220.636125,-8734.430116,1225.752797,444.123565
1220.636436,-8882.471304,0.000000,-0.000000
1220.636748,-9104.533087,0.000000,222.061783
1220.637059,-10140.821405,-766.095498,222.061783
1220.637370,-10436.903782,-1915.238745,592.164754
1220.637682,-10510.924376,-2451.505594,1258.350101
1220.637993,-9770.718434,-2145.067394,1702.473667
1220.638305,-9770.718434,-1302.362347,1628.453072
1220.638616,-8364.327145,-306.438199,1924.535449
1220.638927,-8364.327145,459.657299,1258.350101
1220.639239,-7402.059420,1838.629195,888.247130
1220.639550,-6661.853478,2757.943793,740.205942
1220.639862,-6143.709319,2604.724693,518.144159
1220.640173,-6439.791695,1838.629195,-148.041188
1220.640485,-6291.750507,919.314598,-222.061783
1220.640796,-6883.915261,842.705048,-518.144159
1220.641107,-8512.368333,76.609550,-1110.308913
1220.641419,-9326.594869,-459.657299,-0.000000
1220.641730,-10288.862594,-1378.971896,296.082377
1220.642042,-10807.006753,-1991.848295,962.267725
1220.642353,-11177.109724,-2068.457845,1702.473667
1220.642664,-11325.150913,-1532.190996,1406.391290
1220.642976,-10214.842000,-689.485948,1480.411884
1220.643287,-8956.491898,383.047749,1406.391290
1220.643599,-7402.059420,1072.533697,1036.288319
1220.643910,-6809.894666,1608.800546,296.082377
1220.644222,-7698.141797,1762.019645,-74.020594
1220.644533,-8290.306550,1455.581446,-296.082377
1220.644844,-8956.491898,919.314598,-74.020594
1220.645156,-9770.718434,229.828649,-222.061783
1220.645467,-9844.739029,-459.657299,-296.082377
1220.645779,-9622.677246,-1838.629195,-0.000000
1220.646090,-10066.800811,-2068.457845,148.041188
1220.646402,-9474.636058,-2145.067394,962.267725
1220.646713,-9992.780217,-2604.724693,888.247130
1220.647024,-9696.697840,-2451.505594,1184.329507
1220.647336,-8882.471304,-1685.410096,962.267725
1220.647647,-8364.327145,-383.047749,444.123565
1220.647959,-8364.327145,612.876398,-0.000000
1220.648270,-6957.935855,1225.752797,-0.000000
1220.648581,-7105.977043,1225.752797,148.041188
1220.648893,-7476.080014,1072.533697,222.061783
1220.649204,-7994.224174,842.705048,370.102971
1220.649516,-8438.347739,383.047749,444.123565
1220.649827,-8142.265362,-306.438199,-0.000000
1220.650139,-8586.388927,-536.266849,-518.144159
1220.650450,-8364.327145,76.609550,-740.205942
1220.650761,-9252.574275,-766.095498,-1036.288319
1220.651073,-10584.944971,-995.924147,-0.000000
1220.651384,-11029.068536,-1302.362347,888.247130
1220.651696,-10955.047942,-1455.581446,1332.370696
1220.652007,-10510.924376,-1072.533697,1702.473667
1220.652318,-9918.759623,-919.314598,1628.453072
1220.652630,-8882.471304,0.000000,1554.432478
1220.652941,-8068.244768,919.314598,666.185348
1220.653253,-7624.121203,2298.286494,370.102971
1220.653564,-7994.224174,2451.505594,518.144159
1220.653876,-8660.409521,2221.676944,370.102971
1220.654187,-9030.512492,1608.800546,444.123565
1220.654498,-9104.533087,842.705048,-148.041188
1220.654810,-9252.574275,459.657299,-0.000000
1220.655121,-9474.636058,-459.657299,-0.000000
1220.655433,-10066.800811,-689.485948,666.185348
1220.655744,-9770.718434,-1685.410096,814.226536
1220.656056,-9844.739029,-1685.410096,1184.329507
1220.656367,-9030.512492,-1225.752797,1850.514855
1220.656678,-8586.388927,-842.705048,1850.514855
1220.656990,-7920.203579,76.609550,1628.453072
1220.657301,-7105.977043,766.095498,1702.473667
1220.657613,-6661.853478,1838.629195,1554.432478
1220.657924,-6513.812290,3064.381992,888.247130
1220.658235,-6809.894666,1838.629195,-74.020594
1220.658547,-6365.771101,2145.067394,-518.144159
1220.658858,-6957.935855,919.314598,-1184.329507
1220.659170,-7846.182985,536.266849,-1036.288319
1220.659481,-8956.491898,0.000000,-518.144159
1220.659793,-10510.924376,-1149.143247,-0.000000
1220.660104,-11473.192101,-1455.581446,1110.308913
1220.660415,-11769.274478,-842.705048,1332.370696
1220.660727,-11325.150913,-1378.971896,1702.473667
1220.661038,-10288.862594,-1378.971896,1554.432478
1220.661350,-9252.574275,-689.485948,1332.370696
1220.661661,-7772.162391,76.609550,814.226536
1220.661972,-7846.182985,995.924147,148.041188
1220.662284,-7846.182985,1302.362347,-74.020594
1220.662595,-7698.141797,1762.019645,-74.020594
1220.662907,-9030.512492,1149.143247,-518.144159
1220.663218,-9844.739029,306.438199,-0.000000
1220.663530,-10288.862594,-229.828649,-0.000000
1220.663841,-10214.842000,-919.314598,148.041188
1220.664152,-10140.821405,-1149.143247,444.123565
1220.664464,-10510.924376,-2068.457845,814.226536
1220.664775,-10140.821405,-2068.457845,666.185348
1220.665087,-9696.697840,-2221.676944,962.267725
1220.665398,-8734.430116,-1685.410096,888.247130
1220.665710,-7920.203579,-1455.581446,962.267725
1220.666021,-8216.285956,-459.657299,592.164754
1220.666332,-7402.059420,76.609550,518.144159
1220.666644,-7254.018232,689.485948,222.061783
1220.666955,-7105.977043,1378.971896,-0.000000
1220.667267,-7179.997637,1532.190996,-370.102971
1220.667578,-7698.141797,229.828649,-148.041188
1220.667889,-7846.182985,0.000000,-592.164754
1220.668201,-7920.203579,229.828649,-666.185348
1220.668512,-8956.491898,0.000000,-296.082377
1220.668824,-9696.697840,-459.657299,-222.061783
1220.669135,-10362.883188,-1072.533697,296.082377
1220.669447,-10732.986159,-1225.752797,444.123565
1220.669758,-10881.027347,-919.314598,1036.288319
1220.670069,-9844.739029,-1072.533697,1184.329507
1220.670381,-10140.821405,0.000000,1036.288319
1220.670692,-9252.574275,-153.219100,740.205942
1220.671004,-8808.450710,919.314598,296.082377
1220.671315,-8438.347739,1685.410096,666.185348
1220.671626,-7846.182985,2068.457845,1258.350101
1220.671938,-7994.224174,1302.362347,1184.329507
1220.672249,-8142.265362,842.705048,740.205942
1220.672561,-8512.368333,612.876398,814.226536
1220.672872,-9400.615463,0.000000,-0.000000
1220.673184,-9548.656652,-153.219100,518.144159
1220.673495,-10214.842000,-919.314598,444.123565
1220.673806,-10510.924376,-1225.752797,592.164754
1220.674118,-10140.821405,-2068.457845,1258.350101
1220.674429,-9992.780217,-1378.971896,1776.494261
1220.674741,-9178.553681,-842.705048,2072.576638
1220.675052,-8068.244768,-459.657299,2368.659014
1220.675364,-6957.935855,0.000000,1702.473667
1220.675675,-6809.894666,1838.629195,1480.411884
1220.675986,-6069.688724,2528.115143,1184.329507
1220.676298,-5995.668130,2068.457845,518.144159
1220.676609,-6587.832884,1225.752797,-0.000000
1220.676921,-7105.977043,842.705048,-592.164754
1220.677232,-7550.100608,-306.438199,-1036.288319
1220.677543,-8660.409521,-995.924147,-444.123565
1220.677855,-10140.821405,-1915.238745,-74.020594
1220.678166,-11325.150913,-2145.067394,222.061783
1220.678478,-11695.253884,-2221.676944,1332.370696
1220.678789,-11843.295072,-1991.848295,1480.411884
1220.679101,-11029.068536,-1532.190996,1850.514855
1220.679412,-9474.636058,-689.485948,1702.473667
1220.679723,-8586.388927,76.609550,888.247130
1220.680035,-7254.018232,919.314598,-0.000000
1220.680346,-7031.956449,1762.019645,-74.020594
1220.680658,-7772.162391,2145.067394,-296.082377
1220.680969,-8512.368333,1532.190996,-296.082377
1220.681280,-9326.594869,1225.752797,-222.061783
1220.681592,-9696.697840,76.609550,-370.102971
1220.681903,-9622.677246,-153.219100,-222.061783
1220.682215,-9918.759623,-1302.362347,-0.000000
1220.682526,-9844.739029,-1685.410096,296.082377
1220.682838,-10288.862594,-2221.676944,444.123565
1220.683149,-10140.821405,-2451.505594,740.205942
1220.683460,-9400.615463,-1915.238745,1258.350101
1220.683772,-8512.368333,-1838.629195,1036.288319
1220.684083,-7994.224174,-1225.752797,740.205942
1220.684395,-7994.224174,229.828649,518.144159
1220.684706,-7624.121203,995.924147,-222.061783
1220.685018,-7772.162391,1762.019645,-296.082377
1220.685329,-7698.141797,1685.410096,-0.000000
1220.685640,-8290.306550,919.314598,-74.020594
1220.685952,-7994.224174,306.438199,-0.000000
1220.686263,-7772.162391,76.609550,-0.000000
1220.686575,-8956.491898,-229.828649,-740.205942
1220.686886,-8882.471304,153.219100,-74.020594
1220.687197,-9770.718434,-1225.752797,-74.020594
1220.687509,-10510.924376,-995.924147,296.082377
1220.687820,-10362.883188,-1149.143247,888.247130
1220.688132,-10362.883188,-766.095498,1110.308913
1220.688443,-10066.800811,-153.219100,1332.370696
1220.688755,-9326.594869,-76.609550,1332.370696
1220.689066,-8290.306550,0.000000,888.247130
1220.689377,-7698.141797,919.314598,518.144159
1220.689689,-7698.141797,2068.457845,444.123565
1220.690000,-8216.285956,1149.143247,148.041188
1220.690312,-8660.409521,612.876398,518.144159
1220.690623,-8882.471304,76.609550,370.102971
1220.690934,-9326.594869,-153.219100,370.102971
1220.691246,-9400.615463,-306.438199,666.185348
1220.691557,-9918.759623,-2068.457845,740.205942
1220.691869,-9474.636058,-2145.067394,370.102971
1220.692180,-9474.636058,-2068.457845,888.247130
1220.692492,-9474.636058,-2374.896044,1110.308913
1220.692803,-8808.450710,-1455.581446,1628.453072
1220.693114,-8660.409521,-919.314598,1702.473667
1220.693426,-8290.306550,0.000000,1480.411884
1220.693737,-7772.162391,1378.971896,1332.370696
1220.694049,-7550.100608,2681.334243,518.144159
1220.694360,-6661.853478,3294.210641,222.061783
1220.694672,-6957.935855,2298.286494,-592.164754
1220.694983,-6735.874072,1302.362347,-222.061783
1220.695294,-7179.997637,459.657299,-814.226536
1220.695606,-8512.368333,0.000000,-814.226536
1220.695917,-9474.636058,-689.485948,-370.102971
1220.696229,-11029.068536,-1532.190996,518.144159
1220.696540,-11473.192101,-2068.457845,740.205942
1220.696851,-11399.171507,-1685.410096,1702.473667
1220.697163,-10955.047942,-2145.067394,1554.432478
1220.697474,-10066.800811,-1149.143247,1702.473667
1220.697786,-9030.512492,-383.047749,1184.329507
1220.698097,-7846.182985,383.047749,444.123565
1220.698409,-7846.182985,1838.629195,-0.000000
1220.698720,-7698.141797,2068.457845,-444.123565
1220.699031,-7994.224174,2374.896044,-592.164754
1220.699343,-8586.388927,2221.676944,-370.102971
1220.699654,-9252.574275,1225.752797,-0.000000
1220.699966,-9696.697840,536.266849,-0.000000
1220.700277,-9844.739029,-229.828649,222.061783
1220.700588,-9918.759623,-689.485948,296.082377
1220.700900,-10140.821405,-1378.971896,592.164754
1220.701211,-10288.862594,-1532.190996,1036.288319
1220.701523,-9844.739029,-2298.286494,1110.308913
1220.701834,-8808.450710,-1838.629195,1184.329507
1220.702146,-8364.327145,-842.705048,1480.411884
1220.702457,-7994.224174,-383.047749,1184.329507
1220.702768,-7328.038826,689.485948,666.185348
1220.703080,-7179.997637,1072.533697,592.164754
1220.703391,-6513.812290,1685.410096,592.164754
1220.703703,-6809.894666,1225.752797,-74.020594
1220.704014,-6809.894666,1378.971896,-222.061783
1220.704326,-7476.080014,1149.143247,-148.041188
1220.704637,-8364.327145,0.000000,-518.144159
1220.704948,-9178.553681,-229.828649,-0.000000
1220.705260,-10066.800811,-689.485948,148.041188
1220.705571,-10955.047942,-1532.190996,592.164754
1220.705883,-11251.130318,-1838.629195,1184.329507
1220.706194,-10510.924376,-1455.581446,1332.370696
1220.706505,-9918.759623,-383.047749,1036.288319
1220.706817,-9252.574275,-995.924147,1184.329507
1220.707128,-8512.368333,0.000000,1110.308913
1220.707440,-7846.182985,1302.362347,814.226536
1220.707751,-7846.182985,1838.629195,962.267725
1220.708063,-8068.244768,2068.457845,666.185348
1220.708374,-8660.409521,1991.848295,444.123565
1220.708685,-8660.409521,919.314598,222.061783
1220.708997,-9178.553681,536.266849,-0.000000
1220.709308,-9400.615463,-612.876398,-370.102971
1220.709620,-9918.759623,-766.095498,222.061783
1220.709931,-10288.862594,-1838.629195,592.164754
1220.710242,-10214.842000,-2451.505594,1110.308913
1220.710554,-10510.924376,-2451.505594,1554.432478
1220.710865,-9770.718434,-1915.238745,1332.370696
1220.711177,-8364.327145,-689.485948,1850.514855
1220.711488,-7550.100608,459.657299,1110.308913
1220.711800,-7402.059420,919.314598,518.144159
1220.712111,-6883.915261,2145.067394,592.164754
1220.712422,-6291.750507,2451.505594,518.144159
1220.712734,-6513.812290,2451.505594,-0.000000
1220.713045,-6661.853478,1838.629195,-296.082377
1220.713357,-7105.977043,919.314598,-1110.308913
1220.713668,-8364.327145,153.219100,-1036.288319
1220.713980,-9548.656652,-459.657299,-888.247130
1220.714291,-10658.965565,-995.924147,-222.061783
1220.714602,-11695.253884,-1225.752797,592.164754
1220.714914,-11695.253884,-1608.800546,1110.308913
1220.715225,-11547.212695,-1532.190996,1480.411884
1220.715537,-10584.944971,-842.705048,1480.411884
1220.715848,-8586.388927,-383.047749,1628.453072
1220.716159,-7402.059420,76.609550,666.185348
1220.716471,-7254.018232,1225.752797,444.123565
1220.716782,-8068.244768,1532.190996,148.041188
1220.717094,-8068.244768,1838.629195,148.041188
1220.717405,-8882.471304,1608.800546,222.061783
1220.717717,-9400.615463,1225.752797,148.041188
1220.718028,-9474.636058,689.485948,-370.102971
1220.718339,-9400.615463,0.000000,-518.144159
1220.718651,-9918.759623,-612.876398,-518.144159
1220.718962,-9622.677246,-1378.971896,518.144159
1220.719274,-9992.780217,-1838.629195,962.267725
1220.719585,-10140.821405,-2068.457845,1258.350101
1220.719896,-9474.636058,-2221.676944,1554.432478
1220.720208,-9030.512492,-1608.800546,1628.453072
1220.720519,-8290.306550,-1378.971896,888.247130
1220.720830,-7105.977043,0.000000,962.267725
1220.721142,-6957.935855,0.000000,592.164754
1220.721453,-7105.977043,919.314598,148.041188
1220.721764,-7179.997637,1455.581446,370.102971
1220.722076,-7476.080014,919.314598,-0.000000
1220.722387,-7476.080014,689.485948,-0.000000
1220.722698,-7698.141797,383.047749,-0.000000
1220.723010,-8290.306550,306.438199,-666.185348
1220.723321,-9474.636058,-383.047749,-370.102971
1220.723632,-10584.944971,-1072.533697,-0.000000
1220.723944,-10807.006753,-1915.238745,666.185348
1220.724255,-11251.130318,-2068.457845,1258.350101
1220.724567,-11177.109724,-1838.629195,1480.411884
1220.724878,-10214.842000,-995.924147,1628.453072
1220.725189,-9696.697840,-842.705048,1258.350101
1220.725501,-8364.327145,383.047749,814.226536
1220.725812,-7624.121203,1149.143247,814.226536
1220.726123,-7031.956449,2145.067394,592.164754
1220.726435,-7550.100608,1915.238745,370.102971
1220.726746,-8142.265362,1608.800546,296.082377
1220.727057,-8734.430116,1149.143247,148.041188
1220.727369,-9104.533087,689.485948,-74.020594
1220.727680,-9622.677246,536.266849,-0.000000
1220.727991,-10807.006753,-536.266849,-74.020594
1220.728303,-10955.047942,-1149.143247,666.185348
1220.728614,-9992.780217,-1838.629195,1406.391290
1220.728925,-9548.656652,-1991.848295,1776.494261
1220.729237,-9326.594869,-1378.971896,1998.556043
1220.729548,-8364.327145,-689.485948,1702.473667
1220.729860,-7772.162391,229.828649,1406.391290
1220.730171,-6883.915261,1838.629195,1332.370696
1220.730482,-6291.750507,2681.334243,592.164754
1220.730794,-5995.668130,2451.505594,148.041188
1220.731105,-6587.832884,1762.019645,-296.082377
1220.731416,-6957.935855,612.876398,-222.061783
1220.731728,-7476.080014,229.828649,-666.185348
1220.732039,-8882.471304,-459.657299,-518.144159
1220.732350,-9622.677246,-1378.971896,-74.020594
1220.732662,-10436.903782,-2221.676944,518.144159
1220.732973,-10881.027347,-2374.896044,1406.391290
1220.733284,-11473.192101,-2298.286494,1036.288319
1220.733596,-10881.027347,-1685.410096,1554.432478
1220.733907,-9992.780217,-383.047749,1332.370696
1220.734218,-8882.471304,383.047749,740.205942
1220.734530,-7846.182985,995.924147,296.082377
1220.734841,-7402.059420,1532.190996,-148.041188
1220.735153,-7476.080014,1838.629195,-444.123565
1220.735464,-7846.182985,2221.676944,-444.123565
1220.735775,-8956.491898,1149.143247,-444.123565
1220.736087,-9696.697840,0.000000,-222.061783
1220.736398,-9992.780217,-459.657299,148.041188
1220.736709,-9844.739029,-1378.971896,222.061783
1220.737021,-10436.903782,-1915.238745,518.144159
1220.737332,-10732.986159,-1991.848295,740.205942
1220.737643,-10658.965565,-2681.334243,740.205942
1220.737955,-9770.718434,-2298.286494,1184.329507
1220.738266,-8956.491898,-1532.190996,296.082377
1220.738577,-8586.388927,-612.876398,444.123565
1220.738889,-8290.306550,-153.219100,-0.000000
1220.739200,-7846.182985,919.314598,-0.000000
1220.739511,-7624.121203,1532.190996,296.082377
1220.739823,-7179.997637,1915.238745,370.102971
1220.740134,-8364.327145,1225.752797,148.041188
1220.740446,-7846.182985,842.705048,592.164754
1220.740757,-7550.100608,689.485948,-148.041188
1220.741068,-8068.244768,536.266849,-444.123565
1220.741380,-8586.388927,229.828649,-666.185348
1220.741691,-9770.718434,-306.438199,-370.102971
1220.742002,-10584.944971,-995.924147,-0.000000
1220.742314,-11029.068536,-1149.143247,666.185348
1220.742625,-10510.924376,-1225.752797,1184.329507
1220.742936,-9622.677246,-1225.752797,1480.411884
1220.743248,-9326.594869,-766.095498,1554.432478
1220.743559,-8512.368333,-536.266849,1258.350101
1220.743870,-8216.285956,1225.752797,740.205942
1220.744182,-7772.162391,2374.896044,888.247130
1220.744493,-7920.203579,1991.848295,592.164754
1220.744804,-8364.327145,1762.019645,370.102971
1220.745116,-8660.409521,842.705048,370.102971
1220.745427,-8734.430116,536.266849,-74.020594
1220.745738,-8586.388927,0.000000,296.082377
1220.746050,-9622.677246,-459.657299,296.082377
1220.746361,-9622.677246,-1685.410096,592.164754
1220.746673,-9770.718434,-2221.676944,962.267725
1220.746984,-9474.636058,-1915.238745,1554.432478
1220.747295,-9326.594869,-1072.533697,1554.432478
1220.747607,-9252.574275,229.828649,1702.473667
1220.747918,-8734.430116,536.266849,1480.411884
1220.748229,-8142.265362,1532.190996,962.267725
1220.748541,-7624.121203,2451.505594,740.205942
1220.748852,-6809.894666,2911.162892,148.041188
1220.749163,-6735.874072,2145.067394,-592.164754
1220.749475,-6883.915261,2145.067394,-518.144159
1220.749786,-6809.894666,612.876398,-518.144159
1220.750097,-8142.265362,0.000000,-962.267725
1220.750409,-9696.697840,-919.314598,-74.020594
1220.750720,-11177.109724,-1991.848295,518.144159
1220.751031,-11991.336260,-2451.505594,1258.350101
1220.751343,-11917.315666,-2145.067394,1702.473667
1220.751654,-11843.295072,-2145.067394,1702.473667
1220.751966,-10436.903782,-1762.019645,1554.432478
1220.752277,-9178.553681,-689.485948,666.185348
1220.752588,-7624.121203,536.266849,370.102971
1220.752900,-7105.977043,1991.848295,148.041188
1220.753211,-7402.059420,2298.286494,-74.020594
1220.753522,-7772.162391,1915.238745,-74.020594
1220.753834,-8290.306550,1991.848295,-0.000000
1220.754145,-9178.553681,1072.533697,-148.041188
1220.754456,-9844.739029,536.266849,-296.082377
1220.754768,-9844.739029,76.609550,-148.041188
1220.755079,-9918.759623,-612.876398,370.102971
1220.755390,-9474.636058,-2145.067394,592.164754
1220.755702,-9992.780217,-2528.115143,888.247130
1220.756013,-9696.697840,-2528.115143,1480.411884
1220.756324,-9326.594869,-2374.896044,1110.308913
1220.756636,-8882.471304,-1455.581446,1110.308913
1220.756947,-8512.368333,0.000000,592.164754
1220.757259,-7476.080014,689.485948,518.144159
1220.757570,-7254.018232,1302.362347,148.041188
1220.757881,-6883.915261,1149.143247,666.185348
1220.758193,-7105.977043,1225.752797,592.164754
1220.758504,-7698.141797,689.485948,222.061783
1220.758815,-7550.100608,459.657299,-0.000000
1220.759127,-8438.347739,153.219100,-444.123565
1220.759438,-8660.409521,459.657299,-370.102971
1220.759749,-9474.636058,-306.438199,-518.144159
1220.760061,-10732.986159,-919.314598,-148.041188
1220.760372,-10732.986159,-1838.629195,814.226536
1220.760683,-10955.047942,-1915.238745,1110.308913
1220.760995,-10362.883188,-1378.971896,1332.370696
1220.761306,-9474.636058,-1302.362347,1406.391290
1220.761617,-8956.491898,-383.047749,1110.308913
1220.761929,-8290.306550,459.657299,444.123565
1220.762240,-7772.162391,1991.848295,666.185348
1220.762552,-7846.182985,1532.190996,814.226536
1220.762863,-8808.450710,1455.581446,666.185348
1220.763174,-9252.574275,1225.752797,592.164754
1220.763486,-9178.553681,306.438199,-0.000000
1220.763797,-9400.615463,76.609550,148.041188
1220.764108,-9918.759623,-536.266849,-0.000000
1220.764420,-10214.842000,-1608.800546,-0.000000
1220.764731,-10732.986159,-1302.362347,148.041188
1220.765042,-10658.965565,-1532.190996,1184.329507
1220.765354,-9918.759623,-1225.752797,1628.453072
1220.765665,-9178.553681,-306.438199,1850.514855
1220.765976,-7846.182985,536.266849,1406.391290
1220.766288,-7179.997637,1302.362347,962.267725
1220.766599,-5995.668130,2374.896044,888.247130
1220.766910,-5995.668130,3140.991542,444.123565
1220.767222,-6217.729913,2987.772442,-74.020594
1220.767533,-6957.935855,1378.971896,-666.185348
1220.767845,-7476.080014,689.485948,-370.102971
1220.768156,-8068.244768,229.828649,-814.226536
1220.768467,-9030.512492,-689.485948,-444.123565
1220.768779,-9992.780217,-1608.800546,148.041188
1220.769090,-10955.047942,-2528.115143,370.102971
1220.769401,-11029.068536,-2451.505594,1702.473667
1220.769713,-11029.068536,-2298.286494,1998.556043
1220.770024,-10288.862594,-1685.410096,1850.514855
1220.770335,-9326.594869,-459.657299,1702.473667
1220.770647,-7846.182985,153.219100,1258.350101
1220.770958,-6809.894666,689.485948,1036.288319
1220.771269,-7624.121203,1225.752797,592.164754
1220.771581,-7624.121203,1608.800546,666.185348
1220.771892,-8216.285956,2068.457845,222.061783
1220.772203,-9178.553681,1532.190996,148.041188
1220.772515,-9770.718434,689.485948,-0.000000
1220.772826,-9548.656652,-153.219100,-148.041188
1220.773138,-9770.718434,-612.876398,222.061783
1220.773449,-9474.636058,-1072.533697,592.164754
1220.773760,-10066.800811,-2145.067394,888.247130
1220.774072,-10510.924376,-2374.896044,814.226536
1220.774383,-9178.553681,-1762.019645,1480.411884
1220.774694,-9326.594869,-1149.143247,814.226536
1220.775006,-8956.491898,-1149.143247,888.247130
1220.775317,-8586.388927,0.000000,740.205942
1220.775628,-7846.182985,153.219100,962.267725
1220.775940,-7624.121203,536.266849,888.247130
1220.776251,-7328.038826,612.876398,962.267725
1220.776562,-7772.162391,0.000000,-0.000000
1220.776874,-7994.224174,229.828649,-0.000000
1220.777185,-7920.203579,153.219100,-666.185348
1220.777496,-8216.285956,536.266849,-518.144159
1220.777808,-8882.471304,76.609550,-740.205942
1220.778119,-10066.800811,-1149.143247,-148.041188
1220.778431,-10658.965565,-1915.238745,740.205942
1220.778742,-10436.903782,-1532.190996,1036.288319
1220.779053,-9770.718434,-1072.533697,1036.288319
1220.779365,-9770.718434,-842.705048,1406.391290
1220.779676,-9326.594869,-612.876398,1702.473667
1220.779987,-8660.409521,0.000000,814.226536
1220.780299,-7994.224174,1378.971896,518.144159
1220.780610,-7846.182985,2451.505594,518.144159
1220.780921,-7920.203579,2298.286494,74.020594
1220.781233,-7920.203579,1685.410096,-370.102971
1220.781544,-8290.306550,536.266849,-592.164754
1220.781855,-8290.306550,995.924147,-370.102971
1220.782167,-9770.718434,383.047749,-370.102971
1220.782478,-10807.006753,-459.657299,222.061783
1220.782789,-10881.027347,-1455.581446,740.205942
1220.783101,-10214.842000,-2068.457845,1036.288319
1220.783412,-9696.697840,-1225.752797,1110.308913
1220.783724,-8660.409521,-1072.533697,1554.432478
1220.784035,-8808.450710,-306.438199,740.205942
1220.784346,-7476.080014,612.876398,814.226536
1220.784658,-7402.059420,1762.019645,666.185348
1220.784969,-7179.997637,2528.115143,370.102971
1220.785280,-7179.997637,2374.896044,296.082377
1220.785592,-7254.018232,1762.019645,-296.082377
1220.785903,-7105.977043,995.924147,-666.185348
1220.786214,-7105.977043,-229.828649,-666.185348
1220.786526,-8660.409521,-459.657299,-518.144159
1220.786837,-9326.594869,-995.924147,-74.020594
1220.787148,-10807.006753,-2145.067394,518.144159
1220.787460,-11103.089130,-2451.505594,1628.453072
1220.787771,-11177.109724,-1838.629195,1924.535449
1220.788082,-11103.089130,-689.485948,2072.576638
1220.788394,-9770.718434,-1685.410096,1776.494261
1220.788705,-8660.409521,-229.828649,1480.411884
1220.789017,-7550.100608,919.314598,666.185348
1220.789328,-7476.080014,1455.581446,-296.082377
1220.789639,-7550.100608,2145.067394,-74.020594
1220.789951,-7624.121203,2221.676944,-74.020594
1220.790262,-8438.347739,1378.971896,-0.000000
1220.790573,-8956.491898,536.266849,-0.000000
1220.790885,-9696.697840,0.000000,148.041188
1220.791196,-9918.759623,-1532.190996,518.144159
1220.791507,-9992.780217,-1608.800546,740.205942
1220.791819,-9992.780217,-2451.505594,1110.308913
1220.792130,-10288.862594,-2374.896044,962.267725
1220.792441,-9918.759623,-2451.505594,1110.308913
1220.792753,-9326.594869,-1762.019645,888.247130
1220.793064,-8216.285956,-995.924147,1110.308913
1220.793375,-8438.347739,-306.438199,-0.000000
1220.793687,-7550.100608,1455.581446,518.144159
1220.793998,-7624.121203,1072.533697,444.123565
1220.794310,-7328.038826,1915.238745,444.123565
1220.794621,-7846.182985,1991.848295,-0.000000
1220.794932,-8068.244768,1685.410096,-0.000000
1220.795244,-8068.244768,1225.752797,-74.020594
1220.795555,-8216.285956,459.657299,-444.123565
1220.795866,-8290.306550,0.000000,-444.123565
1220.796178,-9474.636058,-612.876398,-222.061783
1220.796489,-10214.842000,-1685.410096,296.082377
1220.796800,-10658.965565,-1455.581446,814.226536
1220.797112,-10288.862594,-1532.190996,888.247130
1220.797423,-9844.739029,-1072.533697,1332.370696
1220.797734,-9104.533087,-459.657299,1184.329507
1220.798046,-8438.347739,0.000000,962.267725
1220.798357,-8068.244768,1072.533697,370.102971
1220.798668,-7994.224174,1991.848295,444.123565
1220.798980,-7920.203579,2374.896044,444.123565
1220.799291,-8364.327145,1762.019645,518.144159
1220.799603,-8808.450710,1149.143247,296.082377
1220.799914,-9030.512492,229.828649,-0.000000
1220.800225,-9252.574275,76.609550,-74.020594
1220.800537,-9770.718434,0.000000,-0.000000
1220.800848,-10214.842000,-1072.533697,74.020594
1220.801159,-10436.903782,-1991.848295,1036.288319
1220.801471,-10288.862594,-2911.162892,1628.453072
1220.801782,-9548.656652,-1915.238745,1776.494261
1220.802093,-9178.553681,-1378.971896,1702.473667
1220.802405,-8068.244768,-229.828649,1628.453072
1220.802716,-7328.038826,1072.533697,888.247130
1220.803027,-7031.956449,1685.410096,222.061783
1220.803339,-6365.771101,1991.848295,444.123565
1220.803650,-6439.791695,1455.581446,-222.061783
1220.803961,-6883.915261,1149.143247,-0.000000
1220.804273,-7624.121203,306.438199,-444.123565
1220.804584,-8512.368333,-383.047749,-666.185348
1220.804896,-9622.677246,-1302.362347,-222.061783
1220.805207,-10584.944971,-1532.190996,222.061783
1220.805518,-10658.965565,-1991.848295,1036.288319
1220.805830,-11325.150913,-2298.286494,1406.391290
1220.806141,-11399.171507,-1378.971896,1332.370696
1220.806452,-10140.821405,-1072.533697,1332.370696
1220.806764,-9326.594869,-153.219100,1258.350101
1220.807075,-8290.306550,689.485948,444.123565
1220.807386,-7698.141797,2068.457845,222.061783
1220.807698,-7994.224174,2221.676944,-148.041188
1220.808009,-7402.059420,2757.943793,-148.041188
1220.808320,-8512.368333,1685.410096,-0.000000
1220.808632,-9844.739029,0.000000,-296.082377
1220.808943,-10140.821405,-229.828649,-0.000000
1220.809254,-10066.800811,-842.705048,-0.000000
1220.809566,-9992.780217,-1378.971896,592.164754
1220.809877,-10436.903782,-1685.410096,444.123565
1220.810189,-10214.842000,-2451.505594,1110.308913
1220.810500,-9622.677246,-2451.505594,962.267725
1220.810811,-8808.450710,-1991.848295,1110.308913
1220.811123,-8216.285956,-995.924147,1258.350101
1220.811434,-8438.347739,-689.485948,1036.288319
1220.811745,-7624.121203,536.266849,962.267725
1220.812057,-7105.977043,1608.800546,518.144159
1220.812368,-6809.894666,2298.286494,592.164754
