#time,accel_x,accel_y,accel_z
1439.968775,-9030.512492,0.000000,-0.000000
1439.969086,-8734.430116,0.000000,592.164754
1439.969398,-8882.471304,0.000000,518.144159
1439.969709,-9030.512492,0.000000,444.123565
1439.970021,-8882.471304,76.609550,518.144159
1439.970333,-8660.409521,0.000000,592.164754
1439.970644,-8882.471304,-153.219100,592.164754
1439.970956,-8290.306550,0.000000,666.185348
1439.971268,-8808.450710,0.000000,666.185348
1439.971579,-8586.388927,0.000000,518.144159
1439.971891,-8882.471304,-229.828649,666.185348
1439.972203,-8956.491898,-229.828649,370.102971
1439.972514,-9030.512492,0.000000,518.144159
1439.972826,-8882.471304,76.609550,592.164754
1439.973137,-8882.471304,76.609550,370.102971
1439.973449,-8882.471304,76.609550,592.164754
1439.973761,-9104.533087,0.000000,518.144159
1439.974072,-8956.491898,0.000000,222.061783
1439.974384,-8956.491898,0.000000,518.144159
1439.974696,-8734.430116,0.000000,444.123565
1439.975007,-8882.471304,76.609550,666.185348
1439.975319,-9030.512492,-229.828649,518.144159
1439.975630,-8734.430116,383.047749,444.123565
1439.975942,-8956.491898,76.609550,444.123565
1439.976254,-8512.368333,-153.219100,814.226536
1439.976565,-8882.471304,76.609550,592.164754
1439.976877,-9030.512492,-229.828649,518.144159
1439.977189,-8956.491898,0.000000,444.123565
1439.977500,-9030.512492,-153.219100,592.164754
1439.977812,-8808.450710,76.609550,592.164754
1439.978124,-8808.450710,-229.828649,518.144159
1439.978435,-8882.471304,0.000000,518.144159
1439.978747,-8882.471304,-229.828649,666.185348
1439.979058,-8882.471304,-229.828649,444.123565
1439.979370,-8808.450710,0.000000,518.144159
1439.979682,-8882.471304,0.000000,592.164754
1439.979993,-8882.471304,0.000000,666.185348
1439.980305,-8734.430116,0.000000,518.144159
1439.980617,-9178.553681,-76.609550,-0.000000
1439.980928,-8808.450710,306.438199,592.164754
1439.981240,-8808.450710,-306.438199,592.164754
1439.981551,-9030.512492,-229.828649,592.164754
1439.981863,-9030.512492,-153.219100,518.144159
1439.982175,-8808.450710,0.000000,518.144159
1439.982486,-8808.450710,0.000000,444.123565
1439.982798,-9104.533087,-229.828649,296.082377
1439.983110,-8586.388927,0.000000,518.144159
1439.983421,-8882.471304,0.000000,666.185348
1439.983733,-9030.512492,-306.438199,444.123565
1439.984044,-9030.512492,0.000000,370.102971
1439.984356,-8882.471304,-153.219100,518.144159
1439.984668,-9030.512492,0.000000,518.144159
1439.984979,-9030.512492,0.000000,518.144159
1439.985291,-8660.409521,76.609550,518.144159
1439.985603,-8734.430116,-383.047749,296.082377
1439.985914,-8512.368333,0.000000,592.164754
1439.986226,-8808.450710,-153.219100,518.144159
1439.986538,-8882.471304,-153.219100,740.205942
1439.986849,-8882.471304,-153.219100,444.123565
1439.987161,-8808.450710,0.000000,444.123565
1439.987472,-8956.491898,76.609550,592.164754
1439.987784,-9030.512492,76.609550,370.102971
1439.988096,-9252.574275,306.438199,-0.000000
1439.988407,-9178.553681,0.000000,518.144159
1439.988719,-8734.430116,0.000000,814.226536
1439.989031,-9030.512492,0.000000,444.123565
1439.989342,-9030.512492,0.000000,592.164754
1439.989654,-8808.450710,0.000000,518.144159
1439.989965,-8882.471304,0.000000,592.164754
1439.990277,-8660.409521,229.828649,592.164754
1439.990589,-8956.491898,76.609550,1036.288319
1439.990900,-8660.409521,0.000000,592.164754
1439.991212,-8808.450710,0.000000,370.102971
1439.991524,-8882.471304,0.000000,370.102971
1439.991835,-8808.450710,-153.219100,444.123565
1439.992147,-8956.491898,0.000000,518.144159
1439.992458,-8808.450710,306.438199,740.205942
1439.992770,-8734.430116,-229.828649,740.205942
1439.993082,-9178.553681,536.266849,296.082377
1439.993393,-8660.409521,153.219100,740.205942
1439.993705,-9178.553681,0.000000,444.123565
1439.994017,-8956.491898,0.000000,592.164754
1439.994328,-8956.491898,0.000000,518.144159
1439.994640,-8956.491898,76.609550,592.164754
1439.994952,-8808.450710,76.609550,592.164754
1439.995263,-8586.388927,0.000000,518.144159
1439.995575,-9104.533087,0.000000,296.082377
1439.995886,-8734.430116,0.000000,-0.000000
1439.996198,-8882.471304,-306.438199,740.205942
1439.996510,-8882.471304,0.000000,592.164754
1439.996821,-8808.450710,-383.047749,518.144159
1439.997133,-8882.471304,0.000000,666.185348
1439.997445,-10436.903782,76.609550,296.082377
1439.997756,-11843.295072,2374.896044,222.061783
1439.998068,-9104.533087,5132.839837,740.205942
1439.998379,-8142.265362,4366.744339,518.144159
1439.998691,-6809.894666,1838.629195,1480.411884
1439.999003,-6735.874072,-919.314598,296.082377
1439.999314,-7402.059420,-1149.143247,-148.041188
1439.999626,-7846.182985,0.000000,-148.041188
1439.999938,-10658.965565,-766.095498,-1184.329507
1440.000249,-13175.665768,0.000000,-666.185348
1440.000561,-10436.903782,919.314598,740.205942
1440.000872,-9178.553681,-383.047749,1184.329507
1440.001184,-8660.409521,-612.876398,3108.864956
1440.001496,-11621.233289,0.000000,1776.494261
1440.001807,-9770.718434,3447.429741,2294.638420
1440.002119,-5181.441594,6128.763984,2146.597232
1440.002431,-6735.874072,3753.867940,1258.350101
1440.002742,-8142.265362,2604.724693,-518.144159
1440.003054,-6809.894666,2987.772442,-2220.617826
1440.003366,-8956.491898,3294.210641,-1924.535449
1440.003677,-8586.388927,3753.867940,-148.041188
1440.003989,-11325.150913,2604.724693,-1406.391290
1440.004300,-14804.118840,-536.266849,222.061783
1440.004612,-9326.594869,-1149.143247,2812.782580
1440.004924,-9696.697840,-153.219100,518.144159
1440.005235,-8586.388927,4290.134789,3108.864956
1440.005547,-7846.182985,6052.154434,1554.432478
1440.005859,-7476.080014,3294.210641,1998.556043
1440.006170,-5847.626942,3600.648841,2368.659014
1440.006482,-7328.038826,6052.154434,740.205942
1440.006793,-8660.409521,6741.640382,-666.185348
1440.007105,-9178.553681,5898.935335,-1628.453072
1440.007417,-9474.636058,5439.278036,-1258.350101
1440.007728,-10732.986159,5362.668486,-1184.329507
1440.008040,-12065.356855,5056.230287,-296.082377
1440.008352,-11843.295072,4903.011187,962.267725
1440.008663,-10510.924376,4136.915689,1850.514855
1440.008975,-9326.594869,5056.230287,2294.638420
1440.009287,-7328.038826,5669.106685,1776.494261
1440.009598,-5847.626942,5898.935335,-444.123565
1440.009910,-5329.482782,5286.058936,370.102971
1440.010221,-4959.379811,5975.544884,-148.041188
1440.010533,-6439.791695,4749.792088,-1184.329507
1440.010845,-7994.224174,4290.134789,-518.144159
1440.011156,-9326.594869,2987.772442,-592.164754
1440.011468,-10510.924376,1991.848295,740.205942
1440.011780,-10881.027347,306.438199,888.247130
1440.012091,-10288.862594,459.657299,1628.453072
1440.012403,-10584.944971,536.266849,1332.370696
1440.012714,-9474.636058,2681.334243,2442.679609
1440.013026,-8512.368333,3294.210641,1924.535449
1440.013338,-7179.997637,3830.477490,296.082377
1440.013649,-6439.791695,3677.258390,-0.000000
1440.013961,-6957.935855,3677.258390,-888.247130
1440.014273,-7179.997637,4519.963438,-1406.391290
1440.014584,-6883.915261,2451.505594,-1554.432478
1440.014896,-8512.368333,0.000000,-1184.329507
1440.015207,-10140.821405,-2451.505594,-222.061783
1440.015519,-12139.377449,-2374.896044,1184.329507
1440.015831,-12879.583391,-2068.457845,2220.617826
1440.016142,-13175.665768,-1455.581446,1998.556043
1440.016454,-12139.377449,306.438199,1998.556043
1440.016766,-10658.965565,1455.581446,296.082377
1440.017077,-8364.327145,3217.601092,-0.000000
1440.017389,-6439.791695,4060.306139,-148.041188
1440.017701,-6217.729913,4826.401637,-444.123565
1440.018012,-7254.018232,4903.011187,518.144159
1440.018324,-8290.306550,3294.210641,518.144159
1440.018635,-10362.883188,1838.629195,222.061783
1440.018947,-11547.212695,766.095498,444.123565
1440.019259,-12435.459826,459.657299,-0.000000
1440.019570,-13323.706956,-612.876398,-0.000000
1440.019882,-13101.645173,995.924147,148.041188
1440.020194,-11991.336260,2451.505594,370.102971
1440.020505,-9918.759623,3907.087040,1480.411884
1440.020817,-7698.141797,4903.011187,1628.453072
1440.021128,-5033.400406,5286.058936,1628.453072
1440.021440,-3034.844362,5745.716235,296.082377
1440.021752,-1924.535449,6052.154434,-740.205942
1440.022063,-2590.720797,5362.668486,-1776.494261
1440.022375,-6143.709319,2987.772442,-1554.432478
1440.022687,-9992.780217,2528.115143,-740.205942
1440.022998,-13471.748144,2604.724693,-0.000000
1440.023310,-15248.242405,2757.943793,1924.535449
1440.023621,-15322.262999,2834.553343,3256.906145
1440.023933,-12435.459826,2987.772442,4293.194464
1440.024245,-8142.265362,2911.162892,2886.803174
1440.024556,-4589.276840,3600.648841,1998.556043
1440.024868,-2220.617826,5286.058936,-0.000000
1440.025180,-2442.679609,7124.688131,-1554.432478
1440.025491,-2886.803174,8044.002729,-2442.679609
1440.025803,-5699.585753,6281.983084,-1850.514855
1440.026115,-8142.265362,4060.306139,-296.082377
1440.026426,-10362.883188,919.314598,-0.000000
1440.026738,-10955.047942,-1072.533697,1258.350101
1440.027049,-11769.274478,-3447.429741,2294.638420
1440.027361,-11843.295072,-2834.553343,1554.432478
1440.027673,-12731.542202,-1455.581446,962.267725
1440.027984,-12213.398043,1762.019645,1258.350101
1440.028296,-11399.171507,3983.696590,1406.391290
1440.028608,-9400.615463,6435.202183,2072.576638
1440.028919,-7402.059420,4979.620737,2368.659014
1440.029231,-7550.100608,3600.648841,814.226536
1440.029542,-5773.606348,2987.772442,296.082377
1440.029854,-6513.812290,2834.553343,-2072.576638
1440.030166,-8586.388927,3830.477490,-2220.617826
1440.030477,-9252.574275,3600.648841,-2664.741391
1440.030789,-11917.315666,2451.505594,-1850.514855
1440.031101,-12287.418637,2068.457845,148.041188
1440.031412,-11843.295072,1378.971896,1850.514855
1440.031724,-13693.809927,1685.410096,1554.432478
1440.032035,-12805.562797,3753.867940,2738.761985
1440.032347,-10658.965565,5439.278036,1184.329507
1440.032659,-8142.265362,6511.811733,666.185348
1440.032970,-6217.729913,6818.249932,-0.000000
1440.033282,-5847.626942,4826.401637,-1628.453072
1440.033594,-6291.750507,2681.334243,-1332.370696
1440.033905,-7624.121203,3140.991542,-814.226536
1440.034217,-8660.409521,2451.505594,296.082377
1440.034529,-8808.450710,766.095498,148.041188
1440.034840,-8882.471304,-2145.067394,1776.494261
1440.035152,-7920.203579,-3524.039291,1480.411884
1440.035463,-7698.141797,-689.485948,1036.288319
1440.035775,-9030.512492,3677.258390,370.102971
1440.036087,-10066.800811,6588.421283,148.041188
1440.036398,-10732.986159,9346.365076,296.082377
1440.036710,-10362.883188,8810.098227,1480.411884
1440.037022,-9918.759623,6665.030833,1480.411884
1440.037333,-8586.388927,4136.915689,1110.308913
1440.037645,-7105.977043,3677.258390,740.205942
1440.037956,-5921.647536,4443.353888,-0.000000
1440.038268,-4515.256246,3447.429741,222.061783
1440.038580,-4219.173869,919.314598,-74.020594
1440.038891,-6661.853478,-1991.848295,-518.144159
1440.039203,-8216.285956,0.000000,-740.205942
1440.039515,-10140.821405,4519.963438,-1184.329507
1440.039826,-12213.398043,7354.516781,-74.020594
1440.040138,-12361.439231,6665.030833,1850.514855
1440.040449,-14211.954086,2681.334243,3182.885551
1440.040761,-13397.727550,919.314598,4367.215058
1440.041073,-10510.924376,3217.601092,3182.885551
1440.041384,-7550.100608,3983.696590,1850.514855
1440.041696,-4737.318029,2451.505594,1554.432478
1440.042008,-4071.132681,-3447.429741,148.041188
1440.042319,-4293.194464,-6971.469032,-444.123565
1440.042631,-5921.647536,-4443.353888,-740.205942
1440.042943,-7328.038826,1838.629195,-1036.288319
1440.043254,-10066.800811,5515.887586,-814.226536
1440.043566,-14508.036463,3294.210641,814.226536
1440.043877,-17172.777854,1302.362347,2442.679609
1440.044189,-17468.860231,3370.820191,2738.761985
1440.044500,-14063.912898,7890.783629,2738.761985
1440.044812,-8660.409521,8273.831378,1924.535449
1440.045123,-4663.297435,3217.601092,296.082377
1440.045434,-1924.535449,-1762.019645,-814.226536
1440.045746,370.102971,-919.314598,-1332.370696
1440.046057,-888.247130,2681.334243,-1998.556043
1440.046369,-6513.812290,4749.792088,-1036.288319
1440.046680,-12805.562797,2681.334243,-666.185348
1440.046992,-17024.736666,1532.190996,-0.000000
1440.047303,-16284.530724,4060.306139,1406.391290
1440.047615,-13397.727550,5745.716235,1184.329507
1440.047926,-11769.274478,4060.306139,-74.020594
1440.048238,-10140.821405,995.924147,-1480.411884
1440.048549,-6217.729913,919.314598,-1628.453072
1440.048861,-3775.050304,2604.724693,-666.185348
1440.049172,-4811.338623,1915.238745,1184.329507
1440.049484,-7698.141797,-766.095498,2664.741391
1440.049795,-10288.862594,-2911.162892,2960.823768
1440.050106,-9622.677246,-306.438199,3923.091493
1440.050418,-8734.430116,5056.230287,1406.391290
1440.050729,-9992.780217,7814.174080,-2368.659014
1440.051041,-9918.759623,7354.516781,-4293.194464
1440.051352,-6661.853478,6665.030833,-4885.359217
1440.051664,-5625.565159,7737.564530,-3552.988522
1440.051975,-9622.677246,7737.564530,-1110.308913
1440.052287,-14285.974681,4673.182538,370.102971
1440.052598,-13989.892304,919.314598,3775.050304
1440.052910,-10584.944971,-1455.581446,5551.544565
1440.053221,-6957.935855,-2068.457845,4515.256246
1440.053533,-6365.771101,-2987.772442,740.205942
1440.053844,-3034.844362,-766.095498,-888.247130
1440.054156,370.102971,153.219100,-1184.329507
1440.054467,-3701.029710,1991.848295,-814.226536
1440.054778,-11177.109724,2911.162892,-0.000000
1440.055090,-14952.160028,2604.724693,1628.453072
1440.055401,-14211.954086,0.000000,3997.112087
1440.055713,-11399.171507,-1149.143247,4589.276840
1440.056024,-10955.047942,-1608.800546,1110.308913
1440.056336,-7772.162391,-2145.067394,-1332.370696
1440.056647,-3775.050304,-3600.648841,-1258.350101
1440.056959,-4071.132681,-4979.620737,666.185348
1440.057270,-7328.038826,-4979.620737,1258.350101
1440.057582,-10584.944971,-3524.039291,2146.597232
1440.057893,-10807.006753,-4366.744339,4293.194464
1440.058205,-9548.656652,-4060.306139,4515.256246
1440.058516,-9474.636058,-2757.943793,2072.576638
1440.058828,-7105.977043,-1378.971896,-2294.638420
1440.059139,-5847.626942,-383.047749,-3478.967927
1440.059450,-6735.874072,-306.438199,-1554.432478
1440.059762,-10510.924376,0.000000,-1628.453072
1440.060073,-14656.077652,-1302.362347,518.144159
1440.060385,-13397.727550,-3753.867940,2664.741391
1440.060696,-12805.562797,-3830.477490,4293.194464
1440.061008,-12953.603985,-1608.800546,2664.741391
1440.061319,-9548.656652,1378.971896,-1036.288319
1440.061631,-5551.544565,2145.067394,-3701.029710
1440.061942,-4293.194464,3064.381992,-2368.659014
1440.062254,-5921.647536,4979.620737,-1258.350101
1440.062565,-9992.780217,3983.696590,-2368.659014
1440.062877,-11917.315666,1838.629195,-370.102971
1440.063188,-13175.665768,1225.752797,666.185348
1440.063500,-12879.583391,2911.162892,518.144159
1440.063811,-12213.398043,3600.648841,-1776.494261
1440.064123,-8956.491898,1302.362347,-1924.535449
1440.064434,-6957.935855,-1532.190996,-0.000000
1440.064745,-9326.594869,-689.485948,2664.741391
1440.065057,-11177.109724,1685.410096,2442.679609
1440.065368,-10140.821405,2145.067394,1628.453072
1440.065680,-7105.977043,1378.971896,2960.823768
1440.065991,-3701.029710,2451.505594,518.144159
1440.066303,-3849.070898,4443.353888,-3849.070898
1440.066614,-3701.029710,4213.525239,-4663.297435
1440.066926,-5033.400406,1608.800546,-2294.638420
1440.067237,-9104.533087,153.219100,296.082377
1440.067549,-15174.221811,-459.657299,2442.679609
1440.067860,-14285.974681,-1762.019645,4515.256246
1440.068172,-10510.924376,-4749.792088,5181.441594
1440.068483,-8364.327145,-4596.572988,4885.359217
1440.068795,-4589.276840,-689.485948,2146.597232
1440.069106,-740.205942,1608.800546,-1184.329507
1440.069417,-740.205942,919.314598,-0.000000
1440.069729,-3849.070898,-306.438199,1998.556043
1440.070040,-6661.853478,459.657299,814.226536
1440.070352,-8660.409521,383.047749,1480.411884
1440.070663,-9474.636058,-1838.629195,2146.597232
1440.070975,-8956.491898,-2987.772442,1480.411884
1440.071286,-10955.047942,-2298.286494,-444.123565
1440.071598,-9992.780217,-2604.724693,-74.020594
1440.071909,-9992.780217,-4749.792088,1184.329507
1440.072221,-12879.583391,-4060.306139,2368.659014
1440.072532,-14582.057057,-766.095498,2516.700203
1440.072844,-13397.727550,229.828649,666.185348
1440.073155,-9770.718434,-1149.143247,1628.453072
1440.073467,-7328.038826,-2068.457845,814.226536
1440.073778,-5477.523971,153.219100,-2368.659014
1440.074089,-3923.091493,766.095498,-3330.926739
1440.074401,-6143.709319,-1762.019645,-2072.576638
1440.074712,-10807.006753,-2757.943793,-296.082377
1440.075024,-15396.283594,-1762.019645,-0.000000
1440.075335,-16950.716072,-842.705048,1554.432478
1440.075647,-16432.571912,-3217.601092,3701.029710
1440.075958,-14804.118840,-3524.039291,2738.761985
1440.076270,-11917.315666,76.609550,1406.391290
1440.076581,-8290.306550,2834.553343,-296.082377
1440.076893,-5847.626942,3370.820191,-148.041188
1440.077204,-7254.018232,3677.258390,-666.185348
1440.077516,-9030.512492,6128.763984,-1998.556043
1440.077827,-9030.512492,6741.640382,-2886.803174
1440.078139,-7994.224174,4979.620737,-2738.761985
1440.078450,-7031.956449,3294.210641,-1480.411884
1440.078762,-6661.853478,2834.553343,-1850.514855
1440.079073,-4367.215058,689.485948,-296.082377
1440.079384,-5403.503377,-2834.553343,1924.535449
1440.079696,-8142.265362,-2374.896044,3552.988522
1440.080007,-10732.986159,153.219100,2960.823768
1440.080319,-9548.656652,2068.457845,2590.720797
1440.080630,-7328.038826,1915.238745,2072.576638
1440.080942,-5773.606348,1072.533697,-296.082377
1440.081253,-4959.379811,2068.457845,-2442.679609
1440.081565,-2516.700203,2681.334243,-3330.926739
1440.081876,-2664.741391,612.876398,-814.226536
1440.082188,-6217.729913,-2604.724693,1258.350101
1440.082499,-10881.027347,-4366.744339,2220.617826
1440.082811,-12213.398043,-4979.620737,3701.029710
1440.083122,-11843.295072,-6052.154434,4663.297435
1440.083434,-10362.883188,-4596.572988,4515.256246
1440.083745,-8882.471304,-2987.772442,1332.370696
1440.084056,-7402.059420,-2221.676944,-666.185348
1440.084368,-6217.729913,-1915.238745,-296.082377
1440.084679,-7476.080014,-919.314598,740.205942
1440.084991,-9474.636058,689.485948,-0.000000
1440.085302,-10288.862594,1302.362347,148.041188
1440.085614,-9770.718434,-612.876398,-0.000000
1440.085925,-8660.409521,-1685.410096,518.144159
1440.086237,-8290.306550,0.000000,-1036.288319
1440.086548,-8364.327145,612.876398,-1998.556043
1440.086860,-10214.842000,0.000000,-814.226536
1440.087171,-12953.603985,-919.314598,1332.370696
1440.087483,-15840.407159,0.000000,2738.761985
1440.087794,-16580.613101,-383.047749,2442.679609
1440.088106,-14211.954086,-919.314598,2294.638420
1440.088417,-11917.315666,-383.047749,814.226536
1440.088728,-10066.800811,1915.238745,-2294.638420
1440.089040,-6883.915261,2681.334243,-3627.009116
1440.089351,-5847.626942,919.314598,-3627.009116
1440.089663,-8808.450710,-153.219100,-888.247130
1440.089974,-11177.109724,229.828649,1110.308913
1440.090286,-12213.398043,766.095498,3182.885551
1440.090597,-11843.295072,-536.266849,4737.318029
1440.090909,-10066.800811,-1532.190996,4589.276840
1440.091220,-8142.265362,612.876398,2072.576638
1440.091532,-5625.565159,3140.991542,-1332.370696
1440.091843,-3923.091493,4136.915689,-2368.659014
1440.092155,-5329.482782,4213.525239,-2738.761985
1440.092466,-7254.018232,4519.963438,-1702.473667
1440.092778,-8808.450710,3140.991542,-962.267725
1440.093089,-7105.977043,306.438199,1184.329507
1440.093401,-6513.812290,-1455.581446,2886.803174
1440.093712,-7105.977043,-1302.362347,1850.514855
1440.094023,-4737.318029,-306.438199,222.061783
1440.094335,-3997.112087,-1685.410096,666.185348
1440.094646,-5921.647536,-2528.115143,1702.473667
1440.094958,-8068.244768,-306.438199,1850.514855
1440.095269,-9474.636058,229.828649,1924.535449
1440.095581,-8216.285956,-1225.752797,2516.700203
1440.095892,-7031.956449,-2451.505594,2220.617826
1440.096204,-5773.606348,-1225.752797,-444.123565
1440.096515,-4293.194464,536.266849,-3108.864956
1440.096827,-4293.194464,-842.705048,-2738.761985
1440.097138,-6439.791695,-2221.676944,-1258.350101
1440.097450,-12213.398043,-2451.505594,-518.144159
1440.097761,-13471.748144,-1455.581446,1850.514855
1440.098073,-13989.892304,-2221.676944,3034.844362
1440.098384,-14434.015869,-2757.943793,2886.803174
1440.098695,-12879.583391,-1225.752797,1628.453072
1440.099007,-10362.883188,76.609550,-592.164754
1440.099318,-8734.430116,995.924147,-1406.391290
1440.099630,-9030.512492,1149.143247,-518.144159
1440.099941,-10955.047942,1915.238745,-814.226536
1440.100253,-11621.233289,995.924147,-888.247130
1440.100564,-10955.047942,-919.314598,222.061783
1440.100876,-10510.924376,-2221.676944,370.102971
1440.101187,-11103.089130,-536.266849,-1110.308913
1440.101499,-10584.944971,383.047749,-2738.761985
1440.101810,-10732.986159,-536.266849,-518.144159
1440.102122,-13101.645173,-2604.724693,1554.432478
1440.102433,-14952.160028,-1072.533697,2812.782580
1440.102745,-14878.139434,1072.533697,2294.638420
1440.103056,-12287.418637,842.705048,3108.864956
1440.103367,-8882.471304,153.219100,2146.597232
1440.103679,-7031.956449,1685.410096,-1258.350101
1440.103990,-3330.926739,4060.306139,-3108.864956
1440.104302,-1924.535449,3140.991542,-1776.494261
1440.104613,-4145.153275,612.876398,222.061783
1440.104925,-8364.327145,76.609550,2220.617826
1440.105236,-10436.903782,229.828649,3330.926739
1440.105548,-9104.533087,-995.924147,3923.091493
1440.105859,-7476.080014,-766.095498,3997.112087
1440.106171,-5995.668130,1072.533697,1184.329507
1440.106482,-3182.885551,1762.019645,-740.205942
1440.106794,-1998.556043,689.485948,-666.185348
1440.107105,-3997.112087,0.000000,814.226536
1440.107417,-7402.059420,383.047749,1924.535449
1440.107728,-9326.594869,536.266849,962.267725
1440.108040,-8882.471304,-919.314598,2072.576638
1440.108351,-7105.977043,-2221.676944,1776.494261
1440.108662,-6217.729913,-1302.362347,-370.102971
1440.108974,-4737.318029,0.000000,-1850.514855
1440.109285,-5403.503377,-1072.533697,-740.205942
1440.109597,-8438.347739,-2604.724693,1554.432478
1440.109908,-11399.171507,-1685.410096,2664.741391
1440.110220,-13545.768739,-536.266849,2886.803174
1440.110531,-11769.274478,-1225.752797,3256.906145
1440.110843,-9474.636058,-995.924147,2072.576638
1440.111154,-8660.409521,536.266849,-1702.473667
1440.111466,-6143.709319,2068.457845,-4885.359217
1440.111777,-6735.874072,2987.772442,-4811.338623
1440.112089,-10436.903782,1915.238745,-2220.617826
1440.112400,-14285.974681,2068.457845,-740.205942
1440.112712,-17394.839637,1838.629195,296.082377
1440.113023,-16580.613101,0.000000,2294.638420
1440.113334,-13767.830521,-1149.143247,3182.885551
1440.113646,-11843.295072,-1225.752797,1258.350101
1440.113957,-9178.553681,689.485948,-1480.411884
1440.114269,-7105.977043,459.657299,-1776.494261
1440.114580,-8586.388927,-612.876398,-814.226536
1440.114892,-11473.192101,306.438199,-222.061783
1440.115203,-13027.624579,1685.410096,370.102971
1440.115515,-12065.356855,459.657299,1110.308913
1440.115826,-10436.903782,-766.095498,1998.556043
1440.116138,-8586.388927,153.219100,592.164754
1440.116449,-6513.812290,995.924147,-444.123565
1440.116761,-4367.215058,153.219100,-148.041188
1440.117072,-5847.626942,-306.438199,1554.432478
1440.117384,-9696.697840,459.657299,2146.597232
1440.117695,-10807.006753,2221.676944,1776.494261
1440.118006,-8734.430116,1455.581446,2220.617826
1440.118318,-6439.791695,0.000000,2590.720797
1440.118629,-4811.338623,-1149.143247,1036.288319
1440.118941,-2516.700203,-536.266849,-1850.514855
1440.119252,-2146.597232,-1225.752797,-888.247130
1440.119564,-4293.194464,-3370.820191,592.164754
1440.119875,-7254.018232,-2604.724693,2516.700203
1440.120187,-10732.986159,-2451.505594,3108.864956
1440.120498,-9474.636058,-3524.039291,3997.112087
1440.120810,-7031.956449,-3677.258390,4219.173869
1440.121121,-7031.956449,-1685.410096,1554.432478
1440.121433,-4515.256246,689.485948,-888.247130
1440.121744,-4145.153275,153.219100,-1924.535449
1440.122056,-6735.874072,-1225.752797,-518.144159
1440.122367,-10510.924376,842.705048,-74.020594
1440.122679,-13101.645173,2068.457845,-888.247130
1440.122990,-12435.459826,1685.410096,-444.123565
1440.123301,-11621.233289,-306.438199,-444.123565
1440.123613,-11547.212695,-995.924147,-1036.288319
1440.123924,-10362.883188,153.219100,-2294.638420
1440.124236,-9104.533087,536.266849,-1184.329507
1440.124547,-10732.986159,153.219100,-0.000000
1440.124859,-12657.521608,919.314598,2294.638420
1440.125170,-13101.645173,1072.533697,1924.535449
1440.125482,-11251.130318,306.438199,2368.659014
1440.125793,-8808.450710,-383.047749,1406.391290
1440.126105,-8068.244768,1762.019645,-1702.473667
1440.126416,-7698.141797,4596.572988,-3849.070898
1440.126728,-7328.038826,3524.039291,-3256.906145
1440.127039,-10362.883188,919.314598,-1258.350101
1440.127351,-13767.830521,995.924147,592.164754
1440.127662,-15618.345376,1302.362347,1776.494261
1440.127973,-13841.851115,-153.219100,3256.906145
1440.128285,-11029.068536,-1608.800546,3330.926739
1440.128596,-8586.388927,-995.924147,1702.473667
1440.128908,-6365.771101,766.095498,-666.185348
1440.129219,-3701.029710,1532.190996,-814.226536
1440.129531,-4515.256246,842.705048,444.123565
1440.129842,-8364.327145,153.219100,2368.659014
1440.130154,-9622.677246,-229.828649,2516.700203
1440.130465,-8364.327145,383.047749,3182.885551
1440.130777,-7179.997637,-1378.971896,3108.864956
1440.131088,-4737.318029,-1225.752797,1480.411884
1440.131400,-3108.864956,-689.485948,-1036.288319
1440.131711,-3404.947333,-1225.752797,-1036.288319
1440.132023,-5477.523971,-2604.724693,962.267725
1440.132334,-8808.450710,-2451.505594,1924.535449
1440.132645,-11399.171507,-1378.971896,2516.700203
1440.132957,-11473.192101,-2451.505594,3034.844362
1440.133268,-8660.409521,-4366.744339,3552.988522
1440.133580,-7105.977043,-3140.991542,1110.308913
1440.133891,-4959.379811,0.000000,-1332.370696
1440.134203,-4885.359217,-612.876398,-1998.556043
1440.134514,-7476.080014,-2068.457845,-666.185348
1440.134826,-9178.553681,-995.924147,1036.288319
1440.135137,-10807.006753,919.314598,1184.329507
1440.135449,-11177.109724,229.828649,1776.494261
1440.135760,-10140.821405,459.657299,1258.350101
1440.136072,-8808.450710,459.657299,-444.123565
1440.136383,-7402.059420,2145.067394,-2886.803174
1440.136695,-6883.915261,2298.286494,-2516.700203
1440.137006,-9178.553681,766.095498,-1628.453072
1440.137317,-12805.562797,0.000000,-518.144159
1440.137629,-15470.304188,689.485948,-444.123565
1440.137940,-14878.139434,1072.533697,-0.000000
1440.138252,-12657.521608,919.314598,-74.020594
1440.138563,-12583.501014,-229.828649,-888.247130
1440.138875,-10510.924376,689.485948,-1628.453072
1440.139186,-7550.100608,1149.143247,-1036.288319
1440.139498,-8586.388927,459.657299,592.164754
1440.139809,-11103.089130,1302.362347,2220.617826
1440.140121,-12731.542202,2451.505594,1776.494261
1440.140432,-10584.944971,2374.896044,2294.638420
1440.140743,-8142.265362,1532.190996,1850.514855
1440.141054,-8364.327145,689.485948,592.164754
1440.141366,-5921.647536,2374.896044,-1776.494261
1440.141677,-4441.235652,1762.019645,-2590.720797
1440.141988,-5551.544565,-459.657299,-0.000000
1440.142300,-8660.409521,-536.266849,1332.370696
1440.142611,-11991.336260,689.485948,1998.556043
1440.142922,-10436.903782,383.047749,3034.844362
1440.143233,-7179.997637,-1991.848295,4219.173869
1440.143545,-6587.832884,-1378.971896,2960.823768
1440.143856,-4885.359217,-459.657299,740.205942
1440.144167,-3182.885551,-536.266849,-0.000000
1440.144479,-4589.276840,-2911.162892,1184.329507
1440.144790,-5921.647536,-2145.067394,2664.741391
1440.145101,-8808.450710,-1302.362347,2294.638420
1440.145413,-9326.594869,-3140.991542,3182.885551
1440.145724,-8734.430116,-4213.525239,3256.906145
1440.146035,-7624.121203,-3677.258390,1110.308913
1440.146346,-6217.729913,-2068.457845,-740.205942
1440.146658,-5551.544565,-2451.505594,-1036.288319
1440.146969,-8142.265362,-3677.258390,-518.144159
1440.147280,-11473.192101,-2681.334243,1036.288319
1440.147592,-12509.480420,-919.314598,1258.350101
1440.147903,-12805.562797,-612.876398,740.205942
1440.148214,-12213.398043,-1072.533697,1184.329507
1440.148525,-9918.759623,-842.705048,-0.000000
1440.148837,-8290.306550,1225.752797,-3034.844362
1440.149148,-6513.812290,2604.724693,-3330.926739
1440.149459,-7328.038826,1991.848295,-2294.638420
1440.149771,-10436.903782,1378.971896,-296.082377
1440.150082,-12953.603985,689.485948,-0.000000
1440.150393,-13471.748144,766.095498,814.226536
1440.150705,-11843.295072,-383.047749,1924.535449
1440.151016,-11251.130318,-306.438199,296.082377
1440.151327,-9770.718434,1532.190996,-1850.514855
1440.151638,-7920.203579,2145.067394,-2738.761985
1440.151950,-9622.677246,766.095498,-1924.535449
1440.152261,-12583.501014,919.314598,222.061783
1440.152572,-13693.809927,2221.676944,444.123565
1440.152884,-11991.336260,1685.410096,1554.432478
1440.153195,-9104.533087,-766.095498,2664.741391
1440.153506,-8364.327145,-1072.533697,1554.432478
1440.153817,-5847.626942,1302.362347,-518.144159
1440.154129,-2590.720797,2987.772442,-1184.329507
1440.154440,-4811.338623,2221.676944,-444.123565
1440.154751,-8290.306550,1225.752797,1554.432478
1440.155063,-10066.800811,2451.505594,1998.556043
1440.155374,-10140.821405,2298.286494,2812.782580
1440.155685,-8216.285956,306.438199,3701.029710
1440.155997,-6957.935855,-459.657299,3256.906145
1440.156308,-4811.338623,-229.828649,-370.102971
1440.156619,-2960.823768,-842.705048,-1110.308913
1440.156930,-2738.761985,-1991.848295,296.082377
1440.157242,-6217.729913,-995.924147,1332.370696
1440.157553,-9844.739029,-383.047749,1850.514855
1440.157864,-10584.944971,-2068.457845,3256.906145
1440.158176,-9326.594869,-4596.572988,4219.173869
1440.158487,-7550.100608,-3447.429741,2960.823768
1440.158798,-6809.894666,-1608.800546,-222.061783
1440.159109,-5551.544565,-1302.362347,-1480.411884
1440.159421,-6513.812290,-3217.601092,-0.000000
1440.159732,-9474.636058,-3140.991542,888.247130
1440.160043,-12731.542202,-1685.410096,1480.411884
1440.160355,-14063.912898,-1149.143247,1776.494261
1440.160666,-12361.439231,-1378.971896,2146.597232
1440.160977,-10732.986159,-1762.019645,1036.288319
1440.161288,-9252.574275,-612.876398,-2072.576638
1440.161600,-6957.935855,1072.533697,-2812.782580
1440.161911,-7624.121203,1455.581446,-2294.638420
1440.162222,-11547.212695,1072.533697,-666.185348
1440.162534,-14063.912898,2681.334243,222.061783
1440.162845,-14508.036463,1915.238745,370.102971
1440.163156,-12805.562797,229.828649,888.247130
1440.163468,-10881.027347,-766.095498,-148.041188
1440.163779,-9400.615463,-383.047749,-2516.700203
1440.164090,-6883.915261,612.876398,-3701.029710
1440.164401,-7254.018232,76.609550,-1998.556043
1440.164713,-10436.903782,-76.609550,666.185348
1440.165024,-13841.851115,459.657299,1998.556043
1440.165335,-14211.954086,1378.971896,2368.659014
1440.165647,-11325.150913,153.219100,2886.803174
1440.165958,-8216.285956,1608.800546,1702.473667
1440.166269,-5551.544565,3983.696590,-888.247130
1440.166580,-3034.844362,3447.429741,-2442.679609
1440.166892,-3182.885551,1302.362347,-1850.514855
1440.167203,-7476.080014,1302.362347,-0.000000
1440.167514,-10732.986159,3217.601092,1554.432478
1440.167826,-11621.233289,1915.238745,1776.494261
1440.168137,-9548.656652,-612.876398,2368.659014
1440.168448,-6809.894666,-2145.067394,2146.597232
1440.168760,-4219.173869,-995.924147,-592.164754
1440.169071,-2072.576638,-153.219100,-1554.432478
1440.169382,-3923.091493,-1608.800546,-0.000000
1440.169693,-7105.977043,-2604.724693,1776.494261
1440.170005,-9844.739029,-229.828649,3034.844362
1440.170316,-11029.068536,0.000000,3923.091493
1440.170627,-10214.842000,-1455.581446,5181.441594
1440.170939,-7476.080014,-2145.067394,3701.029710
1440.171250,-5625.565159,-1072.533697,-0.000000
1440.171561,-3997.112087,766.095498,-1702.473667
1440.171872,-5255.462188,-1532.190996,-1332.370696
1440.172184,-8512.368333,-1302.362347,296.082377
1440.172495,-12361.439231,-459.657299,666.185348
1440.172806,-13693.809927,-689.485948,1110.308913
1440.173118,-12361.439231,-919.314598,1850.514855
1440.173429,-11769.274478,-1225.752797,666.185348
1440.173740,-10066.800811,-383.047749,-1184.329507
1440.174052,-7402.059420,153.219100,-2294.638420
1440.174363,-8364.327145,0.000000,-1258.350101
1440.174674,-11103.089130,842.705048,222.061783
1440.174985,-13619.789333,1225.752797,888.247130
1440.175297,-13767.830521,689.485948,1628.453072
1440.175608,-10732.986159,-383.047749,3108.864956
1440.175919,-9252.574275,-842.705048,1554.432478
1440.176231,-8364.327145,919.314598,-1036.288319
1440.176542,-6883.915261,2451.505594,-3552.988522
1440.176853,-7550.100608,1838.629195,-3256.906145
1440.177164,-10214.842000,1991.848295,-888.247130
1440.177476,-13545.768739,1608.800546,-0.000000
1440.177787,-15322.262999,689.485948,1036.288319
1440.178098,-12435.459826,-1915.238745,2590.720797
1440.178410,-10214.842000,-2528.115143,2294.638420
1440.178721,-7994.224174,-383.047749,370.102971
1440.179032,-3256.906145,1225.752797,-1702.473667
1440.179344,-2886.803174,-459.657299,148.041188
1440.179655,-5477.523971,-2374.896044,2738.761985
1440.179966,-6439.791695,-1685.410096,2294.638420
1440.180277,-8660.409521,919.314598,2886.803174
1440.180589,-9252.574275,689.485948,2812.782580
1440.180900,-7105.977043,919.314598,1850.514855
1440.181211,-5699.585753,1378.971896,-592.164754
1440.181523,-3701.029710,1225.752797,-2886.803174
1440.181834,-3404.947333,153.219100,-1776.494261
1440.182145,-6883.915261,-383.047749,-962.267725
1440.182456,-10066.800811,1225.752797,2146.597232
1440.182768,-11917.315666,-689.485948,2146.597232
1440.183079,-12213.398043,-3447.429741,3997.112087
1440.183390,-9326.594869,-4060.306139,4367.215058
1440.183702,-6661.853478,-1991.848295,222.061783
1440.184013,-3849.070898,-1838.629195,-1850.514855
1440.184324,-4071.132681,-1225.752797,-962.267725
1440.184636,-8586.388927,-3064.381992,444.123565
1440.184947,-11695.253884,-1991.848295,1258.350101
1440.185258,-13471.748144,76.609550,1776.494261
1440.185569,-12953.603985,919.314598,2220.617826
1440.185881,-11251.130318,153.219100,1110.308913
1440.186192,-9918.759623,1149.143247,-1850.514855
1440.186503,-7105.977043,2374.896044,-3256.906145
1440.186815,-6365.771101,3064.381992,-1776.494261
1440.187126,-10510.924376,1378.971896,-222.061783
1440.187437,-14285.974681,1532.190996,1332.370696
1440.187748,-14434.015869,1608.800546,1406.391290
1440.188060,-13027.624579,-153.219100,1332.370696
1440.188371,-10362.883188,-383.047749,666.185348
1440.188682,-9326.594869,1072.533697,-2442.679609
1440.188994,-7402.059420,2681.334243,-3182.885551
1440.189305,-6439.791695,1149.143247,-2368.659014
1440.189616,-9474.636058,76.609550,518.144159
1440.189927,-11843.295072,1149.143247,3034.844362
1440.190239,-12287.418637,1532.190996,3034.844362
1440.190550,-10214.842000,383.047749,3478.967927
1440.190861,-7624.121203,-842.705048,2072.576638
1440.191173,-6143.709319,995.924147,-740.205942
1440.191484,-2664.741391,2604.724693,-2442.679609
1440.191795,-3256.906145,2145.067394,-1776.494261
1440.192107,-8586.388927,-229.828649,518.144159
1440.192418,-11251.130318,536.266849,1554.432478
1440.192729,-12583.501014,1455.581446,2294.638420
1440.193040,-10436.903782,-229.828649,4145.153275
1440.193352,-7994.224174,-1455.581446,3404.947333
1440.193663,-5699.585753,-1915.238745,1184.329507
1440.193974,-3182.885551,-229.828649,-1258.350101
1440.194286,-1554.432478,-919.314598,-370.102971
1440.194597,-3923.091493,-1608.800546,-222.061783
1440.194908,-7772.162391,-842.705048,1628.453072
1440.195219,-10732.986159,-2221.676944,2590.720797
1440.195531,-9918.759623,-4060.306139,2886.803174
1440.195842,-8364.327145,-3677.258390,3478.967927
1440.196153,-8956.491898,-3524.039291,666.185348
1440.196465,-7476.080014,-995.924147,-1776.494261
1440.196776,-7624.121203,-1608.800546,-1332.370696
1440.197087,-10807.006753,-306.438199,-222.061783
1440.197399,-12879.583391,689.485948,592.164754
1440.197710,-14137.933492,1838.629195,1036.288319
1440.198021,-12583.501014,689.485948,1924.535449
1440.198332,-10214.842000,-995.924147,2294.638420
1440.198644,-9400.615463,-1685.410096,-740.205942
1440.198955,-6587.832884,2068.457845,-1554.432478
1440.199266,-6069.688724,1915.238745,-3256.906145
1440.199578,-8808.450710,459.657299,-1406.391290
1440.199889,-12879.583391,766.095498,-592.164754
1440.200200,-14804.118840,2221.676944,-444.123565
1440.200511,-13323.706956,1685.410096,1184.329507
1440.200823,-11473.192101,76.609550,1554.432478
1440.201134,-9622.677246,766.095498,-0.000000
1440.201445,-7624.121203,2604.724693,-2072.576638
1440.201757,-5921.647536,1762.019645,-1924.535449
1440.202068,-8586.388927,536.266849,-222.061783
1440.202379,-11325.150913,1685.410096,814.226536
1440.202691,-12361.439231,1608.800546,1258.350101
1440.203002,-11103.089130,-842.705048,1702.473667
1440.203313,-9400.615463,-2298.286494,2664.741391
1440.203624,-7920.203579,-383.047749,1184.329507
1440.203936,-5329.482782,383.047749,-1850.514855
1440.204247,-4145.153275,306.438199,-2220.617826
1440.204558,-5847.626942,76.609550,666.185348
1440.204870,-8142.265362,76.609550,1924.535449
1440.205181,-10288.862594,689.485948,2368.659014
1440.205492,-9178.553681,-766.095498,3478.967927
1440.205803,-6957.935855,-2298.286494,3552.988522
1440.206115,-5403.503377,-1532.190996,2590.720797
1440.206426,-3701.029710,-383.047749,-1406.391290
1440.206737,-2368.659014,-1072.533697,-1628.453072
1440.207049,-4515.256246,-2834.553343,666.185348
1440.207360,-8068.244768,-2374.896044,1924.535449
1440.207671,-12287.418637,-1302.362347,1776.494261
1440.207983,-12805.562797,-1991.848295,2368.659014
1440.208294,-10881.027347,-2451.505594,2886.803174
1440.208605,-9030.512492,-2145.067394,1110.308913
1440.208916,-5699.585753,-1302.362347,-814.226536
1440.209228,-5995.668130,-2451.505594,-1628.453072
1440.209539,-8216.285956,-2451.505594,-74.020594
1440.209850,-9992.780217,0.000000,1554.432478
1440.210162,-12435.459826,766.095498,1036.288319
1440.210473,-12213.398043,0.000000,2368.659014
1440.210784,-11251.130318,-1991.848295,1628.453072
1440.211095,-9178.553681,0.000000,444.123565
1440.211407,-7698.141797,2604.724693,-2664.741391
1440.211718,-6957.935855,2987.772442,-2368.659014
1440.212029,-10362.883188,842.705048,-1628.453072
1440.212341,-14063.912898,1225.752797,-370.102971
1440.212652,-15988.448347,2604.724693,-296.082377
1440.212963,-14656.077652,2374.896044,518.144159
1440.213275,-11695.253884,766.095498,740.205942
1440.213586,-10955.047942,0.000000,-1480.411884
1440.213897,-7550.100608,842.705048,-2220.617826
1440.214208,-4737.318029,919.314598,-1776.494261
1440.214520,-7772.162391,0.000000,-74.020594
1440.214831,-10732.986159,229.828649,1998.556043
1440.215142,-11843.295072,1838.629195,1850.514855
1440.215454,-11843.295072,2374.896044,2294.638420
1440.215765,-9030.512492,1532.190996,3330.926739
1440.216076,-6365.771101,2221.676944,1036.288319
1440.216387,-4589.276840,2298.286494,-1554.432478
1440.216699,-3034.844362,1915.238745,-1776.494261
1440.217010,-5255.462188,229.828649,-814.226536
1440.217321,-8290.306550,995.924147,148.041188
1440.217633,-9992.780217,2068.457845,888.247130
1440.217944,-9474.636058,0.000000,1480.411884
1440.218255,-7402.059420,-2451.505594,2664.741391
1440.218566,-5773.606348,-2068.457845,2072.576638
1440.218878,-4737.318029,-2528.115143,444.123565
1440.219189,-3330.926739,-4213.525239,740.205942
1440.219500,-5033.400406,-4519.963438,1184.329507
1440.219812,-7846.182985,-2221.676944,2442.679609
1440.220123,-10214.842000,-919.314598,2368.659014
1440.220434,-10140.821405,-1685.410096,3182.885551
1440.220746,-8586.388927,-2681.334243,2886.803174
1440.221057,-7624.121203,-3064.381992,518.144159
1440.221368,-6587.832884,-2298.286494,-592.164754
1440.221679,-6069.688724,-1991.848295,-1628.453072
1440.221991,-8438.347739,-2911.162892,-666.185348
1440.222302,-12287.418637,-2681.334243,-370.102971
1440.222613,-13841.851115,0.000000,74.020594
1440.222925,-13693.809927,306.438199,-0.000000
1440.223236,-13323.706956,-995.924147,1036.288319
1440.223547,-12287.418637,-2374.896044,814.226536
1440.223858,-10732.986159,-306.438199,-1110.308913
1440.224170,-8512.368333,1838.629195,-1332.370696
1440.224481,-8364.327145,1378.971896,-370.102971
1440.224792,-10288.862594,842.705048,1110.308913
1440.225104,-11769.274478,995.924147,962.267725
1440.225415,-11621.233289,689.485948,444.123565
1440.225726,-10214.842000,1225.752797,-0.000000
1440.226038,-10288.862594,2681.334243,-962.267725
1440.226349,-9104.533087,3524.039291,-3108.864956
1440.226660,-7550.100608,2145.067394,-3182.885551
1440.226971,-8808.450710,153.219100,-1184.329507
1440.227283,-12509.480420,1532.190996,740.205942
1440.227594,-14508.036463,3830.477490,1332.370696
1440.227905,-11991.336260,3524.039291,3034.844362
1440.228217,-8882.471304,229.828649,3256.906145
1440.228528,-7402.059420,0.000000,1776.494261
1440.228839,-5255.462188,1225.752797,-518.144159
1440.229150,-1258.350101,1762.019645,-1628.453072
1440.229462,-2368.659014,0.000000,148.041188
1440.229773,-5477.523971,-383.047749,2146.597232
1440.230084,-9474.636058,0.000000,2590.720797
1440.230396,-9696.697840,612.876398,3552.988522
1440.230707,-7624.121203,-612.876398,2960.823768
1440.231018,-6291.750507,76.609550,1850.514855
1440.231330,-2812.782580,1455.581446,-1924.535449
1440.231641,-2960.823768,612.876398,-2812.782580
1440.231952,-5625.565159,-2374.896044,-740.205942
1440.232263,-7328.038826,-689.485948,1628.453072
1440.232575,-10362.883188,459.657299,2368.659014
1440.232886,-12139.377449,-1762.019645,3108.864956
1440.233197,-10658.965565,-4060.306139,4737.318029
1440.233509,-9104.533087,-4213.525239,1702.473667
1440.233820,-6143.709319,-1302.362347,-370.102971
1440.234131,-4071.132681,-689.485948,-1628.453072
1440.234442,-7031.956449,-2298.286494,-1850.514855
1440.234754,-9992.780217,-1991.848295,-0.000000
1440.235065,-12213.398043,-459.657299,370.102971
1440.235376,-12953.603985,-459.657299,2146.597232
1440.235688,-12065.356855,-1378.971896,2146.597232
1440.235999,-11917.315666,-995.924147,592.164754
1440.236310,-9770.718434,306.438199,-1628.453072
1440.236622,-7328.038826,1378.971896,-2146.597232
1440.236933,-8216.285956,995.924147,-1036.288319
1440.237244,-12361.439231,306.438199,-444.123565
1440.237555,-15840.407159,689.485948,-370.102971
1440.237867,-15544.324782,1378.971896,-0.000000
1440.238178,-13175.665768,153.219100,1554.432478
1440.238489,-11843.295072,-76.609550,518.144159
1440.238801,-10288.862594,842.705048,-1628.453072
1440.239112,-7179.997637,1302.362347,-2590.720797
1440.239423,-6957.935855,306.438199,-1406.391290
1440.239734,-8586.388927,1225.752797,740.205942
1440.240046,-10658.965565,1915.238745,1480.411884
1440.240357,-11177.109724,995.924147,2516.700203
1440.240668,-8438.347739,-306.438199,2590.720797
1440.240980,-6439.791695,383.047749,1184.329507
1440.241291,-4885.359217,2221.676944,-962.267725
1440.241602,-3552.988522,1991.848295,-1776.494261
1440.241914,-4959.379811,-229.828649,-518.144159
1440.242225,-6587.832884,383.047749,740.205942
1440.242536,-10510.924376,2145.067394,1184.329507
1440.242847,-10955.047942,1685.410096,2368.659014
1440.243159,-7698.141797,-229.828649,3627.009116
1440.243470,-6513.812290,-1532.190996,2072.576638
1440.243781,-5699.585753,-919.314598,-0.000000
1440.244093,-2664.741391,0.000000,-148.041188
1440.244404,-2886.803174,-1532.190996,-148.041188
1440.244715,-5403.503377,-1838.629195,2146.597232
1440.245027,-8808.450710,-2834.553343,2516.700203
1440.245338,-9548.656652,-3217.601092,2590.720797
1440.245649,-8290.306550,-2528.115143,3701.029710
1440.245960,-8882.471304,-2911.162892,1924.535449
1440.246272,-8068.244768,-1608.800546,-888.247130
1440.246583,-7105.977043,229.828649,-1776.494261
1440.246894,-7994.224174,-1378.971896,-814.226536
1440.247206,-10436.903782,-995.924147,518.144159
1440.247517,-12805.562797,1149.143247,666.185348
1440.247828,-13471.748144,1378.971896,1036.288319
1440.248140,-11325.150913,-1149.143247,1998.556043
1440.248451,-10066.800811,-2757.943793,666.185348
1440.248762,-9400.615463,-306.438199,-1702.473667
1440.249073,-7476.080014,612.876398,-2368.659014
1440.249385,-8660.409521,0.000000,-1554.432478
1440.249696,-12287.418637,-919.314598,296.082377
1440.250007,-15544.324782,612.876398,1332.370696
1440.250319,-15322.262999,766.095498,2220.617826
1440.250630,-12805.562797,-459.657299,1998.556043
1440.250941,-11251.130318,153.219100,1406.391290
1440.251253,-8438.347739,2681.334243,-1184.329507
1440.251564,-5847.626942,3294.210641,-3330.926739
1440.251875,-6439.791695,2068.457845,-2294.638420
1440.252187,-9548.656652,2528.115143,-222.061783
1440.252498,-11991.336260,3447.429741,222.061783
1440.252809,-12879.583391,2451.505594,592.164754
1440.253120,-10955.047942,459.657299,1702.473667
1440.253432,-7994.224174,0.000000,1036.288319
1440.253743,-7698.141797,842.705048,-444.123565
1440.254054,-4811.338623,1838.629195,-814.226536
1440.254366,-4811.338623,383.047749,-518.144159
1440.254677,-7402.059420,0.000000,2220.617826
1440.254988,-9474.636058,1608.800546,2294.638420
1440.255300,-9992.780217,1149.143247,2738.761985
1440.255611,-7254.018232,-229.828649,3478.967927
1440.255922,-3997.112087,-842.705048,3182.885551
1440.256233,-2294.638420,-1378.971896,444.123565
1440.256545,-1110.308913,-229.828649,-1258.350101
1440.256856,-4071.132681,-919.314598,-296.082377
1440.257167,-6957.935855,-1685.410096,-0.000000
1440.257479,-10732.986159,76.609550,1036.288319
1440.257790,-12361.439231,153.219100,1110.308913
1440.258101,-10881.027347,-1762.019645,1924.535449
1440.258413,-9696.697840,-3064.381992,2146.597232
1440.258724,-7402.059420,-2528.115143,296.082377
1440.259035,-6069.688724,-919.314598,-1406.391290
1440.259346,-6809.894666,-1149.143247,-814.226536
1440.259658,-8438.347739,-995.924147,1480.411884
1440.259969,-10584.944971,0.000000,1332.370696
1440.260280,-11251.130318,0.000000,1776.494261
1440.260592,-10140.821405,-1149.143247,2294.638420
1440.260903,-9696.697840,-995.924147,592.164754
1440.261214,-9252.574275,995.924147,-962.267725
1440.261526,-7846.182985,1915.238745,-2442.679609
1440.261837,-9178.553681,229.828649,-2072.576638
1440.262148,-13619.789333,-383.047749,-444.123565
1440.262459,-16210.510130,842.705048,-74.020594
1440.262771,-15988.448347,2374.896044,-148.041188
1440.263082,-13841.851115,1608.800546,1554.432478
1440.263393,-11917.315666,-919.314598,1554.432478
1440.263705,-10288.862594,-536.266849,-740.205942
1440.264016,-6883.915261,459.657299,-1406.391290
1440.264327,-6365.771101,1072.533697,-0.000000
1440.264639,-8068.244768,383.047749,1480.411884
1440.264950,-11917.315666,689.485948,1998.556043
1440.265261,-11917.315666,153.219100,2516.700203
1440.265572,-8660.409521,-306.438199,1998.556043
1440.265884,-7031.956449,229.828649,1850.514855
1440.266195,-6957.935855,1838.629195,-888.247130
1440.266506,-5995.668130,1838.629195,-2072.576638
1440.266818,-5107.421000,0.000000,-1480.411884
1440.267129,-7105.977043,229.828649,814.226536
1440.267440,-9030.512492,1838.629195,1480.411884
1440.267752,-10362.883188,2374.896044,1480.411884
1440.268063,-9474.636058,-153.219100,3775.050304
1440.268374,-6661.853478,-1685.410096,2960.823768
1440.268685,-4737.318029,-689.485948,1110.308913
1440.268997,-3256.906145,383.047749,-222.061783
1440.269308,-3034.844362,-1225.752797,1184.329507
1440.269619,-6143.709319,-3140.991542,1332.370696
1440.269931,-8216.285956,-1072.533697,2220.617826
1440.270242,-9400.615463,-153.219100,2516.700203
1440.270553,-9104.533087,-2221.676944,2886.803174
1440.270865,-7476.080014,-2604.724693,2442.679609
1440.271176,-7624.121203,-1072.533697,-1332.370696
1440.271487,-5181.441594,229.828649,-2368.659014
1440.271798,-6143.709319,0.000000,-1776.494261
1440.272110,-9696.697840,-919.314598,-0.000000
1440.272421,-12139.377449,-229.828649,518.144159
1440.272732,-13249.686362,-383.047749,666.185348
1440.273044,-12805.562797,-1302.362347,1332.370696
1440.273355,-11547.212695,-842.705048,1184.329507
1440.273666,-9844.739029,459.657299,-1628.453072
1440.273978,-8290.306550,1302.362347,-2664.741391
1440.274289,-7550.100608,612.876398,-1628.453072
1440.274600,-10436.903782,-766.095498,-740.205942
1440.274912,-13915.871710,1455.581446,-0.000000
1440.275223,-14063.912898,2528.115143,-0.000000
1440.275534,-12657.521608,689.485948,666.185348
1440.275845,-11177.109724,-766.095498,666.185348
1440.276157,-10510.924376,1072.533697,-1406.391290
1440.276468,-7772.162391,1915.238745,-2368.659014
1440.276779,-7031.956449,306.438199,-1110.308913
1440.277091,-10955.047942,-536.266849,1036.288319
1440.277402,-12805.562797,1378.971896,1628.453072
1440.277713,-12879.583391,2451.505594,1480.411884
1440.278025,-10881.027347,1378.971896,1850.514855
1440.278336,-8216.285956,0.000000,1480.411884
1440.278647,-8216.285956,1072.533697,-370.102971
1440.278958,-3997.112087,2604.724693,-1406.391290
1440.279270,-3182.885551,1072.533697,-1184.329507
1440.279581,-5699.585753,-1149.143247,1702.473667
1440.279892,-8586.388927,-766.095498,2590.720797
1440.280204,-9992.780217,-229.828649,2368.659014
1440.280515,-8660.409521,-919.314598,3627.009116
1440.280826,-6735.874072,-1225.752797,3997.112087
1440.281138,-4663.297435,-842.705048,1406.391290
1440.281449,-4219.173869,-995.924147,-666.185348
1440.281760,-3775.050304,-2528.115143,222.061783
1440.282071,-6291.750507,-2987.772442,1110.308913
1440.282383,-9548.656652,-689.485948,2442.679609
1440.282694,-10288.862594,-1225.752797,1480.411884
1440.283005,-9770.718434,-3600.648841,1850.514855
1440.283317,-7772.162391,-3294.210641,2960.823768
1440.283628,-6587.832884,-1915.238745,518.144159
1440.283939,-5477.523971,-689.485948,-1850.514855
1440.284251,-6439.791695,-1072.533697,-962.267725
1440.284562,-8734.430116,-1532.190996,666.185348
1440.284873,-11991.336260,-766.095498,592.164754
1440.285184,-12731.542202,1072.533697,1036.288319
1440.285496,-11917.315666,995.924147,888.247130
1440.285807,-11473.192101,-919.314598,1406.391290
1440.286118,-9104.533087,-612.876398,-0.000000
1440.286430,-6883.915261,1608.800546,-2516.700203
1440.286741,-7624.121203,459.657299,-2664.741391
1440.287052,-9844.739029,-229.828649,-740.205942
1440.287364,-12953.603985,1225.752797,-444.123565
1440.287675,-14434.015869,2221.676944,-370.102971
1440.287986,-14137.933492,306.438199,1258.350101
1440.288297,-12361.439231,-2068.457845,888.247130
1440.288609,-11251.130318,306.438199,-296.082377
1440.288920,-7402.059420,2221.676944,-1924.535449
1440.289231,-6661.853478,612.876398,-2220.617826
1440.289543,-9474.636058,-689.485948,-222.061783
1440.289854,-10955.047942,1608.800546,1332.370696
1440.290165,-12731.542202,2681.334243,888.247130
1440.290477,-12583.501014,1915.238745,2442.679609
1440.290788,-10288.862594,612.876398,3552.988522
1440.291099,-7550.100608,1685.410096,814.226536
1440.291410,-4589.276840,2987.772442,-1776.494261
1440.291722,-3108.864956,1225.752797,-1554.432478
1440.292033,-5329.482782,76.609550,-148.041188
1440.292344,-8216.285956,1838.629195,592.164754
1440.292656,-11029.068536,2604.724693,888.247130
1440.292967,-9104.533087,0.000000,2590.720797
1440.293278,-7698.141797,-2068.457845,3108.864956
1440.293590,-7179.997637,-1915.238745,1110.308913
1440.293901,-3775.050304,-995.924147,-592.164754
1440.294212,-2812.782580,-1455.581446,-666.185348
1440.294523,-5181.441594,-2145.067394,1184.329507
1440.294835,-8216.285956,-1608.800546,2812.782580
1440.295146,-10658.965565,-1915.238745,2738.761985
1440.295457,-9548.656652,-1762.019645,3627.009116
1440.295769,-8438.347739,-842.705048,3775.050304
1440.296080,-7402.059420,-2068.457845,1110.308913
1440.296391,-5033.400406,0.000000,-1036.288319
1440.296703,-4737.318029,-1149.143247,-1258.350101
1440.297014,-5995.668130,-2451.505594,370.102971
1440.297325,-9770.718434,-459.657299,962.267725
1440.297637,-13545.768739,689.485948,222.061783
1440.297948,-13471.748144,-1225.752797,814.226536
1440.298259,-11843.295072,-2834.553343,1480.411884
1440.298570,-10140.821405,-1378.971896,-0.000000
1440.298882,-9622.677246,0.000000,-3256.906145
1440.299193,-8956.491898,-306.438199,-2960.823768
1440.299504,-10955.047942,-766.095498,-518.144159
1440.299816,-14508.036463,1302.362347,444.123565
1440.300127,-13619.789333,2834.553343,1258.350101
1440.300438,-12361.439231,1685.410096,2368.659014
1440.300750,-10066.800811,-995.924147,2442.679609
1440.301061,-7920.203579,153.219100,-0.000000
1440.301372,-6439.791695,2987.772442,-3552.988522
1440.301683,-5921.647536,3064.381992,-3701.029710
1440.301995,-9474.636058,1302.362347,-1554.432478
1440.302306,-14359.995275,612.876398,-444.123565
1440.302617,-15840.407159,2451.505594,1332.370696
1440.302929,-14063.912898,1685.410096,1554.432478
1440.303240,-10881.027347,-1072.533697,2738.761985
1440.303551,-7476.080014,-1149.143247,1628.453072
1440.303863,-4885.359217,919.314598,-1036.288319
1440.304174,-2442.679609,0.000000,-444.123565
1440.304485,-3182.885551,-306.438199,518.144159
1440.304796,-6735.874072,1149.143247,2516.700203
1440.305108,-9030.512492,2221.676944,2146.597232
1440.305419,-8216.285956,1455.581446,2516.700203
1440.305730,-7402.059420,-842.705048,3256.906145
1440.306042,-6809.894666,-842.705048,1110.308913
1440.306353,-4589.276840,1378.971896,-1924.535449
1440.306664,-3627.009116,1072.533697,-2590.720797
1440.306976,-5403.503377,-1072.533697,-222.061783
1440.307287,-9474.636058,-1225.752797,1702.473667
1440.307598,-12139.377449,-536.266849,2368.659014
1440.307909,-10510.924376,-1072.533697,3034.844362
1440.308221,-8734.430116,-3294.210641,3775.050304
1440.308532,-7698.141797,-3753.867940,2072.576638
1440.308843,-5477.523971,-1455.581446,-1110.308913
1440.309155,-4515.256246,-1378.971896,-1776.494261
1440.309466,-6217.729913,-2451.505594,-0.000000
1440.309777,-10362.883188,-1991.848295,1628.453072
1440.310089,-12953.603985,536.266849,1258.350101
1440.310400,-13545.768739,-536.266849,2368.659014
1440.310711,-12065.356855,-1915.238745,1998.556043
1440.311022,-10066.800811,-919.314598,296.082377
1440.311334,-8216.285956,919.314598,-2960.823768
1440.311645,-7179.997637,383.047749,-3182.885551
1440.311956,-8586.388927,-1378.971896,-1480.411884
1440.312268,-11991.336260,0.000000,518.144159
1440.312579,-14434.015869,1608.800546,1110.308913
1440.312890,-14211.954086,1532.190996,370.102971
1440.313202,-13027.624579,-229.828649,518.144159
1440.313513,-10658.965565,76.609550,-1332.370696
1440.313824,-8438.347739,2145.067394,-3849.070898
1440.314135,-6661.853478,2145.067394,-3627.009116
1440.314447,-8734.430116,0.000000,-666.185348
1440.314758,-12213.398043,0.000000,1702.473667
1440.315069,-13175.665768,0.000000,2516.700203
1440.315381,-12583.501014,1378.971896,2886.803174
1440.315692,-9992.780217,-842.705048,3701.029710
1440.316003,-6291.750507,-612.876398,740.205942
1440.316315,-3182.885551,2681.334243,-2294.638420
1440.316626,-1776.494261,2451.505594,-2516.700203
1440.316937,-6069.688724,-1072.533697,-0.000000
1440.317249,-9696.697840,-1149.143247,2812.782580
1440.317560,-13841.851115,2604.724693,2072.576638
1440.317871,-12435.459826,2757.943793,3701.029710
1440.318182,-9474.636058,0.000000,3256.906145
1440.318494,-7402.059420,-689.485948,2368.659014
1440.318805,-1850.514855,1225.752797,-518.144159
1440.319116,148.041188,0.000000,-1036.288319
1440.319428,-962.267725,-1915.238745,666.185348
1440.319739,-6365.771101,-153.219100,1998.556043
1440.320050,-10658.965565,-153.219100,1924.535449
1440.320362,-9696.697840,-1149.143247,2960.823768
1440.320673,-9252.574275,-2145.067394,3997.112087
1440.320984,-7994.224174,-2451.505594,1924.535449
1440.321295,-7698.141797,-1838.629195,-814.226536
1440.321607,-6957.935855,-1762.019645,-888.247130
1440.321918,-8142.265362,-2068.457845,518.144159
1440.322229,-11473.192101,-842.705048,2368.659014
1440.322541,-13101.645173,1915.238745,1776.494261
1440.322852,-13545.768739,1378.971896,1258.350101
1440.323163,-10066.800811,-383.047749,1406.391290
1440.323475,-7994.224174,-612.876398,518.144159
1440.323786,-6365.771101,919.314598,-2146.597232
1440.324097,-4959.379811,919.314598,-2664.741391
1440.324408,-7550.100608,-1915.238745,-1184.329507
1440.324720,-11769.274478,-1455.581446,-0.000000
1440.325031,-14211.954086,842.705048,-222.061783
1440.325342,-15026.180623,1149.143247,-148.041188
1440.325654,-13323.706956,0.000000,888.247130
1440.325965,-11843.295072,0.000000,518.144159
1440.326276,-9030.512492,1225.752797,-1258.350101
1440.326588,-5403.503377,2068.457845,-2072.576638
1440.326899,-6661.853478,0.000000,-444.123565
1440.327210,-8808.450710,766.095498,1776.494261
1440.327521,-10732.986159,2451.505594,444.123565
1440.327833,-12213.398043,1455.581446,-0.000000
1440.328144,-11695.253884,-919.314598,592.164754
1440.328455,-10066.800811,-536.266849,592.164754
1440.328767,-8068.244768,1532.190996,-2072.576638
1440.329078,-6291.750507,689.485948,-2368.659014
1440.329389,-7624.121203,-1608.800546,-222.061783
1440.329701,-10066.800811,-1608.800546,1406.391290
1440.330012,-11547.212695,995.924147,2294.638420
1440.330323,-9400.615463,1762.019645,3404.947333
1440.330634,-7402.059420,-383.047749,3256.906145
1440.330946,-6365.771101,-689.485948,2442.679609
1440.331257,-1776.494261,1991.848295,-592.164754
1440.331568,-666.185348,1991.848295,-2368.659014
1440.331880,-3627.009116,-919.314598,-592.164754
1440.332191,-6883.915261,-1072.533697,1406.391290
1440.332502,-11325.150913,-459.657299,1258.350101
1440.332814,-13101.645173,-1225.752797,2294.638420
1440.333125,-11029.068536,-2451.505594,3256.906145
1440.333436,-9326.594869,-2911.162892,2220.617826
1440.333747,-7031.956449,-2145.067394,-0.000000
1440.334059,-5255.462188,-1762.019645,-1258.350101
1440.334370,-6365.771101,-2298.286494,-1258.350101
1440.334681,-8882.471304,-459.657299,814.226536
1440.334993,-10584.944971,1685.410096,1110.308913
1440.335304,-10881.027347,1072.533697,1480.411884
1440.335615,-10214.842000,-612.876398,2664.741391
1440.335927,-9178.553681,-689.485948,1850.514855
1440.336238,-8290.306550,1072.533697,-1184.329507
1440.336549,-6365.771101,3064.381992,-2294.638420
1440.336860,-7624.121203,1838.629195,-1258.350101
1440.337172,-11029.068536,459.657299,-518.144159
1440.337483,-13989.892304,1302.362347,-592.164754
1440.337794,-15026.180623,1608.800546,-0.000000
1440.338106,-13545.768739,229.828649,888.247130
1440.338417,-11769.274478,-459.657299,296.082377
1440.338728,-10066.800811,-306.438199,-1480.411884
1440.339040,-6735.874072,-919.314598,-1776.494261
1440.339351,-6217.729913,-2451.505594,-666.185348
1440.339662,-8882.471304,-1762.019645,1776.494261
1440.339974,-12435.459826,229.828649,2368.659014
1440.340285,-11843.295072,153.219100,3182.885551
1440.340596,-9030.512492,-459.657299,3701.029710
1440.340907,-8364.327145,-1608.800546,2146.597232
1440.341219,-7254.018232,1072.533697,-1332.370696
1440.341530,-6291.750507,3370.820191,-1998.556043
1440.341841,-5477.523971,2834.553343,-1406.391290
1440.342153,-7698.141797,2987.772442,-74.020594
1440.342464,-10214.842000,3294.210641,-296.082377
1440.342776,-10510.924376,2221.676944,1332.370696
1440.343087,-9326.594869,-842.705048,2516.700203
1440.343399,-6957.935855,-1608.800546,2072.576638
1440.343710,-5329.482782,0.000000,370.102971
1440.344021,-3552.988522,-536.266849,-518.144159
1440.344333,-4737.318029,-4213.525239,814.226536
1440.344644,-7402.059420,-4366.744339,2886.803174
1440.344955,-9326.594869,-1225.752797,3330.926739
1440.345267,-10288.862594,-536.266849,3552.988522
1440.345578,-9030.512492,-2604.724693,3997.112087
1440.345890,-7994.224174,-2987.772442,1480.411884
1440.346201,-5403.503377,-995.924147,-814.226536
1440.346512,-3108.864956,612.876398,-2368.659014
1440.346824,-5107.421000,-1532.190996,-1184.329507
1440.347135,-9326.594869,-1149.143247,296.082377
1440.347446,-13027.624579,153.219100,592.164754
1440.347758,-13767.830521,612.876398,1554.432478
1440.348069,-13545.768739,-919.314598,2294.638420
1440.348381,-12435.459826,-1838.629195,1850.514855
1440.348692,-10140.821405,-153.219100,-1406.391290
1440.349003,-7920.203579,1532.190996,-3552.988522
1440.349315,-6883.915261,1838.629195,-2368.659014
1440.349626,-8956.491898,919.314598,-814.226536
1440.349937,-11325.150913,1225.752797,-0.000000
1440.350249,-11473.192101,689.485948,1184.329507
1440.350560,-11325.150913,-689.485948,1258.350101
1440.350872,-11177.109724,-306.438199,444.123565
1440.351183,-9548.656652,2451.505594,-1554.432478
1440.351494,-7550.100608,2911.162892,-3404.947333
1440.351806,-7920.203579,-383.047749,-1998.556043
1440.352117,-11843.295072,-689.485948,-740.205942
1440.352428,-15248.242405,2604.724693,222.061783
1440.352740,-15100.201217,3064.381992,1110.308913
1440.353051,-11991.336260,612.876398,2368.659014
1440.353363,-10288.862594,-1532.190996,2072.576638
1440.353674,-5847.626942,536.266849,-0.000000
1440.353985,-3478.967927,2068.457845,-666.185348
1440.354297,-4145.153275,-612.876398,888.247130
1440.354608,-4071.132681,-383.047749,740.205942
1440.354920,-7994.224174,1608.800546,1702.473667
1440.355231,-9178.553681,612.876398,2146.597232
1440.355542,-8068.244768,-1302.362347,2590.720797
1440.355854,-7328.038826,-536.266849,2516.700203
1440.356165,-5773.606348,76.609550,-814.226536
1440.356476,-2368.659014,919.314598,-592.164754
1440.356788,-4293.194464,-2221.676944,-740.205942
1440.357099,-8956.491898,-2451.505594,1702.473667
1440.357411,-9918.759623,-842.705048,2294.638420
1440.357722,-11547.212695,-612.876398,2072.576638
1440.358033,-10288.862594,-1302.362347,3478.967927
1440.358345,-8364.327145,-2451.505594,2072.576638
1440.358656,-7994.224174,-3294.210641,-0.000000
1440.358967,-4737.318029,-2604.724693,370.102971
1440.359279,-4811.338623,-2834.553343,148.041188
1440.359590,-9474.636058,-4213.525239,1776.494261
1440.359902,-12509.480420,-1991.848295,1850.514855
1440.360213,-12805.562797,383.047749,1628.453072
1440.360524,-11769.274478,-919.314598,1036.288319
1440.360836,-9992.780217,-306.438199,740.205942
1440.361147,-8364.327145,2068.457845,-1924.535449
1440.361458,-6957.935855,2451.505594,-3552.988522
1440.361770,-7105.977043,1378.971896,-1776.494261
1440.362081,-10362.883188,995.924147,-296.082377
1440.362393,-13471.748144,3064.381992,962.267725
1440.362704,-14730.098246,2451.505594,666.185348
1440.363015,-12879.583391,-459.657299,1184.329507
1440.363327,-11029.068536,-995.924147,962.267725
1440.363638,-10066.800811,995.924147,-1184.329507
1440.363949,-7550.100608,1608.800546,-2516.700203
1440.364261,-8512.368333,-1838.629195,-2590.720797
1440.364572,-9770.718434,-1225.752797,1258.350101
1440.364884,-12879.583391,766.095498,1480.411884
1440.365195,-13767.830521,306.438199,2516.700203
1440.365506,-9400.615463,0.000000,3108.864956
1440.365818,-7254.018232,-1378.971896,2368.659014
1440.366129,-5107.421000,383.047749,-592.164754
1440.366440,-3627.009116,2145.067394,-1850.514855
1440.366752,-4367.215058,995.924147,-1480.411884
1440.367063,-7105.977043,1072.533697,148.041188
1440.367375,-10436.903782,2068.457845,1332.370696
1440.367686,-11177.109724,2145.067394,1110.308913
1440.367997,-10584.944971,-383.047749,2590.720797
1440.368309,-8216.285956,-2451.505594,2072.576638
1440.368620,-4367.215058,-1455.581446,370.102971
1440.368931,-2442.679609,0.000000,-1924.535449
1440.369243,-2960.823768,-995.924147,-888.247130
1440.369554,-6143.709319,-2145.067394,1702.473667
1440.369866,-7846.182985,-1302.362347,2072.576638
1440.370177,-9104.533087,-995.924147,2442.679609
1440.370488,-9326.594869,-3677.258390,3108.864956
1440.370800,-8142.265362,-4443.353888,2590.720797
1440.371111,-7550.100608,-2221.676944,666.185348
1440.371422,-6217.729913,-2451.505594,-666.185348
1440.371734,-6735.874072,-4749.792088,-222.061783
1440.372045,-10436.903782,-4366.744339,814.226536
1440.372357,-13989.892304,-1149.143247,444.123565
1440.372668,-14285.974681,536.266849,-74.020594
1440.372979,-12731.542202,-383.047749,814.226536
1440.373291,-10955.047942,-2681.334243,1332.370696
1440.373602,-8660.409521,-3294.210641,-592.164754
1440.373913,-6883.915261,-1532.190996,-2368.659014
1440.374225,-6217.729913,-919.314598,-1036.288319
1440.374536,-9030.512492,-1455.581446,-296.082377
1440.374848,-12879.583391,-919.314598,740.205942
1440.375159,-14211.954086,-306.438199,1110.308913
1440.375470,-13323.706956,-1762.019645,1036.288319
1440.375782,-11547.212695,-995.924147,1332.370696
1440.376093,-9918.759623,229.828649,-1036.288319
1440.376404,-8290.306550,1838.629195,-3182.885551
1440.376716,-6069.688724,536.266849,-2072.576638
1440.377027,-7105.977043,-995.924147,-148.041188
1440.377339,-11251.130318,-229.828649,888.247130
1440.377650,-13249.686362,842.705048,1258.350101
1440.377961,-11695.253884,-1455.581446,1702.473667
1440.378273,-7920.203579,-2528.115143,3108.864956
1440.378584,-7624.121203,-3983.696590,1924.535449
1440.378895,-5403.503377,-4826.401637,-370.102971
1440.379207,-3627.009116,-5515.887586,-1554.432478
1440.379518,-3256.906145,-5439.278036,888.247130
1440.379830,-5995.668130,-3830.477490,1850.514855
1440.380141,-9844.739029,-4290.134789,2146.597232
1440.380452,-12213.398043,-5286.058936,2516.700203
1440.380764,-9104.533087,-4060.306139,4589.276840
1440.381075,-5107.421000,-2298.286494,3256.906145
1440.381386,-5107.421000,-1378.971896,148.041188
1440.381698,-4145.153275,-3140.991542,-1258.350101
1440.382009,-2812.782580,-4443.353888,-1036.288319
1440.382321,-1998.556043,-2757.943793,592.164754
1440.382632,-5625.565159,-3370.820191,666.185348
1440.382943,-12287.418637,-6358.592633,962.267725
1440.383255,-14211.954086,-7967.393179,3849.070898
1440.383566,-12509.480420,-5898.935335,2960.823768
1440.383877,-10807.006753,-4060.306139,1110.308913
1440.384189,-10288.862594,-5056.230287,-1184.329507
1440.384500,-9696.697840,-7048.078582,-2294.638420
1440.384812,-6143.709319,-5515.887586,-1998.556043
1440.385123,-4737.318029,-1915.238745,-1184.329507
1440.385434,-7624.121203,-842.705048,148.041188
1440.385746,-12139.377449,-4136.915689,1850.514855
1440.386057,-13989.892304,-5745.716235,2886.803174
1440.386368,-12879.583391,-2987.772442,3034.844362
1440.386680,-12287.418637,-153.219100,1258.350101
1440.386991,-11103.089130,0.000000,-740.205942
1440.387303,-9992.780217,-2451.505594,-3034.844362
1440.387614,-8660.409521,-3217.601092,-4441.235652
1440.387925,-7550.100608,-919.314598,-3849.070898
1440.388237,-10214.842000,383.047749,-3404.947333
1440.388548,-12731.542202,229.828649,-814.226536
1440.388859,-12065.356855,-1532.190996,2368.659014
1440.389171,-11621.233289,-4519.963438,3034.844362
1440.389482,-11843.295072,-5515.887586,3256.906145
1440.389794,-9770.718434,-3294.210641,1850.514855
1440.390105,-8216.285956,-229.828649,1332.370696
1440.390416,-6809.894666,-306.438199,222.061783
1440.390728,-4071.132681,-3064.381992,-888.247130
1440.391039,-3701.029710,-3677.258390,-1406.391290
1440.391350,-4811.338623,-4290.134789,-74.020594
1440.391662,-8142.265362,-2681.334243,740.205942
1440.391973,-8956.491898,-842.705048,740.205942
1440.392285,-11177.109724,2374.896044,518.144159
1440.392596,-10732.986159,2451.505594,2072.576638
1440.392907,-9770.718434,536.266849,1702.473667
1440.393219,-9474.636058,766.095498,2146.597232
1440.393530,-7105.977043,1532.190996,1998.556043
1440.393841,-5773.606348,536.266849,1110.308913
1440.394153,-3034.844362,-153.219100,962.267725
1440.394464,-1184.329507,-1608.800546,-0.000000
1440.394776,-1184.329507,-6052.154434,-814.226536
1440.395087,-2442.679609,-7431.126331,-0.000000
1440.395398,-6217.729913,-5209.449386,-148.041188
1440.395710,-10288.862594,-3600.648841,-222.061783
1440.396021,-14285.974681,-3447.429741,962.267725
1440.396332,-16580.613101,-4366.744339,3034.844362
1440.396644,-15174.221811,-5132.839837,4663.297435
1440.396955,-12805.562797,-6435.202183,5329.482782
1440.397267,-9918.759623,-5822.325785,3552.988522
1440.397578,-6809.894666,-5056.230287,1554.432478
1440.397889,-3923.091493,-4903.011187,-444.123565
1440.398201,-2294.638420,-5669.106685,-1480.411884
1440.398512,-2738.761985,-4979.620737,-1850.514855
1440.398823,-5551.544565,-4826.401637,-1702.473667
1440.399135,-8586.388927,-5286.058936,-1924.535449
1440.399446,-11917.315666,-4749.792088,-962.267725
1440.399758,-14434.015869,-3524.039291,740.205942
1440.400069,-16136.489536,-3370.820191,1628.453072
1440.400380,-17098.757260,-3140.991542,1554.432478
1440.400692,-16506.592507,-2451.505594,2220.617826
1440.401003,-13323.706956,-1302.362347,1332.370696
1440.401314,-9770.718434,-1532.190996,1258.350101
1440.401626,-6439.791695,-4060.306139,222.061783
1440.401937,-3182.885551,-6511.811733,-74.020594
1440.402249,-1776.494261,-7431.126331,-1332.370696
1440.402560,-3997.112087,-5515.887586,-2146.597232
1440.402871,-7254.018232,-3600.648841,-1702.473667
1440.403183,-10288.862594,-3140.991542,-1998.556043
1440.403494,-13619.789333,-2374.896044,-0.000000
1440.403805,-16062.468941,-1762.019645,1184.329507
1440.404117,-16580.613101,-995.924147,2146.597232
1440.404428,-14434.015869,-612.876398,1776.494261
1440.404740,-10510.924376,-2604.724693,1184.329507
1440.405051,-5255.462188,-1915.238745,296.082377
1440.405362,-4515.256246,-1991.848295,-1406.391290
1440.405674,-4367.215058,-1838.629195,-518.144159
1440.405985,-2590.720797,-1685.410096,-1036.288319
1440.406296,-4219.173869,-1378.971896,-0.000000
1440.406608,-5403.503377,-1685.410096,592.164754
1440.406919,-6587.832884,-1378.971896,-222.061783
1440.407231,-7698.141797,-1608.800546,-0.000000
1440.407542,-7772.162391,-1378.971896,-74.020594
1440.407853,-8882.471304,-2145.067394,-74.020594
1440.408165,-10658.965565,-2757.943793,-0.000000
1440.408476,-11843.295072,-2528.115143,1850.514855
1440.408787,-11473.192101,-3753.867940,2146.597232
1440.409099,-9770.718434,-4903.011187,2368.659014
1440.409410,-7254.018232,-4749.792088,2368.659014
1440.409722,-6439.791695,-4136.915689,1258.350101
1440.410033,-6217.729913,-3753.867940,444.123565
1440.410344,-5477.523971,-2451.505594,-0.000000
1440.410656,-5551.544565,-1378.971896,-296.082377
1440.410967,-6513.812290,-1302.362347,-148.041188
1440.411278,-8290.306550,-1455.581446,370.102971
1440.411590,-9770.718434,-842.705048,740.205942
1440.411901,-10955.047942,-2451.505594,1924.535449
1440.412213,-11473.192101,-4519.963438,1554.432478
1440.412524,-11769.274478,-5439.278036,2664.741391
1440.412835,-11769.274478,-5209.449386,1924.535449
1440.413147,-11399.171507,-4673.182538,1258.350101
1440.413458,-10510.924376,-3447.429741,592.164754
1440.413769,-8956.491898,-2221.676944,370.102971
1440.414081,-8586.388927,-2298.286494,370.102971
1440.414392,-7994.224174,-2681.334243,296.082377
1440.414704,-7476.080014,-2145.067394,1110.308913
1440.415015,-7772.162391,-2604.724693,1480.411884
1440.415326,-8512.368333,-3830.477490,1628.453072
1440.415638,-9770.718434,-3983.696590,1332.370696
1440.415949,-10807.006753,-3677.258390,1036.288319
1440.416260,-10732.986159,-3524.039291,1110.308913
1440.416572,-11621.233289,-4290.134789,666.185348
1440.416883,-10955.047942,-4519.963438,1406.391290
1440.417195,-9918.759623,-4596.572988,1110.308913
1440.417506,-8660.409521,-4673.182538,1258.350101
1440.417817,-7476.080014,-3753.867940,1036.288319
1440.418129,-6957.935855,-2528.115143,296.082377
1440.418440,-6217.729913,-1532.190996,222.061783
1440.418751,-6439.791695,-1225.752797,-1184.329507
1440.419063,-6809.894666,-306.438199,-666.185348
1440.419374,-8142.265362,229.828649,-740.205942
1440.419686,-9252.574275,-1991.848295,-0.000000
1440.419997,-10066.800811,-3447.429741,296.082377
1440.420308,-9252.574275,-3830.477490,1036.288319
1440.420620,-9992.780217,-3600.648841,592.164754
1440.420931,-7846.182985,-3217.601092,1332.370696
1440.421242,-7772.162391,-3677.258390,-74.020594
1440.421554,-8660.409521,-3524.039291,-296.082377
1440.421865,-5773.606348,-2604.724693,-222.061783
1440.422177,-7105.977043,-2068.457845,-1850.514855
1440.422488,-8512.368333,-2757.943793,592.164754
1440.422799,-11177.109724,-3370.820191,-0.000000
1440.423111,-11103.089130,-2374.896044,888.247130
1440.423422,-10436.903782,-536.266849,1110.308913
1440.423733,-9844.739029,-1455.581446,1776.494261
1440.424045,-9474.636058,-3370.820191,1184.329507
1440.424356,-8142.265362,-3677.258390,1036.288319
1440.424668,-7624.121203,-2604.724693,1036.288319
1440.424979,-8142.265362,-1608.800546,814.226536
1440.425290,-11325.150913,-612.876398,814.226536
1440.425602,-11399.171507,0.000000,1036.288319
1440.425913,-10214.842000,-1225.752797,1184.329507
1440.426224,-9770.718434,-1532.190996,1702.473667
1440.426536,-7920.203579,-536.266849,2368.659014
1440.426847,-9326.594869,-2068.457845,1998.556043
1440.427159,-8660.409521,-4060.306139,4071.132681
1440.427470,-9770.718434,-4749.792088,3775.050304
1440.427781,-9252.574275,-2221.676944,5551.544565
1440.428093,-11399.171507,-1685.410096,5033.400406
1440.428404,-12583.501014,-2145.067394,5773.606348
1440.428715,-9622.677246,-1149.143247,4589.276840
1440.429027,-7772.162391,536.266849,4293.194464
1440.429338,-7031.956449,1072.533697,3330.926739
1440.429650,-5995.668130,536.266849,3034.844362
1440.429961,-7772.162391,-229.828649,2146.597232
1440.430272,-5773.606348,842.705048,3923.091493
1440.430584,-7772.162391,229.828649,2738.761985
1440.430895,-10214.842000,0.000000,4737.318029
1440.431206,-10584.944971,536.266849,6587.832884
1440.431518,-9474.636058,-1685.410096,5699.585753
1440.431829,-7624.121203,-2068.457845,7105.977043
1440.432141,-8290.306550,-842.705048,4959.379811
1440.432452,-7402.059420,0.000000,5329.482782
1440.432763,-6439.791695,536.266849,3775.050304
1440.433075,-5625.565159,459.657299,3775.050304
1440.433386,-6883.915261,2451.505594,3552.988522
1440.433697,-9030.512492,2451.505594,3627.009116
1440.434009,-9030.512492,1149.143247,4663.297435
1440.434320,-8290.306550,689.485948,4737.318029
1440.434632,-7846.182985,76.609550,4737.318029
1440.434943,-8068.244768,-536.266849,4737.318029
1440.435254,-8216.285956,-1302.362347,5107.421000
1440.435566,-7624.121203,0.000000,4441.235652
1440.435877,-7550.100608,1149.143247,5033.400406
1440.436189,-7994.224174,1762.019645,3923.091493
1440.436500,-9844.739029,1532.190996,4071.132681
1440.436811,-10066.800811,1608.800546,3923.091493
1440.437123,-8290.306550,1532.190996,3923.091493
1440.437434,-8068.244768,1072.533697,3034.844362
1440.437745,-7402.059420,-383.047749,3108.864956
1440.438057,-7846.182985,-612.876398,2368.659014
1440.438368,-6661.853478,-1072.533697,2738.761985
1440.438680,-6809.894666,-766.095498,2886.803174
1440.438991,-8586.388927,-1762.019645,3108.864956
1440.439302,-9622.677246,-1072.533697,3552.988522
1440.439614,-10584.944971,-689.485948,3701.029710
1440.439925,-10436.903782,-612.876398,3701.029710
1440.440236,-11103.089130,76.609550,3923.091493
1440.440548,-11251.130318,306.438199,2886.803174
1440.440859,-10436.903782,689.485948,2442.679609
1440.441171,-9030.512492,842.705048,1628.453072
1440.441482,-8660.409521,919.314598,1480.411884
1440.441793,-9696.697840,0.000000,2294.638420
1440.442105,-9696.697840,-1225.752797,3034.844362
1440.442416,-9696.697840,-1455.581446,3701.029710
1440.442727,-9474.636058,-1991.848295,3923.091493
1440.443039,-8290.306550,-842.705048,4441.235652
1440.443350,-8364.327145,-1762.019645,2516.700203
1440.443661,-7698.141797,0.000000,2072.576638
1440.443973,-6957.935855,919.314598,888.247130
1440.444284,-7920.203579,842.705048,296.082377
1440.444595,-9400.615463,766.095498,444.123565
1440.444907,-11177.109724,766.095498,1184.329507
1440.445218,-11917.315666,842.705048,2072.576638
1440.445529,-12287.418637,612.876398,3182.885551
1440.445841,-12065.356855,-689.485948,4515.256246
1440.446152,-11029.068536,-1532.190996,4663.297435
1440.446463,-8142.265362,-1455.581446,3923.091493
1440.446774,-5329.482782,-1762.019645,2886.803174
1440.447086,-3330.926739,-1149.143247,1850.514855
1440.447397,-4219.173869,-1378.971896,1110.308913
1440.447708,-6513.812290,-383.047749,1628.453072
1440.448020,-9622.677246,536.266849,2516.700203
1440.448331,-11843.295072,2374.896044,4293.194464
1440.448642,-14359.995275,1532.190996,5181.441594
1440.448954,-13915.871710,153.219100,5921.647536
1440.449265,-10881.027347,-229.828649,5477.523971
1440.449576,-6883.915261,76.609550,4145.153275
1440.449888,-4737.318029,153.219100,1850.514855
1440.450199,-2812.782580,536.266849,740.205942
1440.450510,-2738.761985,459.657299,666.185348
1440.450822,-5033.400406,536.266849,1554.432478
1440.451133,-8660.409521,536.266849,2960.823768
1440.451444,-12879.583391,1149.143247,4441.235652
1440.451756,-14211.954086,1225.752797,5847.626942
1440.452067,-12435.459826,229.828649,5921.647536
1440.452378,-10140.821405,-919.314598,5403.503377
1440.452690,-8438.347739,-1378.971896,4737.318029
1440.453001,-7031.956449,-306.438199,4737.318029
1440.453312,-6291.750507,459.657299,5551.544565
1440.453624,-7105.977043,229.828649,6217.729913
1440.453935,-8882.471304,76.609550,6365.771101
1440.454246,-8660.409521,-229.828649,6883.915261
1440.454558,-7994.224174,-153.219100,5477.523971
1440.454869,-7031.956449,1225.752797,4071.132681
1440.455180,-7402.059420,3140.991542,2664.741391
1440.455492,-8882.471304,2604.724693,2146.597232
1440.455803,-9030.512492,919.314598,2812.782580
1440.456114,-9474.636058,153.219100,3330.926739
1440.456426,-9548.656652,0.000000,4589.276840
1440.456737,-9622.677246,-766.095498,5551.544565
1440.457048,-11103.089130,-2681.334243,5847.626942
1440.457360,-11473.192101,-2757.943793,7254.018232
1440.457671,-10881.027347,-1532.190996,8216.285956
1440.457982,-9918.759623,-383.047749,8068.244768
1440.458294,-8956.491898,689.485948,6143.709319
1440.458605,-7105.977043,1072.533697,4071.132681
1440.458916,-3627.009116,2145.067394,1406.391290
1440.459228,-888.247130,3907.087040,-370.102971
1440.459539,-2072.576638,3983.696590,-888.247130
1440.459850,-4663.297435,2681.334243,296.082377
1440.460162,-8290.306550,459.657299,2220.617826
1440.460473,-12139.377449,-919.314598,4293.194464
1440.460784,-15544.324782,-1072.533697,6587.832884
1440.461096,-17320.819043,-1302.362347,7550.100608
1440.461407,-16284.530724,-1532.190996,7105.977043
1440.461718,-12509.480420,-1072.533697,5699.585753
1440.462030,-8142.265362,-1072.533697,4737.318029
1440.462341,-4515.256246,-919.314598,2886.803174
1440.462652,-1850.514855,0.000000,888.247130
1440.462964,-444.123565,306.438199,-0.000000
1440.463275,-1776.494261,0.000000,-962.267725
1440.463586,-4515.256246,383.047749,-370.102971
1440.463898,-6809.894666,153.219100,-0.000000
1440.464209,-11695.253884,-919.314598,1184.329507
1440.464520,-15618.345376,-1225.752797,3701.029710
1440.464831,-18801.230927,-1072.533697,5403.503377
1440.465143,-20577.725188,153.219100,7031.956449
1440.465454,-17764.942608,0.000000,7550.100608
1440.465765,-12139.377449,-536.266849,6217.729913
1440.466077,-4811.338623,-1072.533697,3404.947333
1440.466388,1184.329507,-153.219100,296.082377
1440.466699,3775.050304,766.095498,-2516.700203
1440.467011,2516.700203,1302.362347,-4589.276840
1440.467322,-2072.576638,1302.362347,-2442.679609
1440.467633,-8956.491898,-689.485948,-740.205942
1440.467945,-15396.283594,-306.438199,2886.803174
1440.468256,-21465.972318,-229.828649,6217.729913
1440.468567,-23760.610738,0.000000,8142.265362
1440.468879,-21095.869347,-536.266849,8512.368333
1440.469190,-15840.407159,-1762.019645,7846.182985
1440.469501,-8956.491898,-1762.019645,6069.688724
1440.469813,-3256.906145,-1149.143247,2886.803174
1440.470124,1258.350101,229.828649,-222.061783
1440.470435,3478.967927,1149.143247,-2442.679609
1440.470747,1184.329507,1991.848295,-2294.638420
1440.471058,-3923.091493,1762.019645,-592.164754
1440.471369,-10658.965565,1149.143247,1850.514855
1440.471681,-15692.365970,1302.362347,5181.441594
1440.471992,-18283.086767,1149.143247,7772.162391
1440.472303,-16654.633695,76.609550,8290.306550
1440.472615,-12361.439231,-1225.752797,7698.141797
1440.472926,-9104.533087,-2298.286494,6143.709319
1440.473237,-3849.070898,-1302.362347,3701.029710
1440.473549,-1554.432478,-153.219100,2590.720797
1440.473860,-1702.473667,689.485948,1406.391290
1440.474171,-4441.235652,1149.143247,1850.514855
1440.474483,-7920.203579,766.095498,2516.700203
1440.474794,-10140.821405,1072.533697,4145.153275
1440.475105,-10658.965565,2068.457845,4145.153275
1440.475417,-9178.553681,536.266849,3701.029710
1440.475728,-9030.512492,-1991.848295,3034.844362
1440.476039,-8068.244768,-2987.772442,3182.885551
1440.476351,-7550.100608,-1225.752797,3627.009116
1440.476662,-8586.388927,153.219100,4515.256246
1440.476973,-10288.862594,76.609550,4737.318029
1440.477285,-11843.295072,459.657299,5403.503377
1440.477596,-10732.986159,1378.971896,4811.338623
1440.477907,-7179.997637,2757.943793,3330.926739
1440.478219,-4441.235652,3294.210641,-0.000000
1440.478530,-2738.761985,2681.334243,-2220.617826
1440.478841,-1776.494261,766.095498,-3775.050304
1440.479153,-1480.411884,-383.047749,-3849.070898
1440.479464,-5625.565159,-536.266849,-1036.288319
1440.479775,-13841.851115,0.000000,3923.091493
1440.480087,-22206.178260,-2451.505594,7994.224174
1440.480398,-23908.651927,-4443.353888,10732.986159
1440.480709,-18431.127956,-4673.182538,9696.697840
1440.481021,-9548.656652,-4060.306139,5329.482782
1440.481332,-1406.391290,-2374.896044,-518.144159
1440.481643,5033.400406,0.000000,-6513.812290
1440.481954,6439.791695,2221.676944,-9400.615463
1440.482266,1998.556043,3524.039291,-7846.182985
1440.482577,-7402.059420,3983.696590,-3775.050304
1440.482888,-17542.880825,2451.505594,296.082377
1440.483200,-21910.095883,-229.828649,3627.009116
1440.483511,-20133.601622,-995.924147,4145.153275
1440.483822,-15914.427753,-842.705048,1850.514855
1440.484134,-11843.295072,-995.924147,-0.000000
1440.484445,-6661.853478,-2451.505594,-1776.494261
1440.484756,-5477.523971,-2145.067394,-1406.391290
1440.485068,-6735.874072,-1225.752797,-1776.494261
1440.485379,-6587.832884,0.000000,-1998.556043
1440.485690,-5921.647536,536.266849,-1554.432478
1440.486002,-6365.771101,-459.657299,-2220.617826
1440.486313,-6957.935855,-1149.143247,-3478.967927
1440.486624,-9104.533087,-1532.190996,-3701.029710
1440.486936,-12805.562797,536.266849,-2516.700203
1440.487247,-14656.077652,1149.143247,-0.000000
1440.487558,-16210.510130,229.828649,592.164754
1440.487870,-15174.221811,-919.314598,1332.370696
1440.488181,-11843.295072,-842.705048,1332.370696
1440.488492,-7476.080014,-1072.533697,666.185348
1440.488804,-4219.173869,-689.485948,-296.082377
1440.489115,-3034.844362,383.047749,-1702.473667
1440.489426,-4145.153275,459.657299,-2516.700203
1440.489738,-8142.265362,842.705048,-1628.453072
1440.490049,-10881.027347,1072.533697,-962.267725
1440.490360,-9474.636058,919.314598,-962.267725
1440.490672,-7402.059420,-1455.581446,-1110.308913
1440.490983,-5699.585753,-3064.381992,-0.000000
1440.491294,-7402.059420,-4213.525239,1702.473667
1440.491606,-10140.821405,-4596.572988,2886.803174
1440.491917,-12213.398043,-2681.334243,4663.297435
1440.492228,-14063.912898,-919.314598,5699.585753
1440.492540,-14211.954086,383.047749,4071.132681
1440.492851,-11251.130318,2221.676944,1850.514855
1440.493162,-5995.668130,2681.334243,-1702.473667
1440.493474,-1332.370696,3064.381992,-4959.379811
1440.493785,222.061783,2604.724693,-5699.585753
1440.494096,-2368.659014,2834.553343,-4145.153275
1440.494408,-7550.100608,1225.752797,-1406.391290
1440.494719,-12583.501014,-229.828649,2590.720797
1440.495030,-16506.592507,-1838.629195,6291.750507
1440.495342,-16580.613101,-2451.505594,7772.162391
1440.495653,-13619.789333,-1685.410096,7254.018232
1440.495964,-8882.471304,-1838.629195,3701.029710
1440.496276,-4589.276840,-1072.533697,1406.391290
1440.496587,-3256.906145,306.438199,-1110.308913
1440.496898,-4959.379811,3370.820191,-1924.535449
1440.497210,-6587.832884,5132.839837,-592.164754
1440.497521,-7994.224174,3370.820191,-370.102971
1440.497832,-8660.409521,842.705048,-222.061783
1440.498144,-8142.265362,229.828649,814.226536
1440.498455,-8068.244768,-229.828649,2442.679609
1440.498766,-10436.903782,-2911.162892,2960.823768
1440.499077,-13027.624579,-4136.915689,4071.132681
1440.499389,-14285.974681,-3524.039291,3923.091493
1440.499700,-12287.418637,-2221.676944,4293.194464
1440.500011,-10436.903782,-995.924147,3256.906145
1440.500323,-7994.224174,0.000000,1036.288319
1440.500634,-4515.256246,0.000000,-1036.288319
1440.500945,-1332.370696,306.438199,-2664.741391
1440.501257,-2294.638420,383.047749,-3182.885551
1440.501568,-5033.400406,1532.190996,-2368.659014
1440.501879,-8586.388927,1838.629195,-1332.370696
1440.502191,-11843.295072,1762.019645,148.041188
1440.502502,-13989.892304,1608.800546,2368.659014
1440.502813,-13323.706956,1378.971896,3256.906145
1440.503125,-10510.924376,76.609550,1998.556043
1440.503436,-7624.121203,-842.705048,-0.000000
1440.503747,-5403.503377,-2451.505594,-1332.370696
1440.504059,-5329.482782,-1302.362347,-3034.844362
1440.504370,-6735.874072,459.657299,-3256.906145
1440.504681,-8734.430116,1532.190996,-2886.803174
1440.504993,-11103.089130,689.485948,-1184.329507
1440.505304,-11917.315666,229.828649,-0.000000
1440.505615,-10140.821405,-1149.143247,-296.082377
1440.505927,-7698.141797,-2604.724693,-962.267725
1440.506238,-7254.018232,-4290.134789,-74.020594
1440.506549,-9326.594869,-3753.867940,-0.000000
1440.506861,-11547.212695,-2374.896044,370.102971
1440.507172,-13175.665768,-995.924147,1184.329507
1440.507483,-13471.748144,536.266849,1406.391290
1440.507795,-12361.439231,1455.581446,-0.000000
1440.508106,-9030.512492,3140.991542,-2294.638420
1440.508417,-6365.771101,2145.067394,-4589.276840
1440.508729,-6217.729913,2068.457845,-4219.173869
1440.509040,-6439.791695,995.924147,-4367.215058
1440.509351,-8882.471304,153.219100,-3478.967927
1440.509663,-10732.986159,-229.828649,-666.185348
1440.509974,-13323.706956,-383.047749,1480.411884
1440.510285,-12509.480420,-612.876398,3182.885551
1440.510597,-10658.965565,-1378.971896,2220.617826
1440.510908,-8660.409521,-3064.381992,1850.514855
1440.511219,-6291.750507,-2987.772442,-0.000000
1440.511531,-6069.688724,-842.705048,-888.247130
1440.511842,-7328.038826,995.924147,-1406.391290
1440.512153,-7920.203579,1762.019645,-1850.514855
1440.512465,-9622.677246,2068.457845,-1480.411884
1440.512776,-8882.471304,2757.943793,296.082377
1440.513087,-8290.306550,1838.629195,-74.020594
1440.513399,-8512.368333,612.876398,-0.000000
1440.513710,-8956.491898,76.609550,814.226536
1440.514021,-9992.780217,153.219100,1406.391290
1440.514333,-10658.965565,919.314598,3256.906145
1440.514644,-10881.027347,306.438199,3701.029710
1440.514955,-10214.842000,-1378.971896,2738.761985
1440.515267,-7624.121203,-383.047749,2220.617826
1440.515578,-5107.421000,1072.533697,2886.803174
1440.515889,-5033.400406,76.609550,1776.494261
1440.516201,-6883.915261,-2604.724693,1628.453072
1440.516512,-8882.471304,-3753.867940,1258.350101
1440.516823,-9326.594869,-1915.238745,2294.638420
1440.517134,-8586.388927,-383.047749,2516.700203
1440.517446,-8956.491898,0.000000,2442.679609
1440.517757,-10140.821405,-459.657299,2590.720797
1440.518068,-9474.636058,-1685.410096,3701.029710
1440.518380,-9696.697840,-1532.190996,3701.029710
1440.518691,-9770.718434,-1225.752797,3330.926739
1440.519002,-9622.677246,766.095498,2368.659014
1440.519314,-8364.327145,1838.629195,296.082377
1440.519625,-7772.162391,3370.820191,-444.123565
1440.519936,-7772.162391,4903.011187,-0.000000
1440.520248,-7550.100608,4366.744339,1184.329507
1440.520559,-7402.059420,3064.381992,2294.638420
1440.520870,-6661.853478,-689.485948,1850.514855
1440.521182,-5033.400406,-1915.238745,1110.308913
1440.521493,-4663.297435,-842.705048,1184.329507
1440.521804,-5403.503377,383.047749,370.102971
1440.522116,-7328.038826,689.485948,-74.020594
1440.522427,-10288.862594,766.095498,1036.288319
1440.522738,-13027.624579,766.095498,1110.308913
1440.523050,-12953.603985,1532.190996,888.247130
1440.523361,-10955.047942,1378.971896,-814.226536
1440.523672,-9622.677246,766.095498,-1776.494261
1440.523984,-8364.327145,-842.705048,-2368.659014
1440.524295,-8586.388927,-1838.629195,-2812.782580
1440.524606,-9548.656652,-1455.581446,-1924.535449
1440.524918,-9474.636058,0.000000,518.144159
1440.525229,-11325.150913,-995.924147,1406.391290
1440.525540,-12139.377449,-2604.724693,2442.679609
1440.525852,-10584.944971,-4136.915689,2294.638420
1440.526163,-8586.388927,-4826.401637,814.226536
1440.526474,-6365.771101,-2451.505594,-444.123565
1440.526786,-6735.874072,-229.828649,-2220.617826
1440.527097,-7698.141797,842.705048,-2516.700203
1440.527408,-9178.553681,1455.581446,-1924.535449
1440.527720,-11029.068536,1685.410096,-666.185348
1440.528031,-10881.027347,1608.800546,296.082377
1440.528342,-10807.006753,1072.533697,-888.247130
1440.528654,-9770.718434,0.000000,-888.247130
1440.528965,-9178.553681,-919.314598,-1184.329507
1440.529276,-8438.347739,-1072.533697,-1110.308913
1440.529588,-10658.965565,76.609550,-814.226536
1440.529899,-11843.295072,766.095498,740.205942
1440.530210,-12805.562797,0.000000,2072.576638
1440.530522,-10955.047942,-995.924147,2220.617826
1440.530833,-7846.182985,-2298.286494,1480.411884
1440.531144,-5403.503377,-3600.648841,296.082377
1440.531456,-3034.844362,-2604.724693,-1184.329507
1440.531767,-4441.235652,0.000000,-814.226536
1440.532078,-7254.018232,1302.362347,-148.041188
1440.532390,-11177.109724,2374.896044,962.267725
1440.532701,-14952.160028,5132.839837,3997.112087
1440.533012,-14359.995275,3600.648841,5329.482782
1440.533324,-9474.636058,1378.971896,3552.988522
1440.533635,-4515.256246,-842.705048,-0.000000
1440.533946,-1258.350101,689.485948,-2442.679609
1440.534257,-1924.535449,2834.553343,-2294.638420
1440.534569,-7105.977043,2451.505594,-222.061783
1440.534880,-12213.398043,1608.800546,2590.720797
1440.535191,-16136.489536,383.047749,4663.297435
1440.535503,-14359.995275,0.000000,5477.523971
1440.535814,-9178.553681,-2221.676944,4441.235652
1440.536125,-3701.029710,-2834.553343,1776.494261
1440.536437,-296.082377,-3447.429741,-296.082377
1440.536748,-1332.370696,-1991.848295,-888.247130
1440.537059,-5699.585753,383.047749,814.226536
1440.537371,-10732.986159,1915.238745,3182.885551
1440.537682,-15322.262999,2221.676944,4441.235652
1440.537993,-16062.468941,2451.505594,5033.400406
1440.538305,-12657.521608,1762.019645,3108.864956
1440.538616,-7179.997637,689.485948,-148.041188
1440.538927,-2738.761985,153.219100,-1998.556043
1440.539239,-1850.514855,-229.828649,-3330.926739
1440.539550,-5403.503377,-612.876398,-2072.576638
1440.539861,-10140.821405,0.000000,-222.061783
1440.540173,-13767.830521,229.828649,2590.720797
1440.540484,-15914.427753,0.000000,4959.379811
1440.540795,-15174.221811,-1762.019645,4959.379811
1440.541107,-12583.501014,-3677.258390,3182.885551
1440.541418,-7994.224174,-3753.867940,1036.288319
1440.541729,-4589.276840,-2221.676944,-1258.350101
1440.542041,-3478.967927,76.609550,-2664.741391
1440.542352,-5847.626942,0.000000,-2368.659014
1440.542663,-9918.759623,229.828649,-962.267725
1440.542975,-11473.192101,1532.190996,1554.432478
1440.543286,-12065.356855,1225.752797,2442.679609
1440.543597,-11473.192101,-229.828649,2146.597232
1440.543909,-9326.594869,-919.314598,1110.308913
1440.544220,-7846.182985,-459.657299,-74.020594
1440.544531,-7254.018232,1149.143247,-814.226536
1440.544843,-7179.997637,1838.629195,-1184.329507
1440.545154,-8512.368333,1685.410096,-1110.308913
1440.545465,-8956.491898,1378.971896,-444.123565
1440.545777,-7772.162391,919.314598,-0.000000
1440.546088,-7105.977043,-612.876398,-296.082377
1440.546399,-6957.935855,-1149.143247,-592.164754
1440.546711,-7994.224174,-995.924147,-1480.411884
1440.547022,-8290.306550,766.095498,-814.226536
1440.547333,-8660.409521,1838.629195,-0.000000
1440.547645,-11103.089130,1378.971896,-370.102971
1440.547956,-10066.800811,1225.752797,444.123565
1440.548267,-9252.574275,0.000000,-666.185348
1440.548579,-7846.182985,-612.876398,-222.061783
1440.548890,-7254.018232,-1685.410096,-592.164754
1440.549201,-7476.080014,-1072.533697,-1332.370696
1440.549513,-10288.862594,-383.047749,-0.000000
1440.549824,-12435.459826,-842.705048,1406.391290
1440.550135,-12953.603985,-383.047749,2368.659014
1440.550447,-11917.315666,-766.095498,2220.617826
1440.550758,-9400.615463,-1608.800546,1258.350101
1440.551069,-6661.853478,-2221.676944,-222.061783
1440.551381,-4219.173869,-2068.457845,-370.102971
1440.551692,-4737.318029,-612.876398,-962.267725
1440.552003,-8290.306550,1225.752797,-0.000000
1440.552315,-11029.068536,612.876398,1998.556043
1440.552626,-14285.974681,995.924147,2368.659014
1440.552937,-14359.995275,1378.971896,3108.864956
1440.553249,-12139.377449,842.705048,2516.700203
1440.553560,-9030.512492,-1225.752797,222.061783
1440.553871,-4885.359217,-2374.896044,-2220.617826
1440.554183,-2442.679609,-995.924147,-3256.906145
1440.554494,-6365.771101,383.047749,-1998.556043
1440.554805,-10658.965565,1838.629195,1998.556043
1440.555117,-15470.304188,229.828649,3849.070898
1440.555428,-15544.324782,153.219100,5329.482782
1440.555739,-11917.315666,-383.047749,5477.523971
1440.556051,-7105.977043,-1608.800546,2738.761985
1440.556362,-1850.514855,-1915.238745,-740.205942
1440.556673,1036.288319,-1149.143247,-3256.906145
1440.556985,148.041188,689.485948,-4885.359217
1440.557296,-4071.132681,2221.676944,-2960.823768
1440.557607,-10881.027347,2757.943793,-0.000000
1440.557919,-16432.571912,1302.362347,2886.803174
1440.558230,-17542.880825,383.047749,4071.132681
1440.558541,-13989.892304,306.438199,2516.700203
1440.558853,-7550.100608,459.657299,-0.000000
1440.559164,-3034.844362,1072.533697,-2072.576638
1440.559475,-2812.782580,536.266849,-4219.173869
1440.559787,-4663.297435,2451.505594,-2738.761985
1440.560098,-9770.718434,1762.019645,-888.247130
1440.560409,-13249.686362,1149.143247,2664.741391
1440.560721,-13915.871710,76.609550,3404.947333
1440.561032,-11621.233289,-1915.238745,2516.700203
1440.561343,-7698.141797,-4673.182538,814.226536
1440.561655,-5699.585753,-5209.449386,-592.164754
1440.561966,-5255.462188,-2145.067394,-2294.638420
1440.562277,-6069.688724,-306.438199,-2146.597232
1440.562589,-9104.533087,229.828649,-888.247130
1440.562900,-11547.212695,-766.095498,740.205942
1440.563211,-12065.356855,-1149.143247,1406.391290
1440.563523,-10436.903782,-1225.752797,888.247130
1440.563834,-9326.594869,0.000000,296.082377
1440.564145,-8808.450710,919.314598,-444.123565
1440.564457,-9844.739029,919.314598,-518.144159
1440.564768,-11029.068536,1302.362347,-666.185348
1440.565079,-12731.542202,1072.533697,1110.308913
1440.565391,-12065.356855,1608.800546,888.247130
1440.565702,-9400.615463,612.876398,296.082377
1440.566013,-5773.606348,-995.924147,370.102971
1440.566325,-4293.194464,-3983.696590,-222.061783
1440.566636,-4811.338623,-2451.505594,1258.350101
1440.566947,-7254.018232,-1302.362347,740.205942
1440.567259,-10214.842000,306.438199,1776.494261
1440.567570,-12805.562797,1225.752797,2516.700203
1440.567881,-12287.418637,1608.800546,3404.947333
1440.568193,-9104.533087,0.000000,1776.494261
1440.568504,-6217.729913,-1378.971896,-518.144159
1440.568815,-5477.523971,0.000000,-518.144159
1440.569127,-5921.647536,-153.219100,-296.082377
1440.569438,-8956.491898,0.000000,1258.350101
1440.569749,-12435.459826,-459.657299,2516.700203
1440.570061,-14063.912898,-459.657299,3552.988522
1440.570372,-12287.418637,153.219100,2960.823768
1440.570683,-7105.977043,842.705048,1776.494261
1440.570995,-3849.070898,-459.657299,-814.226536
1440.571306,-3404.947333,-1225.752797,-1258.350101
1440.571617,-4515.256246,306.438199,-814.226536
1440.571929,-7031.956449,995.924147,-666.185348
1440.572240,-9030.512492,1838.629195,1184.329507
1440.572551,-11547.212695,1608.800546,1332.370696
1440.572863,-12139.377449,1225.752797,1184.329507
1440.573174,-9844.739029,995.924147,370.102971
1440.573485,-7994.224174,229.828649,-740.205942
1440.573797,-7550.100608,-612.876398,-962.267725
1440.574108,-6069.688724,-1608.800546,-2368.659014
1440.574419,-6217.729913,-1608.800546,-4293.194464
1440.574731,-7328.038826,1455.581446,-2368.659014
1440.575042,-11769.274478,2757.943793,592.164754
1440.575353,-15248.242405,1685.410096,2146.597232
1440.575665,-15322.262999,-306.438199,2220.617826
1440.575976,-11843.295072,-1915.238745,2220.617826
1440.576288,-8290.306550,-2911.162892,518.144159
1440.576599,-5033.400406,-1762.019645,-2368.659014
1440.576910,-4515.256246,-1225.752797,-4589.276840
1440.577222,-6587.832884,-612.876398,-4071.132681
1440.577533,-9918.759623,0.000000,-1258.350101
1440.577844,-13249.686362,306.438199,1332.370696
1440.578156,-14582.057057,229.828649,2590.720797
1440.578467,-13027.624579,-1225.752797,2738.761985
1440.578778,-9844.739029,-2221.676944,592.164754
1440.579090,-4737.318029,-306.438199,-1406.391290
1440.579401,-3330.926739,1149.143247,-3404.947333
1440.579712,-4959.379811,1455.581446,-2368.659014
1440.580024,-9474.636058,766.095498,-518.144159
1440.580335,-12435.459826,76.609550,1480.411884
1440.580646,-13027.624579,-689.485948,2812.782580
1440.580958,-12435.459826,-1915.238745,2960.823768
1440.581269,-9104.533087,-2604.724693,2220.617826
1440.581580,-7031.956449,-2604.724693,740.205942
1440.581892,-6735.874072,-1225.752797,-518.144159
1440.582203,-7698.141797,919.314598,-222.061783
1440.582514,-7994.224174,3140.991542,518.144159
1440.582826,-8364.327145,3983.696590,1110.308913
1440.583137,-8438.347739,2987.772442,1480.411884
1440.583448,-8068.244768,842.705048,518.144159
1440.583760,-6809.894666,689.485948,444.123565
1440.584071,-5995.668130,842.705048,962.267725
1440.584382,-7920.203579,612.876398,814.226536
1440.584694,-10140.821405,0.000000,1480.411884
1440.585005,-12065.356855,-612.876398,2368.659014
1440.585316,-11325.150913,-689.485948,2516.700203
1440.585628,-8068.244768,-459.657299,2442.679609
1440.585939,-5625.565159,-689.485948,814.226536
1440.586250,-5403.503377,-1608.800546,888.247130
1440.586562,-5403.503377,-1149.143247,1258.350101
1440.586873,-8068.244768,229.828649,1332.370696
1440.587184,-10288.862594,1915.238745,2220.617826
1440.587496,-12435.459826,919.314598,2886.803174
1440.587807,-12213.398043,-459.657299,2442.679609
1440.588118,-7846.182985,-459.657299,296.082377
1440.588430,-4737.318029,-995.924147,-1036.288319
1440.588741,-4145.153275,-2221.676944,-2516.700203
1440.589052,-6661.853478,-2221.676944,-1036.288319
1440.589364,-10436.903782,-1915.238745,-0.000000
1440.589675,-13619.789333,-383.047749,1850.514855
1440.589986,-15766.386565,1302.362347,3849.070898
1440.590298,-15618.345376,2451.505594,3923.091493
1440.590609,-11177.109724,1455.581446,1850.514855
1440.590920,-5181.441594,229.828649,-666.185348
1440.591232,-2072.576638,-306.438199,-2960.823768
1440.591543,-3256.906145,1072.533697,-4219.173869
1440.591854,-6957.935855,2374.896044,-1850.514855
1440.592166,-11325.150913,1838.629195,962.267725
1440.592477,-14508.036463,-153.219100,3330.926739
1440.592788,-14137.933492,-2145.067394,3478.967927
1440.593100,-10436.903782,-1762.019645,2220.617826
1440.593411,-7772.162391,-383.047749,740.205942
1440.593722,-6513.812290,-842.705048,-1850.514855
1440.594034,-5921.647536,-1225.752797,-2294.638420
1440.594345,-8438.347739,-229.828649,-962.267725
1440.594656,-10732.986159,536.266849,1184.329507
1440.594968,-11695.253884,1378.971896,1110.308913
1440.595279,-10881.027347,1991.848295,1924.535449
1440.595590,-9104.533087,1225.752797,1998.556043
1440.595902,-7105.977043,-1762.019645,1480.411884
1440.596213,-5773.606348,-2834.553343,296.082377
1440.596524,-6143.709319,-766.095498,-1036.288319
1440.596836,-7328.038826,536.266849,-1036.288319
1440.597147,-7624.121203,1915.238745,-666.185348
1440.597458,-8438.347739,1991.848295,-1332.370696
1440.597770,-9104.533087,2298.286494,-296.082377
1440.598081,-7624.121203,1608.800546,666.185348
1440.598392,-7328.038826,536.266849,-444.123565
1440.598704,-7846.182985,459.657299,-518.144159
1440.599015,-9030.512492,-766.095498,-296.082377
1440.599326,-10510.924376,-1072.533697,518.144159
1440.599638,-11177.109724,459.657299,740.205942
1440.599949,-11029.068536,1991.848295,962.267725
1440.600260,-10807.006753,536.266849,1850.514855
1440.600572,-9178.553681,-306.438199,1776.494261
1440.600883,-7550.100608,-2528.115143,1332.370696
1440.601194,-6587.832884,-2757.943793,592.164754
1440.601506,-6735.874072,-1532.190996,-0.000000
1440.601817,-7994.224174,229.828649,-222.061783
1440.602128,-9400.615463,1532.190996,-74.020594
1440.602440,-10807.006753,1149.143247,1110.308913
1440.602751,-11325.150913,1225.752797,2368.659014
1440.603062,-10955.047942,689.485948,2812.782580
1440.603374,-9474.636058,-995.924147,2146.597232
1440.603685,-8068.244768,-2911.162892,1924.535449
1440.603996,-6735.874072,-3524.039291,1554.432478
1440.604308,-7402.059420,-2298.286494,962.267725
1440.604619,-9400.615463,-766.095498,1850.514855
1440.604930,-11473.192101,229.828649,2368.659014
1440.605242,-12361.439231,0.000000,3404.947333
1440.605553,-10288.862594,-229.828649,3701.029710
1440.605864,-8438.347739,-536.266849,2294.638420
1440.606176,-6291.750507,-995.924147,1480.411884
1440.606487,-4515.256246,-459.657299,370.102971
1440.606798,-4885.359217,766.095498,-222.061783
1440.607110,-7105.977043,2451.505594,518.144159
1440.607421,-9474.636058,2221.676944,1998.556043
1440.607732,-11621.233289,612.876398,2442.679609
1440.608044,-11251.130318,229.828649,1998.556043
1440.608355,-8512.368333,689.485948,-592.164754
1440.608666,-6587.832884,1149.143247,-1924.535449
1440.608978,-6661.853478,995.924147,-1998.556043
1440.609289,-8956.491898,1225.752797,-962.267725
1440.609600,-11843.295072,1762.019645,-0.000000
1440.609912,-12879.583391,3217.601092,2664.741391
1440.610223,-11177.109724,1455.581446,1850.514855
1440.610534,-6291.750507,-1072.533697,370.102971
1440.610846,-3108.864956,-2068.457845,-1258.350101
1440.611157,-2960.823768,-2221.676944,-2146.597232
1440.611468,-5995.668130,-2451.505594,-1480.411884
1440.611780,-11103.089130,-1455.581446,-222.061783
1440.612091,-15174.221811,-153.219100,1110.308913
1440.612402,-16506.592507,0.000000,2812.782580
1440.612714,-14137.933492,-842.705048,1998.556043
1440.613025,-9400.615463,0.000000,-0.000000
1440.613336,-5181.441594,0.000000,-2368.659014
1440.613648,-2812.782580,-153.219100,-3627.009116
1440.613959,-4071.132681,0.000000,-3182.885551
1440.614270,-8512.368333,383.047749,-740.205942
1440.614582,-13175.665768,612.876398,222.061783
1440.614893,-14656.077652,919.314598,1924.535449
1440.615204,-13767.830521,1532.190996,1924.535449
1440.615516,-10584.944971,-306.438199,740.205942
1440.615827,-7179.997637,-2298.286494,-0.000000
1440.616138,-5329.482782,-3753.867940,-1406.391290
1440.616450,-5329.482782,-2451.505594,-1924.535449
1440.616761,-8142.265362,153.219100,-1036.288319
1440.617072,-10658.965565,2451.505594,740.205942
1440.617384,-12287.418637,2681.334243,2368.659014
1440.617695,-13545.768739,1838.629195,1998.556043
1440.618006,-11399.171507,919.314598,2146.597232
1440.618318,-8586.388927,689.485948,1554.432478
1440.618629,-6217.729913,76.609550,-0.000000
1440.618940,-5107.421000,-1149.143247,-592.164754
1440.619252,-6883.915261,-1685.410096,-1110.308913
1440.619563,-8216.285956,-1072.533697,518.144159
1440.619874,-9770.718434,536.266849,1480.411884
1440.620186,-10881.027347,459.657299,3034.844362
1440.620497,-10955.047942,0.000000,4441.235652
1440.620808,-9030.512492,-2145.067394,4293.194464
1440.621120,-6735.874072,-3140.991542,2886.803174
1440.621431,-4885.359217,-1378.971896,1554.432478
1440.621742,-4441.235652,1685.410096,-518.144159
1440.622054,-6365.771101,3064.381992,-444.123565
1440.622365,-7846.182985,3140.991542,222.061783
1440.622676,-8956.491898,1225.752797,962.267725
1440.622988,-9696.697840,689.485948,1776.494261
1440.623299,-8586.388927,0.000000,1480.411884
1440.623610,-7550.100608,-1149.143247,222.061783
1440.623922,-7328.038826,-2068.457845,-0.000000
1440.624233,-8364.327145,-1762.019645,-0.000000
1440.624544,-9622.677246,-383.047749,-296.082377
1440.624856,-10066.800811,1225.752797,666.185348
1440.625167,-10807.006753,1072.533697,592.164754
1440.625478,-9770.718434,153.219100,888.247130
1440.625790,-7920.203579,-1608.800546,-0.000000
1440.626101,-7402.059420,-2528.115143,-814.226536
1440.626412,-7328.038826,-1991.848295,-888.247130
1440.626724,-8586.388927,-612.876398,-1184.329507
1440.627035,-11547.212695,1225.752797,-1110.308913
1440.627347,-14434.015869,1838.629195,592.164754
1440.627658,-15988.448347,842.705048,1924.535449
1440.627969,-14137.933492,0.000000,1998.556043
1440.628281,-9178.553681,-612.876398,-74.020594
1440.628592,-5181.441594,-1915.238745,-2590.720797
1440.628903,-3478.967927,-1225.752797,-2812.782580
1440.629215,-5107.421000,-689.485948,-2294.638420
1440.629526,-9770.718434,-842.705048,-2072.576638
1440.629837,-13545.768739,-306.438199,666.185348
1440.630149,-14656.077652,-459.657299,3034.844362
1440.630460,-12583.501014,-612.876398,3849.070898
1440.630771,-9474.636058,-2451.505594,1850.514855
1440.631083,-6883.915261,-3600.648841,-148.041188
1440.631394,-4367.215058,-2374.896044,-814.226536
1440.631705,-3775.050304,-612.876398,-2146.597232
1440.632017,-5625.565159,2068.457845,-1184.329507
1440.632328,-9104.533087,3677.258390,-1036.288319
1440.632639,-10881.027347,2911.162892,444.123565
1440.632951,-9992.780217,2911.162892,666.185348
1440.633262,-8364.327145,2451.505594,-740.205942
1440.633573,-6439.791695,1685.410096,-1628.453072
1440.633885,-6069.688724,766.095498,-1702.473667
1440.634196,-6143.709319,689.485948,-1258.350101
1440.634507,-8882.471304,689.485948,-1924.535449
1440.634819,-10436.903782,536.266849,-0.000000
1440.635130,-10732.986159,229.828649,2220.617826
1440.635441,-10658.965565,-612.876398,2812.782580
1440.635753,-9992.780217,-2451.505594,1702.473667
1440.636064,-9178.553681,-2681.334243,1184.329507
1440.636375,-7402.059420,-1608.800546,296.082377
1440.636687,-6735.874072,153.219100,-444.123565
1440.636998,-8142.265362,459.657299,-962.267725
1440.637309,-9696.697840,459.657299,-74.020594
1440.637621,-10658.965565,-459.657299,1184.329507
1440.637932,-10288.862594,-766.095498,2072.576638
1440.638243,-9104.533087,-919.314598,1776.494261
1440.638555,-9326.594869,-2298.286494,1110.308913
1440.638866,-9844.739029,-2757.943793,1332.370696
1440.639177,-11325.150913,-2298.286494,962.267725
1440.639489,-12435.459826,-229.828649,1554.432478
1440.639800,-11843.295072,1532.190996,2368.659014
1440.640111,-11473.192101,1225.752797,1924.535449
1440.640423,-8290.306550,842.705048,2072.576638
1440.640734,-5255.462188,-383.047749,962.267725
1440.641045,-3034.844362,-1149.143247,-0.000000
1440.641357,-3923.091493,-1149.143247,-74.020594
1440.641668,-6587.832884,-229.828649,962.267725
1440.641979,-9696.697840,229.828649,888.247130
1440.642291,-11103.089130,842.705048,1628.453072
1440.642602,-11991.336260,383.047749,2220.617826
1440.642913,-11251.130318,459.657299,2146.597232
1440.643225,-9548.656652,459.657299,1702.473667
1440.643536,-8438.347739,-383.047749,444.123565
1440.643847,-7698.141797,-842.705048,-0.000000
1440.644159,-6439.791695,76.609550,-740.205942
1440.644470,-6661.853478,1685.410096,-444.123565
1440.644781,-7402.059420,2987.772442,-296.082377
1440.645093,-9992.780217,2145.067394,1110.308913
1440.645404,-11843.295072,689.485948,2960.823768
1440.645716,-9400.615463,-1455.581446,2590.720797
1440.646027,-6069.688724,-3753.867940,592.164754
1440.646338,-3997.112087,-3907.087040,-1110.308913
1440.646650,-4145.153275,-1762.019645,-814.226536
1440.646961,-7328.038826,229.828649,-1406.391290
1440.647273,-10584.944971,842.705048,-148.041188
1440.647584,-13693.809927,612.876398,740.205942
1440.647896,-13101.645173,229.828649,2146.597232
1440.648207,-10140.821405,612.876398,814.226536
1440.648518,-7179.997637,919.314598,-1628.453072
1440.648830,-5847.626942,-919.314598,-3330.926739
1440.649141,-6291.750507,-1225.752797,-4145.153275
1440.649453,-8290.306550,1225.752797,-2886.803174
1440.649764,-11695.253884,1455.581446,-888.247130
1440.650075,-15174.221811,-306.438199,1480.411884
1440.650387,-15766.386565,-1378.971896,2368.659014
1440.650698,-12139.377449,-1991.848295,962.267725
1440.651010,-7550.100608,-2298.286494,-1406.391290
1440.651321,-4293.194464,-1149.143247,-2072.576638
1440.651632,-4885.359217,229.828649,-2294.638420
1440.651944,-7920.203579,689.485948,-2812.782580
1440.652255,-9622.677246,1762.019645,-1406.391290
1440.652567,-12509.480420,2451.505594,370.102971
1440.652878,-12583.501014,2528.115143,2146.597232
1440.653190,-10807.006753,536.266849,222.061783
1440.653501,-8660.409521,-1072.533697,-962.267725
1440.653812,-8512.368333,-1072.533697,-1110.308913
1440.654124,-8586.388927,153.219100,444.123565
1440.654435,-9622.677246,459.657299,814.226536
1440.654747,-11621.233289,-459.657299,1776.494261
1440.655058,-12139.377449,-1149.143247,3034.844362
1440.655369,-9252.574275,-1608.800546,3256.906145
1440.655681,-5255.462188,-766.095498,2146.597232
1440.655992,-3256.906145,-1915.238745,1184.329507
1440.656304,-3256.906145,-3524.039291,518.144159
1440.656615,-5699.585753,-2451.505594,1110.308913
1440.656926,-9030.512492,0.000000,2294.638420
1440.657238,-10288.862594,1685.410096,2442.679609
1440.657549,-11547.212695,1838.629195,2960.823768
1440.657861,-10658.965565,1838.629195,3108.864956
1440.658172,-7772.162391,1608.800546,1924.535449
1440.658484,-6439.791695,1225.752797,592.164754
1440.658795,-6069.688724,1225.752797,666.185348
1440.659106,-7254.018232,1455.581446,-0.000000
1440.659418,-9622.677246,2068.457845,296.082377
1440.659729,-10510.924376,2221.676944,1110.308913
1440.660041,-10658.965565,1685.410096,1554.432478
1440.660352,-9030.512492,612.876398,2294.638420
1440.660663,-6365.771101,-1608.800546,1998.556043
1440.660975,-5033.400406,-3064.381992,1258.350101
1440.661286,-5699.585753,-4290.134789,962.267725
1440.661598,-7402.059420,-1762.019645,1554.432478
1440.661909,-10732.986159,-229.828649,1110.308913
1440.662220,-13619.789333,1378.971896,1850.514855
1440.662532,-14137.933492,1762.019645,2294.638420
1440.662843,-12731.542202,1608.800546,1554.432478
1440.663155,-10066.800811,1838.629195,-0.000000
1440.663466,-7476.080014,689.485948,-1332.370696
1440.663777,-5995.668130,-1378.971896,-2516.700203
1440.664089,-4293.194464,-1991.848295,-2738.761985
1440.664400,-6365.771101,-766.095498,-1554.432478
1440.664712,-10807.006753,1302.362347,1036.288319
1440.665023,-15692.365970,0.000000,3552.988522
1440.665335,-17246.798449,-1072.533697,4663.297435
1440.665646,-13101.645173,-2834.553343,3997.112087
1440.665957,-6735.874072,-3294.210641,2220.617826
1440.666269,-2886.803174,-3294.210641,-1554.432478
1440.666580,-1850.514855,-2068.457845,-3552.988522
1440.666892,-4071.132681,-612.876398,-3478.967927
1440.667203,-7624.121203,995.924147,-1702.473667
1440.667514,-12213.398043,1838.629195,1332.370696
1440.667826,-15766.386565,1378.971896,3108.864956
1440.668137,-14211.954086,919.314598,3034.844362
1440.668449,-9548.656652,76.609550,1110.308913
1440.668760,-5477.523971,0.000000,-1184.329507
1440.669071,-3108.864956,536.266849,-2368.659014
1440.669383,-4589.276840,1302.362347,-2664.741391
1440.669694,-7698.141797,2221.676944,-740.205942
1440.670006,-11325.150913,1608.800546,740.205942
1440.670317,-13619.789333,689.485948,1702.473667
1440.670629,-11621.233289,536.266849,2738.761985
1440.670940,-7624.121203,-842.705048,666.185348
1440.671251,-4145.153275,-919.314598,-666.185348
1440.671563,-4145.153275,-612.876398,-1702.473667
1440.671874,-7328.038826,229.828649,-962.267725
1440.672186,-9178.553681,1685.410096,-0.000000
1440.672497,-11103.089130,2604.724693,740.205942
1440.672808,-11843.295072,2374.896044,2368.659014
1440.673120,-10436.903782,459.657299,1406.391290
1440.673431,-8660.409521,-1378.971896,370.102971
1440.673743,-7179.997637,-1225.752797,-740.205942
1440.674054,-7105.977043,-383.047749,-518.144159
1440.674365,-8586.388927,-536.266849,-370.102971
1440.674677,-11547.212695,-766.095498,814.226536
1440.674988,-13545.768739,-995.924147,1776.494261
1440.675300,-13619.789333,-536.266849,2294.638420
1440.675611,-10510.924376,153.219100,2738.761985
1440.675922,-7105.977043,-1149.143247,1628.453072
1440.676234,-5551.544565,-2374.896044,592.164754
1440.676545,-5181.441594,-2068.457845,-296.082377
1440.676857,-6513.812290,153.219100,-296.082377
1440.677168,-8290.306550,2298.286494,296.082377
1440.677480,-11177.109724,1915.238745,740.205942
1440.677791,-13249.686362,919.314598,1258.350101
1440.678102,-11473.192101,-306.438199,1110.308913
1440.678414,-8660.409521,-1072.533697,740.205942
1440.678725,-7105.977043,-1455.581446,-148.041188
1440.679037,-6883.915261,-1532.190996,-0.000000
1440.679348,-8586.388927,-1302.362347,518.144159
1440.679659,-10510.924376,-383.047749,1554.432478
1440.679971,-12435.459826,153.219100,2590.720797
1440.680282,-12953.603985,1378.971896,4589.276840
1440.680594,-11547.212695,459.657299,4737.318029
1440.680905,-7550.100608,-2298.286494,2516.700203
1440.681216,-2960.823768,-3753.867940,592.164754
1440.681528,0.000000,-2145.067394,-1702.473667
1440.681839,-2368.659014,919.314598,-1258.350101
1440.682151,-6587.832884,1838.629195,-222.061783
1440.682462,-11325.150913,1838.629195,888.247130
1440.682774,-14804.118840,919.314598,2738.761985
1440.683085,-13841.851115,612.876398,3552.988522
1440.683396,-9474.636058,842.705048,1110.308913
1440.683708,-5255.462188,1685.410096,-888.247130
1440.684019,-3108.864956,1378.971896,-2072.576638
1440.684331,-5329.482782,842.705048,-2294.638420
1440.684642,-8586.388927,1532.190996,-592.164754
1440.684953,-11695.253884,2681.334243,666.185348
1440.685265,-13693.809927,2604.724693,2368.659014
1440.685576,-12139.377449,919.314598,2146.597232
1440.685888,-8956.491898,-2221.676944,-222.061783
1440.686199,-5329.482782,-2451.505594,-1554.432478
1440.686510,-3552.988522,-2451.505594,-1850.514855
1440.686822,-5477.523971,-1378.971896,-2146.597232
1440.687133,-7994.224174,-153.219100,-1924.535449
1440.687445,-11547.212695,1072.533697,-444.123565
1440.687756,-14434.015869,0.000000,814.226536
1440.688068,-13249.686362,612.876398,2146.597232
1440.688379,-10362.883188,383.047749,-74.020594
1440.688690,-8882.471304,-153.219100,-1480.411884
1440.689002,-7920.203579,-459.657299,-1702.473667
1440.689313,-8512.368333,-229.828649,-1776.494261
1440.689625,-9474.636058,842.705048,-1036.288319
1440.689936,-11325.150913,383.047749,-0.000000
1440.690247,-12509.480420,-995.924147,1628.453072
1440.690559,-10881.027347,-1378.971896,2368.659014
1440.690870,-8956.491898,-1915.238745,1702.473667
1440.691182,-6735.874072,-3753.867940,1110.308913
1440.691493,-6439.791695,-3217.601092,666.185348
1440.691804,-7476.080014,-1762.019645,518.144159
1440.692116,-7772.162391,229.828649,592.164754
1440.692427,-9400.615463,919.314598,518.144159
1440.692739,-11029.068536,919.314598,962.267725
1440.693050,-9622.677246,689.485948,1850.514855
1440.693361,-6661.853478,-1302.362347,1258.350101
1440.693673,-6069.688724,-1915.238745,-518.144159
1440.693984,-7105.977043,0.000000,-1332.370696
1440.694296,-9030.512492,1455.581446,-1036.288319
1440.694607,-11251.130318,2451.505594,-0.000000
1440.694919,-13545.768739,2451.505594,1628.453072
1440.695230,-14137.933492,2374.896044,2664.741391
1440.695541,-10288.862594,1532.190996,2664.741391
1440.695853,-6365.771101,612.876398,740.205942
1440.696164,-3404.947333,0.000000,-888.247130
1440.696476,-1850.514855,0.000000,-1702.473667
1440.696787,-3923.091493,1685.410096,-1332.370696
1440.697098,-7698.141797,1838.629195,-0.000000
1440.697410,-12361.439231,2221.676944,2590.720797
1440.697721,-14952.160028,842.705048,3923.091493
1440.698033,-12509.480420,-919.314598,3627.009116
1440.698344,-7031.956449,-2911.162892,666.185348
1440.698655,-3182.885551,-2145.067394,-888.247130
1440.698967,-3330.926739,-689.485948,-1110.308913
1440.699278,-6883.915261,-1378.971896,-1258.350101
1440.699590,-10807.006753,-995.924147,740.205942
1440.699901,-14137.933492,-1378.971896,2072.576638
1440.700213,-14285.974681,-766.095498,3997.112087
1440.700524,-11843.295072,-459.657299,3849.070898
1440.700835,-7994.224174,-1991.848295,1110.308913
1440.701147,-5255.462188,-3370.820191,-296.082377
1440.701458,-3997.112087,-3753.867940,-1924.535449
1440.701770,-6069.688724,-1302.362347,-1998.556043
1440.702081,-8808.450710,1608.800546,-370.102971
1440.702392,-11843.295072,1915.238745,962.267725
1440.702704,-13767.830521,612.876398,1776.494261
1440.703015,-13027.624579,536.266849,1554.432478
1440.703327,-9474.636058,1149.143247,222.061783
1440.703638,-6587.832884,306.438199,-1850.514855
1440.703949,-4737.318029,76.609550,-2442.679609
1440.704261,-6143.709319,0.000000,-3330.926739
1440.704572,-8956.491898,842.705048,-2664.741391
1440.704884,-11325.150913,1225.752797,-222.061783
1440.705195,-13249.686362,459.657299,1480.411884
1440.705507,-13101.645173,76.609550,2368.659014
1440.705818,-10214.842000,-1072.533697,1258.350101
1440.706129,-8438.347739,-2374.896044,296.082377
1440.706441,-6587.832884,-2834.553343,-0.000000
1440.706752,-7328.038826,-1072.533697,-814.226536
1440.707064,-8734.430116,1149.143247,-888.247130
1440.707375,-9326.594869,2451.505594,-148.041188
1440.707686,-9992.780217,1685.410096,1332.370696
1440.707998,-9252.574275,995.924147,2294.638420
1440.708309,-7179.997637,0.000000,1184.329507
1440.708621,-6069.688724,-1225.752797,-148.041188
1440.708932,-5773.606348,-459.657299,-148.041188
1440.709243,-6587.832884,76.609550,-148.041188
1440.709555,-9548.656652,766.095498,-74.020594
1440.709866,-11177.109724,0.000000,1332.370696
1440.710178,-11991.336260,-536.266849,2368.659014
1440.710489,-9770.718434,-229.828649,2738.761985
1440.710800,-7624.121203,-919.314598,1554.432478
1440.711112,-7698.141797,-2221.676944,666.185348
1440.711423,-6883.915261,-3370.820191,666.185348
1440.711735,-8068.244768,-1991.848295,740.205942
1440.712046,-9104.533087,76.609550,666.185348
1440.712358,-8808.450710,1302.362347,-0.000000
1440.712669,-9844.739029,1149.143247,1036.288319
1440.712980,-9622.677246,612.876398,1924.535449
1440.713292,-8586.388927,153.219100,1628.453072
1440.713603,-7254.018232,-1072.533697,888.247130
1440.713915,-5847.626942,-1838.629195,-148.041188
1440.714226,-6735.874072,-383.047749,-1110.308913
1440.714537,-8438.347739,1455.581446,-1110.308913
1440.714849,-11251.130318,2834.553343,-148.041188
1440.715160,-14285.974681,2911.162892,1628.453072
1440.715472,-14656.077652,2374.896044,3701.029710
1440.715783,-11991.336260,1149.143247,3478.967927
1440.716094,-7772.162391,-766.095498,2072.576638
1440.716406,-3478.967927,-2528.115143,-1110.308913
1440.716717,-1184.329507,-2068.457845,-2664.741391
1440.717029,-3552.988522,536.266849,-1480.411884
1440.717340,-7920.203579,842.705048,962.267725
1440.717652,-14063.912898,-1302.362347,2590.720797
1440.717963,-16876.695478,-2298.286494,4293.194464
1440.718274,-15618.345376,-2221.676944,4071.132681
1440.718586,-11029.068536,-2451.505594,1554.432478
1440.718897,-5699.585753,-1915.238745,-592.164754
1440.719209,-3775.050304,-1915.238745,-2738.761985
1440.719520,-3701.029710,-766.095498,-1702.473667
1440.719831,-6513.812290,689.485948,-0.000000
1440.720143,-11103.089130,1685.410096,2294.638420
1440.720454,-14582.057057,2068.457845,4219.173869
1440.720766,-13989.892304,306.438199,4071.132681
1440.721077,-9104.533087,-689.485948,1776.494261
1440.721388,-4515.256246,229.828649,-1702.473667
1440.721700,-1924.535449,995.924147,-2960.823768
1440.722011,-2664.741391,842.705048,-4293.194464
1440.722323,-5699.585753,1455.581446,-3330.926739
1440.722634,-9400.615463,2451.505594,-592.164754
1440.722946,-12435.459826,1302.362347,1850.514855
1440.723257,-13989.892304,0.000000,2442.679609
1440.723568,-11991.336260,-536.266849,222.061783
1440.723880,-8438.347739,-919.314598,-888.247130
1440.724191,-6661.853478,-536.266849,-1184.329507
1440.724503,-7698.141797,0.000000,-1850.514855
1440.724814,-9474.636058,689.485948,-1480.411884
1440.725125,-12065.356855,0.000000,370.102971
1440.725437,-12213.398043,-536.266849,2072.576638
1440.725748,-9918.759623,-919.314598,1332.370696
1440.726060,-8438.347739,-1838.629195,-518.144159
1440.726371,-5477.523971,-2528.115143,-74.020594
1440.726682,-6217.729913,-2298.286494,-666.185348
1440.726994,-7994.224174,0.000000,-666.185348
1440.727305,-10140.821405,2145.067394,296.082377
1440.727617,-12361.439231,1455.581446,1332.370696
1440.727928,-11695.253884,1149.143247,2516.700203
1440.728239,-9696.697840,612.876398,1258.350101
