#time,accel_x,accel_y,accel_z
1412.342698,-8956.491898,0.000000,370.102971
1412.343009,-8808.450710,536.266849,666.185348
1412.343321,-9030.512492,0.000000,518.144159
1412.343632,-8734.430116,-383.047749,666.185348
1412.343944,-8956.491898,0.000000,666.185348
1412.344256,-8956.491898,-153.219100,592.164754
1412.344567,-8882.471304,-153.219100,518.144159
1412.344879,-8882.471304,76.609550,666.185348
1412.345191,-8882.471304,0.000000,518.144159
1412.345502,-8734.430116,153.219100,666.185348
1412.345814,-8512.368333,0.000000,518.144159
1412.346125,-8808.450710,-153.219100,740.205942
1412.346437,-9178.553681,0.000000,666.185348
1412.346749,-8956.491898,-153.219100,592.164754
1412.347060,-8882.471304,-229.828649,518.144159
1412.347372,-8956.491898,0.000000,444.123565
1412.347683,-8660.409521,0.000000,370.102971
1412.347995,-8586.388927,-383.047749,444.123565
1412.348307,-8956.491898,-459.657299,740.205942
1412.348618,-8660.409521,0.000000,740.205942
1412.348930,-8808.450710,0.000000,444.123565
1412.349242,-8956.491898,0.000000,592.164754
1412.349553,-9030.512492,0.000000,518.144159
1412.349865,-8956.491898,0.000000,518.144159
1412.350176,-8882.471304,-229.828649,444.123565
1412.350488,-8808.450710,0.000000,296.082377
1412.350800,-8808.450710,383.047749,370.102971
1412.351111,-8808.450710,76.609550,222.061783
1412.351423,-8882.471304,0.000000,444.123565
1412.351734,-9030.512492,0.000000,666.185348
1412.352046,-9030.512492,0.000000,518.144159
1412.352358,-8882.471304,-229.828649,592.164754
1412.352669,-8438.347739,76.609550,370.102971
1412.352981,-8808.450710,459.657299,444.123565
1412.353293,-8956.491898,-612.876398,444.123565
1412.353604,-8734.430116,-459.657299,592.164754
1412.353916,-9030.512492,76.609550,296.082377
1412.354227,-9104.533087,-229.828649,370.102971
1412.354539,-8882.471304,-153.219100,444.123565
1412.354851,-9030.512492,-229.828649,518.144159
1412.355162,-8956.491898,229.828649,666.185348
1412.355474,-8956.491898,-383.047749,814.226536
1412.355785,-8808.450710,-153.219100,592.164754
1412.356097,-8956.491898,-153.219100,666.185348
1412.356409,-9030.512492,-306.438199,444.123565
1412.356720,-8882.471304,-306.438199,444.123565
1412.357032,-8882.471304,0.000000,518.144159
1412.357344,-8808.450710,-306.438199,592.164754
1412.357655,-8882.471304,153.219100,518.144159
1412.357967,-9104.533087,0.000000,148.041188
1412.358278,-9030.512492,689.485948,592.164754
1412.358590,-8808.450710,76.609550,666.185348
1412.358902,-8882.471304,0.000000,444.123565
1412.359213,-8808.450710,-153.219100,444.123565
1412.359525,-9030.512492,-76.609550,592.164754
1412.359836,-8956.491898,0.000000,444.123565
1412.360148,-8660.409521,0.000000,592.164754
1412.360460,-9474.636058,0.000000,518.144159
1412.360771,-8882.471304,-383.047749,518.144159
1412.361083,-8734.430116,0.000000,592.164754
1412.361394,-8956.491898,0.000000,370.102971
1412.361706,-8882.471304,0.000000,518.144159
1412.362018,-8882.471304,0.000000,592.164754
1412.362329,-9030.512492,0.000000,592.164754
1412.362641,-8586.388927,-536.266849,518.144159
1412.362953,-9326.594869,0.000000,296.082377
1412.363264,-8882.471304,229.828649,888.247130
1412.363576,-8882.471304,0.000000,518.144159
1412.363887,-9104.533087,-229.828649,518.144159
1412.364199,-9030.512492,0.000000,666.185348
1412.364511,-9104.533087,0.000000,444.123565
1412.364822,-8808.450710,-229.828649,518.144159
1412.365134,-9104.533087,0.000000,-0.000000
1412.365445,-9326.594869,153.219100,-0.000000
1412.365757,-8882.471304,0.000000,444.123565
1412.366069,-8882.471304,0.000000,592.164754
1412.366380,-8734.430116,-306.438199,666.185348
1412.366692,-8882.471304,76.609550,518.144159
1412.367004,-8882.471304,76.609550,518.144159
1412.367315,-9030.512492,-383.047749,518.144159
1412.367627,-8734.430116,-766.095498,370.102971
1412.367938,-9030.512492,-842.705048,518.144159
1412.368250,-8660.409521,153.219100,962.267725
1412.368562,-8882.471304,0.000000,666.185348
1412.368873,-8882.471304,0.000000,444.123565
1412.369185,-8956.491898,0.000000,444.123565
1412.369496,-8882.471304,-306.438199,518.144159
1412.369808,-8734.430116,229.828649,518.144159
1412.370120,-8882.471304,0.000000,666.185348
1412.370431,-8882.471304,153.219100,370.102971
1412.370743,-8586.388927,0.000000,740.205942
1412.371055,-8882.471304,0.000000,518.144159
1412.371366,-8956.491898,0.000000,592.164754
1412.371678,-8882.471304,-229.828649,740.205942
1412.371989,-9178.553681,153.219100,444.123565
1412.372301,-8734.430116,-306.438199,444.123565
1412.372613,-9622.677246,153.219100,444.123565
1412.372924,-9030.512492,0.000000,222.061783
1412.373236,-8660.409521,0.000000,592.164754
1412.373547,-8956.491898,0.000000,370.102971
1412.373859,-9030.512492,0.000000,296.082377
1412.374171,-8882.471304,-153.219100,444.123565
1412.374482,-8808.450710,0.000000,666.185348
1412.374794,-8956.491898,-153.219100,296.082377
1412.375106,-9326.594869,76.609550,-0.000000
1412.375417,-8956.491898,76.609550,-0.000000
1412.375729,-8882.471304,-153.219100,370.102971
1412.376040,-9030.512492,0.000000,444.123565
1412.376352,-9030.512492,0.000000,370.102971
1412.376664,-8734.430116,-306.438199,592.164754
1412.376975,-9400.615463,0.000000,370.102971
1412.377287,-11325.150913,766.095498,296.082377
1412.377598,-11103.089130,3064.381992,444.123565
1412.377910,-8364.327145,5132.839837,592.164754
1412.378222,-7402.059420,3677.258390,962.267725
1412.378533,-6513.812290,919.314598,1332.370696
1412.378845,-7031.956449,-1608.800546,-0.000000
1412.379157,-7402.059420,-1072.533697,-0.000000
1412.379468,-7846.182985,0.000000,-370.102971
1412.379780,-11991.336260,-1225.752797,-1184.329507
1412.380091,-12361.439231,0.000000,-444.123565
1412.380403,-10140.821405,689.485948,666.185348
1412.380715,-8882.471304,-229.828649,2072.576638
1412.381026,-9474.636058,-459.657299,2886.803174
1412.381338,-11769.274478,995.924147,1628.453072
1412.381649,-7328.038826,5132.839837,2442.679609
1412.381961,-4959.379811,5056.230287,1850.514855
1412.382273,-6957.935855,3140.991542,814.226536
1412.382584,-7698.141797,3140.991542,-740.205942
1412.382896,-7698.141797,3524.039291,-1998.556043
1412.383208,-9104.533087,3677.258390,-962.267725
1412.383519,-9030.512492,3677.258390,-444.123565
1412.383831,-13175.665768,1685.410096,-1258.350101
1412.384142,-13323.706956,-919.314598,1332.370696
1412.384454,-8142.265362,-1302.362347,1998.556043
1412.384766,-10066.800811,1225.752797,888.247130
1412.385077,-8068.244768,5669.106685,2516.700203
1412.385389,-7846.182985,5592.497135,1406.391290
1412.385700,-6883.915261,2911.162892,2368.659014
1412.386012,-6217.729913,4903.011187,2220.617826
1412.386324,-8068.244768,7048.078582,296.082377
1412.386635,-8142.265362,6665.030833,-1036.288319
1412.386947,-9326.594869,5209.449386,-1554.432478
1412.387259,-9252.574275,4826.401637,-1480.411884
1412.387570,-10807.006753,5592.497135,-1036.288319
1412.387882,-11843.295072,5056.230287,-0.000000
1412.388193,-11029.068536,4519.963438,1480.411884
1412.388505,-10214.842000,3830.477490,1776.494261
1412.388817,-8956.491898,5362.668486,2886.803174
1412.389128,-6291.750507,4826.401637,1406.391290
1412.389440,-5921.647536,5822.325785,370.102971
1412.389751,-5773.606348,4136.915689,1406.391290
1412.390063,-5329.482782,5439.278036,-740.205942
1412.390375,-6291.750507,4749.792088,-1110.308913
1412.390686,-7920.203579,3830.477490,-1184.329507
1412.390998,-9474.636058,2604.724693,-370.102971
1412.391309,-10436.903782,995.924147,888.247130
1412.391621,-10510.924376,76.609550,1406.391290
1412.391933,-11029.068536,383.047749,2220.617826
1412.392244,-10436.903782,383.047749,1702.473667
1412.392556,-9030.512492,2681.334243,2664.741391
1412.392868,-7994.224174,3600.648841,962.267725
1412.393179,-7254.018232,3370.820191,-0.000000
1412.393491,-6957.935855,4136.915689,-222.061783
1412.393802,-6809.894666,4749.792088,-814.226536
1412.394114,-6809.894666,3524.039291,-1184.329507
1412.394426,-7846.182985,1685.410096,-1036.288319
1412.394737,-8808.450710,-1532.190996,-296.082377
1412.395049,-10881.027347,-2451.505594,296.082377
1412.395360,-12065.356855,-2374.896044,1184.329507
1412.395672,-13397.727550,-1378.971896,1480.411884
1412.395984,-13323.706956,-306.438199,1406.391290
1412.396295,-11991.336260,1455.581446,814.226536
1412.396607,-10732.986159,3294.210641,-296.082377
1412.396919,-8438.347739,4673.182538,-222.061783
1412.397230,-6513.812290,4903.011187,-0.000000
1412.397542,-5995.668130,4290.134789,962.267725
1412.397853,-7105.977043,3600.648841,962.267725
1412.398165,-8290.306550,2528.115143,148.041188
1412.398477,-10066.800811,1685.410096,-148.041188
1412.398788,-11843.295072,612.876398,-740.205942
1412.399100,-12731.542202,383.047749,-148.041188
1412.399411,-13471.748144,0.000000,-222.061783
1412.399723,-13101.645173,1455.581446,888.247130
1412.400035,-11473.192101,2451.505594,1480.411884
1412.400346,-9474.636058,3907.087040,2072.576638
1412.400658,-7254.018232,4903.011187,2294.638420
1412.400970,-4293.194464,6128.763984,1258.350101
1412.401281,-2294.638420,6358.592633,-74.020594
1412.401593,-1332.370696,6511.811733,-1258.350101
1412.401904,-2886.803174,4903.011187,-1702.473667
1412.402216,-7031.956449,3064.381992,-2146.597232
1412.402528,-11177.109724,2528.115143,-518.144159
1412.402839,-14730.098246,2374.896044,962.267725
1412.403151,-16284.530724,2451.505594,2812.782580
1412.403462,-14804.118840,1685.410096,3775.050304
1412.403774,-11399.171507,2604.724693,3552.988522
1412.404086,-6587.832884,3524.039291,2220.617826
1412.404397,-3108.864956,3983.696590,740.205942
1412.404709,-1480.411884,6205.373534,-740.205942
1412.405021,-2220.617826,7431.126331,-1702.473667
1412.405332,-4145.153275,6435.202183,-1184.329507
1412.405644,-6735.874072,4290.134789,-1406.391290
1412.405955,-8216.285956,3217.601092,-0.000000
1412.406267,-10140.821405,536.266849,-0.000000
1412.406579,-11917.315666,-1838.629195,518.144159
1412.406890,-11695.253884,-2528.115143,1480.411884
1412.407202,-12805.562797,-2604.724693,1628.453072
1412.407513,-13693.809927,-306.438199,1628.453072
1412.407825,-12583.501014,2068.457845,1776.494261
1412.408137,-11473.192101,4979.620737,1776.494261
1412.408448,-8734.430116,6205.373534,2294.638420
1412.408760,-5921.647536,4519.963438,2146.597232
1412.409072,-5477.523971,3600.648841,444.123565
1412.409383,-6069.688724,2528.115143,-592.164754
1412.409695,-7624.121203,3064.381992,-1998.556043
1412.410006,-9400.615463,3524.039291,-2886.803174
1412.410318,-11251.130318,3370.820191,-2368.659014
1412.410630,-12509.480420,2528.115143,-1184.329507
1412.410941,-12287.418637,1915.238745,-0.000000
1412.411253,-12657.521608,1149.143247,2442.679609
1412.411564,-12509.480420,1532.190996,2442.679609
1412.411876,-12065.356855,3677.258390,2368.659014
1412.412188,-10066.800811,6818.249932,1036.288319
1412.412499,-7105.977043,7507.735880,296.082377
1412.412811,-5625.565159,6281.983084,-1184.329507
1412.413123,-5255.462188,4979.620737,-1776.494261
1412.413434,-6661.853478,2834.553343,-1776.494261
1412.413746,-7994.224174,3217.601092,-814.226536
1412.414057,-8734.430116,1838.629195,518.144159
1412.414369,-9696.697840,-229.828649,1258.350101
1412.414681,-8142.265362,-2834.553343,2368.659014
1412.414992,-7254.018232,-3753.867940,1776.494261
1412.415304,-8438.347739,-612.876398,1036.288319
1412.415615,-9474.636058,4596.572988,-0.000000
1412.415927,-10510.924376,9039.926876,-666.185348
1412.416239,-11251.130318,10878.556072,370.102971
1412.416550,-10288.862594,7890.783629,1332.370696
1412.416862,-8586.388927,4826.401637,1110.308913
1412.417174,-7179.997637,3524.039291,1110.308913
1412.417485,-5921.647536,4213.525239,444.123565
1412.417797,-5329.482782,4060.306139,-0.000000
1412.418108,-5477.523971,2528.115143,-222.061783
1412.418420,-7105.977043,-383.047749,444.123565
1412.418731,-7994.224174,-1455.581446,888.247130
1412.419043,-9178.553681,1991.848295,-296.082377
1412.419354,-10955.047942,5669.106685,-74.020594
1412.419666,-12065.356855,5286.058936,-0.000000
1412.419977,-12657.521608,4060.306139,1702.473667
1412.420289,-12879.583391,2298.286494,3404.947333
1412.420600,-11843.295072,1685.410096,3256.906145
1412.420912,-9474.636058,2834.553343,2812.782580
1412.421223,-7105.977043,2451.505594,1332.370696
1412.421535,-5033.400406,-153.219100,1332.370696
1412.421846,-3775.050304,-4826.401637,222.061783
1412.422158,-5033.400406,-6358.592633,-0.000000
1412.422469,-5995.668130,-2987.772442,-666.185348
1412.422781,-7402.059420,2298.286494,-962.267725
1412.423092,-11473.192101,4290.134789,-814.226536
1412.423404,-14359.995275,2987.772442,888.247130
1412.423715,-17024.736666,2528.115143,2146.597232
1412.424027,-15988.448347,4366.744339,3182.885551
1412.424339,-11769.274478,6894.859482,3330.926739
1412.424650,-7105.977043,5056.230287,1554.432478
1412.424962,-3923.091493,229.828649,370.102971
1412.425273,-1258.350101,-3677.258390,-888.247130
1412.425585,74.020594,-2681.334243,-1480.411884
1412.425896,-2220.617826,689.485948,-1258.350101
1412.426208,-7624.121203,153.219100,-1036.288319
1412.426519,-13693.809927,-2374.896044,518.144159
1412.426831,-16580.613101,-2681.334243,1332.370696
1412.427142,-17172.777854,383.047749,444.123565
1412.427454,-14582.057057,3294.210641,296.082377
1412.427765,-13027.624579,2604.724693,-1110.308913
1412.428077,-10436.903782,0.000000,-1258.350101
1412.428388,-5477.523971,0.000000,-2368.659014
1412.428700,-3256.906145,1532.190996,-1332.370696
1412.429011,-2516.700203,1608.800546,1184.329507
1412.429323,-4145.153275,-1762.019645,2886.803174
1412.429634,-8882.471304,-4673.182538,2664.741391
1412.429946,-11029.068536,-1991.848295,2590.720797
1412.430257,-10807.006753,4290.134789,666.185348
1412.430569,-11621.233289,6665.030833,-1702.473667
1412.430880,-12065.356855,4060.306139,-3256.906145
1412.431192,-10955.047942,1762.019645,-4515.256246
1412.431503,-9030.512492,3294.210641,-4219.173869
1412.431815,-8734.430116,5975.544884,-1850.514855
1412.432126,-10214.842000,3600.648841,518.144159
1412.432438,-11399.171507,-2145.067394,2886.803174
1412.432750,-9696.697840,-5056.230287,4811.338623
1412.433061,-5847.626942,-1378.971896,5773.606348
1412.433373,-5995.668130,229.828649,2664.741391
1412.433684,-4959.379811,-1225.752797,1036.288319
1412.433996,-5255.462188,-3064.381992,-2294.638420
1412.434307,-5847.626942,-1225.752797,-1998.556043
1412.434619,-7772.162391,3600.648841,-2146.597232
1412.434930,-12435.459826,4979.620737,-888.247130
1412.435242,-15692.365970,995.924147,1554.432478
1412.435553,-14508.036463,-1608.800546,2960.823768
1412.435865,-11621.233289,-766.095498,3552.988522
1412.436176,-8364.327145,995.924147,3182.885551
1412.436488,-5773.606348,-383.047749,1628.453072
1412.436799,-3701.029710,-3370.820191,370.102971
1412.437111,-1406.391290,-3064.381992,740.205942
1412.437422,-2072.576638,-1302.362347,-0.000000
1412.437734,-6143.709319,-612.876398,666.185348
1412.438045,-11769.274478,-459.657299,1850.514855
1412.438357,-13175.665768,-2068.457845,2886.803174
1412.438668,-13101.645173,-1915.238745,2960.823768
1412.438980,-10955.047942,-1225.752797,1702.473667
1412.439291,-9844.739029,-2604.724693,-444.123565
1412.439603,-8068.244768,-4979.620737,-1480.411884
1412.439914,-5625.565159,-5209.449386,-1406.391290
1412.440226,-5995.668130,-3600.648841,-444.123565
1412.440537,-10066.800811,-995.924147,-0.000000
1412.440849,-12583.501014,-229.828649,2664.741391
1412.441161,-12805.562797,-2298.286494,3923.091493
1412.441472,-10288.862594,0.000000,3923.091493
1412.441784,-7772.162391,3064.381992,1554.432478
1412.442095,-6661.853478,4366.744339,-1480.411884
1412.442407,-6513.812290,2451.505594,-3923.091493
1412.442718,-6735.874072,1838.629195,-4589.276840
1412.443030,-6217.729913,3830.477490,-3627.009116
1412.443341,-10584.944971,4213.525239,-2812.782580
1412.443653,-15396.283594,1685.410096,-0.000000
1412.443964,-16580.613101,-1762.019645,2516.700203
1412.444276,-15100.201217,-2451.505594,3775.050304
1412.444587,-10955.047942,-766.095498,3997.112087
1412.444899,-7624.121203,-536.266849,1406.391290
1412.445210,-5847.626942,-2068.457845,-1332.370696
1412.445522,-2368.659014,-536.266849,-3849.070898
1412.445833,-1924.535449,2451.505594,-4219.173869
1412.446145,-5033.400406,5209.449386,-3775.050304
1412.446456,-11029.068536,4213.525239,-1110.308913
1412.446768,-15618.345376,689.485948,1850.514855
1412.447079,-14952.160028,-689.485948,4737.318029
1412.447391,-12065.356855,0.000000,4515.256246
1412.447702,-9474.636058,459.657299,2738.761985
1412.448014,-7179.997637,-766.095498,-148.041188
1412.448325,-4737.318029,-919.314598,-2368.659014
1412.448637,-1924.535449,2681.334243,-3034.844362
1412.448948,-2886.803174,5898.935335,-2590.720797
1412.449260,-7179.997637,4903.011187,-814.226536
1412.449572,-10732.986159,612.876398,1258.350101
1412.449883,-11103.089130,-2528.115143,3330.926739
1412.450195,-10140.821405,-2221.676944,4219.173869
1412.450506,-8660.409521,-1149.143247,3627.009116
1412.450818,-9178.553681,-2604.724693,1998.556043
1412.451129,-9400.615463,-6281.983084,592.164754
1412.451441,-5403.503377,-5362.668486,148.041188
1412.451752,-5107.421000,-459.657299,296.082377
1412.452064,-7624.121203,-229.828649,1332.370696
1412.452375,-12139.377449,-2604.724693,2368.659014
1412.452687,-12361.439231,-3600.648841,3997.112087
1412.452998,-9622.677246,-2528.115143,3849.070898
1412.453310,-7994.224174,536.266849,3182.885551
1412.453621,-7402.059420,-229.828649,-444.123565
1412.453933,-7105.977043,-1225.752797,-2368.659014
1412.454244,-5255.462188,-1378.971896,-3701.029710
1412.454556,-5255.462188,766.095498,-2738.761985
1412.454867,-10881.027347,919.314598,-0.000000
1412.455179,-16136.489536,-1225.752797,1702.473667
1412.455490,-16876.695478,-4443.353888,4811.338623
1412.455802,-13767.830521,-4213.525239,5921.647536
1412.456113,-10288.862594,-1225.752797,4589.276840
1412.456425,-8586.388927,-1455.581446,1110.308913
1412.456736,-6217.729913,-2068.457845,-2220.617826
1412.457048,-3034.844362,306.438199,-4589.276840
1412.457359,-2590.720797,3294.210641,-4885.359217
1412.457671,-7698.141797,4136.915689,-3552.988522
1412.457983,-13545.768739,1685.410096,-666.185348
1412.458294,-15914.427753,-612.876398,2294.638420
1412.458606,-15544.324782,-612.876398,4145.153275
1412.458917,-12953.603985,1838.629195,4589.276840
1412.459229,-10436.903782,2374.896044,1480.411884
1412.459540,-8068.244768,-153.219100,-888.247130
1412.459852,-3997.112087,842.705048,-3627.009116
1412.460163,-2294.638420,3524.039291,-4145.153275
1412.460475,-5181.441594,6358.592633,-3627.009116
1412.460786,-9548.656652,5056.230287,-2072.576638
1412.461098,-11917.315666,2068.457845,-0.000000
1412.461409,-11547.212695,0.000000,1998.556043
1412.461721,-8734.430116,1225.752797,2294.638420
1412.462032,-6809.894666,383.047749,296.082377
1412.462344,-8068.244768,-2451.505594,-222.061783
1412.462655,-7698.141797,-3294.210641,-0.000000
1412.462967,-3923.091493,-1149.143247,-1036.288319
1412.463278,-6291.750507,1378.971896,444.123565
1412.463590,-9844.739029,229.828649,1554.432478
1412.463901,-11991.336260,-1532.190996,2368.659014
1412.464213,-11547.212695,-1225.752797,2664.741391
1412.464524,-8364.327145,1072.533697,3108.864956
1412.464836,-7698.141797,1378.971896,1924.535449
1412.465147,-7994.224174,-459.657299,-1480.411884
1412.465459,-6439.791695,-1072.533697,-2886.803174
1412.465770,-3478.967927,-995.924147,-2368.659014
1412.466082,-4145.153275,1072.533697,-1776.494261
1412.466394,-9474.636058,689.485948,1998.556043
1412.466705,-13249.686362,-3217.601092,3034.844362
1412.467017,-14508.036463,-5286.058936,5551.544565
1412.467328,-12213.398043,-4519.963438,5921.647536
1412.467640,-10288.862594,-2374.896044,5255.462188
1412.467951,-9030.512492,-3524.039291,1184.329507
1412.468263,-6661.853478,-4290.134789,-2368.659014
1412.468574,-3923.091493,-2298.286494,-3256.906145
1412.468886,-4811.338623,229.828649,-4737.318029
1412.469197,-10510.924376,842.705048,-1998.556043
1412.469509,-15100.201217,0.000000,740.205942
1412.469820,-16432.571912,-1762.019645,3478.967927
1412.470132,-14952.160028,-1225.752797,5699.585753
1412.470443,-12583.501014,229.828649,5329.482782
1412.470755,-10214.842000,842.705048,2812.782580
1412.471066,-6069.688724,153.219100,-148.041188
1412.471378,-2072.576638,1378.971896,-2294.638420
1412.471689,-2146.597232,3600.648841,-3923.091493
1412.472001,-7105.977043,4903.011187,-3182.885551
1412.472312,-11991.336260,3217.601092,-1554.432478
1412.472624,-13619.789333,1762.019645,370.102971
1412.472935,-13989.892304,612.876398,2072.576638
1412.473247,-11621.233289,1455.581446,2886.803174
1412.473558,-8734.430116,-229.828649,888.247130
1412.473870,-7105.977043,-2068.457845,-0.000000
1412.474182,-3923.091493,-612.876398,-0.000000
1412.474493,-3108.864956,1608.800546,-1850.514855
1412.474805,-6587.832884,4290.134789,-888.247130
1412.475116,-10732.986159,3217.601092,814.226536
1412.475428,-11695.253884,1915.238745,1554.432478
1412.475739,-10510.924376,2068.457845,2072.576638
1412.476051,-8290.306550,3677.258390,1406.391290
1412.476362,-7476.080014,2911.162892,-0.000000
1412.476674,-6069.688724,153.219100,-2368.659014
1412.476985,-4145.153275,306.438199,-2886.803174
1412.477297,-2738.761985,2221.676944,-3108.864956
1412.477608,-5625.565159,3064.381992,-2590.720797
1412.477920,-10584.944971,2451.505594,1184.329507
1412.478231,-12583.501014,-1302.362347,2960.823768
1412.478543,-11325.150913,-3140.991542,5403.503377
1412.478854,-10140.821405,-2757.943793,5403.503377
1412.479166,-8364.327145,-2145.067394,3182.885551
1412.479477,-7994.224174,-3140.991542,-888.247130
1412.479789,-5625.565159,-3217.601092,-2664.741391
1412.480100,-3330.926739,-1915.238745,-3552.988522
1412.480412,-5847.626942,-1225.752797,-3330.926739
1412.480723,-10881.027347,-2145.067394,-592.164754
1412.481035,-14211.954086,-3447.429741,2368.659014
1412.481346,-15396.283594,-4519.963438,4811.338623
1412.481658,-14359.995275,-3983.696590,6291.750507
1412.481969,-12435.459826,-3294.210641,5403.503377
1412.482281,-10214.842000,-3447.429741,2294.638420
1412.482593,-6291.750507,-2834.553343,-666.185348
1412.482904,-3256.906145,-1302.362347,-2368.659014
1412.483216,-3701.029710,1838.629195,-4293.194464
1412.483527,-7772.162391,2528.115143,-2368.659014
1412.483839,-12287.418637,536.266849,-518.144159
1412.484150,-13619.789333,-1378.971896,2294.638420
1412.484462,-15322.262999,-995.924147,2738.761985
1412.484773,-12953.603985,229.828649,3256.906145
1412.485085,-11621.233289,-229.828649,518.144159
1412.485396,-9030.512492,-1149.143247,-296.082377
1412.485708,-5625.565159,766.095498,-1998.556043
1412.486019,-5107.421000,2374.896044,-962.267725
1412.486331,-7920.203579,2451.505594,-0.000000
1412.486642,-10955.047942,995.924147,2886.803174
1412.486954,-12213.398043,0.000000,3256.906145
1412.487265,-11325.150913,842.705048,3775.050304
1412.487577,-9622.677246,2068.457845,1480.411884
1412.487888,-7846.182985,2987.772442,-740.205942
1412.488200,-7254.018232,2681.334243,-2886.803174
1412.488511,-4367.215058,2451.505594,-4071.132681
1412.488823,-3256.906145,4903.011187,-3627.009116
1412.489134,-5551.544565,5132.839837,-444.123565
1412.489446,-9992.780217,2681.334243,1628.453072
1412.489757,-13027.624579,1149.143247,3701.029710
1412.490069,-12213.398043,1455.581446,4737.318029
1412.490380,-8216.285956,2834.553343,3404.947333
1412.490692,-5181.441594,2528.115143,666.185348
1412.491004,-4663.297435,612.876398,-2368.659014
1412.491315,-2516.700203,-536.266849,-3849.070898
1412.491627,-1110.308913,1149.143247,-3701.029710
1412.491938,-4959.379811,2451.505594,-1332.370696
1412.492250,-11325.150913,76.609550,1554.432478
1412.492561,-13989.892304,-2681.334243,3923.091493
1412.492873,-13323.706956,-2374.896044,5847.626942
1412.493184,-10955.047942,-612.876398,5033.400406
1412.493496,-9178.553681,383.047749,2368.659014
1412.493807,-8586.388927,-1378.971896,-888.247130
1412.494119,-5625.565159,-2298.286494,-2442.679609
1412.494430,-2886.803174,-919.314598,-2738.761985
1412.494742,-5551.544565,612.876398,-2442.679609
1412.495053,-11399.171507,-459.657299,296.082377
1412.495365,-13841.851115,-4290.134789,2886.803174
1412.495676,-14359.995275,-5898.935335,3997.112087
1412.495988,-13249.686362,-2145.067394,4145.153275
1412.496299,-11029.068536,-612.876398,2368.659014
1412.496611,-9252.574275,-3524.039291,-444.123565
1412.496922,-6587.832884,-4826.401637,-1332.370696
1412.497234,-4737.318029,-2757.943793,-1480.411884
1412.497545,-7105.977043,-766.095498,-1998.556043
1412.497857,-11399.171507,536.266849,-296.082377
1412.498168,-15248.242405,-1149.143247,2368.659014
1412.498480,-15100.201217,-2911.162892,2960.823768
1412.498791,-13323.706956,-2145.067394,2960.823768
1412.499103,-11251.130318,0.000000,1406.391290
1412.499415,-9474.636058,229.828649,-1110.308913
1412.499726,-6439.791695,-536.266849,-2368.659014
1412.500038,-4293.194464,459.657299,-2368.659014
1412.500349,-4811.338623,2298.286494,-2220.617826
1412.500661,-8734.430116,3064.381992,444.123565
1412.500972,-13397.727550,1378.971896,2294.638420
1412.501284,-14285.974681,1149.143247,2738.761985
1412.501595,-12361.439231,2145.067394,2886.803174
1412.501907,-9770.718434,2374.896044,1332.370696
1412.502218,-6809.894666,1838.629195,-740.205942
1412.502530,-5995.668130,536.266849,-3034.844362
1412.502841,-2664.741391,1455.581446,-2960.823768
1412.503153,-2294.638420,3600.648841,-2812.782580
1412.503464,-5625.565159,4673.182538,-296.082377
1412.503776,-10214.842000,2528.115143,2220.617826
1412.504087,-13397.727550,-383.047749,3701.029710
1412.504399,-11029.068536,612.876398,4441.235652
1412.504710,-8586.388927,3370.820191,2590.720797
1412.505022,-6957.935855,2757.943793,-0.000000
1412.505333,-5255.462188,1225.752797,-3256.906145
1412.505645,-3997.112087,459.657299,-3478.967927
1412.505956,-2738.761985,2298.286494,-2886.803174
1412.506268,-6661.853478,3370.820191,-222.061783
1412.506579,-11621.233289,1225.752797,1924.535449
1412.506891,-13619.789333,-1838.629195,4071.132681
1412.507202,-12361.439231,-3524.039291,4959.379811
1412.507514,-7994.224174,-1685.410096,4515.256246
1412.507826,-5921.647536,-459.657299,2072.576638
1412.508137,-6291.750507,-3600.648841,-888.247130
1412.508449,-3997.112087,-4596.572988,-1480.411884
1412.508760,-4367.215058,-2451.505594,-1776.494261
1412.509072,-8068.244768,-1455.581446,-74.020594
1412.509383,-13323.706956,-3140.991542,2812.782580
1412.509695,-15988.448347,-4826.401637,4219.173869
1412.510006,-15322.262999,-4060.306139,4589.276840
1412.510318,-11991.336260,-1838.629195,3849.070898
1412.510629,-9326.594869,-612.876398,1184.329507
1412.510941,-8364.327145,-689.485948,-1702.473667
1412.511252,-4885.359217,-1378.971896,-3627.009116
1412.511564,-3701.029710,-612.876398,-3552.988522
1412.511875,-6735.874072,1378.971896,-1998.556043
1412.512187,-12731.542202,536.266849,444.123565
1412.512498,-16062.468941,-2221.676944,2442.679609
1412.512810,-16358.551318,-3524.039291,4219.173869
1412.513121,-13989.892304,-1378.971896,3404.947333
1412.513433,-9770.718434,-459.657299,2072.576638
1412.513744,-8660.409521,-1915.238745,-1850.514855
1412.514056,-6513.812290,-2987.772442,-2960.823768
1412.514367,-4515.256246,0.000000,-2516.700203
1412.514679,-5921.647536,1915.238745,-1184.329507
1412.514990,-9548.656652,2298.286494,1406.391290
1412.515302,-14434.015869,459.657299,2960.823768
1412.515613,-14582.057057,153.219100,4145.153275
1412.515925,-11843.295072,1455.581446,3330.926739
1412.516237,-8068.244768,4519.963438,518.144159
1412.516548,-6957.935855,4136.915689,-1702.473667
1412.516860,-5699.585753,2221.676944,-3997.112087
1412.517171,-3552.988522,2604.724693,-3627.009116
1412.517482,-2590.720797,4903.011187,-1998.556043
1412.517794,-6883.915261,4903.011187,-1110.308913
1412.518105,-11547.212695,2374.896044,2220.617826
1412.518417,-12435.459826,-459.657299,3627.009116
1412.518728,-9030.512492,-229.828649,2812.782580
1412.519040,-4663.297435,1991.848295,1850.514855
1412.519351,-4145.153275,995.924147,-1776.494261
1412.519662,-4367.215058,-306.438199,-3701.029710
1412.519974,-2294.638420,-383.047749,-2368.659014
1412.520285,-5403.503377,0.000000,-1850.514855
1412.520597,-8956.491898,1455.581446,1850.514855
1412.520908,-13915.871710,-612.876398,4071.132681
1412.521220,-15766.386565,-3217.601092,5847.626942
1412.521531,-11621.233289,-3370.820191,5625.565159
1412.521842,-8956.491898,-1072.533697,2146.597232
1412.522154,-6809.894666,612.876398,296.082377
1412.522465,-4737.318029,-1762.019645,-2516.700203
1412.522777,-3775.050304,-3294.210641,-2738.761985
1412.523088,-4367.215058,-689.485948,-2516.700203
1412.523399,-8660.409521,842.705048,74.020594
1412.523711,-14137.933492,-1225.752797,2516.700203
1412.524022,-16358.551318,-3753.867940,4293.194464
1412.524334,-14730.098246,-4596.572988,3923.091493
1412.524645,-10510.924376,-3907.087040,3552.988522
1412.524957,-8290.306550,-4213.525239,-0.000000
1412.525268,-7402.059420,-4213.525239,-2220.617826
1412.525579,-4811.338623,-3370.820191,-3552.988522
1412.525891,-5329.482782,-3140.991542,-2368.659014
1412.526202,-9178.553681,-1991.848295,-1110.308913
1412.526514,-14063.912898,-1685.410096,1850.514855
1412.526825,-17690.922014,-2451.505594,3182.885551
1412.527137,-17098.757260,-1915.238745,2886.803174
1412.527448,-13693.809927,1378.971896,2294.638420
1412.527759,-10732.986159,2604.724693,-222.061783
1412.528071,-7920.203579,2298.286494,-1702.473667
1412.528382,-5329.482782,995.924147,-3108.864956
1412.528694,-3775.050304,2145.067394,-1998.556043
1412.529005,-5255.462188,4290.134789,-888.247130
1412.529316,-9326.594869,3907.087040,962.267725
1412.529628,-12657.521608,536.266849,2368.659014
1412.529939,-13027.624579,383.047749,2738.761985
1412.530251,-10658.965565,306.438199,2368.659014
1412.530562,-8808.450710,2451.505594,-0.000000
1412.530874,-7624.121203,2681.334243,-2220.617826
1412.531185,-5181.441594,1532.190996,-2886.803174
1412.531496,-2442.679609,1455.581446,-2442.679609
1412.531808,-3478.967927,2757.943793,-296.082377
1412.532119,-7550.100608,3830.477490,1924.535449
1412.532431,-11399.171507,1838.629195,4145.153275
1412.532742,-11251.130318,536.266849,4737.318029
1412.533053,-8068.244768,2298.286494,3849.070898
1412.533365,-6365.771101,3907.087040,962.267725
1412.533676,-5477.523971,2528.115143,-2220.617826
1412.533988,-4071.132681,919.314598,-3775.050304
1412.534299,-2072.576638,1608.800546,-4145.153275
1412.534611,-3997.112087,3753.867940,-3330.926739
1412.534922,-9474.636058,2987.772442,592.164754
1412.535233,-14211.954086,-383.047749,3627.009116
1412.535545,-14434.015869,-2757.943793,5773.606348
1412.535856,-11177.109724,-2528.115143,6069.688724
1412.536168,-8216.285956,-1302.362347,3701.029710
1412.536479,-6883.915261,-1838.629195,1480.411884
1412.536791,-5699.585753,-4213.525239,-1628.453072
1412.537102,-3330.926739,-4826.401637,-2516.700203
1412.537413,-3997.112087,-1762.019645,-1850.514855
1412.537725,-10140.821405,-229.828649,518.144159
1412.538036,-15248.242405,-2451.505594,2368.659014
1412.538348,-16580.613101,-4596.572988,4145.153275
1412.538659,-14730.098246,-4060.306139,4515.256246
1412.538970,-12139.377449,-2145.067394,3701.029710
1412.539282,-9844.739029,-2451.505594,370.102971
1412.539593,-7179.997637,-2987.772442,-2368.659014
1412.539905,-4737.318029,-3140.991542,-3701.029710
1412.540216,-3404.947333,-1915.238745,-2664.741391
1412.540528,-6883.915261,-1072.533697,-1850.514855
1412.540839,-13397.727550,-2145.067394,1184.329507
1412.541150,-15988.448347,-3677.258390,2516.700203
1412.541462,-15766.386565,-2834.553343,3182.885551
1412.541773,-13693.809927,0.000000,1998.556043
1412.542085,-10510.924376,612.876398,-296.082377
1412.542396,-8956.491898,-1685.410096,-3182.885551
1412.542707,-6217.729913,-1149.143247,-3923.091493
1412.543019,-4737.318029,1608.800546,-2590.720797
1412.543330,-7254.018232,3064.381992,-1332.370696
1412.543642,-11695.253884,2528.115143,2368.659014
1412.543953,-14730.098246,0.000000,4293.194464
1412.544265,-13915.871710,-459.657299,4737.318029
1412.544576,-10214.842000,1915.238745,3404.947333
1412.544887,-7031.956449,5132.839837,592.164754
1412.545199,-6439.791695,3524.039291,-3034.844362
1412.545510,-4293.194464,1225.752797,-4145.153275
1412.545822,-518.144159,3830.477490,-3997.112087
1412.546133,-2220.617826,5669.106685,-2368.659014
1412.546445,-7624.121203,4596.572988,962.267725
1412.546756,-13323.706956,76.609550,3701.029710
1412.547067,-11399.171507,153.219100,4293.194464
1412.547379,-7402.059420,2911.162892,4145.153275
1412.547690,-5255.462188,3294.210641,1850.514855
1412.548002,-5625.565159,2298.286494,-1480.411884
1412.548313,-4737.318029,0.000000,-3034.844362
1412.548624,-1702.473667,0.000000,-2960.823768
1412.548936,-3627.009116,1685.410096,-1258.350101
1412.549247,-9622.677246,2298.286494,1406.391290
1412.549559,-14878.139434,-995.924147,4515.256246
1412.549870,-14952.160028,-4673.182538,6069.688724
1412.550182,-11399.171507,-2757.943793,5921.647536
1412.550493,-8364.327145,842.705048,4293.194464
1412.550804,-7846.182985,919.314598,-370.102971
1412.551116,-5773.606348,-919.314598,-2368.659014
1412.551427,-3478.967927,-459.657299,-3330.926739
1412.551739,-3627.009116,1762.019645,-2368.659014
1412.552050,-8734.430116,1532.190996,-0.000000
1412.552362,-13841.851115,-842.705048,2664.741391
1412.552673,-15100.201217,-4366.744339,4737.318029
1412.552984,-13323.706956,-5286.058936,4885.359217
1412.553296,-10214.842000,-3907.087040,4441.235652
1412.553607,-8882.471304,-3217.601092,592.164754
1412.553919,-7772.162391,-5362.668486,-2516.700203
1412.554230,-4737.318029,-3600.648841,-3627.009116
1412.554541,-4737.318029,-1991.848295,-3182.885551
1412.554853,-9178.553681,-459.657299,-1332.370696
1412.555164,-14137.933492,-2374.896044,1924.535449
1412.555476,-17542.880825,-4903.011187,3034.844362
1412.555787,-16802.674883,-3140.991542,4367.215058
1412.556099,-13323.706956,0.000000,2738.761985
1412.556410,-10658.965565,1225.752797,222.061783
1412.556721,-8364.327145,0.000000,-2590.720797
1412.557033,-4145.153275,689.485948,-4515.256246
1412.557344,-2738.761985,2451.505594,-3034.844362
1412.557656,-6143.709319,3600.648841,-1332.370696
1412.557967,-12287.418637,2604.724693,1480.411884
1412.558278,-15914.427753,995.924147,2294.638420
1412.558590,-15248.242405,995.924147,2886.803174
1412.558901,-11769.274478,2145.067394,1776.494261
1412.559213,-7105.977043,4290.134789,-1184.329507
1412.559524,-6513.812290,1838.629195,-3923.091493
1412.559836,-3997.112087,-383.047749,-3330.926739
1412.560147,-518.144159,1302.362347,-3849.070898
1412.560458,-2812.782580,4673.182538,-1184.329507
1412.560770,-7994.224174,4213.525239,2368.659014
1412.561081,-13545.768739,-689.485948,4737.318029
1412.561393,-11695.253884,-1302.362347,5033.400406
1412.561704,-8142.265362,3447.429741,3775.050304
1412.562016,-7254.018232,4673.182538,962.267725
1412.562327,-5403.503377,3524.039291,-2960.823768
1412.562638,-4589.276840,2528.115143,-4441.235652
1412.562950,-2072.576638,2068.457845,-4441.235652
1412.563261,-3256.906145,2681.334243,-2220.617826
1412.563573,-9474.636058,3064.381992,1776.494261
1412.563884,-13915.871710,0.000000,3627.009116
1412.564195,-13397.727550,-3217.601092,5329.482782
1412.564507,-10362.883188,-2681.334243,6143.709319
1412.564818,-7698.141797,-1302.362347,4219.173869
1412.565130,-7846.182985,-2834.553343,148.041188
1412.565441,-6069.688724,-4290.134789,-2072.576638
1412.565753,-2886.803174,-2911.162892,-2368.659014
1412.566064,-3478.967927,-536.266849,-1554.432478
1412.566375,-8882.471304,-3064.381992,962.267725
1412.566687,-15692.365970,-5209.449386,3256.906145
1412.566998,-16728.654289,-5515.887586,5403.503377
1412.567310,-14211.954086,-2757.943793,4293.194464
1412.567621,-12361.439231,-689.485948,3552.988522
1412.567933,-10214.842000,-1149.143247,666.185348
1412.568244,-8142.265362,-2604.724693,-1406.391290
1412.568555,-4367.215058,-2374.896044,-2368.659014
1412.568867,-4293.194464,153.219100,-2516.700203
1412.569178,-9326.594869,2374.896044,-1110.308913
1412.569490,-13397.727550,536.266849,1628.453072
1412.569801,-14508.036463,-2451.505594,2516.700203
1412.570112,-14137.933492,-3217.601092,3404.947333
1412.570424,-11399.171507,-919.314598,2146.597232
1412.570735,-10362.883188,-842.705048,-518.144159
1412.571047,-9844.739029,-3600.648841,-3182.885551
1412.571358,-6143.709319,-1072.533697,-3256.906145
1412.571670,-5551.544565,2145.067394,-2738.761985
1412.571981,-8438.347739,2298.286494,222.061783
1412.572292,-12731.542202,383.047749,2886.803174
1412.572604,-15470.304188,-612.876398,4589.276840
1412.572915,-12879.583391,1072.533697,4811.338623
1412.573227,-8660.409521,4596.572988,2664.741391
1412.573538,-7031.956449,5898.935335,-1332.370696
1412.573849,-6217.729913,4366.744339,-5107.421000
1412.574161,-3478.967927,2451.505594,-5847.626942
1412.574472,-1628.453072,5132.839837,-6365.771101
1412.574784,-4737.318029,7737.564530,-3256.906145
1412.575095,-9548.656652,5132.839837,518.144159
1412.575407,-12953.603985,0.000000,3775.050304
1412.575718,-11029.068536,-2834.553343,5477.523971
1412.576029,-5625.565159,0.000000,4737.318029
1412.576341,-4441.235652,1532.190996,1110.308913
1412.576652,-4737.318029,0.000000,-2220.617826
1412.576964,-2368.659014,-153.219100,-3627.009116
1412.577275,-518.144159,-306.438199,-3775.050304
1412.577587,-4811.338623,1532.190996,-888.247130
1412.577898,-10881.027347,919.314598,2220.617826
1412.578209,-16284.530724,-2451.505594,3775.050304
1412.578521,-17098.757260,-3830.477490,6217.729913
1412.578832,-12139.377449,-1302.362347,5181.441594
1412.579144,-9474.636058,1072.533697,3108.864956
1412.579455,-7179.997637,153.219100,-0.000000
1412.579766,-4737.318029,-1915.238745,-2738.761985
1412.580078,-2146.597232,-1072.533697,-2442.679609
1412.580389,-3478.967927,1685.410096,-1924.535449
1412.580701,-9696.697840,842.705048,814.226536
1412.581012,-14508.036463,-2757.943793,3330.926739
1412.581324,-15470.304188,-6205.373534,5107.421000
1412.581635,-13397.727550,-6281.983084,4959.379811
1412.581946,-10288.862594,-4749.792088,3404.947333
1412.582258,-10658.965565,-4826.401637,-0.000000
1412.582569,-7994.224174,-4826.401637,-2368.659014
1412.582881,-5181.441594,-2987.772442,-3330.926739
1412.583192,-6513.812290,-919.314598,-2072.576638
1412.583504,-10436.903782,-153.219100,1332.370696
1412.583815,-15174.221811,-1915.238745,3256.906145
1412.584126,-16358.551318,-2834.553343,4145.153275
1412.584438,-14137.933492,-536.266849,4441.235652
1412.584749,-10955.047942,1608.800546,2368.659014
1412.585061,-9104.533087,1149.143247,-0.000000
1412.585372,-6513.812290,76.609550,-2812.782580
1412.585683,-4367.215058,919.314598,-4293.194464
1412.585995,-4293.194464,3370.820191,-3256.906145
1412.586306,-7772.162391,4749.792088,-740.205942
1412.586618,-12361.439231,2068.457845,1184.329507
1412.586929,-13767.830521,-689.485948,2738.761985
1412.587241,-11547.212695,306.438199,3849.070898
1412.587552,-9400.615463,2221.676944,2072.576638
1412.587863,-6883.915261,2604.724693,-1554.432478
1412.588175,-4811.338623,2298.286494,-3627.009116
1412.588486,-1480.411884,995.924147,-4515.256246
1412.588798,-1702.473667,1915.238745,-3256.906145
1412.589109,-6809.894666,3600.648841,-518.144159
1412.589420,-12213.398043,2834.553343,1998.556043
1412.589732,-14137.933492,1225.752797,4071.132681
1412.590043,-10584.944971,919.314598,5107.421000
1412.590355,-8290.306550,1915.238745,2516.700203
1412.590666,-7179.997637,2911.162892,-296.082377
1412.590978,-5403.503377,1991.848295,-3182.885551
1412.591289,-2886.803174,1838.629195,-4367.215058
1412.591600,-1998.556043,3907.087040,-4515.256246
1412.591912,-5033.400406,4290.134789,-2220.617826
1412.592223,-11917.315666,1072.533697,1554.432478
1412.592535,-13471.748144,-2068.457845,4071.132681
1412.592846,-12139.377449,-3140.991542,5477.523971
1412.593158,-10214.842000,-2145.067394,5181.441594
1412.593469,-8290.306550,-1991.848295,2812.782580
1412.593780,-8364.327145,-4519.963438,-0.000000
1412.594092,-5181.441594,-5898.935335,-1776.494261
1412.594403,-2516.700203,-2528.115143,-1702.473667
1412.594715,-6143.709319,-995.924147,-2146.597232
1412.595026,-12805.562797,-2451.505594,518.144159
1412.595337,-16728.654289,-4749.792088,3108.864956
1412.595649,-15840.407159,-4979.620737,4589.276840
1412.595960,-14063.912898,-3600.648841,4663.297435
1412.596272,-11917.315666,-2834.553343,3330.926739
1412.596583,-9400.615463,-2911.162892,-0.000000
1412.596895,-6957.935855,-3447.429741,-1998.556043
1412.597206,-3997.112087,-1762.019645,-3182.885551
1412.597517,-4959.379811,612.876398,-2368.659014
1412.597829,-9770.718434,1302.362347,-74.020594
1412.598140,-14137.933492,-612.876398,2590.720797
1412.598452,-15026.180623,-2604.724693,3552.988522
1412.598763,-13841.851115,-1915.238745,4293.194464
1412.599075,-11621.233289,0.000000,2516.700203
1412.599386,-10066.800811,-229.828649,-444.123565
1412.599697,-7846.182985,0.000000,-2738.761985
1412.600009,-5181.441594,1762.019645,-3256.906145
1412.600320,-4959.379811,2528.115143,-2664.741391
1412.600632,-7550.100608,2834.553343,592.164754
1412.600943,-11991.336260,383.047749,3034.844362
1412.601254,-13545.768739,-536.266849,4145.153275
1412.601566,-12731.542202,842.705048,4367.215058
1412.601877,-10066.800811,3830.477490,2516.700203
1412.602189,-5847.626942,5669.106685,-1036.288319
1412.602500,-4293.194464,3677.258390,-3701.029710
1412.602812,-814.226536,2221.676944,-4219.173869
1412.603123,-2664.741391,3983.696590,-3923.091493
1412.603434,-6661.853478,6435.202183,-1776.494261
1412.603746,-10436.903782,4519.963438,1480.411884
1412.604057,-11547.212695,459.657299,3923.091493
1412.604369,-9548.656652,0.000000,4219.173869
1412.604680,-8142.265362,1302.362347,2368.659014
1412.604991,-5921.647536,2145.067394,-370.102971
1412.605303,-5477.523971,1378.971896,-2960.823768
1412.605614,-3997.112087,1532.190996,-4219.173869
1412.605926,-3108.864956,2451.505594,-3627.009116
1412.606237,-7105.977043,1072.533697,-1702.473667
1412.606549,-12435.459826,-1762.019645,1776.494261
1412.606860,-14582.057057,-4290.134789,4515.256246
1412.607171,-12879.583391,-3907.087040,4959.379811
1412.607483,-10658.965565,-2298.286494,5107.421000
1412.607794,-9252.574275,-2528.115143,2960.823768
1412.608106,-8290.306550,-4136.915689,814.226536
1412.608417,-5033.400406,-4903.011187,-1628.453072
1412.608729,-2516.700203,-2068.457845,-1850.514855
1412.609040,-4959.379811,-536.266849,-1998.556043
1412.609351,-11399.171507,-919.314598,-296.082377
1412.609663,-14730.098246,-3830.477490,3404.947333
1412.609974,-15396.283594,-4443.353888,4441.235652
1412.610286,-14063.912898,-3140.991542,4515.256246
1412.610597,-11843.295072,-2145.067394,2886.803174
1412.610908,-10362.883188,-3064.381992,-814.226536
1412.611220,-7402.059420,-4366.744339,-2590.720797
1412.611531,-4293.194464,-2145.067394,-3034.844362
1412.611843,-6365.771101,-383.047749,-1554.432478
1412.612154,-10436.903782,0.000000,444.123565
1412.612466,-14878.139434,-2298.286494,2886.803174
1412.612777,-16506.592507,-3524.039291,3923.091493
1412.613088,-13841.851115,-229.828649,3552.988522
1412.613400,-11251.130318,2451.505594,1702.473667
1412.613711,-8956.491898,1991.848295,-0.000000
1412.614023,-6661.853478,0.000000,-2220.617826
1412.614334,-3923.091493,2374.896044,-2886.803174
1412.614646,-4811.338623,5056.230287,-2664.741391
1412.614957,-8660.409521,5822.325785,-1258.350101
1412.615268,-12657.521608,3600.648841,1036.288319
1412.615580,-13027.624579,2145.067394,2220.617826
1412.615891,-11843.295072,1991.848295,2368.659014
1412.616203,-9030.512492,2681.334243,1628.453072
1412.616514,-5995.668130,2757.943793,-1258.350101
1412.616825,-3701.029710,1762.019645,-2960.823768
1412.617137,-222.061783,1072.533697,-3404.947333
1412.617448,-1924.535449,3447.429741,-2368.659014
1412.617760,-5699.585753,4749.792088,148.041188
1412.618071,-10510.924376,2911.162892,1998.556043
1412.618382,-11621.233289,612.876398,3701.029710
1412.618694,-9400.615463,1838.629195,3404.947333
1412.619005,-7624.121203,4366.744339,1924.535449
1412.619316,-6439.791695,3217.601092,-592.164754
1412.619628,-5403.503377,383.047749,-2442.679609
1412.619939,-3923.091493,-76.609550,-3923.091493
1412.620251,-3627.009116,1685.410096,-2738.761985
1412.620562,-7402.059420,2451.505594,-1332.370696
1412.620873,-13471.748144,0.000000,1480.411884
1412.621185,-14285.974681,-2681.334243,3997.112087
1412.621496,-11843.295072,-4213.525239,5255.462188
1412.621808,-9326.594869,-4519.963438,5477.523971
1412.622119,-8734.430116,-4213.525239,2886.803174
1412.622430,-8068.244768,-5898.935335,666.185348
1412.622742,-4737.318029,-6052.154434,-1110.308913
1412.623053,-3256.906145,-3677.258390,-1850.514855
1412.623364,-7254.018232,-2681.334243,-1702.473667
1412.623676,-13249.686362,-3064.381992,888.247130
1412.623987,-16580.613101,-4673.182538,2590.720797
1412.624299,-16210.510130,-4060.306139,4071.132681
1412.624610,-14063.912898,-1149.143247,4737.318029
1412.624921,-12583.501014,-1455.581446,2664.741391
1412.625233,-9992.780217,-3677.258390,370.102971
1412.625544,-7179.997637,-3600.648841,-2220.617826
1412.625855,-4293.194464,-612.876398,-2738.761985
1412.626167,-6217.729913,2068.457845,-2960.823768
1412.626478,-11177.109724,536.266849,-962.267725
1412.626790,-14285.974681,-1378.971896,2146.597232
1412.627101,-14730.098246,-2528.115143,3256.906145
1412.627412,-12805.562797,-1608.800546,3997.112087
1412.627724,-11177.109724,383.047749,2368.659014
1412.628035,-9326.594869,-153.219100,-370.102971
1412.628347,-7476.080014,-919.314598,-1924.535449
1412.628658,-3478.967927,1225.752797,-1850.514855
1412.628969,-3701.029710,3600.648841,-1998.556043
1412.629281,-7920.203579,4673.182538,222.061783
1412.629592,-12287.418637,2911.162892,2220.617826
1412.629903,-13841.851115,1608.800546,3404.947333
1412.630215,-10584.944971,3983.696590,2812.782580
1412.630526,-7920.203579,5669.106685,1332.370696
1412.630838,-5625.565159,4290.134789,-1110.308913
1412.631149,-3182.885551,3064.381992,-3701.029710
1412.631460,-888.247130,3677.258390,-3997.112087
1412.631772,-1332.370696,5822.325785,-4071.132681
1412.632083,-5403.503377,6588.421283,-962.267725
1412.632394,-10807.006753,3294.210641,2146.597232
1412.632706,-11843.295072,612.876398,3182.885551
1412.633017,-9252.574275,1532.190996,3552.988522
1412.633329,-7031.956449,2221.676944,2368.659014
1412.633640,-6587.832884,842.705048,-296.082377
1412.633951,-5477.523971,-1455.581446,-2590.720797
1412.634263,-3034.844362,-1302.362347,-2516.700203
1412.634574,-3404.947333,0.000000,-2072.576638
1412.634885,-8734.430116,766.095498,148.041188
1412.635197,-14730.098246,-1762.019645,3256.906145
1412.635508,-15248.242405,-3600.648841,4441.235652
1412.635820,-13323.706956,-2834.553343,4515.256246
1412.636131,-10658.965565,-766.095498,3034.844362
1412.636442,-9178.553681,-919.314598,888.247130
1412.636754,-7698.141797,-4290.134789,-1036.288319
1412.637065,-4737.318029,-5745.716235,-2146.597232
1412.637377,-4145.153275,-3370.820191,-3034.844362
1412.637688,-7994.224174,-536.266849,-1258.350101
1412.637999,-13841.851115,-1608.800546,1110.308913
1412.638311,-16358.551318,-5056.230287,2812.782580
1412.638622,-14508.036463,-5592.497135,3849.070898
1412.638933,-13027.624579,-2145.067394,4515.256246
1412.639245,-9992.780217,-1378.971896,2368.659014
1412.639556,-8808.450710,-3907.087040,-370.102971
1412.639868,-6365.771101,-3677.258390,-1924.535449
1412.640179,-4589.276840,-1915.238745,-2442.679609
1412.640490,-7031.956449,0.000000,-1776.494261
1412.640802,-12213.398043,0.000000,962.267725
1412.641113,-16210.510130,-2221.676944,2368.659014
1412.641424,-15026.180623,-2528.115143,4441.235652
1412.641736,-13323.706956,-919.314598,3627.009116
1412.642047,-10881.027347,1455.581446,2146.597232
1412.642359,-9474.636058,1149.143247,-1332.370696
1412.642670,-5699.585753,229.828649,-1998.556043
1412.642981,-1554.432478,2911.162892,-2664.741391
1412.643293,-3182.885551,3600.648841,-1406.391290
1412.643604,-7698.141797,4136.915689,518.144159
1412.643916,-13693.809927,2145.067394,3034.844362
1412.644227,-13027.624579,1685.410096,3627.009116
1412.644538,-9326.594869,4136.915689,2220.617826
1412.644850,-7402.059420,4519.963438,592.164754
1412.645161,-6291.750507,2757.943793,-2368.659014
1412.645472,-3923.091493,1608.800546,-4441.235652
1412.645784,-592.164754,4060.306139,-4811.338623
1412.646095,-1776.494261,6052.154434,-2812.782580
1412.646407,-6661.853478,5132.839837,148.041188
1412.646718,-11843.295072,1838.629195,2960.823768
1412.647029,-12287.418637,153.219100,4293.194464
1412.647341,-8290.306550,1608.800546,3552.988522
1412.647652,-6883.915261,3370.820191,1998.556043
1412.647963,-7105.977043,1762.019645,-1110.308913
1412.648275,-6291.750507,-689.485948,-3775.050304
1412.648586,-4589.276840,-995.924147,-3849.070898
1412.648898,-3775.050304,1685.410096,-2072.576638
1412.649209,-9326.594869,1685.410096,-0.000000
1412.649520,-15174.221811,-3140.991542,3182.885551
1412.649832,-15544.324782,-5975.544884,4959.379811
1412.650143,-12657.521608,-4213.525239,4959.379811
1412.650454,-9326.594869,-1608.800546,4737.318029
1412.650766,-8808.450710,-2298.286494,962.267725
1412.651077,-7328.038826,-4596.572988,-1924.535449
1412.651389,-3701.029710,-4366.744339,-1924.535449
1412.651700,-4219.173869,-1915.238745,-3034.844362
1412.652011,-8660.409521,0.000000,-222.061783
1412.652323,-15100.201217,-2528.115143,2664.741391
1412.652634,-17098.757260,-6971.469032,4293.194464
1412.652946,-15026.180623,-6435.202183,4737.318029
1412.653257,-12213.398043,-2834.553343,4071.132681
1412.653568,-10066.800811,-995.924147,1258.350101
1412.653880,-8512.368333,-3370.820191,-2442.679609
1412.654191,-5551.544565,-3600.648841,-3034.844362
1412.654502,-4885.359217,-766.095498,-2886.803174
1412.654814,-7772.162391,1608.800546,-1184.329507
1412.655125,-12657.521608,-76.609550,2442.679609
1412.655437,-15248.242405,-3294.210641,3997.112087
1412.655748,-13545.768739,-4366.744339,4367.215058
1412.656059,-10584.944971,-459.657299,3034.844362
1412.656371,-8438.347739,1455.581446,1110.308913
1412.656682,-7698.141797,76.609550,-1628.453072
1412.656993,-4515.256246,-1225.752797,-2886.803174
1412.657305,-3182.885551,1072.533697,-2368.659014
1412.657616,-5551.544565,3370.820191,-1406.391290
1412.657928,-11325.150913,4903.011187,1036.288319
1412.658239,-15248.242405,2374.896044,3256.906145
1412.658550,-13175.665768,2221.676944,2960.823768
1412.658862,-8586.388927,4136.915689,3404.947333
1412.659173,-6883.915261,5439.278036,-0.000000
1412.659485,-5625.565159,4979.620737,-2812.782580
1412.659796,-2886.803174,4060.306139,-4441.235652
1412.660107,296.082377,4979.620737,-4219.173869
1412.660419,-2294.638420,5975.544884,-2442.679609
1412.660730,-8808.450710,4903.011187,-0.000000
1412.661041,-13249.686362,1685.410096,2368.659014
1412.661353,-13249.686362,612.876398,2664.741391
1412.661664,-9178.553681,1991.848295,2812.782580
1412.661976,-7031.956449,2757.943793,814.226536
1412.662287,-7846.182985,0.000000,-1998.556043
1412.662598,-6291.750507,-2145.067394,-3330.926739
1412.662910,-2812.782580,-919.314598,-3182.885551
1412.663221,-3552.988522,1149.143247,-1628.453072
1412.663532,-10584.944971,995.924147,1258.350101
1412.663844,-15692.365970,-2834.553343,4367.215058
1412.664155,-14285.974681,-4443.353888,5329.482782
1412.664467,-11621.233289,-3907.087040,5625.565159
1412.664778,-8882.471304,-2145.067394,4145.153275
1412.665089,-8586.388927,-1838.629195,666.185348
1412.665401,-6587.832884,-4519.963438,-2146.597232
1412.665712,-3034.844362,-4366.744339,-2220.617826
1412.666023,-4811.338623,-1762.019645,-2886.803174
1412.666335,-9918.759623,459.657299,-740.205942
1412.666646,-15396.283594,-1455.581446,1184.329507
1412.666958,-16136.489536,-4979.620737,3478.967927
1412.667269,-13841.851115,-5515.887586,4219.173869
1412.667580,-11325.150913,-3983.696590,3701.029710
1412.667892,-8068.244768,-5286.058936,740.205942
1412.668203,-8290.306550,-7048.078582,-1628.453072
1412.668515,-5699.585753,-3983.696590,-2442.679609
1412.668826,-4811.338623,-1455.581446,-2072.576638
1412.669137,-9548.656652,76.609550,-1036.288319
1412.669449,-13471.748144,-1302.362347,3034.844362
1412.669760,-16284.530724,-2834.553343,3330.926739
1412.670071,-15322.262999,-919.314598,4515.256246
1412.670383,-11843.295072,2374.896044,2664.741391
1412.670694,-9992.780217,3907.087040,-0.000000
1412.671006,-7846.182985,2298.286494,-1924.535449
1412.671317,-3330.926739,2145.067394,-2886.803174
1412.671628,-1702.473667,3294.210641,-2146.597232
1412.671940,-4145.153275,4213.525239,-1036.288319
1412.672251,-10658.965565,4213.525239,1554.432478
1412.672562,-15544.324782,2528.115143,2220.617826
1412.672874,-14285.974681,1762.019645,2368.659014
1412.673185,-10066.800811,3983.696590,1850.514855
1412.673497,-7550.100608,2987.772442,-0.000000
1412.673808,-6513.812290,842.705048,-2072.576638
1412.674119,-2294.638420,689.485948,-2738.761985
1412.674431,-148.041188,2604.724693,-2812.782580
1412.674742,-2442.679609,3524.039291,-222.061783
1412.675054,-8586.388927,3830.477490,1036.288319
1412.675365,-11991.336260,2145.067394,3034.844362
1412.675676,-11843.295072,1378.971896,3404.947333
1412.675988,-9474.636058,2221.676944,3182.885551
1412.676299,-8068.244768,3907.087040,666.185348
1412.676610,-7550.100608,2528.115143,-2220.617826
1412.676922,-5329.482782,-153.219100,-3108.864956
1412.677233,-2072.576638,-306.438199,-2960.823768
1412.677545,-3997.112087,2145.067394,-1998.556043
1412.677856,-9696.697840,1608.800546,666.185348
1412.678167,-14137.933492,-2911.162892,3627.009116
1412.678479,-14063.912898,-4213.525239,4145.153275
1412.678790,-11473.192101,-2068.457845,5329.482782
1412.679101,-9474.636058,-2298.286494,3478.967927
1412.679413,-8364.327145,-3294.210641,1110.308913
1412.679724,-6661.853478,-4903.011187,-1554.432478
1412.680036,-3404.947333,-3677.258390,-2516.700203
1412.680347,-3923.091493,-2221.676944,-1998.556043
1412.680658,-9696.697840,-1378.971896,370.102971
1412.680970,-15766.386565,-3830.477490,2590.720797
1412.681281,-17246.798449,-5286.058936,3997.112087
1412.681592,-14730.098246,-3140.991542,4441.235652
1412.681904,-12583.501014,-842.705048,2960.823768
1412.682215,-10214.842000,-2298.286494,-0.000000
1412.682527,-8068.244768,-3140.991542,-2294.638420
1412.682838,-5995.668130,-3447.429741,-3849.070898
1412.683149,-4737.318029,-306.438199,-2516.700203
1412.683461,-9104.533087,842.705048,-1110.308913
1412.683772,-14878.139434,-1072.533697,1628.453072
1412.684084,-15026.180623,-2757.943793,3330.926739
1412.684395,-13915.871710,-3370.820191,3404.947333
1412.684706,-10807.006753,-689.485948,2886.803174
1412.685018,-8734.430116,306.438199,1036.288319
1412.685329,-9030.512492,-1762.019645,-1480.411884
1412.685640,-5033.400406,-1455.581446,-2072.576638
1412.685952,-3256.906145,2681.334243,-2590.720797
1412.686263,-5921.647536,4443.353888,-1332.370696
1412.686575,-11843.295072,4290.134789,666.185348
1412.686886,-15766.386565,2451.505594,2738.761985
1412.687197,-13989.892304,2987.772442,2368.659014
1412.687509,-8512.368333,6588.421283,1554.432478
1412.687820,-5255.462188,6205.373534,148.041188
1412.688131,-4737.318029,3294.210641,-2590.720797
1412.688443,-1776.494261,1455.581446,-2960.823768
1412.688754,370.102971,3753.867940,-3182.885551
1412.689066,-3256.906145,6128.763984,-1406.391290
1412.689377,-9622.677246,5056.230287,-74.020594
1412.689688,-13841.851115,2451.505594,1850.514855
1412.690000,-12583.501014,1532.190996,2664.741391
1412.690311,-7846.182985,2528.115143,3404.947333
1412.690623,-6143.709319,1915.238745,1628.453072
1412.690934,-6661.853478,-1072.533697,-1110.308913
1412.691245,-5847.626942,-2834.553343,-2368.659014
1412.691557,-2960.823768,0.000000,-1998.556043
1412.691868,-4663.297435,2451.505594,-962.267725
1412.692179,-11621.233289,689.485948,2220.617826
1412.692491,-15174.221811,-2374.896044,4145.153275
1412.692802,-14878.139434,-3370.820191,5107.421000
1412.693114,-11103.089130,-1608.800546,5255.462188
1412.693425,-8882.471304,-153.219100,3775.050304
1412.693736,-8808.450710,-1915.238745,444.123565
1412.694048,-4737.318029,-3600.648841,-1480.411884
1412.694359,-1702.473667,-2757.943793,-2960.823768
1412.694670,-3997.112087,-689.485948,-2294.638420
1412.694982,-10214.842000,-383.047749,-0.000000
1412.695293,-15322.262999,-3753.867940,3256.906145
1412.695605,-15470.304188,-6511.811733,4663.297435
1412.695916,-14137.933492,-5439.278036,4959.379811
1412.696227,-11251.130318,-2757.943793,4071.132681
1412.696539,-10732.986159,-3600.648841,444.123565
1412.696850,-8882.471304,-5745.716235,-1998.556043
1412.697161,-5403.503377,-2604.724693,-3330.926739
1412.697473,-6291.750507,306.438199,-3404.947333
1412.697784,-10510.924376,919.314598,-1406.391290
1412.698096,-15026.180623,-1532.190996,1628.453072
1412.698407,-16432.571912,-2987.772442,2294.638420
1412.698718,-14211.954086,-1149.143247,2812.782580
1412.699030,-11325.150913,1991.848295,2146.597232
1412.699341,-10732.986159,2221.676944,-222.061783
1412.699653,-7476.080014,-229.828649,-2220.617826
1412.699964,-3627.009116,1378.971896,-3404.947333
1412.700275,-1628.453072,3753.867940,-2146.597232
1412.700587,-3478.967927,3907.087040,-444.123565
1412.700898,-9770.718434,1532.190996,2072.576638
1412.701209,-14211.954086,-766.095498,3034.844362
1412.701521,-12139.377449,-383.047749,2516.700203
1412.701832,-8808.450710,3677.258390,2146.597232
1412.702144,-9178.553681,3370.820191,-444.123565
1412.702455,-7920.203579,459.657299,-2516.700203
1412.702766,-4441.235652,-459.657299,-3849.070898
1412.703078,-1628.453072,2757.943793,-2738.761985
1412.703389,-4145.153275,4903.011187,370.102971
1412.703700,-10436.903782,2528.115143,1332.370696
1412.704012,-13767.830521,1149.143247,3478.967927
1412.704323,-10436.903782,1608.800546,3701.029710
1412.704635,-7476.080014,4136.915689,1998.556043
1412.704946,-6735.874072,5592.497135,-0.000000
1412.705257,-6661.853478,3983.696590,-4441.235652
1412.705569,-4293.194464,1225.752797,-4737.318029
1412.705880,-2294.638420,3064.381992,-3552.988522
1412.706192,-5773.606348,4979.620737,-1998.556043
1412.706503,-12139.377449,2757.943793,1554.432478
1412.706814,-15396.283594,-2221.676944,4071.132681
1412.707126,-13323.706956,-3524.039291,5329.482782
1412.707437,-9474.636058,-1225.752797,4589.276840
1412.707748,-7920.203579,-1225.752797,3108.864956
1412.708060,-7772.162391,-4749.792088,592.164754
1412.708371,-5625.565159,-7124.688131,-814.226536
1412.708683,-2886.803174,-5515.887586,-1036.288319
1412.708994,-5107.421000,-2451.505594,-0.000000
1412.709305,-13027.624579,-2528.115143,2368.659014
1412.709617,-17024.736666,-5745.716235,4737.318029
1412.709928,-16284.530724,-6281.983084,5181.441594
1412.710239,-12361.439231,-1762.019645,4737.318029
1412.710551,-9844.739029,919.314598,2812.782580
1412.710862,-8068.244768,-1225.752797,-370.102971
1412.711174,-5329.482782,-3140.991542,-2220.617826
1412.711485,-2220.617826,-1302.362347,-2368.659014
1412.711796,-3182.885551,536.266849,-2738.761985
1412.712108,-9696.697840,1455.581446,-888.247130
1412.712419,-15322.262999,0.000000,1554.432478
1412.712730,-16062.468941,-2681.334243,2738.761985
1412.713042,-14211.954086,-2451.505594,2738.761985
1412.713353,-11621.233289,0.000000,2146.597232
1412.713665,-10288.862594,-229.828649,-1184.329507
1412.713976,-8142.265362,-2068.457845,-2590.720797
1412.714287,-4663.297435,-1378.971896,-3182.885551
1412.714599,-4811.338623,766.095498,-1850.514855
1412.714910,-7624.121203,2374.896044,1036.288319
1412.715222,-12065.356855,1532.190996,3404.947333
1412.715533,-14285.974681,76.609550,4145.153275
1412.715844,-11769.274478,612.876398,3552.988522
1412.716156,-8956.491898,4443.353888,2072.576638
1412.716467,-8512.368333,4673.182538,-1110.308913
1412.716778,-7328.038826,3217.601092,-4441.235652
1412.717090,-2812.782580,3983.696590,-5033.400406
1412.717401,-1850.514855,6205.373534,-4515.256246
1412.717713,-5625.565159,7431.126331,-1184.329507
1412.718024,-9918.759623,4903.011187,1110.308913
1412.718335,-11991.336260,1532.190996,2516.700203
1412.718647,-9918.759623,1225.752797,2812.782580
1412.718958,-6439.791695,2451.505594,1332.370696
1412.719269,-5477.523971,2221.676944,-1702.473667
1412.719581,-5921.647536,306.438199,-4145.153275
1412.719892,-3256.906145,-1225.752797,-4071.132681
1412.720204,-2368.659014,-306.438199,-2516.700203
1412.720515,-7550.100608,689.485948,-0.000000
1412.720827,-15248.242405,-1072.533697,3997.112087
1412.721138,-16876.695478,-4673.182538,6143.709319
1412.721450,-13989.892304,-4443.353888,6735.874072
1412.721761,-9844.739029,-153.219100,4959.379811
1412.722072,-7550.100608,383.047749,1184.329507
1412.722384,-7994.224174,-1149.143247,-1702.473667
1412.722695,-3701.029710,-2145.067394,-1554.432478
1412.723007,-1554.432478,-229.828649,-2368.659014
1412.723318,-4663.297435,-229.828649,-0.000000
1412.723630,-11843.295072,-1532.190996,2146.597232
1412.723941,-16358.551318,-5515.887586,4663.297435
1412.724253,-14508.036463,-6665.030833,4515.256246
1412.724564,-11029.068536,-2987.772442,4219.173869
1412.724875,-9030.512492,-1838.629195,1184.329507
1412.725187,-9400.615463,-3753.867940,-2294.638420
1412.725498,-7624.121203,-4673.182538,-2738.761985
1412.725810,-4145.153275,-3140.991542,-3404.947333
1412.726121,-5847.626942,0.000000,-1184.329507
1412.726433,-11473.192101,-459.657299,1110.308913
1412.726744,-15988.448347,-3294.210641,3034.844362
1412.727056,-15470.304188,-3907.087040,3627.009116
1412.727367,-12657.521608,-1225.752797,3701.029710
1412.727679,-10362.883188,919.314598,1258.350101
1412.727990,-10214.842000,995.924147,-2220.617826
1412.728301,-8290.306550,306.438199,-3256.906145
1412.728613,-5551.544565,-459.657299,-2960.823768
1412.728924,-5921.647536,2068.457845,-2072.576638
1412.729236,-10881.027347,2987.772442,962.267725
1412.729547,-13545.768739,2374.896044,2738.761985
1412.729859,-12657.521608,1378.971896,3923.091493
1412.730170,-11103.089130,2068.457845,2960.823768
1412.730482,-6809.894666,3447.429741,1258.350101
1412.730793,-5625.565159,2834.553343,-2516.700203
1412.731105,-3701.029710,2068.457845,-4367.215058
1412.731416,-1332.370696,2757.943793,-5181.441594
1412.731727,-2516.700203,4366.744339,-3701.029710
1412.732039,-7698.141797,3830.477490,-74.020594
1412.732350,-12805.562797,459.657299,4145.153275
1412.732662,-12435.459826,-1608.800546,5181.441594
1412.732973,-11843.295072,-306.438199,3552.988522
1412.733285,-9400.615463,4136.915689,1554.432478
1412.733596,-7105.977043,4903.011187,-2664.741391
1412.733908,-3923.091493,3753.867940,-4441.235652
1412.734219,-296.082377,2451.505594,-3849.070898
1412.734530,-444.123565,1302.362347,-3404.947333
1412.734842,-6291.750507,1302.362347,-0.000000
1412.735153,-13693.809927,76.609550,4811.338623
1412.735465,-15914.427753,-3753.867940,6587.832884
1412.735776,-14582.057057,-4060.306139,5551.544565
1412.736088,-11103.089130,-536.266849,4811.338623
1412.736399,-8216.285956,0.000000,1406.391290
1412.736711,-7179.997637,-3294.210641,-2072.576638
1412.737022,-2368.659014,-2757.943793,-1628.453072
1412.737334,-888.247130,-1762.019645,-1628.453072
1412.737645,-7920.203579,-2604.724693,444.123565
1412.737956,-14211.954086,-2681.334243,3256.906145
1412.738268,-16654.633695,-3983.696590,4367.215058
1412.738579,-14582.057057,-3830.477490,4589.276840
1412.738891,-9696.697840,-919.314598,3923.091493
1412.739202,-8882.471304,0.000000,-74.020594
1412.739514,-9622.677246,-2068.457845,-2294.638420
1412.739825,-6143.709319,-2757.943793,-1406.391290
1412.740137,-5329.482782,-1685.410096,-2590.720797
1412.740448,-7698.141797,766.095498,-592.164754
1412.740759,-12287.418637,153.219100,2442.679609
1412.741071,-15174.221811,-3064.381992,2812.782580
1412.741382,-14211.954086,-4213.525239,3404.947333
1412.741694,-11103.089130,-1608.800546,3330.926739
1412.742005,-9474.636058,-919.314598,1702.473667
1412.742317,-9622.677246,-2298.286494,-1628.453072
1412.742628,-6513.812290,-2068.457845,-3478.967927
1412.742940,-3997.112087,-306.438199,-3552.988522
1412.743251,-5329.482782,995.924147,-2294.638420
1412.743563,-10140.821405,1608.800546,296.082377
1412.743874,-15322.262999,0.000000,2368.659014
1412.744185,-15692.365970,-383.047749,4663.297435
1412.744497,-10214.842000,2145.067394,3849.070898
1412.744808,-5995.668130,5056.230287,1924.535449
1412.745120,-5181.441594,2528.115143,-2146.597232
1412.745431,-2886.803174,842.705048,-4441.235652
1412.745743,0.000000,3447.429741,-5329.482782
1412.746054,-3108.864956,6588.421283,-4589.276840
1412.746366,-9474.636058,6205.373534,-1036.288319
1412.746677,-15100.201217,2298.286494,1480.411884
1412.746988,-14656.077652,229.828649,3627.009116
1412.747300,-11177.109724,842.705048,3627.009116
1412.747611,-8512.368333,1685.410096,2146.597232
1412.747923,-6883.915261,536.266849,-1406.391290
1412.748234,-5403.503377,0.000000,-3330.926739
1412.748546,-2072.576638,919.314598,-4293.194464
1412.748857,-1924.535449,2987.772442,-2886.803174
1412.749169,-7328.038826,3064.381992,-370.102971
1412.749480,-13545.768739,-842.705048,2886.803174
1412.749792,-15470.304188,-2757.943793,4293.194464
1412.750103,-12805.562797,-153.219100,4959.379811
1412.750414,-9918.759623,1685.410096,4293.194464
1412.750726,-9326.594869,-459.657299,1480.411884
1412.751037,-7772.162391,-2451.505594,-740.205942
1412.751349,-4071.132681,-2068.457845,-1702.473667
1412.751660,-2368.659014,0.000000,-1702.473667
1412.751972,-6661.853478,1302.362347,-0.000000
1412.752283,-13915.871710,-459.657299,2442.679609
1412.752595,-15026.180623,-4749.792088,4367.215058
1412.752906,-13101.645173,-5362.668486,4589.276840
1412.753217,-10140.821405,-2528.115143,5107.421000
1412.753529,-8438.347739,-2068.457845,1924.535449
1412.753840,-8734.430116,-5209.449386,-666.185348
1412.754152,-5329.482782,-5822.325785,-1554.432478
1412.754463,-4219.173869,-1838.629195,-2516.700203
1412.754775,-7031.956449,1378.971896,-740.205942
1412.755086,-12583.501014,-306.438199,1110.308913
1412.755398,-15100.201217,-3140.991542,3627.009116
1412.755709,-13397.727550,-2757.943793,3775.050304
1412.756021,-10362.883188,-306.438199,3701.029710
1412.756332,-9474.636058,995.924147,1406.391290
1412.756643,-9918.759623,306.438199,-1480.411884
1412.756955,-6661.853478,0.000000,-3627.009116
1412.757266,-3627.009116,2757.943793,-4441.235652
1412.757578,-4811.338623,4596.572988,-2886.803174
1412.757889,-10436.903782,2834.553343,-888.247130
1412.758201,-14582.057057,306.438199,1480.411884
1412.758512,-14211.954086,-153.219100,3849.070898
1412.758824,-11399.171507,153.219100,5107.421000
1412.759135,-8882.471304,1149.143247,3849.070898
1412.759446,-7994.224174,-536.266849,-296.082377
1412.759758,-4219.173869,-2374.896044,-3182.885551
1412.760069,-518.144159,2451.505594,-5033.400406
1412.760381,-2738.761985,5056.230287,-3923.091493
1412.760692,-10214.842000,5132.839837,-1628.453072
1412.761004,-13989.892304,1302.362347,1850.514855
1412.761315,-13619.789333,-459.657299,3849.070898
1412.761627,-10881.027347,919.314598,4959.379811
1412.761938,-8290.306550,3600.648841,1628.453072
1412.762250,-7550.100608,3217.601092,-1776.494261
1412.762561,-4515.256246,1838.629195,-3775.050304
1412.762872,-370.102971,2221.676944,-4811.338623
1412.763184,-1998.556043,3064.381992,-3997.112087
1412.763495,-9104.533087,3524.039291,-2072.576638
1412.763807,-15692.365970,306.438199,2516.700203
1412.764118,-14656.077652,-306.438199,4145.153275
1412.764430,-12065.356855,-306.438199,4293.194464
1412.764741,-9474.636058,0.000000,3478.967927
1412.765053,-8438.347739,-2221.676944,740.205942
1412.765364,-7328.038826,-5439.278036,-740.205942
1412.765675,-2368.659014,-3370.820191,-2220.617826
1412.765987,-3108.864956,-995.924147,-1258.350101
1412.766298,-9400.615463,-1608.800546,814.226536
1412.766610,-14582.057057,-2757.943793,3627.009116
1412.766921,-14878.139434,-4903.011187,5181.441594
1412.767233,-11399.171507,-4366.744339,5403.503377
1412.767544,-10140.821405,-2374.896044,4367.215058
1412.767856,-9992.780217,-1455.581446,1036.288319
1412.768167,-8068.244768,-2221.676944,-1406.391290
1412.768479,-4441.235652,-1762.019645,-2886.803174
1412.768790,-2812.782580,306.438199,-2812.782580
1412.769101,-7476.080014,2068.457845,-2960.823768
1412.769413,-13397.727550,842.705048,148.041188
1412.769724,-14211.954086,-1762.019645,3701.029710
1412.770036,-13249.686362,-2757.943793,5403.503377
1412.770347,-11103.089130,-2451.505594,5477.523971
1412.770659,-9326.594869,-2221.676944,2664.741391
1412.770970,-9844.739029,-3140.991542,-814.226536
1412.771282,-5921.647536,-1149.143247,-2886.803174
1412.771593,-3182.885551,1838.629195,-4071.132681
1412.771904,-6291.750507,2834.553343,-3478.967927
1412.772216,-12065.356855,1685.410096,888.247130
1412.772527,-15544.324782,-1532.190996,3997.112087
1412.772839,-14582.057057,-1762.019645,5403.503377
1412.773150,-12657.521608,1072.533697,5033.400406
1412.773462,-10140.821405,2451.505594,2442.679609
1412.773773,-7254.018232,3524.039291,-3034.844362
1412.774085,-2442.679609,5209.449386,-5477.523971
1412.774396,740.205942,6665.030833,-5625.565159
1412.774708,-1332.370696,7354.516781,-4589.276840
1412.775019,-7772.162391,6588.421283,-1332.370696
1412.775330,-12213.398043,3140.991542,1480.411884
1412.775642,-13175.665768,459.657299,3330.926739
1412.775953,-11547.212695,919.314598,4219.173869
1412.776265,-8142.265362,2451.505594,2664.741391
1412.776576,-7179.997637,766.095498,-1998.556043
1412.776888,-4071.132681,-1149.143247,-3775.050304
1412.777199,-740.205942,995.924147,-4219.173869
1412.777511,-2886.803174,1838.629195,-3034.844362
1412.777822,-9696.697840,995.924147,370.102971
1412.778134,-15100.201217,-2221.676944,3849.070898
1412.778445,-14434.015869,-2987.772442,5255.462188
1412.778756,-10955.047942,-1685.410096,5773.606348
1412.779068,-9326.594869,-1072.533697,3182.885551
1412.779379,-8216.285956,-2068.457845,222.061783
1412.779691,-5477.523971,-3140.991542,-1998.556043
1412.780002,-2368.659014,-2451.505594,-1850.514855
1412.780314,-3775.050304,-766.095498,-2368.659014
1412.780625,-9770.718434,-459.657299,370.102971
1412.780937,-15396.283594,-2987.772442,2664.741391
1412.781248,-15322.262999,-5745.716235,4071.132681
1412.781559,-13101.645173,-3830.477490,3923.091493
1412.781871,-10510.924376,-1685.410096,3849.070898
1412.782182,-9030.512492,-2834.553343,518.144159
1412.782494,-7476.080014,-5132.839837,-740.205942
1412.782805,-4367.215058,-4366.744339,-2368.659014
1412.783117,-4663.297435,-1608.800546,-2072.576638
1412.783428,-9178.553681,536.266849,-1184.329507
1412.783740,-13545.768739,-536.266849,2146.597232
1412.784051,-15766.386565,-2987.772442,3552.988522
1412.784363,-14952.160028,-3064.381992,4737.318029
1412.784674,-12139.377449,-1455.581446,3404.947333
1412.784985,-10066.800811,0.000000,888.247130
1412.785297,-8956.491898,0.000000,-2220.617826
1412.785608,-5699.585753,459.657299,-3627.009116
1412.785920,-3775.050304,3140.991542,-4293.194464
1412.786231,-6661.853478,4826.401637,-2886.803174
1412.786543,-11621.233289,3600.648841,592.164754
1412.786854,-13397.727550,1302.362347,3108.864956
1412.787166,-12213.398043,689.485948,4515.256246
1412.787477,-9252.574275,1838.629195,4293.194464
1412.787788,-6735.874072,919.314598,2294.638420
1412.788100,-6957.935855,-229.828649,-1480.411884
1412.788411,-3404.947333,1225.752797,-3923.091493
1412.788723,-1110.308913,5209.449386,-4589.276840
1412.789034,-5033.400406,5822.325785,-3404.947333
1412.789346,-9844.739029,3907.087040,-0.000000
1412.789657,-13175.665768,1532.190996,2886.803174
1412.789969,-12139.377449,-536.266849,4515.256246
1412.790280,-9474.636058,1225.752797,3849.070898
1412.790592,-7772.162391,2911.162892,1036.288319
1412.790903,-6587.832884,1915.238745,-2442.679609
1412.791214,-3034.844362,383.047749,-3849.070898
1412.791526,-740.205942,1608.800546,-3701.029710
1412.791837,-4515.256246,3370.820191,-2368.659014
1412.792149,-11843.295072,2451.505594,1258.350101
1412.792460,-15544.324782,-1225.752797,4515.256246
1412.792772,-13989.892304,-3217.601092,5477.523971
1412.793083,-10362.883188,-1762.019645,4515.256246
1412.793395,-6809.894666,-919.314598,3256.906145
1412.793706,-6217.729913,-3370.820191,-740.205942
1412.794017,-4367.215058,-5209.449386,-2220.617826
1412.794329,-2072.576638,-3140.991542,-2664.741391
1412.794640,-5551.544565,-1302.362347,-1998.556043
1412.794952,-12287.418637,-1072.533697,1406.391290
1412.795263,-17838.963202,-4213.525239,3552.988522
1412.795575,-16358.551318,-5669.106685,4663.297435
1412.795886,-13101.645173,-4060.306139,4737.318029
1412.796198,-10288.862594,-1762.019645,2738.761985
1412.796509,-9770.718434,-689.485948,-1184.329507
1412.796821,-8586.388927,-1302.362347,-2738.761985
1412.797132,-3923.091493,-153.219100,-3330.926739
1412.797443,-4885.359217,612.876398,-3034.844362
1412.797755,-9918.759623,1149.143247,-888.247130
1412.798066,-14137.933492,-1225.752797,2516.700203
1412.798378,-14582.057057,-4136.915689,3404.947333
1412.798689,-13249.686362,-4136.915689,3997.112087
1412.799001,-11251.130318,-1302.362347,2590.720797
1412.799312,-10066.800811,-1378.971896,296.082377
1412.799624,-8068.244768,-2528.115143,-1850.514855
1412.799935,-5847.626942,-459.657299,-3478.967927
1412.800246,-5699.585753,2681.334243,-2590.720797
1412.800558,-8808.450710,4290.134789,-666.185348
1412.800869,-13693.809927,1072.533697,2886.803174
1412.801181,-14582.057057,383.047749,4959.379811
1412.801492,-10214.842000,689.485948,3997.112087
1412.801804,-7031.956449,3753.867940,2294.638420
1412.802115,-5477.523971,4749.792088,-666.185348
1412.802427,-5255.462188,3907.087040,-3701.029710
1412.802738,-3552.988522,4903.011187,-4737.318029
1412.803050,-2368.659014,6205.373534,-3256.906145
1412.803361,-5847.626942,5669.106685,-1998.556043
1412.803672,-11917.315666,2987.772442,1406.391290
1412.803984,-13027.624579,919.314598,3552.988522
1412.804295,-10288.862594,0.000000,3478.967927
1412.804607,-7105.977043,919.314598,2738.761985
1412.804918,-4737.318029,1378.971896,370.102971
1412.805230,-5107.421000,-919.314598,-2960.823768
1412.805541,-2220.617826,-2221.676944,-3256.906145
1412.805853,-1258.350101,-1532.190996,-2294.638420
1412.806164,-5551.544565,-689.485948,-888.247130
1412.806475,-12139.377449,-2451.505594,3256.906145
1412.806787,-16580.613101,-6511.811733,5329.482782
1412.807098,-14285.974681,-7201.297681,6735.874072
1412.807410,-11843.295072,-4826.401637,5403.503377
1412.807721,-8290.306550,-2451.505594,3108.864956
1412.808033,-6291.750507,-4673.182538,-518.144159
1412.808344,-4293.194464,-5592.497135,-2960.823768
1412.808656,-1110.308913,-4290.134789,-2590.720797
1412.808967,-3404.947333,-2068.457845,-2664.741391
1412.809279,-9918.759623,-1915.238745,814.226536
1412.809590,-14211.954086,-6128.763984,3701.029710
1412.809901,-14878.139434,-9499.584175,3849.070898
1412.810213,-13767.830521,-7660.954980,3627.009116
1412.810524,-12509.480420,-4903.011187,1554.432478
1412.810836,-11399.171507,-3677.258390,-1776.494261
1412.811147,-9918.759623,-5056.230287,-3552.988522
1412.811459,-7402.059420,-5286.058936,-3330.926739
1412.811770,-6957.935855,-4136.915689,-2220.617826
1412.812082,-9252.574275,-2068.457845,444.123565
1412.812393,-11621.233289,-2987.772442,3404.947333
1412.812704,-13027.624579,-6741.640382,4071.132681
1412.813016,-13175.665768,-8044.002729,3034.844362
1412.813327,-12287.418637,-3217.601092,1110.308913
1412.813639,-10955.047942,0.000000,-0.000000
1412.813950,-8734.430116,-1455.581446,-1998.556043
1412.814262,-8068.244768,-4213.525239,-3404.947333
1412.814573,-7772.162391,-3753.867940,-3552.988522
1412.814885,-8290.306550,-306.438199,-1702.473667
1412.815196,-9844.739029,1762.019645,-0.000000
1412.815508,-9252.574275,1225.752797,2442.679609
1412.815819,-8364.327145,-1685.410096,3627.009116
1412.816130,-7254.018232,-3677.258390,3701.029710
1412.816442,-6365.771101,-383.047749,2368.659014
1412.816753,-5625.565159,2451.505594,-0.000000
1412.817065,-4515.256246,2604.724693,-1850.514855
1412.817376,-4367.215058,1149.143247,-3034.844362
1412.817688,-5181.441594,-842.705048,-3256.906145
1412.817999,-5995.668130,-1455.581446,-2294.638420
1412.818311,-7105.977043,-1532.190996,-296.082377
1412.818622,-9178.553681,-1991.848295,1110.308913
1412.818933,-10881.027347,-1302.362347,2220.617826
1412.819245,-10807.006753,0.000000,2960.823768
1412.819556,-10214.842000,-76.609550,2886.803174
1412.819868,-9178.553681,0.000000,2960.823768
1412.820179,-7254.018232,-459.657299,1184.329507
1412.820491,-6513.812290,536.266849,-666.185348
1412.820802,-4885.359217,-153.219100,-1258.350101
1412.821114,-4663.297435,-2604.724693,-518.144159
1412.821425,-4071.132681,-5592.497135,-0.000000
1412.821737,-5551.544565,-7890.783629,296.082377
1412.822048,-9030.512492,-7890.783629,296.082377
1412.822360,-12065.356855,-5056.230287,-74.020594
1412.822671,-14285.974681,-2451.505594,296.082377
1412.822982,-14211.954086,-1532.190996,2664.741391
1412.823294,-15174.221811,-3447.429741,3701.029710
1412.823605,-13249.686362,-5286.058936,4737.318029
1412.823917,-10510.924376,-5515.887586,3997.112087
1412.824228,-7846.182985,-5515.887586,2368.659014
1412.824540,-4663.297435,-5822.325785,592.164754
1412.824851,-3701.029710,-6281.983084,-1702.473667
1412.825163,-4219.173869,-6435.202183,-2738.761985
1412.825474,-5921.647536,-6818.249932,-1776.494261
1412.825786,-9030.512492,-7048.078582,-962.267725
1412.826097,-12435.459826,-5898.935335,444.123565
1412.826409,-14952.160028,-4443.353888,1924.535449
1412.826720,-15766.386565,-3753.867940,2812.782580
1412.827032,-14656.077652,-4060.306139,3182.885551
1412.827343,-13619.789333,-3830.477490,3108.864956
1412.827654,-11325.150913,-2757.943793,1036.288319
1412.827966,-9104.533087,-3064.381992,518.144159
1412.828277,-6883.915261,-3677.258390,-148.041188
1412.828589,-4145.153275,-5209.449386,-74.020594
1412.828900,-4589.276840,-6741.640382,-1036.288319
1412.829212,-5551.544565,-7048.078582,-74.020594
1412.829523,-5329.482782,-4443.353888,-1110.308913
1412.829835,-6883.915261,-1225.752797,-962.267725
1412.830146,-9326.594869,-536.266849,-296.082377
1412.830458,-12435.459826,-383.047749,518.144159
1412.830769,-12953.603985,1072.533697,1110.308913
1412.831081,-11103.089130,2374.896044,592.164754
1412.831392,-8142.265362,1991.848295,592.164754
1412.831703,-5921.647536,995.924147,-1110.308913
1412.832015,-4737.318029,76.609550,-666.185348
1412.832326,-4885.359217,-1915.238745,-962.267725
1412.832638,-4589.276840,-1838.629195,-592.164754
1412.832949,-5921.647536,-995.924147,370.102971
1412.833261,-7920.203579,-1378.971896,296.082377
1412.833572,-9326.594869,-2911.162892,148.041188
1412.833884,-8808.450710,-2987.772442,-370.102971
1412.834195,-7772.162391,-1455.581446,-592.164754
1412.834507,-9030.512492,-1991.848295,-740.205942
1412.834818,-10510.924376,-2911.162892,-444.123565
1412.835130,-11991.336260,-3524.039291,666.185348
1412.835441,-12139.377449,-3064.381992,740.205942
1412.835752,-11177.109724,-3294.210641,1554.432478
1412.836064,-10510.924376,-3064.381992,1258.350101
1412.836375,-9104.533087,-2987.772442,888.247130
1412.836687,-7550.100608,-3064.381992,-0.000000
1412.836998,-6957.935855,-2298.286494,444.123565
1412.837310,-6217.729913,-1225.752797,222.061783
1412.837621,-6661.853478,-1149.143247,-296.082377
1412.837933,-6883.915261,-1915.238745,-444.123565
1412.838244,-8808.450710,-2987.772442,148.041188
1412.838556,-9622.677246,-3294.210641,296.082377
1412.838867,-10214.842000,-4673.182538,1850.514855
1412.839179,-10807.006753,-6281.983084,2368.659014
1412.839490,-11991.336260,-7124.688131,2590.720797
1412.839802,-12657.521608,-7354.516781,1998.556043
1412.840113,-11843.295072,-6588.421283,1924.535449
1412.840424,-10510.924376,-4826.401637,2146.597232
1412.840736,-8216.285956,-3217.601092,2220.617826
1412.841047,-7179.997637,-2451.505594,1332.370696
1412.841359,-5773.606348,-2145.067394,1480.411884
1412.841670,-5773.606348,-2298.286494,888.247130
1412.841982,-6143.709319,-2221.676944,666.185348
1412.842293,-6439.791695,-1762.019645,592.164754
1412.842605,-8068.244768,-2145.067394,296.082377
1412.842916,-10436.903782,-3524.039291,1110.308913
1412.843228,-11621.233289,-4826.401637,1554.432478
1412.843539,-11473.192101,-5592.497135,2294.638420
1412.843851,-10584.944971,-6358.592633,2590.720797
1412.844162,-9326.594869,-6588.421283,2368.659014
1412.844473,-7624.121203,-4826.401637,2294.638420
1412.844785,-6513.812290,-3217.601092,740.205942
1412.845096,-5181.441594,-1991.848295,-0.000000
1412.845408,-5477.523971,-536.266849,-740.205942
1412.845719,-6069.688724,842.705048,-1184.329507
1412.846031,-6587.832884,1455.581446,-740.205942
1412.846342,-7402.059420,-536.266849,-0.000000
1412.846654,-8734.430116,-2681.334243,592.164754
1412.846965,-9030.512492,-4136.915689,1332.370696
1412.847277,-9844.739029,-3677.258390,740.205942
1412.847588,-10288.862594,-3064.381992,-222.061783
1412.847900,-9474.636058,-2298.286494,-148.041188
1412.848211,-11029.068536,-2451.505594,-1332.370696
1412.848522,-8734.430116,-1302.362347,-222.061783
1412.848834,-8216.285956,-612.876398,-2368.659014
1412.849145,-8364.327145,-766.095498,-296.082377
1412.849457,-9992.780217,-1532.190996,-666.185348
1412.849768,-11177.109724,-1532.190996,-222.061783
1412.850080,-10066.800811,-995.924147,-0.000000
1412.850391,-9844.739029,-1225.752797,888.247130
1412.850703,-10140.821405,-3217.601092,962.267725
1412.851014,-9696.697840,-4519.963438,592.164754
1412.851326,-9178.553681,-4443.353888,1406.391290
1412.851637,-9992.780217,-3600.648841,1480.411884
1412.851949,-12139.377449,-2145.067394,1998.556043
1412.852260,-13471.748144,-1608.800546,1628.453072
1412.852571,-11251.130318,-1455.581446,2294.638420
1412.852883,-9918.759623,-1838.629195,1628.453072
1412.853194,-6883.915261,0.000000,2072.576638
1412.853506,-7476.080014,-153.219100,518.144159
1412.853817,-6513.812290,-2604.724693,2220.617826
1412.854129,-7105.977043,-3983.696590,2738.761985
1412.854440,-7624.121203,-3064.381992,4515.256246
1412.854752,-9104.533087,-2068.457845,5625.565159
1412.855063,-12139.377449,-3524.039291,5995.668130
1412.855375,-10066.800811,-3140.991542,6883.915261
1412.855686,-7920.203579,-1225.752797,4737.318029
1412.855998,-7105.977043,842.705048,4293.194464
1412.856309,-5773.606348,995.924147,3182.885551
1412.856621,-6587.832884,0.000000,2146.597232
1412.856932,-5699.585753,842.705048,2812.782580
1412.857243,-5329.482782,1302.362347,3108.864956
1412.857555,-9326.594869,0.000000,2886.803174
1412.857866,-10214.842000,229.828649,6217.729913
1412.858178,-10362.883188,-1302.362347,5995.668130
1412.858489,-7994.224174,-1838.629195,6587.832884
1412.858801,-7920.203579,-1762.019645,5403.503377
1412.859112,-8068.244768,-766.095498,5403.503377
1412.859424,-7254.018232,-383.047749,4293.194464
1412.859735,-7031.956449,306.438199,3627.009116
1412.860047,-7328.038826,1685.410096,4219.173869
1412.860358,-9474.636058,2451.505594,3404.947333
1412.860670,-9696.697840,2298.286494,4293.194464
1412.860981,-9104.533087,1838.629195,3849.070898
1412.861292,-7698.141797,919.314598,4367.215058
1412.861604,-7624.121203,459.657299,4219.173869
1412.861915,-8512.368333,-919.314598,4219.173869
1412.862227,-8216.285956,-1532.190996,4589.276840
1412.862538,-8068.244768,306.438199,5551.544565
1412.862850,-9178.553681,1302.362347,4737.318029
1412.863161,-10881.027347,1685.410096,5477.523971
1412.863473,-11103.089130,1302.362347,4885.359217
1412.863784,-9474.636058,2911.162892,4737.318029
1412.864096,-8364.327145,2068.457845,3701.029710
1412.864407,-7254.018232,919.314598,3404.947333
1412.864719,-6587.832884,-459.657299,2738.761985
1412.865030,-5551.544565,-1149.143247,2368.659014
1412.865341,-5181.441594,-1378.971896,2664.741391
1412.865653,-7105.977043,-2528.115143,3034.844362
1412.865964,-9104.533087,-2987.772442,4441.235652
1412.866276,-11029.068536,-3064.381992,5033.400406
1412.866587,-10881.027347,-1915.238745,5403.503377
1412.866899,-11103.089130,-1302.362347,5699.585753
1412.867210,-11029.068536,-1072.533697,4737.318029
1412.867522,-10288.862594,0.000000,2960.823768
1412.867833,-8956.491898,919.314598,1924.535449
1412.868145,-7402.059420,2298.286494,1036.288319
1412.868456,-8142.265362,1991.848295,296.082377
1412.868768,-8808.450710,1302.362347,1332.370696
1412.869079,-8586.388927,-766.095498,2812.782580
1412.869390,-9252.574275,-1225.752797,3923.091493
1412.869702,-8808.450710,-1455.581446,4441.235652
1412.870013,-8956.491898,-1991.848295,3627.009116
1412.870325,-7846.182985,-1072.533697,2886.803174
1412.870636,-6439.791695,229.828649,1628.453072
1412.870948,-6587.832884,1072.533697,-0.000000
1412.871259,-8438.347739,1072.533697,-518.144159
1412.871571,-10436.903782,1608.800546,-74.020594
1412.871882,-12583.501014,1685.410096,1406.391290
1412.872194,-13767.830521,1072.533697,2368.659014
1412.872505,-13767.830521,229.828649,3404.947333
1412.872817,-12361.439231,-766.095498,3552.988522
1412.873128,-9326.594869,-1838.629195,3330.926739
1412.873440,-5847.626942,-2604.724693,2146.597232
1412.873751,-3627.009116,-2604.724693,1110.308913
1412.874062,-4589.276840,-2451.505594,592.164754
1412.874374,-6513.812290,-1378.971896,962.267725
1412.874685,-9252.574275,0.000000,2146.597232
1412.874997,-12731.542202,1762.019645,3478.967927
1412.875308,-15026.180623,2221.676944,4959.379811
1412.875620,-15396.283594,1532.190996,5181.441594
1412.875931,-12879.583391,1072.533697,4589.276840
1412.876243,-8068.244768,689.485948,3775.050304
1412.876554,-4367.215058,229.828649,1332.370696
1412.876866,-2146.597232,0.000000,444.123565
1412.877177,-1554.432478,76.609550,444.123565
1412.877489,-4071.132681,-229.828649,1332.370696
1412.877800,-8512.368333,0.000000,3330.926739
1412.878111,-13175.665768,-229.828649,4811.338623
1412.878423,-14878.139434,459.657299,6143.709319
1412.878734,-12879.583391,536.266849,5995.668130
1412.879046,-10140.821405,-459.657299,4663.297435
1412.879357,-7179.997637,-995.924147,3627.009116
1412.879669,-4737.318029,-383.047749,2664.741391
1412.879980,-4811.338623,0.000000,2886.803174
1412.880292,-6217.729913,306.438199,4885.359217
1412.880603,-9622.677246,153.219100,6587.832884
1412.880915,-12287.418637,-459.657299,8290.306550
1412.881226,-12361.439231,-153.219100,8438.347739
1412.881538,-9992.780217,76.609550,6365.771101
1412.881849,-6735.874072,1762.019645,4071.132681
1412.882160,-4737.318029,2451.505594,1406.391290
1412.882472,-4589.276840,2451.505594,222.061783
1412.882783,-5995.668130,1915.238745,740.205942
1412.883095,-9104.533087,1225.752797,3034.844362
1412.883406,-12139.377449,0.000000,5551.544565
1412.883718,-14359.995275,-1991.848295,7994.224174
1412.884029,-14285.974681,-2911.162892,9992.780217
1412.884341,-12509.480420,-2987.772442,10362.883188
1412.884652,-10214.842000,-2528.115143,9474.636058
1412.884964,-6883.915261,-1455.581446,7105.977043
1412.885275,-4293.194464,-153.219100,4219.173869
1412.885587,-2368.659014,2374.896044,1702.473667
1412.885898,-1776.494261,3447.429741,814.226536
1412.886210,-3849.070898,4136.915689,222.061783
1412.886521,-6883.915261,4136.915689,2294.638420
1412.886832,-9770.718434,2374.896044,4071.132681
1412.887144,-11843.295072,-306.438199,5625.565159
1412.887455,-13397.727550,-2068.457845,6143.709319
1412.887767,-12657.521608,-1455.581446,6439.791695
1412.888078,-10807.006753,-1838.629195,5107.421000
1412.888390,-9400.615463,-1302.362347,4589.276840
1412.888701,-8216.285956,-842.705048,4441.235652
1412.889013,-7772.162391,-842.705048,3627.009116
1412.889324,-6217.729913,-612.876398,4367.215058
1412.889636,-4515.256246,229.828649,3923.091493
1412.889947,-4367.215058,919.314598,2368.659014
1412.890259,-3701.029710,1149.143247,1332.370696
1412.890570,-3849.070898,0.000000,-888.247130
1412.890881,-6439.791695,0.000000,-1258.350101
1412.891193,-10955.047942,0.000000,592.164754
1412.891504,-15396.283594,-153.219100,3034.844362
1412.891816,-19985.560434,-919.314598,4885.359217
1412.892127,-20725.766376,0.000000,6883.915261
1412.892439,-17394.839637,842.705048,7254.018232
1412.892750,-10881.027347,229.828649,6735.874072
1412.893062,-4145.153275,-459.657299,4515.256246
1412.893373,1480.411884,-689.485948,1036.288319
1412.893685,5329.482782,0.000000,-4145.153275
1412.893996,4293.194464,2145.067394,-5847.626942
1412.894308,-1480.411884,2834.553343,-3923.091493
1412.894619,-11029.068536,919.314598,-1406.391290
1412.894930,-20059.581028,-612.876398,3330.926739
1412.895242,-25833.187376,-1991.848295,6809.894666
1412.895553,-24204.734303,-1072.533697,8142.265362
1412.895865,-18727.210333,-1532.190996,7550.100608
1412.896176,-10362.883188,-2451.505594,4589.276840
1412.896488,-3627.009116,-2757.943793,1776.494261
1412.896799,3256.906145,-1991.848295,-1924.535449
1412.897111,5551.544565,229.828649,-4589.276840
1412.897422,2664.741391,2987.772442,-5699.585753
1412.897734,-2812.782580,3753.867940,-3627.009116
1412.898045,-11029.068536,2221.676944,-1406.391290
1412.898357,-19171.333898,842.705048,2368.659014
1412.898668,-22428.240043,995.924147,3997.112087
1412.898979,-20355.663405,383.047749,4737.318029
1412.899291,-14359.995275,-1455.581446,3330.926739
1412.899602,-7772.162391,-2451.505594,1258.350101
1412.899914,-2368.659014,-1762.019645,-1850.514855
1412.900225,592.164754,-306.438199,-3256.906145
1412.900537,1110.308913,1378.971896,-2442.679609
1412.900848,-2442.679609,1378.971896,-1036.288319
1412.901160,-9252.574275,1378.971896,1258.350101
1412.901471,-15174.221811,842.705048,2664.741391
1412.901783,-17764.942608,842.705048,2960.823768
1412.902094,-15692.365970,1915.238745,2220.617826
1412.902406,-11473.192101,842.705048,518.144159
1412.902717,-7846.182985,-1225.752797,-962.267725
1412.903029,-6069.688724,-3677.258390,-1776.494261
1412.903340,-5107.421000,-3447.429741,-0.000000
1412.903651,-5625.565159,-2528.115143,2368.659014
1412.903963,-9696.697840,-1149.143247,4441.235652
1412.904274,-13619.789333,-383.047749,6513.812290
1412.904586,-14730.098246,-612.876398,6513.812290
1412.904897,-11103.089130,1608.800546,4663.297435
1412.905209,-6513.812290,3217.601092,1184.329507
1412.905520,-3478.967927,2451.505594,-2590.720797
1412.905832,-2220.617826,1685.410096,-4737.318029
1412.906143,-2368.659014,766.095498,-3256.906145
1412.906455,-5107.421000,-919.314598,-740.205942
1412.906766,-11399.171507,-2528.115143,4219.173869
1412.907078,-17616.901420,-3830.477490,9030.512492
1412.907389,-19689.478057,-3983.696590,10584.944971
1412.907700,-16802.674883,-2451.505594,10362.883188
1412.908012,-10140.821405,0.000000,7402.059420
1412.908323,-3701.029710,1532.190996,2072.576638
1412.908635,1776.494261,1532.190996,-3256.906145
1412.908946,5625.565159,2681.334243,-7031.956449
1412.909258,4293.194464,4366.744339,-6809.894666
1412.909569,-2664.741391,4826.401637,-3997.112087
1412.909881,-11547.212695,2068.457845,1258.350101
1412.910192,-19171.333898,-1149.143247,6143.709319
1412.910504,-21391.951724,-2834.553343,10362.883188
1412.910815,-17912.983796,-2681.334243,9696.697840
1412.911127,-10955.047942,-2451.505594,5403.503377
1412.911438,-3627.009116,-1838.629195,-888.247130
1412.911749,2368.659014,-766.095498,-5921.647536
1412.912061,4959.379811,1838.629195,-7772.162391
1412.912372,-370.102971,4903.011187,-6883.915261
1412.912684,-10140.821405,5439.278036,-2368.659014
1412.912995,-18283.086767,2987.772442,2220.617826
1412.913307,-20133.601622,-919.314598,4441.235652
1412.913618,-15766.386565,-2451.505594,3627.009116
1412.913930,-9326.594869,-2451.505594,962.267725
1412.914241,-6513.812290,-2681.334243,-1924.535449
1412.914553,-4293.194464,-4903.011187,-4441.235652
1412.914864,-4811.338623,-4213.525239,-4589.276840
1412.915176,-8660.409521,-2145.067394,-2960.823768
1412.915487,-12879.583391,-612.876398,-370.102971
1412.915798,-15692.365970,689.485948,1480.411884
1412.916110,-16358.551318,1532.190996,888.247130
1412.916421,-13693.809927,766.095498,-296.082377
1412.916733,-9400.615463,919.314598,-2072.576638
1412.917044,-5477.523971,1302.362347,-5181.441594
1412.917356,-3627.009116,1225.752797,-7328.038826
1412.917667,-2886.803174,-689.485948,-6513.812290
1412.917979,-5773.606348,-2528.115143,-4663.297435
1412.918290,-10807.006753,-2145.067394,-740.205942
1412.918602,-15248.242405,-3217.601092,2960.823768
1412.918913,-17987.004391,-3140.991542,5625.565159
1412.919225,-16950.716072,-2298.286494,5181.441594
1412.919536,-13027.624579,153.219100,1480.411884
1412.919847,-7550.100608,1378.971896,-2368.659014
1412.920159,-1702.473667,2068.457845,-6513.812290
1412.920470,2664.741391,2757.943793,-9104.533087
1412.920782,3478.967927,2451.505594,-9696.697840
1412.921093,-2812.782580,2145.067394,-5403.503377
1412.921404,-12139.377449,766.095498,444.123565
1412.921716,-19763.498651,-1685.410096,6439.791695
1412.922027,-22724.322419,-3140.991542,9474.636058
1412.922339,-20651.745782,-2911.162892,8808.450710
1412.922650,-13915.871710,-1608.800546,4885.359217
1412.922962,-5107.421000,-612.876398,-1184.329507
1412.923273,2368.659014,1072.533697,-6587.832884
1412.923584,6809.894666,2528.115143,-7624.121203
1412.923896,2738.761985,3524.039291,-6365.771101
1412.924207,-7328.038826,3064.381992,-666.185348
1412.924519,-16580.613101,0.000000,4515.256246
1412.924830,-20725.766376,-1608.800546,8586.388927
1412.925141,-17912.983796,-1762.019645,9548.656652
1412.925453,-12213.398043,-2068.457845,7179.997637
1412.925764,-6365.771101,-3677.258390,2812.782580
1412.926076,-1036.288319,-4366.744339,-962.267725
1412.926387,2294.638420,-1991.848295,-3330.926739
1412.926699,-1110.308913,1072.533697,-1332.370696
1412.927010,-9104.533087,2604.724693,814.226536
1412.927321,-15396.283594,3140.991542,4071.132681
1412.927633,-17987.004391,2528.115143,5847.626942
1412.927944,-15174.221811,1455.581446,6513.812290
1412.928256,-9178.553681,1378.971896,4145.153275
1412.928567,-5403.503377,536.266849,148.041188
1412.928879,-1554.432478,-995.924147,-2886.803174
1412.929190,814.226536,-2528.115143,-3923.091493
1412.929501,-2664.741391,-1378.971896,-2072.576638
1412.929813,-9252.574275,-842.705048,888.247130
1412.930124,-15026.180623,-1302.362347,4219.173869
1412.930436,-18061.024985,-1838.629195,7105.977043
1412.930747,-16062.468941,-919.314598,7994.224174
1412.931058,-10955.047942,0.000000,5181.441594
1412.931370,-6587.832884,-306.438199,296.082377
1412.931681,-2664.741391,1302.362347,-3849.070898
1412.931993,518.144159,2145.067394,-7328.038826
1412.932304,148.041188,2681.334243,-7476.080014
1412.932616,-5477.523971,2757.943793,-4885.359217
1412.932927,-12805.562797,1915.238745,222.061783
1412.933238,-18431.127956,-995.924147,5847.626942
1412.933550,-20355.663405,-2834.553343,8734.430116
1412.933861,-17616.901420,-2604.724693,8512.368333
1412.934173,-12657.521608,-1455.581446,4367.215058
1412.934484,-5107.421000,-1378.971896,-1036.288319
1412.934795,2590.720797,76.609550,-7994.224174
1412.935107,6513.812290,1838.629195,-9992.780217
1412.935418,1480.411884,4060.306139,-8290.306550
1412.935730,-9474.636058,2681.334243,-2738.761985
1412.936041,-18061.024985,0.000000,2516.700203
1412.936353,-22132.157666,-2757.943793,7624.121203
1412.936664,-19023.292709,-3830.477490,9030.512492
1412.936975,-12731.542202,-4749.792088,5699.585753
1412.937287,-6143.709319,-4903.011187,-296.082377
1412.937598,222.061783,-3524.039291,-5847.626942
1412.937910,3034.844362,306.438199,-7920.203579
1412.938221,-888.247130,2604.724693,-6365.771101
1412.938532,-10584.944971,3677.258390,-3701.029710
1412.938844,-17987.004391,3447.429741,1332.370696
1412.939155,-19245.354492,2145.067394,3552.988522
1412.939467,-16432.571912,766.095498,2960.823768
1412.939778,-10140.821405,612.876398,-0.000000
1412.940090,-4367.215058,153.219100,-3775.050304
1412.940401,-296.082377,-1608.800546,-6439.791695
1412.940712,222.061783,-2451.505594,-7179.997637
1412.941024,-3701.029710,-536.266849,-5255.462188
1412.941335,-10732.986159,1302.362347,-888.247130
1412.941647,-17912.983796,0.000000,2812.782580
1412.941958,-21095.869347,-842.705048,5699.585753
1412.942269,-18135.045579,-842.705048,5551.544565
1412.942581,-12435.459826,-229.828649,2368.659014
1412.942892,-6661.853478,76.609550,-1480.411884
1412.943204,-2368.659014,1302.362347,-6735.874072
1412.943515,444.123565,1225.752797,-8142.265362
1412.943827,-1702.473667,1072.533697,-7105.977043
1412.944138,-8142.265362,1302.362347,-2220.617826
1412.944449,-14952.160028,536.266849,3552.988522
1412.944761,-18949.272115,-1378.971896,7698.141797
1412.945072,-18653.189738,-2681.334243,9474.636058
1412.945384,-15100.201217,-2834.553343,7772.162391
1412.945695,-8808.450710,-2911.162892,3627.009116
1412.946007,-2294.638420,-766.095498,-2220.617826
1412.946318,2960.823768,1225.752797,-6143.709319
1412.946629,2738.761985,1532.190996,-6291.750507
1412.946941,-3478.967927,1838.629195,-3478.967927
1412.947252,-12509.480420,995.924147,2220.617826
1412.947564,-18209.066173,-536.266849,7105.977043
1412.947875,-18283.086767,-1838.629195,10881.027347
1412.948186,-14582.057057,-2604.724693,10584.944971
1412.948498,-8882.471304,-3524.039291,7328.038826
1412.948809,-3923.091493,-4290.134789,2294.638420
1412.949121,666.185348,-1149.143247,-1332.370696
1412.949432,1924.535449,2451.505594,-2220.617826
1412.949744,-3775.050304,4443.353888,-1998.556043
1412.950055,-11103.089130,4136.915689,1110.308913
1412.950366,-14804.118840,3600.648841,3775.050304
1412.950678,-14434.015869,2451.505594,6513.812290
1412.950989,-10510.924376,383.047749,6957.935855
1412.951301,-7254.018232,-306.438199,5107.421000
1412.951612,-4811.338623,-1991.848295,2146.597232
1412.951923,-2220.617826,-2221.676944,-0.000000
1412.952235,-1628.453072,-306.438199,-814.226536
1412.952546,-4737.318029,1455.581446,-592.164754
1412.952858,-9844.739029,2145.067394,1036.288319
1412.953169,-14656.077652,1072.533697,2442.679609
1412.953481,-14952.160028,1455.581446,5773.606348
1412.953792,-13027.624579,-229.828649,6883.915261
1412.954103,-10584.944971,-1378.971896,5329.482782
1412.954415,-8068.244768,-2451.505594,1924.535449
1412.954726,-4589.276840,-995.924147,-1332.370696
1412.955038,-1850.514855,1838.629195,-3552.988522
1412.955349,-4219.173869,2451.505594,-2812.782580
1412.955660,-8808.450710,536.266849,-1554.432478
1412.955972,-11325.150913,-1072.533697,1406.391290
1412.956283,-13249.686362,-1378.971896,3775.050304
1412.956595,-14211.954086,0.000000,6439.791695
1412.956906,-14211.954086,-153.219100,5181.441594
1412.957218,-11843.295072,-1608.800546,1184.329507
1412.957529,-6735.874072,-1532.190996,-2146.597232
1412.957840,-2220.617826,0.000000,-5181.441594
1412.958152,-2072.576638,2298.286494,-7105.977043
1412.958463,-6957.935855,2451.505594,-6217.729913
1412.958775,-11695.253884,383.047749,-2368.659014
1412.959086,-15100.201217,-1532.190996,1998.556043
1412.959397,-16358.551318,-2604.724693,5403.503377
1412.959709,-14878.139434,-2834.553343,5625.565159
1412.960020,-11399.171507,-4443.353888,1998.556043
1412.960332,-5847.626942,-3830.477490,-2590.720797
1412.960643,-296.082377,612.876398,-7031.956449
1412.960955,296.082377,3064.381992,-8142.265362
1412.961266,-5625.565159,3524.039291,-7031.956449
1412.961577,-13619.789333,1991.848295,-3108.864956
1412.961889,-18283.086767,1455.581446,444.123565
1412.962200,-18283.086767,1455.581446,4071.132681
1412.962512,-15174.221811,306.438199,3404.947333
1412.962823,-9400.615463,-1302.362347,444.123565
1412.963134,-2886.803174,-1532.190996,-3923.091493
1412.963446,296.082377,-1225.752797,-6809.894666
1412.963757,-1850.514855,383.047749,-5403.503377
1412.964069,-7476.080014,2451.505594,-3627.009116
1412.964380,-14285.974681,1991.848295,-296.082377
1412.964692,-17764.942608,-229.828649,3108.864956
1412.965003,-16358.551318,-1378.971896,5773.606348
1412.965314,-11991.336260,-1991.848295,4663.297435
1412.965626,-7476.080014,-2451.505594,1998.556043
1412.965937,-4293.194464,-3370.820191,-1036.288319
1412.966249,-1850.514855,-2221.676944,-3182.885551
1412.966560,-2368.659014,0.000000,-2738.761985
1412.966872,-7254.018232,919.314598,-666.185348
1412.967183,-13175.665768,995.924147,1998.556043
1412.967494,-15766.386565,1225.752797,4293.194464
1412.967806,-14508.036463,1149.143247,6217.729913
1412.968117,-11917.315666,766.095498,5995.668130
1412.968429,-8586.388927,612.876398,4145.153275
1412.968740,-5329.482782,153.219100,1036.288319
1412.969051,-2072.576638,383.047749,-1406.391290
1412.969363,-1406.391290,1455.581446,-1702.473667
1412.969674,-4663.297435,3983.696590,-1702.473667
1412.969986,-9252.574275,3370.820191,666.185348
1412.970297,-13101.645173,995.924147,3923.091493
1412.970609,-14211.954086,-995.924147,7179.997637
1412.970920,-11917.315666,-1685.410096,8142.265362
1412.971231,-9474.636058,-2145.067394,6439.791695
1412.971543,-6661.853478,-2757.943793,3627.009116
1412.971854,-4145.153275,-2374.896044,740.205942
1412.972166,-2294.638420,306.438199,-888.247130
1412.972477,-3923.091493,2987.772442,-1628.453072
1412.972788,-9252.574275,2374.896044,-296.082377
1412.973100,-13175.665768,2451.505594,2294.638420
1412.973411,-14137.933492,1838.629195,4959.379811
1412.973723,-12879.583391,842.705048,6661.853478
1412.974034,-10066.800811,-689.485948,6291.750507
1412.974346,-6661.853478,-2298.286494,3404.947333
1412.974657,-3256.906145,-1838.629195,518.144159
1412.974968,-1480.411884,612.876398,-2442.679609
1412.975280,-2812.782580,2681.334243,-2368.659014
1412.975591,-7846.182985,2451.505594,-1776.494261
1412.975903,-13175.665768,1302.362347,740.205942
1412.976214,-15322.262999,-383.047749,3256.906145
1412.976525,-14730.098246,-1225.752797,4959.379811
1412.976837,-11917.315666,0.000000,4441.235652
1412.977148,-8364.327145,-842.705048,2590.720797
1412.977460,-5255.462188,-3294.210641,-0.000000
1412.977771,-1258.350101,-3600.648841,-3034.844362
1412.978083,-888.247130,-1225.752797,-3997.112087
1412.978394,-4885.359217,1838.629195,-3478.967927
1412.978705,-11473.192101,2604.724693,-518.144159
1412.979017,-17912.983796,919.314598,2812.782580
1412.979328,-18505.148550,-1225.752797,4959.379811
1412.979640,-13915.871710,-2068.457845,4219.173869
1412.979951,-8290.306550,-1225.752797,222.061783
1412.980262,-3256.906145,0.000000,-4293.194464
1412.980574,666.185348,229.828649,-8068.244768
1412.980885,-962.267725,995.924147,-8364.327145
1412.981197,-6809.894666,2068.457845,-6143.709319
1412.981508,-13545.768739,2374.896044,-1998.556043
1412.981820,-18431.127956,1378.971896,1924.535449
1412.982131,-17764.942608,-536.266849,3478.967927
1412.982442,-12879.583391,-1149.143247,2072.576638
1412.982754,-8068.244768,-1838.629195,-962.267725
1412.983065,-4663.297435,-1915.238745,-4811.338623
1412.983377,-1998.556043,-919.314598,-6735.874072
1412.983688,-2960.823768,-229.828649,-6809.894666
1412.984000,-8808.450710,1149.143247,-5773.606348
1412.984311,-14359.995275,1072.533697,-2368.659014
1412.984622,-17320.819043,459.657299,296.082377
1412.984934,-15692.365970,229.828649,2368.659014
1412.985245,-12139.377449,-1149.143247,1702.473667
1412.985557,-10066.800811,-2681.334243,-148.041188
1412.985868,-7031.956449,-2221.676944,-2738.761985
1412.986179,-4885.359217,0.000000,-3775.050304
1412.986491,-4663.297435,919.314598,-4367.215058
1412.986802,-7920.203579,1302.362347,-3923.091493
1412.987114,-12583.501014,1378.971896,-1924.535449
1412.987425,-14211.954086,1225.752797,962.267725
1412.987737,-14285.974681,-612.876398,3182.885551
1412.988048,-12213.398043,-2298.286494,4293.194464
1412.988359,-9474.636058,-2757.943793,3182.885551
1412.988671,-7031.956449,-2987.772442,444.123565
1412.988982,-3997.112087,-2451.505594,-1480.411884
1412.989294,-1850.514855,-306.438199,-2146.597232
1412.989605,-4515.256246,2374.896044,-1776.494261
1412.989916,-9474.636058,1532.190996,962.267725
1412.990228,-14211.954086,766.095498,4145.153275
1412.990539,-15618.345376,536.266849,6217.729913
1412.990851,-13101.645173,-153.219100,7105.977043
1412.991162,-9178.553681,-919.314598,5329.482782
1412.991474,-5699.585753,-1378.971896,2664.741391
1412.991785,-2072.576638,-76.609550,-888.247130
1412.992096,666.185348,536.266849,-1998.556043
1412.992408,-1776.494261,1378.971896,-1110.308913
1412.992719,-7624.121203,2068.457845,1332.370696
1412.993031,-13249.686362,1685.410096,4515.256246
1412.993342,-15766.386565,459.657299,7402.059420
1412.993653,-13619.789333,0.000000,8512.368333
1412.993965,-9252.574275,-153.219100,6957.935855
1412.994276,-5255.462188,-1072.533697,4219.173869
1412.994588,-1850.514855,-1225.752797,1184.329507
1412.994899,-296.082377,0.000000,-962.267725
1412.995211,-1776.494261,1072.533697,-1628.453072
1412.995522,-6587.832884,1915.238745,-888.247130
1412.995833,-11621.233289,1915.238745,1554.432478
1412.996145,-15100.201217,1149.143247,4071.132681
1412.996456,-15470.304188,0.000000,6365.771101
1412.996768,-12731.542202,-842.705048,5699.585753
1412.997079,-9030.512492,-1378.971896,2590.720797
1412.997390,-4737.318029,-689.485948,222.061783
1412.997702,-1702.473667,0.000000,-2590.720797
1412.998013,-2516.700203,1378.971896,-2886.803174
1412.998325,-7994.224174,2068.457845,-2368.659014
1412.998636,-13027.624579,1455.581446,-0.000000
1412.998948,-14434.015869,-612.876398,1554.432478
1412.999259,-13175.665768,-1302.362347,3034.844362
1412.999570,-10732.986159,-1149.143247,3182.885551
1412.999882,-9178.553681,-1915.238745,814.226536
1413.000193,-7920.203579,-3217.601092,-1628.453072
1413.000505,-6291.750507,-2604.724693,-3552.988522
1413.000816,-5033.400406,-229.828649,-4219.173869
1413.001128,-7328.038826,1532.190996,-3552.988522
1413.001439,-11695.253884,995.924147,-2738.761985
1413.001750,-13619.789333,306.438199,-1998.556043
1413.002062,-13693.809927,0.000000,-74.020594
1413.002373,-11917.315666,-612.876398,1480.411884
1413.002685,-10510.924376,-1532.190996,-296.082377
1413.002996,-9178.553681,-3064.381992,-2516.700203
1413.003307,-5403.503377,-2528.115143,-5181.441594
1413.003619,-3256.906145,-536.266849,-7105.977043
1413.003930,-4293.194464,1225.752797,-6661.853478
1413.004242,-9770.718434,2374.896044,-3923.091493
1413.004553,-14211.954086,0.000000,-814.226536
1413.004865,-16580.613101,-1455.581446,1480.411884
1413.005176,-16136.489536,-1532.190996,1924.535449
1413.005487,-11843.295072,-919.314598,814.226536
1413.005799,-6365.771101,-1378.971896,-2590.720797
1413.006110,-2368.659014,-1225.752797,-5921.647536
1413.006422,-962.267725,76.609550,-7624.121203
1413.006733,-4885.359217,1225.752797,-5551.544565
1413.007044,-11029.068536,2145.067394,-2072.576638
1413.007356,-17172.777854,2068.457845,1850.514855
1413.007667,-19023.292709,306.438199,4737.318029
1413.007979,-16284.530724,-1685.410096,6217.729913
1413.008290,-11399.171507,-2221.676944,3552.988522
1413.008602,-4737.318029,-995.924147,-370.102971
1413.008913,-1036.288319,-1302.362347,-3627.009116
1413.009224,74.020594,0.000000,-3330.926739
1413.009536,-4367.215058,689.485948,-2220.617826
1413.009847,-10881.027347,689.485948,1554.432478
1413.010159,-15692.365970,76.609550,3997.112087
1413.010470,-15840.407159,536.266849,6439.791695
1413.010781,-12435.459826,-306.438199,6587.832884
1413.011093,-9622.677246,-1915.238745,5625.565159
1413.011404,-5625.565159,-2145.067394,3478.967927
1413.011716,-2886.803174,-2451.505594,1258.350101
1413.012027,-962.267725,-1302.362347,148.041188
1413.012339,-3330.926739,842.705048,-0.000000
1413.012650,-8660.409521,1455.581446,1332.370696
1413.012961,-12435.459826,1455.581446,3478.967927
1413.013273,-13471.748144,1225.752797,5477.523971
1413.013584,-11917.315666,1302.362347,6883.915261
1413.013896,-9918.759623,229.828649,6365.771101
1413.014207,-6957.935855,-1225.752797,4737.318029
1413.014518,-4737.318029,-1225.752797,1998.556043
1413.014830,-2294.638420,0.000000,592.164754
1413.015141,-2072.576638,1532.190996,-0.000000
1413.015453,-6217.729913,2604.724693,-148.041188
1413.015764,-11029.068536,2757.943793,2072.576638
1413.016076,-13841.851115,1302.362347,4367.215058
1413.016387,-14137.933492,459.657299,6291.750507
1413.016698,-11843.295072,-229.828649,6365.771101
1413.017010,-7476.080014,-1225.752797,3552.988522
1413.017321,-4145.153275,-2068.457845,518.144159
1413.017633,-2220.617826,-1378.971896,-2368.659014
1413.017944,-1850.514855,459.657299,-3330.926739
1413.018255,-5625.565159,2298.286494,-2516.700203
1413.018567,-11917.315666,2298.286494,-444.123565
1413.018878,-16136.489536,1455.581446,3108.864956
1413.019190,-17468.860231,-612.876398,5255.462188
1413.019501,-13841.851115,-1302.362347,5107.421000
1413.019813,-9844.739029,-995.924147,2738.761985
1413.020124,-6513.812290,-1378.971896,-296.082377
1413.020435,-3552.988522,-306.438199,-3478.967927
1413.020747,-3627.009116,1378.971896,-3775.050304
1413.021058,-5921.647536,2451.505594,-2442.679609
1413.021370,-10066.800811,1685.410096,-1554.432478
1413.021681,-12287.418637,-153.219100,-0.000000
1413.021992,-12879.583391,-153.219100,1998.556043
1413.022304,-11547.212695,-459.657299,3997.112087
1413.022615,-11473.192101,-2221.676944,3330.926739
1413.022927,-9474.636058,-4060.306139,1628.453072
1413.023238,-7105.977043,-4213.525239,-1258.350101
1413.023549,-2664.741391,-766.095498,-4145.153275
1413.023861,-2220.617826,995.924147,-5625.565159
1413.024172,-5847.626942,1685.410096,-5847.626942
1413.024484,-9770.718434,1149.143247,-2886.803174
1413.024795,-13323.706956,612.876398,518.144159
1413.025106,-14952.160028,-689.485948,3256.906145
1413.025418,-15248.242405,-766.095498,2442.679609
1413.025729,-12139.377449,-919.314598,-296.082377
1413.026040,-6883.915261,-153.219100,-3775.050304
1413.026352,-1628.453072,842.705048,-6809.894666
1413.026663,-1184.329507,1762.019645,-6439.791695
1413.026975,-6217.729913,2221.676944,-5699.585753
1413.027286,-12657.521608,1455.581446,-2146.597232
1413.027597,-17542.880825,536.266849,2146.597232
1413.027909,-18431.127956,76.609550,4589.276840
1413.028220,-15840.407159,-766.095498,3775.050304
1413.028532,-9400.615463,-1455.581446,518.144159
1413.028843,-3552.988522,-1455.581446,-3404.947333
1413.029154,-1406.391290,-306.438199,-5403.503377
1413.029466,-2442.679609,1072.533697,-4367.215058
1413.029777,-9474.636058,1302.362347,-2294.638420
1413.030088,-15692.365970,153.219100,1850.514855
1413.030400,-18357.107362,-1072.533697,5329.482782
1413.030711,-16062.468941,-1762.019645,7476.080014
1413.031023,-12361.439231,-3064.381992,5551.544565
1413.031334,-7031.956449,-2604.724693,2738.761985
1413.031645,-3552.988522,-2374.896044,-740.205942
1413.031957,-444.123565,-919.314598,-2220.617826
1413.032268,-1184.329507,76.609550,-2220.617826
1413.032579,-7105.977043,919.314598,-222.061783
1413.032891,-13471.748144,1455.581446,2886.803174
1413.033202,-15840.407159,1685.410096,4737.318029
1413.033514,-13767.830521,1532.190996,7328.038826
1413.033825,-10140.821405,-536.266849,6809.894666
1413.034136,-6291.750507,-1225.752797,4885.359217
1413.034448,-3182.885551,-1838.629195,1554.432478
1413.034759,-148.041188,-459.657299,-962.267725
1413.035071,222.061783,2145.067394,-1332.370696
1413.035382,-4737.318029,3447.429741,-1332.370696
1413.035693,-10436.903782,3064.381992,1258.350101
1413.036005,-13989.892304,1838.629195,4663.297435
1413.036316,-15026.180623,766.095498,7402.059420
1413.036627,-12435.459826,0.000000,7179.997637
1413.036939,-8364.327145,-689.485948,5107.421000
1413.037250,-5033.400406,-1608.800546,2220.617826
1413.037562,-1702.473667,-919.314598,-444.123565
1413.037873,-518.144159,995.924147,-2146.597232
1413.038184,-4737.318029,2298.286494,-2146.597232
1413.038496,-9178.553681,2451.505594,-0.000000
1413.038807,-13397.727550,1608.800546,2368.659014
1413.039118,-15692.365970,995.924147,4959.379811
1413.039430,-15248.242405,766.095498,6069.688724
1413.039741,-12805.562797,0.000000,4737.318029
1413.040053,-9326.594869,-1225.752797,888.247130
1413.040364,-4219.173869,-1225.752797,-2072.576638
1413.040675,-814.226536,1302.362347,-5773.606348
1413.040987,-2368.659014,2298.286494,-5773.606348
1413.041298,-8734.430116,2451.505594,-3701.029710
1413.041610,-14508.036463,1072.533697,-74.020594
1413.041921,-18505.148550,153.219100,4071.132681
1413.042232,-19023.292709,-1149.143247,6439.791695
1413.042544,-15692.365970,-1991.848295,4959.379811
1413.042855,-9696.697840,-3447.429741,1628.453072
1413.043166,-2220.617826,-3140.991542,-3404.947333
1413.043478,4145.153275,-1915.238745,-7920.203579
1413.043789,2516.700203,459.657299,-7105.977043
1413.044101,-6365.771101,1455.581446,-4145.153275
1413.044412,-15914.427753,0.000000,222.061783
1413.044723,-20725.766376,-766.095498,4811.338623
1413.045035,-21317.931130,-1685.410096,7254.018232
1413.045346,-14952.160028,-1685.410096,5107.421000
1413.045658,-6809.894666,-1685.410096,296.082377
1413.045969,740.205942,-842.705048,-6217.729913
1413.046280,5625.565159,153.219100,-9474.636058
1413.046592,2738.761985,2604.724693,-8216.285956
1413.046903,-6217.729913,3983.696590,-5477.523971
1413.047214,-16506.592507,3294.210641,-222.061783
1413.047526,-21317.931130,1072.533697,3701.029710
1413.047837,-19171.333898,383.047749,5773.606348
1413.048149,-13471.748144,-536.266849,2738.761985
1413.048460,-5995.668130,-1455.581446,-592.164754
1413.048771,-1184.329507,-2911.162892,-5107.421000
1413.049083,2368.659014,-3064.381992,-7994.224174
1413.049394,-370.102971,-612.876398,-5773.606348
1413.049705,-8734.430116,229.828649,-2960.823768
1413.050017,-17172.777854,153.219100,2960.823768
1413.050328,-22280.198854,-842.705048,6291.750507
1413.050640,-19837.519246,-689.485948,7031.956449
1413.050951,-12805.562797,-1072.533697,5403.503377
1413.051262,-6291.750507,-1225.752797,1998.556043
1413.051574,-2442.679609,-1378.971896,-2294.638420
1413.051885,74.020594,-1072.533697,-5551.544565
1413.052197,-1406.391290,995.924147,-4441.235652
1413.052508,-7402.059420,3294.210641,-2442.679609
1413.052819,-13175.665768,3140.991542,1924.535449
1413.053131,-16432.571912,1685.410096,4441.235652
1413.053442,-15322.262999,-766.095498,6735.874072
1413.053753,-11695.253884,-1991.848295,5995.668130
1413.054065,-7550.100608,-2221.676944,3256.906145
1413.054376,-4145.153275,-1072.533697,-296.082377
1413.054688,-1258.350101,-229.828649,-3034.844362
1413.054999,-1184.329507,0.000000,-3182.885551
1413.055310,-5181.441594,842.705048,-2516.700203
1413.055622,-10807.006753,2145.067394,222.061783
1413.055933,-15692.365970,1302.362347,3997.112087
1413.056244,-16580.613101,-612.876398,6661.853478
1413.056556,-13249.686362,-1532.190996,7105.977043
1413.056867,-9030.512492,-2451.505594,4959.379811
1413.057179,-4885.359217,-2221.676944,1184.329507
1413.057490,-1554.432478,-1225.752797,-2664.741391
1413.057801,296.082377,1608.800546,-3552.988522
1413.058113,-2812.782580,2757.943793,-3701.029710
1413.058424,-9030.512492,2911.162892,-1554.432478
1413.058736,-14137.933492,1991.848295,2368.659014
1413.059047,-16728.654289,842.705048,4811.338623
1413.059358,-15470.304188,-153.219100,6439.791695
1413.059670,-11621.233289,-229.828649,4811.338623
1413.059981,-7254.018232,-1149.143247,1258.350101
1413.060292,-3108.864956,-1455.581446,-2368.659014
1413.060604,814.226536,-383.047749,-4959.379811
1413.060915,-1628.453072,689.485948,-4589.276840
1413.061227,-7920.203579,2298.286494,-2072.576638
1413.061538,-14508.036463,536.266849,1628.453072
1413.061849,-18505.148550,-842.705048,5329.482782
1413.062161,-17987.004391,-1302.362347,7179.997637
1413.062472,-13915.871710,-2298.286494,5329.482782
1413.062784,-7994.224174,-1991.848295,2220.617826
1413.063095,-3552.988522,-2068.457845,-1628.453072
1413.063406,222.061783,-1225.752797,-3775.050304
1413.063718,222.061783,-689.485948,-4367.215058
1413.064029,-5033.400406,153.219100,-3404.947333
1413.064340,-10881.027347,1225.752797,-222.061783
1413.064652,-15766.386565,1685.410096,3552.988522
1413.064963,-18727.210333,229.828649,6587.832884
1413.065275,-16136.489536,-919.314598,5551.544565
1413.065586,-10732.986159,-1685.410096,2368.659014
1413.065897,-4589.276840,-1225.752797,-1924.535449
1413.066209,1332.370696,306.438199,-5921.647536
1413.066520,1850.514855,995.924147,-7402.059420
1413.066831,-2886.803174,1685.410096,-5477.523971
1413.067143,-10510.924376,1225.752797,-1332.370696
1413.067454,-16580.613101,-153.219100,2516.700203
1413.067766,-18949.272115,-306.438199,5921.647536
1413.068077,-16506.592507,-1378.971896,5847.626942
1413.068388,-11029.068536,-2068.457845,2738.761985
1413.068700,-5699.585753,-1915.238745,-1702.473667
1413.069011,-962.267725,-919.314598,-6217.729913
1413.069323,592.164754,766.095498,-7105.977043
1413.069634,-3997.112087,2987.772442,-6143.709319
1413.069945,-11103.089130,3140.991542,-3330.926739
1413.070257,-16580.613101,1455.581446,1110.308913
1413.070568,-18505.148550,-153.219100,4589.276840
1413.070879,-16210.510130,-1072.533697,5033.400406
1413.071191,-12435.459826,-2374.896044,3478.967927
1413.071502,-8586.388927,-1838.629195,-592.164754
1413.071814,-4885.359217,-1149.143247,-3108.864956
1413.072125,-2368.659014,689.485948,-4663.297435
1413.072436,-3108.864956,-1149.143247,-3997.112087
1413.072748,-8438.347739,0.000000,-2294.638420
1413.073059,-13323.706956,-995.924147,1554.432478
1413.073371,-14582.057057,-1302.362347,4219.173869
1413.073682,-13323.706956,-2298.286494,5847.626942
1413.073993,-11177.109724,-2451.505594,4293.194464
1413.074305,-7772.162391,-3447.429741,1406.391290
1413.074616,-5329.482782,-1991.848295,-1628.453072
1413.074927,-3108.864956,1532.190996,-3034.844362
1413.075239,-4589.276840,2757.943793,-3256.906145
1413.075550,-8438.347739,3140.991542,-1554.432478
1413.075862,-11843.295072,1762.019645,1110.308913
1413.076173,-12953.603985,612.876398,3775.050304
1413.076484,-12509.480420,-153.219100,4663.297435
1413.076796,-10807.006753,-536.266849,4219.173869
1413.077107,-8290.306550,-766.095498,1702.473667
1413.077418,-5329.482782,-842.705048,-962.267725
1413.077730,-2294.638420,-689.485948,-1924.535449
1413.078041,-3552.988522,842.705048,-2220.617826
1413.078353,-7846.182985,1072.533697,-74.020594
1413.078664,-12509.480420,536.266849,1998.556043
1413.078975,-14434.015869,0.000000,4737.318029
1413.079287,-12879.583391,-459.657299,6587.832884
1413.079598,-10732.986159,-919.314598,5329.482782
1413.079910,-7031.956449,-1455.581446,3849.070898
1413.080221,-5329.482782,-1455.581446,1184.329507
1413.080532,-2812.782580,-229.828649,-1332.370696
1413.080844,-2442.679609,2068.457845,-1702.473667
1413.081155,-6365.771101,2604.724693,-1184.329507
1413.081466,-11399.171507,2528.115143,1184.329507
1413.081778,-14137.933492,1225.752797,3182.885551
1413.082089,-13323.706956,76.609550,4885.359217
1413.082401,-10140.821405,-1378.971896,4589.276840
1413.082712,-7328.038826,-1915.238745,1998.556043
1413.083023,-5181.441594,-1225.752797,-296.082377
1413.083335,-3552.988522,-229.828649,-1702.473667
1413.083646,-5625.565159,0.000000,-666.185348
1413.083957,-8882.471304,0.000000,-0.000000
1413.084269,-11177.109724,-383.047749,-74.020594
1413.084580,-12361.439231,383.047749,1406.391290
1413.084892,-11547.212695,459.657299,3182.885551
1413.085203,-11325.150913,-1072.533697,3404.947333
1413.085514,-9844.739029,-2451.505594,2146.597232
1413.085826,-8512.368333,-2604.724693,296.082377
1413.086137,-7328.038826,-1608.800546,-962.267725
1413.086449,-4959.379811,1302.362347,-2294.638420
1413.086760,-6513.812290,2145.067394,-3478.967927
1413.087071,-10288.862594,1991.848295,-2812.782580
1413.087383,-11843.295072,1378.971896,222.061783
1413.087694,-12287.418637,1302.362347,2516.700203
1413.088005,-11991.336260,229.828649,2812.782580
1413.088317,-10881.027347,-1072.533697,1258.350101
1413.088628,-8512.368333,-1608.800546,-814.226536
1413.088940,-4737.318029,-1302.362347,-3552.988522
1413.089251,-2146.597232,842.705048,-3701.029710
1413.089562,-5255.462188,459.657299,-3701.029710
1413.089874,-10436.903782,0.000000,-2220.617826
1413.090185,-14285.974681,-229.828649,-0.000000
1413.090497,-15840.407159,-306.438199,3404.947333
1413.090808,-14878.139434,-766.095498,4737.318029
1413.091119,-11769.274478,-1608.800546,3108.864956
1413.091431,-7550.100608,-1915.238745,518.144159
1413.091742,-4737.318029,-1762.019645,-1998.556043
1413.092053,-3552.988522,995.924147,-2886.803174
1413.092365,-5329.482782,2451.505594,-1776.494261
1413.092676,-10288.862594,2221.676944,-444.123565
1413.092988,-14137.933492,919.314598,1924.535449
1413.093299,-14285.974681,995.924147,3627.009116
1413.093610,-10584.944971,0.000000,4441.235652
1413.093922,-8142.265362,153.219100,3627.009116
1413.094233,-6365.771101,-1685.410096,1702.473667
1413.094544,-4515.256246,-1915.238745,-370.102971
1413.094856,-2960.823768,-842.705048,-814.226536
1413.095167,-4145.153275,766.095498,-296.082377
1413.095479,-8586.388927,766.095498,814.226536
1413.095790,-12509.480420,766.095498,1554.432478
1413.096101,-13249.686362,0.000000,3775.050304
1413.096413,-12065.356855,76.609550,4515.256246
1413.096724,-8660.409521,-766.095498,4293.194464
1413.097036,-6587.832884,-1915.238745,2220.617826
