#time,accel_x,accel_y,accel_z
1290.103235,-8956.491898,0.000000,592.164754
1290.103546,-9030.512492,0.000000,444.123565
1290.103858,-9030.512492,0.000000,518.144159
1290.104169,-9030.512492,229.828649,592.164754
1290.104481,-8956.491898,0.000000,222.061783
1290.104793,-8734.430116,0.000000,148.041188
1290.105104,-8586.388927,76.609550,370.102971
1290.105416,-8660.409521,306.438199,740.205942
1290.105728,-8956.491898,0.000000,296.082377
1290.106039,-9030.512492,0.000000,518.144159
1290.106351,-9030.512492,0.000000,518.144159
1290.106663,-9030.512492,-153.219100,444.123565
1290.106974,-8660.409521,229.828649,370.102971
1290.107286,-9178.553681,-995.924147,296.082377
1290.107597,-8882.471304,0.000000,666.185348
1290.107909,-8956.491898,0.000000,666.185348
1290.108221,-8956.491898,0.000000,592.164754
1290.108532,-9030.512492,0.000000,444.123565
1290.108844,-9104.533087,0.000000,592.164754
1290.109156,-8882.471304,0.000000,518.144159
1290.109467,-8808.450710,76.609550,444.123565
1290.109779,-8808.450710,383.047749,444.123565
1290.110091,-9030.512492,0.000000,370.102971
1290.110402,-8660.409521,-153.219100,592.164754
1290.110714,-8882.471304,-229.828649,518.144159
1290.111025,-9030.512492,0.000000,518.144159
1290.111337,-8956.491898,0.000000,518.144159
1290.111649,-8808.450710,0.000000,592.164754
1290.111960,-9252.574275,-306.438199,814.226536
1290.112272,-8882.471304,-153.219100,1110.308913
1290.112584,-9030.512492,0.000000,444.123565
1290.112895,-9178.553681,0.000000,444.123565
1290.113207,-8882.471304,0.000000,518.144159
1290.113519,-9178.553681,0.000000,444.123565
1290.113830,-9104.533087,-153.219100,518.144159
1290.114142,-9104.533087,153.219100,518.144159
1290.114453,-8882.471304,-153.219100,296.082377
1290.114765,-8882.471304,229.828649,222.061783
1290.115077,-9104.533087,0.000000,148.041188
1290.115388,-8956.491898,-229.828649,222.061783
1290.115700,-8956.491898,0.000000,592.164754
1290.116012,-8956.491898,0.000000,592.164754
1290.116323,-8882.471304,-153.219100,592.164754
1290.116635,-8734.430116,0.000000,148.041188
1290.116947,-8956.491898,0.000000,518.144159
1290.117258,-9030.512492,0.000000,592.164754
1290.117570,-8956.491898,-76.609550,148.041188
1290.117881,-9030.512492,-153.219100,518.144159
1290.118193,-9030.512492,0.000000,592.164754
1290.118505,-8882.471304,0.000000,592.164754
1290.118816,-9030.512492,0.000000,370.102971
1290.119128,-8956.491898,0.000000,592.164754
1290.119440,-8808.450710,-842.705048,740.205942
1290.119751,-8956.491898,0.000000,444.123565
1290.120063,-8882.471304,-306.438199,740.205942
1290.120375,-9030.512492,0.000000,666.185348
1290.120686,-8882.471304,153.219100,518.144159
1290.120998,-8882.471304,-153.219100,444.123565
1290.121309,-8808.450710,0.000000,518.144159
1290.121621,-8660.409521,-306.438199,370.102971
1290.121933,-8734.430116,0.000000,666.185348
1290.122244,-8734.430116,0.000000,592.164754
1290.122556,-8956.491898,153.219100,296.082377
1290.122868,-8956.491898,0.000000,518.144159
1290.123179,-9104.533087,0.000000,444.123565
1290.123491,-9030.512492,-153.219100,592.164754
1290.123803,-9178.553681,-153.219100,148.041188
1290.124114,-8882.471304,0.000000,296.082377
1290.124426,-8586.388927,-153.219100,296.082377
1290.124737,-9178.553681,383.047749,296.082377
1290.125049,-8882.471304,0.000000,592.164754
1290.125361,-8808.450710,0.000000,592.164754
1290.125672,-8734.430116,-229.828649,518.144159
1290.125984,-8808.450710,-153.219100,592.164754
1290.126296,-9030.512492,-229.828649,814.226536
1290.126607,-8808.450710,0.000000,444.123565
1290.126919,-8438.347739,-306.438199,518.144159
1290.127231,-8956.491898,-612.876398,666.185348
1290.127542,-9030.512492,0.000000,370.102971
1290.127854,-9104.533087,0.000000,370.102971
1290.128165,-8956.491898,0.000000,592.164754
1290.128477,-8808.450710,0.000000,518.144159
1290.128789,-8512.368333,-306.438199,518.144159
1290.129100,-8734.430116,229.828649,222.061783
1290.129412,-8956.491898,383.047749,-0.000000
1290.129724,-8882.471304,-536.266849,592.164754
1290.130035,-8956.491898,-153.219100,666.185348
1290.130347,-9104.533087,0.000000,518.144159
1290.130659,-8808.450710,0.000000,518.144159
1290.130970,-8956.491898,153.219100,518.144159
1290.131282,-8956.491898,76.609550,444.123565
1290.131593,-8882.471304,383.047749,148.041188
1290.131905,-8438.347739,-229.828649,370.102971
1290.132217,-8882.471304,-153.219100,666.185348
1290.132528,-8882.471304,0.000000,518.144159
1290.132840,-9030.512492,-153.219100,592.164754
1290.133152,-8882.471304,-153.219100,592.164754
1290.133463,-8956.491898,0.000000,518.144159
1290.133775,-8882.471304,0.000000,444.123565
1290.134087,-8808.450710,612.876398,962.267725
1290.134398,-8734.430116,306.438199,518.144159
1290.134710,-8882.471304,0.000000,518.144159
1290.135022,-8808.450710,76.609550,592.164754
1290.135333,-8882.471304,76.609550,592.164754
1290.135645,-8734.430116,0.000000,518.144159
1290.135956,-8586.388927,-229.828649,518.144159
1290.136268,-8734.430116,-459.657299,444.123565
1290.136580,-8808.450710,0.000000,518.144159
1290.136891,-8660.409521,-612.876398,370.102971
1290.137203,-8882.471304,0.000000,592.164754
1290.137515,-8882.471304,-229.828649,444.123565
1290.137826,-8808.450710,0.000000,592.164754
1290.138138,-9030.512492,76.609550,444.123565
1290.138450,-9104.533087,306.438199,370.102971
1290.138761,-9326.594869,76.609550,-0.000000
1290.139073,-9104.533087,842.705048,222.061783
1290.139384,-10510.924376,612.876398,148.041188
1290.139696,-11695.253884,2221.676944,296.082377
1290.140008,-9104.533087,4596.572988,740.205942
1290.140319,-7698.141797,4290.134789,740.205942
1290.140631,-6661.853478,1608.800546,1406.391290
1290.140943,-6883.915261,-766.095498,518.144159
1290.141254,-7105.977043,-766.095498,740.205942
1290.141566,-7105.977043,-459.657299,-74.020594
1290.141878,-10955.047942,-842.705048,-814.226536
1290.142189,-13175.665768,-536.266849,-740.205942
1290.142501,-10658.965565,1225.752797,518.144159
1290.142812,-9178.553681,306.438199,888.247130
1290.143124,-8808.450710,-153.219100,2442.679609
1290.143436,-10955.047942,-459.657299,1406.391290
1290.143747,-8808.450710,3753.867940,2442.679609
1290.144059,-5403.503377,5592.497135,1776.494261
1290.144371,-7476.080014,3370.820191,1628.453072
1290.144682,-8364.327145,2145.067394,-222.061783
1290.144994,-7402.059420,2987.772442,-1554.432478
1290.145306,-8586.388927,3064.381992,-1480.411884
1290.145617,-8068.244768,3907.087040,-296.082377
1290.145929,-10881.027347,2757.943793,-1406.391290
1290.146240,-14137.933492,383.047749,-0.000000
1290.146552,-9104.533087,-1378.971896,2738.761985
1290.146864,-10362.883188,0.000000,740.205942
1290.147175,-9548.656652,5056.230287,2368.659014
1290.147487,-7772.162391,6971.469032,1554.432478
1290.147799,-8068.244768,3677.258390,2072.576638
1290.148110,-5773.606348,4519.963438,2368.659014
1290.148422,-6735.874072,7201.297681,222.061783
1290.148734,-8068.244768,7354.516781,-444.123565
1290.149045,-9918.759623,5439.278036,-1036.288319
1290.149357,-9770.718434,4596.572988,-1036.288319
1290.149668,-9844.739029,5209.449386,-1628.453072
1290.149980,-11399.171507,4903.011187,-296.082377
1290.150292,-11399.171507,4213.525239,962.267725
1290.150603,-10436.903782,3370.820191,2146.597232
1290.150915,-9474.636058,4673.182538,2960.823768
1290.151227,-6809.894666,4979.620737,2368.659014
1290.151538,-5773.606348,5515.887586,1110.308913
1290.151850,-5551.544565,4903.011187,888.247130
1290.152162,-4737.318029,5209.449386,222.061783
1290.152473,-5847.626942,4903.011187,-1332.370696
1290.152785,-7994.224174,4596.572988,-592.164754
1290.153096,-9400.615463,3370.820191,-0.000000
1290.153408,-10955.047942,1302.362347,-0.000000
1290.153720,-11473.192101,536.266849,888.247130
1290.154031,-10658.965565,306.438199,1554.432478
1290.154343,-11473.192101,153.219100,1184.329507
1290.154655,-9844.739029,2604.724693,2220.617826
1290.154966,-8068.244768,3753.867940,1332.370696
1290.155278,-6957.935855,3907.087040,592.164754
1290.155590,-6143.709319,3677.258390,666.185348
1290.155901,-6735.874072,4290.134789,-666.185348
1290.156213,-6661.853478,4290.134789,-518.144159
1290.156524,-6957.935855,2528.115143,-1406.391290
1290.156836,-8882.471304,-383.047749,-814.226536
1290.157148,-10436.903782,-1991.848295,-296.082377
1290.157459,-11843.295072,-1608.800546,592.164754
1290.157771,-12953.603985,-1608.800546,1332.370696
1290.158083,-13619.789333,-1072.533697,1554.432478
1290.158394,-13101.645173,0.000000,1628.453072
1290.158706,-11621.233289,995.924147,370.102971
1290.159018,-8216.285956,3830.477490,222.061783
1290.159329,-6439.791695,4213.525239,-0.000000
1290.159641,-5995.668130,4596.572988,296.082377
1290.159952,-6143.709319,5286.058936,666.185348
1290.160264,-7698.141797,3447.429741,592.164754
1290.160576,-9770.718434,1838.629195,-74.020594
1290.160887,-11325.150913,1225.752797,-370.102971
1290.161199,-11547.212695,306.438199,-0.000000
1290.161511,-12657.521608,-689.485948,-74.020594
1290.161822,-12435.459826,-995.924147,444.123565
1290.162134,-11843.295072,459.657299,814.226536
1290.162446,-9548.656652,2604.724693,1924.535449
1290.162757,-8512.368333,3064.381992,2072.576638
1290.163069,-5551.544565,3830.477490,2960.823768
1290.163380,-3034.844362,4673.182538,222.061783
1290.163692,-1480.411884,4903.011187,-518.144159
1290.164004,-1480.411884,3140.991542,-1332.370696
1290.164315,-5403.503377,459.657299,-1110.308913
1290.164627,-9918.759623,-153.219100,-296.082377
1290.164939,-13323.706956,536.266849,962.267725
1290.165250,-15322.262999,0.000000,2516.700203
1290.165562,-14730.098246,0.000000,3627.009116
1290.165874,-12435.459826,536.266849,3034.844362
1290.166185,-8586.388927,1072.533697,1776.494261
1290.166497,-5033.400406,2528.115143,1110.308913
1290.166808,-2294.638420,4290.134789,-0.000000
1290.167120,-1702.473667,5209.449386,-962.267725
1290.167432,-2664.741391,3907.087040,-1924.535449
1290.167743,-6291.750507,1072.533697,-1332.370696
1290.168055,-9696.697840,153.219100,-518.144159
1290.168367,-11695.253884,-306.438199,-74.020594
1290.168678,-12879.583391,-1915.238745,888.247130
1290.168990,-13175.665768,-4596.572988,1850.514855
1290.169302,-12435.459826,-5898.935335,2146.597232
1290.169613,-11103.089130,-5209.449386,1628.453072
1290.169925,-9178.553681,-2757.943793,1332.370696
1290.170236,-8734.430116,-1608.800546,296.082377
1290.170548,-8586.388927,689.485948,296.082377
1290.170860,-8290.306550,1762.019645,-518.144159
1290.171171,-8586.388927,2528.115143,-888.247130
1290.171483,-8882.471304,2298.286494,-814.226536
1290.171795,-9178.553681,1378.971896,-518.144159
1290.172106,-9622.677246,536.266849,-148.041188
1290.172418,-10214.842000,-1072.533697,592.164754
1290.172730,-10140.821405,-1838.629195,1406.391290
1290.173041,-11177.109724,-3140.991542,1184.329507
1290.173353,-11251.130318,-2757.943793,1924.535449
1290.173664,-11103.089130,-1455.581446,1110.308913
1290.173976,-10732.986159,842.705048,-0.000000
1290.174288,-9474.636058,2911.162892,-666.185348
1290.174599,-8734.430116,3447.429741,-1480.411884
1290.174911,-7179.997637,3370.820191,-1924.535449
1290.175223,-6809.894666,2681.334243,-2590.720797
1290.175534,-6217.729913,3140.991542,-1110.308913
1290.175846,-7031.956449,1685.410096,-296.082377
1290.176158,-8216.285956,0.000000,1258.350101
1290.176469,-9622.677246,-2374.896044,2294.638420
1290.176781,-10658.965565,-2145.067394,3478.967927
1290.177092,-12065.356855,-766.095498,3775.050304
1290.177404,-11621.233289,76.609550,3256.906145
1290.177716,-8438.347739,766.095498,1036.288319
1290.178027,-5773.606348,1378.971896,-370.102971
1290.178339,-4441.235652,1149.143247,-666.185348
1290.178651,-5403.503377,1378.971896,-1702.473667
1290.178962,-6217.729913,2451.505594,-1406.391290
1290.179274,-6883.915261,2451.505594,-1036.288319
1290.179586,-7550.100608,1378.971896,814.226536
1290.179897,-8882.471304,383.047749,1110.308913
1290.180209,-9622.677246,-612.876398,2516.700203
1290.180521,-9474.636058,-2681.334243,2960.823768
1290.180832,-8586.388927,-3447.429741,3478.967927
1290.181144,-8068.244768,-2145.067394,2442.679609
1290.181455,-8882.471304,-1378.971896,592.164754
1290.181767,-9400.615463,-612.876398,-222.061783
1290.182079,-9770.718434,919.314598,-666.185348
1290.182390,-9474.636058,1991.848295,-1184.329507
1290.182702,-9400.615463,2604.724693,-888.247130
1290.183014,-9770.718434,1991.848295,-296.082377
1290.183325,-9622.677246,306.438199,296.082377
1290.183637,-8364.327145,-1608.800546,1998.556043
1290.183949,-8068.244768,-3370.820191,2812.782580
1290.184260,-8586.388927,-3370.820191,2960.823768
1290.184571,-9548.656652,-2681.334243,2146.597232
1290.184883,-10807.006753,-1838.629195,1332.370696
1290.185194,-11843.295072,-612.876398,592.164754
1290.185506,-11547.212695,689.485948,-444.123565
1290.185817,-11473.192101,2374.896044,-1480.411884
1290.186128,-9992.780217,1608.800546,-2294.638420
1290.186440,-8808.450710,612.876398,-2368.659014
1290.186751,-7698.141797,-153.219100,-1184.329507
1290.187063,-7031.956449,-766.095498,-518.144159
1290.187374,-7994.224174,-1762.019645,592.164754
1290.187685,-8956.491898,-1915.238745,2368.659014
1290.187997,-10807.006753,-995.924147,3627.009116
1290.188308,-11917.315666,-1302.362347,4071.132681
1290.188620,-10807.006753,-536.266849,2516.700203
1290.188931,-9178.553681,536.266849,1258.350101
1290.189242,-7476.080014,229.828649,-74.020594
1290.189554,-6143.709319,689.485948,-1036.288319
1290.189865,-6513.812290,1455.581446,-2368.659014
1290.190177,-7179.997637,1455.581446,-1702.473667
1290.190488,-7550.100608,919.314598,-814.226536
1290.190799,-7846.182985,1149.143247,-518.144159
1290.191111,-8660.409521,995.924147,370.102971
1290.191422,-8216.285956,612.876398,1702.473667
1290.191734,-8290.306550,-689.485948,1924.535449
1290.192045,-7772.162391,-612.876398,2516.700203
1290.192356,-6513.812290,-1149.143247,1184.329507
1290.192668,-6069.688724,-1149.143247,962.267725
1290.192979,-7179.997637,-842.705048,-370.102971
1290.193291,-8882.471304,0.000000,-666.185348
1290.193602,-10658.965565,76.609550,-1110.308913
1290.193913,-11991.336260,689.485948,-370.102971
1290.194225,-11547.212695,1225.752797,-0.000000
1290.194536,-10140.821405,995.924147,-0.000000
1290.194848,-8512.368333,-1149.143247,370.102971
1290.195159,-5921.647536,-689.485948,1702.473667
1290.195470,-6143.709319,-1608.800546,2072.576638
1290.195782,-7031.956449,-2604.724693,1998.556043
1290.196093,-8956.491898,-2145.067394,1554.432478
1290.196405,-10584.944971,-1378.971896,962.267725
1290.196716,-11251.130318,-536.266849,370.102971
1290.197027,-12953.603985,842.705048,-444.123565
1290.197339,-12213.398043,1455.581446,-1332.370696
1290.197650,-10584.944971,1225.752797,-1332.370696
1290.197962,-9548.656652,-153.219100,-1258.350101
1290.198273,-8290.306550,-383.047749,-740.205942
1290.198584,-7846.182985,306.438199,-370.102971
1290.198896,-8586.388927,76.609550,518.144159
1290.199207,-9104.533087,-536.266849,1554.432478
1290.199519,-9918.759623,-459.657299,2220.617826
1290.199830,-10436.903782,229.828649,1998.556043
1290.200141,-9844.739029,536.266849,2146.597232
1290.200453,-9252.574275,-153.219100,814.226536
1290.200764,-8660.409521,-612.876398,370.102971
1290.201076,-7624.121203,-612.876398,-296.082377
1290.201387,-7105.977043,-842.705048,-1110.308913
1290.201699,-7772.162391,-229.828649,-666.185348
1290.202010,-8956.491898,0.000000,444.123565
1290.202321,-8808.450710,-766.095498,370.102971
1290.202633,-8364.327145,-306.438199,1258.350101
1290.202944,-8142.265362,76.609550,1776.494261
1290.203256,-7476.080014,-766.095498,1924.535449
1290.203567,-6809.894666,-1762.019645,1924.535449
1290.203878,-6883.915261,-2451.505594,1332.370696
1290.204190,-7254.018232,-1685.410096,1110.308913
1290.204501,-7846.182985,-383.047749,222.061783
1290.204813,-9474.636058,153.219100,-222.061783
1290.205124,-10510.924376,0.000000,-0.000000
1290.205435,-10955.047942,306.438199,222.061783
1290.205747,-10140.821405,1762.019645,1036.288319
1290.206058,-9252.574275,1762.019645,1258.350101
1290.206370,-8290.306550,306.438199,1332.370696
1290.206681,-6291.750507,-995.924147,1776.494261
1290.206992,-5477.523971,0.000000,1406.391290
1290.207304,-5699.585753,306.438199,444.123565
1290.207615,-8586.388927,995.924147,-222.061783
1290.207927,-10066.800811,1838.629195,-222.061783
1290.208238,-10955.047942,1991.848295,-666.185348
1290.208549,-12435.459826,1532.190996,-962.267725
1290.208861,-11843.295072,1991.848295,-814.226536
1290.209172,-10584.944971,1302.362347,-592.164754
1290.209484,-8734.430116,-536.266849,148.041188
1290.209795,-7698.141797,-1378.971896,1036.288319
1290.210106,-7846.182985,-1072.533697,740.205942
1290.210418,-8956.491898,-459.657299,1332.370696
1290.210729,-9992.780217,-383.047749,1702.473667
1290.211041,-10732.986159,0.000000,2072.576638
1290.211352,-10807.006753,766.095498,1184.329507
1290.211663,-9474.636058,919.314598,666.185348
1290.211975,-8956.491898,-306.438199,-592.164754
1290.212286,-7920.203579,-229.828649,-370.102971
1290.212598,-7476.080014,0.000000,-518.144159
1290.212909,-7698.141797,-919.314598,-74.020594
1290.213220,-8586.388927,-1302.362347,444.123565
1290.213532,-9474.636058,-306.438199,-0.000000
1290.213843,-9252.574275,306.438199,518.144159
1290.214155,-8882.471304,383.047749,518.144159
1290.214466,-8364.327145,-459.657299,888.247130
1290.214777,-7846.182985,-1149.143247,1110.308913
1290.215089,-7254.018232,-2298.286494,1036.288319
1290.215400,-6365.771101,-2604.724693,1110.308913
1290.215712,-7105.977043,-2221.676944,444.123565
1290.216023,-9474.636058,-1838.629195,-0.000000
1290.216334,-10955.047942,-2221.676944,148.041188
1290.216646,-11843.295072,-612.876398,222.061783
1290.216957,-10881.027347,1072.533697,888.247130
1290.217269,-9992.780217,1378.971896,1332.370696
1290.217580,-9178.553681,0.000000,1702.473667
1290.217892,-6735.874072,-383.047749,1776.494261
1290.218203,-5477.523971,0.000000,1258.350101
1290.218514,-4811.338623,-306.438199,740.205942
1290.218826,-6365.771101,-383.047749,-1036.288319
1290.219137,-9326.594869,536.266849,-1554.432478
1290.219449,-10288.862594,306.438199,-740.205942
1290.219760,-11547.212695,306.438199,-296.082377
1290.220071,-12731.542202,612.876398,-74.020594
1290.220383,-12361.439231,459.657299,518.144159
1290.220694,-10881.027347,0.000000,444.123565
1290.221006,-8956.491898,-612.876398,518.144159
1290.221317,-6809.894666,0.000000,740.205942
1290.221628,-7328.038826,0.000000,222.061783
1290.221940,-8290.306550,0.000000,888.247130
1290.222251,-8512.368333,383.047749,1184.329507
1290.222563,-9770.718434,919.314598,666.185348
1290.222874,-9918.759623,995.924147,814.226536
1290.223185,-10436.903782,612.876398,370.102971
1290.223497,-10288.862594,-1149.143247,222.061783
1290.223808,-8142.265362,-536.266849,370.102971
1290.224120,-7328.038826,-919.314598,296.082377
1290.224431,-8216.285956,-919.314598,370.102971
1290.224742,-8734.430116,153.219100,592.164754
1290.225054,-8808.450710,919.314598,592.164754
1290.225365,-8660.409521,995.924147,592.164754
1290.225677,-7846.182985,536.266849,1110.308913
1290.225988,-6883.915261,689.485948,-0.000000
1290.226299,-6365.771101,0.000000,-0.000000
1290.226611,-5847.626942,-1532.190996,222.061783
1290.226922,-7402.059420,-2374.896044,148.041188
1290.227234,-8882.471304,-2374.896044,740.205942
1290.227545,-10214.842000,-1991.848295,962.267725
1290.227856,-12139.377449,-1532.190996,666.185348
1290.228168,-12583.501014,0.000000,1184.329507
1290.228479,-12435.459826,1225.752797,740.205942
1290.228791,-10288.862594,919.314598,1850.514855
1290.229102,-8068.244768,612.876398,1480.411884
1290.229413,-5921.647536,306.438199,1036.288319
1290.229725,-5255.462188,-306.438199,148.041188
1290.230036,-5107.421000,-153.219100,-0.000000
1290.230348,-6883.915261,229.828649,-1184.329507
1290.230659,-9252.574275,0.000000,-814.226536
1290.230970,-9992.780217,-229.828649,-148.041188
1290.231282,-12287.418637,153.219100,-666.185348
1290.231593,-12805.562797,612.876398,444.123565
1290.231905,-11399.171507,842.705048,370.102971
1290.232216,-10066.800811,766.095498,740.205942
1290.232527,-8290.306550,689.485948,888.247130
1290.232839,-7105.977043,1149.143247,444.123565
1290.233150,-7105.977043,1378.971896,592.164754
1290.233462,-7772.162391,1378.971896,-0.000000
1290.233773,-9178.553681,1225.752797,148.041188
1290.234084,-10436.903782,1149.143247,296.082377
1290.234396,-10140.821405,1302.362347,296.082377
1290.234707,-9992.780217,459.657299,-0.000000
1290.235019,-9178.553681,-383.047749,370.102971
1290.235330,-8290.306550,-612.876398,740.205942
1290.235642,-8438.347739,-612.876398,666.185348
1290.235953,-8660.409521,-229.828649,814.226536
1290.236264,-8660.409521,612.876398,814.226536
1290.236576,-8734.430116,1378.971896,1036.288319
1290.236887,-8290.306550,1225.752797,740.205942
1290.237199,-7328.038826,612.876398,814.226536
1290.237510,-6735.874072,0.000000,-74.020594
1290.237821,-6365.771101,-995.924147,-0.000000
1290.238133,-6217.729913,-1762.019645,-222.061783
1290.238444,-7698.141797,-2374.896044,-0.000000
1290.238756,-9844.739029,-2298.286494,592.164754
1290.239067,-11325.150913,-1532.190996,1258.350101
1290.239378,-12731.542202,-689.485948,1184.329507
1290.239690,-12731.542202,536.266849,1554.432478
1290.240001,-10881.027347,1685.410096,1850.514855
1290.240313,-9400.615463,2298.286494,1850.514855
1290.240624,-6439.791695,689.485948,2146.597232
1290.240935,-4589.276840,-919.314598,962.267725
1290.241247,-4663.297435,-1455.581446,370.102971
1290.241558,-5033.400406,-919.314598,-370.102971
1290.241870,-7624.121203,-842.705048,-1258.350101
1290.242181,-10288.862594,-766.095498,-1110.308913
1290.242492,-11695.253884,-459.657299,-370.102971
1290.242804,-13915.871710,-153.219100,222.061783
1290.243115,-12879.583391,306.438199,888.247130
1290.243427,-12139.377449,0.000000,888.247130
1290.243738,-10066.800811,536.266849,962.267725
1290.244049,-7624.121203,459.657299,962.267725
1290.244361,-6513.812290,842.705048,148.041188
1290.244672,-6809.894666,689.485948,-0.000000
1290.244984,-7846.182985,306.438199,296.082377
1290.245295,-9178.553681,995.924147,-222.061783
1290.245606,-10436.903782,306.438199,444.123565
1290.245918,-10362.883188,-306.438199,814.226536
1290.246229,-9992.780217,-919.314598,814.226536
1290.246541,-9326.594869,-1685.410096,1258.350101
1290.246852,-8734.430116,-1378.971896,1036.288319
1290.247163,-8216.285956,-995.924147,962.267725
1290.247475,-8660.409521,536.266849,666.185348
1290.247786,-8808.450710,1302.362347,1184.329507
1290.248098,-9104.533087,1455.581446,370.102971
1290.248409,-8216.285956,1838.629195,370.102971
1290.248720,-7328.038826,1455.581446,-0.000000
1290.249032,-7105.977043,0.000000,-222.061783
1290.249343,-6587.832884,-1378.971896,-222.061783
1290.249655,-6587.832884,-1838.629195,-0.000000
1290.249966,-7624.121203,-1685.410096,296.082377
1290.250277,-9474.636058,-1225.752797,740.205942
1290.250589,-11769.274478,-612.876398,1184.329507
1290.250900,-13323.706956,0.000000,1554.432478
1290.251212,-11843.295072,1915.238745,2368.659014
1290.251523,-10658.965565,2221.676944,2368.659014
1290.251834,-9030.512492,1455.581446,1998.556043
1290.252146,-6143.709319,689.485948,1258.350101
1290.252457,-4219.173869,-153.219100,148.041188
1290.252769,-3182.885551,-153.219100,-370.102971
1290.253080,-4145.153275,-766.095498,-1110.308913
1290.253392,-7846.182985,-612.876398,-1776.494261
1290.253703,-10362.883188,-689.485948,-888.247130
1290.254014,-11843.295072,-459.657299,592.164754
1290.254326,-13841.851115,-306.438199,1554.432478
1290.254637,-13471.748144,-153.219100,1924.535449
1290.254949,-11695.253884,-766.095498,1628.453072
1290.255260,-9326.594869,0.000000,1184.329507
1290.255571,-5995.668130,1072.533697,814.226536
1290.255883,-5403.503377,536.266849,-666.185348
1290.256194,-6143.709319,0.000000,-1184.329507
1290.256506,-7772.162391,-306.438199,-296.082377
1290.256817,-9474.636058,153.219100,-0.000000
1290.257128,-10584.944971,842.705048,666.185348
1290.257440,-10955.047942,153.219100,740.205942
1290.257751,-10436.903782,-1455.581446,888.247130
1290.258063,-9474.636058,-1991.848295,888.247130
1290.258374,-8660.409521,-689.485948,444.123565
1290.258685,-8956.491898,229.828649,370.102971
1290.258997,-9992.780217,459.657299,370.102971
1290.259308,-10140.821405,1072.533697,444.123565
1290.259620,-9918.759623,1072.533697,518.144159
1290.259931,-9178.553681,1608.800546,-222.061783
1290.260242,-8068.244768,1302.362347,222.061783
1290.260554,-7031.956449,153.219100,-444.123565
1290.260865,-5773.606348,-919.314598,-962.267725
1290.261177,-6365.771101,-1838.629195,-592.164754
1290.261488,-8216.285956,-2221.676944,-0.000000
1290.261799,-10510.924376,-1225.752797,962.267725
1290.262111,-12805.562797,-842.705048,1258.350101
1290.262422,-13101.645173,153.219100,1850.514855
1290.262734,-11177.109724,1455.581446,1998.556043
1290.263045,-9770.718434,1455.581446,1702.473667
1290.263356,-7105.977043,153.219100,1480.411884
1290.263668,-4515.256246,-995.924147,1406.391290
1290.263979,-3552.988522,-1532.190996,148.041188
1290.264291,-3923.091493,-383.047749,-222.061783
1290.264602,-5773.606348,-612.876398,-1332.370696
1290.264913,-8956.491898,-459.657299,-1110.308913
1290.265225,-10436.903782,0.000000,222.061783
1290.265536,-12435.459826,536.266849,592.164754
1290.265848,-13545.768739,766.095498,1480.411884
1290.266159,-12583.501014,1149.143247,2294.638420
1290.266470,-10955.047942,1149.143247,1776.494261
1290.266782,-7624.121203,0.000000,1628.453072
1290.267093,-5107.421000,383.047749,592.164754
1290.267405,-5107.421000,1225.752797,-148.041188
1290.267716,-5921.647536,1072.533697,-296.082377
1290.268027,-7624.121203,153.219100,-0.000000
1290.268339,-9548.656652,153.219100,444.123565
1290.268650,-10881.027347,459.657299,1406.391290
1290.268962,-10732.986159,383.047749,1406.391290
1290.269273,-11251.130318,-229.828649,1110.308913
1290.269585,-10362.883188,-306.438199,1036.288319
1290.269896,-9178.553681,-229.828649,740.205942
1290.270207,-8808.450710,842.705048,148.041188
1290.270519,-9030.512492,1072.533697,-0.000000
1290.270830,-9770.718434,766.095498,148.041188
1290.271142,-9400.615463,383.047749,370.102971
1290.271453,-7994.224174,0.000000,666.185348
1290.271764,-7179.997637,-1225.752797,296.082377
1290.272076,-6291.750507,-1991.848295,74.020594
1290.272387,-6957.935855,-2834.553343,-0.000000
1290.272699,-8216.285956,-3064.381992,148.041188
1290.273010,-9622.677246,-1762.019645,666.185348
1290.273321,-11547.212695,-1149.143247,962.267725
1290.273633,-13027.624579,-766.095498,1554.432478
1290.273944,-12879.583391,383.047749,1702.473667
1290.274256,-10436.903782,1455.581446,1924.535449
1290.274567,-9030.512492,1225.752797,740.205942
1290.274878,-6513.812290,842.705048,1036.288319
1290.275190,-4737.318029,-459.657299,222.061783
1290.275501,-4071.132681,-1302.362347,-740.205942
1290.275813,-4145.153275,-995.924147,-1184.329507
1290.276124,-6587.832884,-612.876398,-1628.453072
1290.276435,-9400.615463,-842.705048,-888.247130
1290.276747,-11769.274478,-383.047749,-0.000000
1290.277058,-12731.542202,306.438199,1406.391290
1290.277370,-12953.603985,383.047749,1998.556043
1290.277681,-12287.418637,0.000000,2368.659014
1290.277992,-10214.842000,-766.095498,1776.494261
1290.278304,-6883.915261,-689.485948,962.267725
1290.278615,-4811.338623,-383.047749,-148.041188
1290.278927,-5033.400406,-76.609550,-1702.473667
1290.279238,-5995.668130,383.047749,-1258.350101
1290.279549,-8512.368333,-383.047749,-1406.391290
1290.279861,-10214.842000,153.219100,444.123565
1290.280172,-12213.398043,76.609550,1184.329507
1290.280484,-13323.706956,-383.047749,2146.597232
1290.280795,-11843.295072,-919.314598,2738.761985
1290.281106,-9548.656652,-995.924147,2220.617826
1290.281418,-7994.224174,-842.705048,888.247130
1290.281729,-7105.977043,76.609550,-222.061783
1290.282041,-7846.182985,689.485948,-1110.308913
1290.282352,-7846.182985,1225.752797,-1110.308913
1290.282663,-8142.265362,1225.752797,-888.247130
1290.282975,-8882.471304,689.485948,-370.102971
1290.283286,-9178.553681,76.609550,-74.020594
1290.283598,-8438.347739,-536.266849,-74.020594
1290.283909,-7402.059420,-995.924147,-0.000000
1290.284220,-8438.347739,-1072.533697,-148.041188
1290.284532,-9178.553681,-919.314598,962.267725
1290.284843,-10584.944971,-919.314598,1406.391290
1290.285154,-11843.295072,-383.047749,1850.514855
1290.285466,-11177.109724,153.219100,2442.679609
1290.285777,-9918.759623,76.609550,2072.576638
1290.286088,-8586.388927,-1149.143247,1850.514855
1290.286400,-6291.750507,-1072.533697,666.185348
1290.286711,-4441.235652,-919.314598,-0.000000
1290.287022,-4811.338623,-1378.971896,-1258.350101
1290.287334,-6291.750507,-689.485948,-1406.391290
1290.287645,-9252.574275,76.609550,-1258.350101
1290.287957,-10807.006753,919.314598,-0.000000
1290.288268,-11991.336260,1455.581446,1110.308913
1290.288579,-12361.439231,1532.190996,1480.411884
1290.288891,-11843.295072,1302.362347,1998.556043
1290.289202,-9030.512492,383.047749,1702.473667
1290.289513,-6439.791695,-306.438199,518.144159
1290.289825,-4589.276840,0.000000,-0.000000
1290.290136,-5403.503377,76.609550,-1184.329507
1290.290447,-7179.997637,-306.438199,-1480.411884
1290.290759,-9474.636058,229.828649,-1184.329507
1290.291070,-11399.171507,1149.143247,-74.020594
1290.291381,-12139.377449,2221.676944,888.247130
1290.291693,-12139.377449,1685.410096,1628.453072
1290.292004,-10584.944971,-306.438199,2368.659014
1290.292315,-8512.368333,-919.314598,2368.659014
1290.292627,-7846.182985,-612.876398,1332.370696
1290.292938,-5921.647536,689.485948,518.144159
1290.293249,-7402.059420,1685.410096,-592.164754
1290.293561,-8216.285956,1378.971896,-666.185348
1290.293872,-7772.162391,1532.190996,-962.267725
1290.294183,-9326.594869,766.095498,-1036.288319
1290.294495,-9474.636058,842.705048,-296.082377
1290.294806,-9252.574275,153.219100,-370.102971
1290.295117,-9622.677246,-766.095498,-444.123565
1290.295429,-8438.347739,-689.485948,1036.288319
1290.295740,-8660.409521,-919.314598,814.226536
1290.296052,-9696.697840,-919.314598,1332.370696
1290.296363,-10658.965565,0.000000,1850.514855
1290.296674,-10807.006753,536.266849,2442.679609
1290.296986,-10214.842000,0.000000,2146.597232
1290.297297,-8882.471304,0.000000,1332.370696
1290.297608,-7550.100608,-1149.143247,666.185348
1290.297920,-6069.688724,-1532.190996,-370.102971
1290.298231,-5625.565159,-1302.362347,-1036.288319
1290.298542,-6957.935855,-612.876398,-1332.370696
1290.298854,-8068.244768,-689.485948,-222.061783
1290.299165,-10658.965565,-842.705048,148.041188
1290.299476,-12361.439231,76.609550,1406.391290
1290.299788,-12583.501014,1149.143247,2072.576638
1290.300099,-11843.295072,1302.362347,2072.576638
1290.300410,-9770.718434,919.314598,2072.576638
1290.300722,-7476.080014,-229.828649,740.205942
1290.301033,-4885.359217,-536.266849,296.082377
1290.301344,-4219.173869,-229.828649,-962.267725
1290.301656,-6143.709319,-459.657299,-1628.453072
1290.301967,-8068.244768,-153.219100,-1406.391290
1290.302278,-10214.842000,0.000000,-666.185348
1290.302590,-12065.356855,383.047749,592.164754
1290.302901,-12879.583391,536.266849,2368.659014
1290.303212,-12139.377449,-306.438199,3034.844362
1290.303524,-10510.924376,-612.876398,2738.761985
1290.303835,-7994.224174,-766.095498,2294.638420
1290.304147,-6365.771101,-842.705048,1110.308913
1290.304458,-6143.709319,0.000000,222.061783
1290.304769,-6513.812290,459.657299,-814.226536
1290.305081,-7920.203579,536.266849,-1332.370696
1290.305392,-8586.388927,919.314598,-1036.288319
1290.305703,-10066.800811,919.314598,-814.226536
1290.306015,-10066.800811,689.485948,-222.061783
1290.306326,-9844.739029,-229.828649,-0.000000
1290.306637,-8882.471304,-689.485948,814.226536
1290.306949,-8364.327145,-153.219100,1110.308913
1290.307260,-9178.553681,-306.438199,1184.329507
1290.307571,-9252.574275,0.000000,1702.473667
1290.307883,-9622.677246,689.485948,1628.453072
1290.308194,-9104.533087,766.095498,1924.535449
1290.308505,-8956.491898,536.266849,962.267725
1290.308817,-8660.409521,0.000000,962.267725
1290.309128,-7402.059420,-689.485948,-0.000000
1290.309439,-6809.894666,-1608.800546,-370.102971
1290.309751,-7698.141797,-1762.019645,-666.185348
1290.310062,-8364.327145,-919.314598,-814.226536
1290.310373,-9844.739029,-306.438199,-518.144159
1290.310685,-10510.924376,229.828649,740.205942
1290.310996,-11251.130318,1378.971896,1628.453072
1290.311307,-10658.965565,1149.143247,1776.494261
1290.311619,-9770.718434,689.485948,2146.597232
1290.311930,-8438.347739,0.000000,1554.432478
1290.312242,-6735.874072,-689.485948,370.102971
1290.312553,-5699.585753,0.000000,-1258.350101
1290.312864,-5921.647536,-383.047749,-2072.576638
1290.313176,-6957.935855,76.609550,-2072.576638
1290.313487,-9992.780217,0.000000,-1998.556043
1290.313798,-11547.212695,0.000000,222.061783
1290.314110,-13175.665768,153.219100,1406.391290
1290.314421,-12657.521608,919.314598,2590.720797
1290.314732,-11399.171507,689.485948,2960.823768
1290.315044,-9104.533087,306.438199,2146.597232
1290.315355,-6069.688724,0.000000,1776.494261
1290.315666,-5107.421000,229.828649,370.102971
1290.315978,-5625.565159,1072.533697,-666.185348
1290.316289,-7402.059420,383.047749,-1258.350101
1290.316600,-9326.594869,153.219100,-1110.308913
1290.316912,-10214.842000,0.000000,-592.164754
1290.317223,-11029.068536,-229.828649,-74.020594
1290.317534,-11177.109724,0.000000,-74.020594
1290.317846,-9992.780217,229.828649,370.102971
1290.318157,-8438.347739,0.000000,888.247130
1290.318468,-7920.203579,0.000000,962.267725
1290.318780,-8216.285956,153.219100,1184.329507
1290.319091,-9326.594869,536.266849,1110.308913
1290.319402,-10140.821405,383.047749,1406.391290
1290.319714,-9400.615463,842.705048,1036.288319
1290.320025,-8290.306550,1072.533697,592.164754
1290.320337,-7550.100608,-153.219100,296.082377
1290.320648,-7179.997637,-1302.362347,148.041188
1290.320959,-7550.100608,-1455.581446,-0.000000
1290.321271,-7846.182985,-612.876398,-370.102971
1290.321582,-8586.388927,153.219100,-370.102971
1290.321893,-10288.862594,612.876398,-0.000000
1290.322205,-11325.150913,766.095498,666.185348
1290.322516,-11103.089130,1685.410096,1110.308913
1290.322827,-10140.821405,229.828649,1924.535449
1290.323139,-8438.347739,1149.143247,1776.494261
1290.323450,-7105.977043,459.657299,1184.329507
1290.323761,-5625.565159,-1072.533697,148.041188
1290.324073,-5181.441594,-1532.190996,-814.226536
1290.324384,-5921.647536,-1302.362347,-888.247130
1290.324695,-7550.100608,-842.705048,-962.267725
1290.325007,-10584.944971,-1378.971896,-0.000000
1290.325318,-12361.439231,-842.705048,1480.411884
1290.325629,-13619.789333,153.219100,1998.556043
1290.325941,-12731.542202,-459.657299,3330.926739
1290.326252,-10732.986159,-383.047749,3330.926739
1290.326563,-8290.306550,-842.705048,2368.659014
1290.326875,-5921.647536,-1302.362347,1110.308913
1290.327186,-4885.359217,-766.095498,-0.000000
1290.327497,-5403.503377,76.609550,-1184.329507
1290.327809,-7254.018232,153.219100,-1184.329507
1290.328120,-8586.388927,76.609550,-1480.411884
1290.328432,-10436.903782,459.657299,-518.144159
1290.328743,-11621.233289,459.657299,222.061783
1290.329054,-11325.150913,-459.657299,962.267725
1290.329366,-10140.821405,-1225.752797,1110.308913
1290.329677,-8438.347739,-536.266849,1406.391290
1290.329988,-8290.306550,-612.876398,1184.329507
1290.330300,-8586.388927,0.000000,1332.370696
1290.330611,-9474.636058,383.047749,1332.370696
1290.330922,-9696.697840,306.438199,1776.494261
1290.331234,-9622.677246,383.047749,888.247130
1290.331545,-9252.574275,612.876398,888.247130
1290.331856,-8142.265362,0.000000,296.082377
1290.332168,-7624.121203,-919.314598,296.082377
1290.332479,-6809.894666,-1072.533697,-0.000000
1290.332790,-7031.956449,-995.924147,-0.000000
1290.333102,-8660.409521,0.000000,-74.020594
1290.333413,-10658.965565,306.438199,814.226536
1290.333724,-11621.233289,842.705048,1184.329507
1290.334036,-10732.986159,1302.362347,1776.494261
1290.334347,-9770.718434,1378.971896,1924.535449
1290.334658,-8142.265362,766.095498,1480.411884
1290.334970,-5699.585753,-536.266849,814.226536
1290.335281,-4071.132681,-1455.581446,-592.164754
1290.335592,-4145.153275,-1378.971896,-1258.350101
1290.335904,-5699.585753,-383.047749,-1850.514855
1290.336215,-8438.347739,459.657299,-1480.411884
1290.336527,-11547.212695,383.047749,-296.082377
1290.336838,-13175.665768,536.266849,1184.329507
1290.337149,-13101.645173,1225.752797,2368.659014
1290.337461,-12583.501014,689.485948,2590.720797
1290.337772,-9918.759623,76.609550,2886.803174
1290.338083,-7328.038826,-1302.362347,1850.514855
1290.338395,-5699.585753,-2298.286494,592.164754
1290.338706,-4589.276840,-2145.067394,-444.123565
1290.339017,-5773.606348,-1455.581446,-1998.556043
1290.339329,-7476.080014,383.047749,-2220.617826
1290.339640,-9696.697840,-612.876398,-1332.370696
1290.339951,-11843.295072,-536.266849,-814.226536
1290.340263,-12879.583391,-919.314598,370.102971
1290.340574,-12509.480420,-383.047749,888.247130
1290.340885,-10732.986159,0.000000,1110.308913
1290.341197,-9252.574275,-383.047749,962.267725
1290.341508,-8290.306550,-612.876398,888.247130
1290.341819,-8586.388927,-1378.971896,444.123565
1290.342131,-9474.636058,-1072.533697,444.123565
1290.342442,-9474.636058,612.876398,888.247130
1290.342753,-9992.780217,459.657299,1184.329507
1290.343065,-9622.677246,-229.828649,666.185348
1290.343376,-8882.471304,-1149.143247,222.061783
1290.343687,-7328.038826,-1378.971896,-74.020594
1290.343999,-7031.956449,-1225.752797,-0.000000
1290.344310,-7920.203579,76.609550,-370.102971
1290.344622,-8882.471304,306.438199,-0.000000
1290.344933,-10658.965565,0.000000,814.226536
1290.345244,-11621.233289,536.266849,1332.370696
1290.345556,-9992.780217,1838.629195,1702.473667
1290.345867,-9252.574275,1838.629195,740.205942
1290.346178,-7698.141797,229.828649,1184.329507
1290.346490,-5255.462188,-612.876398,-0.000000
1290.346801,-4145.153275,-842.705048,-814.226536
1290.347112,-4811.338623,0.000000,-296.082377
1290.347424,-6957.935855,995.924147,-592.164754
1290.347735,-10140.821405,842.705048,-296.082377
1290.348046,-12657.521608,1532.190996,888.247130
1290.348358,-13027.624579,2374.896044,1850.514855
1290.348669,-12287.418637,2145.067394,2664.741391
1290.348980,-11177.109724,1608.800546,2220.617826
1290.349292,-8364.327145,919.314598,1998.556043
1290.349603,-5921.647536,-306.438199,962.267725
1290.349914,-4145.153275,-1149.143247,222.061783
1290.350226,-4737.318029,-612.876398,-962.267725
1290.350537,-7179.997637,-383.047749,-1628.453072
1290.350848,-8808.450710,0.000000,-1258.350101
1290.351160,-10214.842000,612.876398,-444.123565
1290.351471,-10955.047942,306.438199,518.144159
1290.351782,-11621.233289,-612.876398,1110.308913
1290.352094,-10362.883188,-1072.533697,1554.432478
1290.352405,-9104.533087,-612.876398,1184.329507
1290.352717,-8216.285956,0.000000,1184.329507
1290.353028,-8142.265362,-306.438199,1036.288319
1290.353339,-8882.471304,-766.095498,592.164754
1290.353651,-9474.636058,-383.047749,962.267725
1290.353962,-9622.677246,-229.828649,1110.308913
1290.354273,-9548.656652,459.657299,1184.329507
1290.354585,-8882.471304,0.000000,592.164754
1290.354896,-8142.265362,-1378.971896,518.144159
1290.355207,-7254.018232,-1762.019645,370.102971
1290.355519,-7031.956449,-1302.362347,222.061783
1290.355830,-8586.388927,-689.485948,-222.061783
1290.356141,-9770.718434,-229.828649,296.082377
1290.356453,-11029.068536,0.000000,296.082377
1290.356764,-11547.212695,76.609550,2072.576638
1290.357075,-10288.862594,153.219100,1776.494261
1290.357387,-9696.697840,-995.924147,1184.329507
1290.357698,-8216.285956,-1378.971896,1036.288319
1290.358009,-6735.874072,-1149.143247,-148.041188
1290.358321,-5995.668130,-383.047749,-518.144159
1290.358632,-6217.729913,0.000000,-1110.308913
1290.358943,-8068.244768,229.828649,-814.226536
1290.359255,-10214.842000,383.047749,-222.061783
1290.359566,-12287.418637,1302.362347,592.164754
1290.359877,-12509.480420,2374.896044,2072.576638
1290.360189,-11695.253884,1455.581446,2220.617826
1290.360500,-9844.739029,229.828649,2368.659014
1290.360812,-7105.977043,-919.314598,1776.494261
1290.361123,-5625.565159,-2298.286494,518.144159
1290.361434,-4663.297435,-995.924147,-74.020594
1290.361746,-6069.688724,-689.485948,-1406.391290
1290.362057,-7476.080014,383.047749,-1850.514855
1290.362368,-9104.533087,536.266849,-1110.308913
1290.362680,-10214.842000,842.705048,-296.082377
1290.362991,-11325.150913,1149.143247,222.061783
1290.363302,-11103.089130,1149.143247,888.247130
1290.363614,-9474.636058,459.657299,1110.308913
1290.363925,-7772.162391,153.219100,1332.370696
1290.364236,-7105.977043,-766.095498,1406.391290
1290.364548,-7550.100608,-1302.362347,888.247130
1290.364859,-8734.430116,-1455.581446,518.144159
1290.365170,-9622.677246,-766.095498,666.185348
1290.365482,-10066.800811,0.000000,370.102971
1290.365793,-9844.739029,383.047749,666.185348
1290.366104,-9252.574275,-1149.143247,1480.411884
1290.366416,-8882.471304,-1991.848295,962.267725
1290.366727,-8068.244768,-1915.238745,666.185348
1290.367038,-7105.977043,-842.705048,370.102971
1290.367350,-7624.121203,153.219100,-296.082377
1290.367661,-8586.388927,306.438199,148.041188
1290.367972,-9770.718434,0.000000,296.082377
1290.368284,-9918.759623,229.828649,1480.411884
1290.368595,-9992.780217,383.047749,1258.350101
1290.368907,-10955.047942,229.828649,740.205942
1290.369218,-9770.718434,-306.438199,518.144159
1290.369529,-7994.224174,-766.095498,-148.041188
1290.369841,-6587.832884,-536.266849,-888.247130
1290.370152,-6809.894666,459.657299,-1110.308913
1290.370463,-9104.533087,459.657299,-1036.288319
1290.370775,-10881.027347,842.705048,444.123565
1290.371086,-11991.336260,1685.410096,1406.391290
1290.371397,-11843.295072,1302.362347,3182.885551
1290.371709,-11103.089130,689.485948,3182.885551
1290.372020,-9474.636058,-459.657299,2516.700203
1290.372331,-6883.915261,-842.705048,740.205942
1290.372643,-5699.585753,-689.485948,-888.247130
1290.372954,-5921.647536,383.047749,-1924.535449
1290.373265,-7846.182985,1149.143247,-2664.741391
1290.373577,-9400.615463,1378.971896,-1480.411884
1290.373888,-9474.636058,1149.143247,-0.000000
1290.374199,-10881.027347,1532.190996,444.123565
1290.374511,-11177.109724,1608.800546,1110.308913
1290.374822,-9548.656652,1225.752797,1480.411884
1290.375133,-7550.100608,459.657299,1406.391290
1290.375445,-6069.688724,153.219100,1702.473667
1290.375756,-6735.874072,306.438199,888.247130
1290.376067,-8068.244768,-995.924147,-0.000000
1290.376379,-9474.636058,-536.266849,222.061783
1290.376690,-10214.842000,536.266849,296.082377
1290.377002,-9992.780217,1072.533697,814.226536
1290.377313,-9770.718434,536.266849,1036.288319
1290.377624,-8882.471304,-995.924147,1406.391290
1290.377936,-7328.038826,-995.924147,1110.308913
1290.378247,-6143.709319,306.438199,888.247130
1290.378558,-6883.915261,536.266849,-0.000000
1290.378870,-7698.141797,1455.581446,-0.000000
1290.379181,-9400.615463,229.828649,444.123565
1290.379492,-10214.842000,0.000000,1110.308913
1290.379804,-10807.006753,76.609550,1184.329507
1290.380115,-11029.068536,-153.219100,1258.350101
1290.380426,-9696.697840,-1149.143247,962.267725
1290.380738,-8068.244768,-1991.848295,296.082377
1290.381049,-6661.853478,-1991.848295,-444.123565
1290.381360,-6513.812290,-1378.971896,-370.102971
1290.381672,-8216.285956,-459.657299,-296.082377
1290.381983,-10140.821405,306.438199,-0.000000
1290.382294,-11325.150913,766.095498,888.247130
1290.382606,-12065.356855,459.657299,2220.617826
1290.382917,-11695.253884,536.266849,1628.453072
1290.383228,-10807.006753,766.095498,2220.617826
1290.383540,-7920.203579,-1149.143247,1776.494261
1290.383851,-6365.771101,-2374.896044,888.247130
1290.384163,-6217.729913,-2681.334243,-74.020594
1290.384474,-7476.080014,-1762.019645,-370.102971
1290.384786,-8882.471304,-383.047749,-1332.370696
1290.385097,-9918.759623,383.047749,-814.226536
1290.385409,-10658.965565,689.485948,-74.020594
1290.385720,-10807.006753,919.314598,740.205942
1290.386032,-10362.883188,919.314598,666.185348
1290.386343,-9252.574275,766.095498,1332.370696
1290.386655,-7402.059420,612.876398,1036.288319
1290.386966,-6735.874072,459.657299,1036.288319
1290.387278,-7179.997637,-306.438199,444.123565
1290.387589,-7846.182985,0.000000,666.185348
1290.387901,-9622.677246,-153.219100,592.164754
1290.388212,-10066.800811,1149.143247,814.226536
1290.388523,-10881.027347,459.657299,1036.288319
1290.388835,-10362.883188,-153.219100,888.247130
1290.389146,-9104.533087,-766.095498,962.267725
1290.389458,-7994.224174,-842.705048,740.205942
1290.389769,-6809.894666,0.000000,296.082377
1290.390081,-7105.977043,689.485948,-370.102971
1290.390392,-7402.059420,612.876398,222.061783
1290.390704,-9030.512492,919.314598,666.185348
1290.391015,-9104.533087,919.314598,1036.288319
1290.391327,-9400.615463,229.828649,1850.514855
1290.391638,-9474.636058,-153.219100,1184.329507
1290.391950,-8808.450710,-383.047749,518.144159
1290.392261,-7772.162391,-612.876398,-0.000000
1290.392573,-6291.750507,-612.876398,-518.144159
1290.392884,-6661.853478,-536.266849,-444.123565
1290.393196,-8290.306550,536.266849,-666.185348
1290.393507,-9696.697840,689.485948,-0.000000
1290.393819,-11547.212695,995.924147,814.226536
1290.394130,-11621.233289,1149.143247,2146.597232
1290.394441,-11029.068536,919.314598,2664.741391
1290.394753,-9918.759623,-383.047749,2146.597232
1290.395064,-7846.182985,-1685.410096,1776.494261
1290.395376,-6217.729913,-2757.943793,962.267725
1290.395687,-6217.729913,-2451.505594,-296.082377
1290.395999,-7105.977043,-1608.800546,-1036.288319
1290.396310,-8808.450710,-1225.752797,-1184.329507
1290.396622,-10140.821405,-383.047749,-740.205942
1290.396933,-11103.089130,153.219100,296.082377
1290.397245,-11325.150913,153.219100,888.247130
1290.397556,-11251.130318,383.047749,1036.288319
1290.397868,-9844.739029,-229.828649,740.205942
1290.398179,-7476.080014,-229.828649,592.164754
1290.398491,-6735.874072,-536.266849,592.164754
1290.398802,-7846.182985,-1532.190996,222.061783
1290.399114,-9548.656652,-2068.457845,296.082377
1290.399425,-10436.903782,-1072.533697,-0.000000
1290.399736,-10732.986159,383.047749,444.123565
1290.400048,-11769.274478,1225.752797,-0.000000
1290.400359,-10732.986159,383.047749,222.061783
1290.400671,-9400.615463,-306.438199,518.144159
1290.400982,-7994.224174,0.000000,518.144159
1290.401294,-6957.935855,995.924147,-74.020594
1290.401605,-7402.059420,1532.190996,-592.164754
1290.401917,-8586.388927,1532.190996,-444.123565
1290.402228,-9548.656652,995.924147,-222.061783
1290.402540,-9844.739029,1455.581446,370.102971
1290.402851,-9844.739029,536.266849,1036.288319
1290.403163,-9474.636058,689.485948,592.164754
1290.403474,-8290.306550,-919.314598,370.102971
1290.403786,-7328.038826,-1072.533697,-74.020594
1290.404097,-7031.956449,-153.219100,-518.144159
1290.404409,-7179.997637,766.095498,-666.185348
1290.404720,-8290.306550,1762.019645,-444.123565
1290.405031,-10214.842000,1991.848295,-148.041188
1290.405343,-10881.027347,2681.334243,222.061783
1290.405654,-10140.821405,1532.190996,1480.411884
1290.405966,-9474.636058,536.266849,2294.638420
1290.406277,-7550.100608,-612.876398,2442.679609
1290.406589,-6217.729913,-1838.629195,1332.370696
1290.406900,-5773.606348,-2221.676944,666.185348
1290.407212,-5699.585753,-1302.362347,-0.000000
1290.407523,-6957.935855,-229.828649,-814.226536
1290.407835,-8660.409521,-689.485948,-1258.350101
1290.408146,-9844.739029,459.657299,-0.000000
1290.408458,-11399.171507,1302.362347,1036.288319
1290.408769,-12509.480420,842.705048,1628.453072
1290.409081,-11399.171507,229.828649,1998.556043
1290.409392,-9104.533087,0.000000,1554.432478
1290.409704,-7402.059420,76.609550,1110.308913
1290.410015,-6809.894666,-153.219100,222.061783
1290.410327,-7550.100608,-995.924147,-0.000000
1290.410638,-8882.471304,-1532.190996,370.102971
1290.410949,-10214.842000,-1072.533697,1036.288319
1290.411261,-11547.212695,-306.438199,1184.329507
1290.411572,-12287.418637,459.657299,1776.494261
1290.411884,-11325.150913,0.000000,1924.535449
1290.412195,-9696.697840,-1455.581446,1776.494261
1290.412507,-7624.121203,-383.047749,1036.288319
1290.412818,-6957.935855,689.485948,-296.082377
1290.413130,-7698.141797,766.095498,-740.205942
1290.413441,-8290.306550,0.000000,-222.061783
1290.413753,-9178.553681,-153.219100,444.123565
1290.414064,-10510.924376,-153.219100,740.205942
1290.414376,-10362.883188,0.000000,888.247130
1290.414687,-9400.615463,919.314598,1184.329507
1290.414999,-8364.327145,-1685.410096,740.205942
1290.415310,-6513.812290,-919.314598,222.061783
1290.415622,-6439.791695,-612.876398,-444.123565
1290.415933,-6957.935855,153.219100,-444.123565
1290.416244,-8142.265362,536.266849,222.061783
1290.416556,-9992.780217,383.047749,518.144159
1290.416867,-10436.903782,1072.533697,1850.514855
1290.417179,-9918.759623,1149.143247,2590.720797
1290.417490,-9030.512492,153.219100,1998.556043
1290.417802,-6809.894666,-612.876398,1554.432478
1290.418113,-4885.359217,-1838.629195,666.185348
1290.418425,-4441.235652,-1762.019645,-296.082377
1290.418736,-5625.565159,-919.314598,-888.247130
1290.419048,-7476.080014,306.438199,-1776.494261
1290.419359,-10288.862594,995.924147,-1258.350101
1290.419671,-11917.315666,1455.581446,-296.082377
1290.419982,-12879.583391,1455.581446,148.041188
1290.420294,-11917.315666,1378.971896,666.185348
1290.420605,-9844.739029,766.095498,666.185348
1290.420917,-7772.162391,-689.485948,592.164754
1290.421228,-6217.729913,-1838.629195,296.082377
1290.421540,-6143.709319,-1378.971896,-592.164754
1290.421851,-7624.121203,-1762.019645,-148.041188
1290.422162,-10140.821405,-1455.581446,518.144159
1290.422474,-12361.439231,-612.876398,666.185348
1290.422785,-13101.645173,-306.438199,1184.329507
1290.423097,-13027.624579,-306.438199,888.247130
1290.423408,-11547.212695,-919.314598,962.267725
1290.423720,-9474.636058,-919.314598,592.164754
1290.424031,-7402.059420,-459.657299,-222.061783
1290.424343,-7105.977043,-1302.362347,-1036.288319
1290.424654,-7254.018232,-229.828649,-296.082377
1290.424966,-9178.553681,76.609550,-592.164754
1290.425277,-9918.759623,0.000000,370.102971
1290.425589,-10436.903782,229.828649,1036.288319
1290.425900,-10214.842000,-383.047749,1332.370696
1290.426212,-9178.553681,-689.485948,888.247130
1290.426523,-7846.182985,-842.705048,1036.288319
1290.426835,-7476.080014,-306.438199,-370.102971
1290.427146,-7031.956449,76.609550,-888.247130
1290.427457,-7920.203579,842.705048,-666.185348
1290.427769,-9030.512492,842.705048,-74.020594
1290.428080,-9918.759623,919.314598,740.205942
1290.428392,-10066.800811,842.705048,2368.659014
1290.428703,-9474.636058,229.828649,2294.638420
1290.429015,-8660.409521,-306.438199,2294.638420
1290.429326,-6661.853478,-919.314598,1480.411884
1290.429638,-4811.338623,-1608.800546,962.267725
1290.429949,-5551.544565,-995.924147,-148.041188
1290.430261,-7105.977043,0.000000,-370.102971
1290.430572,-9252.574275,1225.752797,-666.185348
1290.430884,-10881.027347,1532.190996,-0.000000
1290.431195,-11399.171507,1455.581446,962.267725
1290.431507,-11325.150913,1991.848295,1036.288319
1290.431818,-9622.677246,1915.238745,814.226536
1290.432130,-7402.059420,536.266849,592.164754
1290.432441,-5773.606348,-383.047749,296.082377
1290.432752,-4737.318029,-306.438199,-148.041188
1290.433064,-6587.832884,-536.266849,-592.164754
1290.433375,-9178.553681,-153.219100,-222.061783
1290.433687,-11843.295072,0.000000,-0.000000
1290.433998,-12731.542202,766.095498,962.267725
1290.434310,-12953.603985,1378.971896,1628.453072
1290.434621,-12213.398043,689.485948,1850.514855
1290.434933,-10066.800811,153.219100,1850.514855
1290.435244,-7994.224174,153.219100,1258.350101
1290.435556,-5921.647536,383.047749,666.185348
1290.435867,-5921.647536,459.657299,-666.185348
1290.436179,-7254.018232,612.876398,-1110.308913
1290.436490,-7698.141797,766.095498,222.061783
1290.436802,-9474.636058,306.438199,-0.000000
1290.437113,-10658.965565,76.609550,1110.308913
1290.437425,-11177.109724,76.609550,740.205942
1290.437736,-10732.986159,-689.485948,740.205942
1290.438048,-9178.553681,-1302.362347,814.226536
1290.438359,-8290.306550,-1072.533697,148.041188
1290.438670,-8068.244768,0.000000,-222.061783
1290.438982,-8808.450710,0.000000,-74.020594
1290.439293,-9400.615463,-153.219100,666.185348
1290.439605,-10066.800811,0.000000,1628.453072
1290.439916,-10214.842000,229.828649,2220.617826
1290.440228,-9030.512492,-612.876398,2368.659014
1290.440539,-7846.182985,-1225.752797,1184.329507
1290.440851,-6439.791695,-995.924147,518.144159
1290.441162,-6365.771101,-1302.362347,-740.205942
1290.441474,-7105.977043,-1072.533697,-888.247130
1290.441785,-8512.368333,-842.705048,-740.205942
1290.442097,-10881.027347,0.000000,-0.000000
1290.442408,-11621.233289,383.047749,740.205942
1290.442720,-11547.212695,459.657299,1554.432478
1290.443031,-10362.883188,153.219100,1850.514855
1290.443343,-8068.244768,-766.095498,962.267725
1290.443654,-6365.771101,-1072.533697,592.164754
1290.443965,-4811.338623,-1225.752797,-0.000000
1290.444277,-4959.379811,-689.485948,-666.185348
1290.444588,-7476.080014,-766.095498,-444.123565
1290.444900,-10066.800811,-919.314598,-222.061783
1290.445211,-12583.501014,-842.705048,666.185348
1290.445523,-12805.562797,536.266849,1258.350101
1290.445834,-12287.418637,306.438199,1480.411884
1290.446146,-10436.903782,1302.362347,1332.370696
1290.446457,-8882.471304,0.000000,1332.370696
1290.446769,-6439.791695,-229.828649,592.164754
1290.447080,-5181.441594,-383.047749,222.061783
1290.447392,-5921.647536,306.438199,-296.082377
1290.447703,-7105.977043,612.876398,-666.185348
1290.448015,-9030.512492,229.828649,-518.144159
1290.448326,-10955.047942,459.657299,-74.020594
1290.448638,-11399.171507,612.876398,666.185348
1290.448949,-11473.192101,842.705048,222.061783
1290.449261,-10436.903782,306.438199,814.226536
1290.449572,-9326.594869,-306.438199,222.061783
1290.449883,-7846.182985,0.000000,222.061783
1290.450195,-7105.977043,536.266849,222.061783
1290.450506,-7624.121203,536.266849,-0.000000
1290.450818,-8290.306550,1149.143247,444.123565
1290.451129,-9178.553681,919.314598,1554.432478
1290.451441,-9474.636058,383.047749,1702.473667
1290.451752,-9326.594869,0.000000,1998.556043
1290.452064,-8290.306550,-919.314598,1258.350101
1290.452375,-7105.977043,-1685.410096,592.164754
1290.452687,-6883.915261,-1685.410096,-0.000000
1290.452998,-7476.080014,-1149.143247,-1036.288319
1290.453310,-9326.594869,-153.219100,-518.144159
1290.453621,-10584.944971,229.828649,-0.000000
1290.453933,-10584.944971,1149.143247,1110.308913
1290.454244,-10288.862594,766.095498,1998.556043
1290.454556,-9178.553681,383.047749,1628.453072
1290.454867,-7624.121203,-842.705048,1036.288319
1290.455178,-6217.729913,-1455.581446,-0.000000
1290.455490,-4959.379811,-1225.752797,-0.000000
1290.455801,-6291.750507,-1532.190996,-962.267725
1290.456113,-8660.409521,-1608.800546,-370.102971
1290.456424,-11695.253884,-1991.848295,518.144159
1290.456736,-12509.480420,-1838.629195,1184.329507
1290.457047,-13101.645173,-306.438199,1998.556043
1290.457359,-12435.459826,76.609550,2294.638420
1290.457670,-10658.965565,-459.657299,1628.453072
1290.457982,-7846.182985,0.000000,1628.453072
1290.458293,-5995.668130,-536.266849,888.247130
1290.458605,-5329.482782,689.485948,-444.123565
1290.458916,-6217.729913,842.705048,-1184.329507
1290.459228,-8216.285956,842.705048,-962.267725
1290.459539,-9918.759623,1225.752797,-1110.308913
1290.459851,-10584.944971,1225.752797,-370.102971
1290.460162,-11029.068536,1225.752797,296.082377
1290.460473,-10658.965565,383.047749,666.185348
1290.460785,-9770.718434,-919.314598,370.102971
1290.461096,-9030.512492,-766.095498,518.144159
1290.461408,-7698.141797,0.000000,148.041188
1290.461719,-8142.265362,919.314598,222.061783
1290.462031,-9178.553681,1685.410096,222.061783
1290.462342,-10066.800811,1455.581446,666.185348
1290.462654,-9992.780217,1991.848295,518.144159
1290.462965,-9178.553681,1915.238745,1628.453072
1290.463277,-8956.491898,842.705048,1036.288319
1290.463588,-7846.182985,-76.609550,666.185348
1290.463900,-6809.894666,-1072.533697,-0.000000
1290.464211,-6735.874072,-919.314598,-74.020594
1290.464523,-7550.100608,-766.095498,-74.020594
1290.464834,-9474.636058,0.000000,-0.000000
1290.465146,-11029.068536,76.609550,296.082377
1290.465457,-10658.965565,1149.143247,1258.350101
1290.465769,-10214.842000,1838.629195,1332.370696
1290.466080,-8586.388927,1149.143247,370.102971
1290.466391,-7328.038826,459.657299,-0.000000
1290.466703,-4885.359217,-383.047749,-148.041188
1290.467014,-4737.318029,-1225.752797,-814.226536
1290.467326,-6587.832884,-995.924147,-222.061783
1290.467637,-8808.450710,-1149.143247,370.102971
1290.467949,-11473.192101,-1455.581446,1332.370696
1290.468260,-12583.501014,-1149.143247,2442.679609
1290.468572,-12879.583391,-383.047749,2664.741391
1290.468883,-11473.192101,-612.876398,2368.659014
1290.469195,-8956.491898,-1225.752797,1702.473667
1290.469506,-6661.853478,-1225.752797,1332.370696
1290.469818,-4885.359217,-1685.410096,296.082377
1290.470129,-5625.565159,-919.314598,-0.000000
1290.470441,-7254.018232,-383.047749,-74.020594
1290.470752,-9030.512492,-459.657299,-222.061783
1290.471064,-10732.986159,76.609550,444.123565
1290.471375,-11103.089130,536.266849,962.267725
1290.471686,-11769.274478,-153.219100,518.144159
1290.471998,-11325.150913,-306.438199,1036.288319
1290.472309,-9326.594869,-536.266849,740.205942
1290.472621,-8068.244768,0.000000,-0.000000
1290.472932,-6957.935855,153.219100,222.061783
1290.473244,-7920.203579,459.657299,-0.000000
1290.473555,-9474.636058,229.828649,370.102971
1290.473867,-10510.924376,1072.533697,740.205942
1290.474178,-10732.986159,1762.019645,1628.453072
1290.474490,-10436.903782,1225.752797,1702.473667
1290.474801,-9696.697840,-536.266849,1184.329507
1290.475113,-7476.080014,-842.705048,592.164754
1290.475424,-5847.626942,-1072.533697,-0.000000
1290.475736,-6587.832884,-689.485948,-740.205942
1290.476047,-7920.203579,536.266849,-592.164754
1290.476359,-9696.697840,1072.533697,-296.082377
1290.476670,-10807.006753,1072.533697,666.185348
1290.476982,-10510.924376,1378.971896,1554.432478
1290.477293,-9474.636058,995.924147,1110.308913
1290.477604,-8068.244768,536.266849,666.185348
1290.477916,-5847.626942,-536.266849,296.082377
1290.478227,-5403.503377,-1838.629195,-666.185348
1290.478539,-5181.441594,-1532.190996,-740.205942
1290.478850,-7698.141797,-1378.971896,-444.123565
1290.479162,-10214.842000,-1378.971896,222.061783
1290.479473,-12509.480420,-1072.533697,592.164754
1290.479785,-12879.583391,536.266849,1776.494261
1290.480096,-12287.418637,1455.581446,1332.370696
1290.480408,-10362.883188,0.000000,1480.411884
1290.480719,-7624.121203,-383.047749,1258.350101
1290.481031,-5625.565159,-612.876398,296.082377
1290.481342,-4737.318029,-766.095498,-666.185348
1290.481654,-5625.565159,-229.828649,-1110.308913
1290.481965,-7698.141797,0.000000,-1554.432478
1290.482277,-9770.718434,-766.095498,-666.185348
1290.482588,-11769.274478,-383.047749,148.041188
1290.482899,-12731.542202,76.609550,962.267725
1290.483211,-12287.418637,-459.657299,1332.370696
1290.483522,-11177.109724,-1685.410096,1184.329507
1290.483834,-9326.594869,-1915.238745,666.185348
1290.484145,-7254.018232,-459.657299,296.082377
1290.484457,-6587.832884,76.609550,-74.020594
1290.484768,-8586.388927,-153.219100,-444.123565
1290.485080,-9696.697840,-306.438199,-0.000000
1290.485391,-9992.780217,153.219100,1258.350101
1290.485703,-10510.924376,612.876398,1480.411884
1290.486014,-10732.986159,229.828649,1406.391290
1290.486326,-9918.759623,-153.219100,1036.288319
1290.486637,-8290.306550,-766.095498,518.144159
1290.486948,-6735.874072,-459.657299,-0.000000
1290.487260,-6809.894666,612.876398,-370.102971
1290.487571,-8808.450710,459.657299,-518.144159
1290.487882,-9696.697840,689.485948,148.041188
1290.488194,-10214.842000,842.705048,814.226536
1290.488505,-9918.759623,995.924147,1406.391290
1290.488816,-9326.594869,1608.800546,518.144159
1290.489128,-7772.162391,1532.190996,222.061783
1290.489439,-5921.647536,229.828649,-740.205942
1290.489750,-5699.585753,-689.485948,-444.123565
1290.490062,-6513.812290,-919.314598,-296.082377
1290.490373,-9252.574275,0.000000,444.123565
1290.490684,-11177.109724,0.000000,1110.308913
1290.490996,-11917.315666,229.828649,2072.576638
1290.491307,-11251.130318,1225.752797,2368.659014
1290.491618,-10362.883188,995.924147,2072.576638
1290.491930,-9030.512492,536.266849,1628.453072
1290.492241,-6661.853478,-306.438199,962.267725
1290.492552,-4811.338623,459.657299,-74.020594
1290.492864,-5255.462188,-229.828649,-888.247130
1290.493175,-7031.956449,-229.828649,-1184.329507
1290.493486,-8660.409521,153.219100,-814.226536
1290.493798,-10362.883188,689.485948,-296.082377
1290.494109,-11399.171507,1072.533697,148.041188
1290.494420,-11695.253884,919.314598,1406.391290
1290.494732,-11325.150913,0.000000,1110.308913
1290.495043,-9548.656652,-536.266849,1406.391290
1290.495354,-7105.977043,-689.485948,1036.288319
1290.495666,-6069.688724,0.000000,518.144159
1290.495977,-6957.935855,0.000000,148.041188
1290.496288,-8586.388927,-536.266849,-0.000000
1290.496600,-9918.759623,-383.047749,666.185348
1290.496911,-11029.068536,306.438199,740.205942
1290.497222,-11399.171507,612.876398,1776.494261
1290.497534,-11029.068536,-153.219100,1332.370696
1290.497845,-9696.697840,-842.705048,740.205942
1290.498156,-7550.100608,-1532.190996,888.247130
1290.498468,-6291.750507,-1685.410096,518.144159
1290.498779,-7105.977043,-995.924147,444.123565
1290.499090,-9178.553681,-306.438199,-0.000000
1290.499402,-9696.697840,0.000000,740.205942
1290.499713,-9622.677246,459.657299,592.164754
1290.500024,-9696.697840,306.438199,296.082377
1290.500336,-8882.471304,76.609550,296.082377
1290.500647,-8438.347739,-995.924147,-148.041188
1290.500958,-7328.038826,-1991.848295,-0.000000
1290.501270,-7105.977043,-1608.800546,-222.061783
1290.501581,-8882.471304,-995.924147,-0.000000
1290.501892,-10140.821405,-766.095498,814.226536
1290.502204,-11769.274478,-1072.533697,962.267725
1290.502515,-11547.212695,153.219100,2072.576638
1290.502826,-10881.027347,919.314598,1924.535449
1290.503138,-10140.821405,919.314598,1702.473667
1290.503449,-8290.306550,306.438199,1036.288319
1290.503760,-6217.729913,0.000000,370.102971
1290.504072,-5255.462188,0.000000,-518.144159
1290.504383,-5625.565159,-306.438199,-1110.308913
1290.504695,-7402.059420,689.485948,-1406.391290
1290.505006,-9400.615463,612.876398,-518.144159
1290.505317,-10584.944971,919.314598,222.061783
1290.505629,-11769.274478,766.095498,1110.308913
1290.505940,-11769.274478,919.314598,1554.432478
1290.506251,-10658.965565,612.876398,1184.329507
1290.506563,-8068.244768,383.047749,1036.288319
1290.506874,-6217.729913,459.657299,370.102971
1290.507185,-6069.688724,459.657299,-740.205942
1290.507497,-6735.874072,229.828649,-518.144159
1290.507808,-8586.388927,612.876398,-444.123565
1290.508119,-10510.924376,536.266849,-0.000000
1290.508431,-11621.233289,1225.752797,1184.329507
1290.508742,-11769.274478,459.657299,1628.453072
1290.509053,-10288.862594,-1378.971896,1776.494261
1290.509365,-7698.141797,-1302.362347,1776.494261
1290.509676,-6291.750507,-1302.362347,962.267725
1290.509987,-5921.647536,-1225.752797,-0.000000
1290.510299,-7402.059420,-459.657299,-296.082377
1290.510610,-8882.471304,-229.828649,-296.082377
1290.510921,-9696.697840,229.828649,-0.000000
1290.511233,-9918.759623,0.000000,592.164754
1290.511544,-9622.677246,-306.438199,814.226536
1290.511855,-9178.553681,-842.705048,592.164754
1290.512167,-7920.203579,-1225.752797,444.123565
1290.512478,-6957.935855,-2145.067394,370.102971
1290.512789,-7402.059420,-1685.410096,-0.000000
1290.513101,-9252.574275,-842.705048,-0.000000
1290.513412,-9770.718434,-766.095498,296.082377
1290.513723,-11473.192101,-766.095498,1110.308913
1290.514035,-11325.150913,306.438199,1702.473667
1290.514346,-11473.192101,842.705048,1628.453072
1290.514657,-10362.883188,-383.047749,1924.535449
1290.514969,-8586.388927,-612.876398,1184.329507
1290.515280,-6883.915261,-842.705048,-148.041188
1290.515591,-6069.688724,-306.438199,-1110.308913
1290.515903,-6439.791695,229.828649,-2072.576638
1290.516214,-7994.224174,229.828649,-1628.453072
1290.516525,-10288.862594,306.438199,-518.144159
1290.516837,-11917.315666,1378.971896,666.185348
1290.517148,-13175.665768,1072.533697,1554.432478
1290.517459,-11917.315666,1149.143247,1924.535449
1290.517771,-9992.780217,612.876398,1480.411884
1290.518082,-6957.935855,229.828649,666.185348
1290.518393,-5033.400406,0.000000,-444.123565
1290.518705,-5625.565159,153.219100,-962.267725
1290.519016,-7031.956449,1225.752797,-888.247130
1290.519327,-9474.636058,1455.581446,-444.123565
1290.519639,-11325.150913,1608.800546,888.247130
1290.519950,-11547.212695,1608.800546,1554.432478
1290.520261,-10288.862594,1149.143247,2146.597232
1290.520573,-8956.491898,76.609550,2072.576638
1290.520884,-6587.832884,-536.266849,1554.432478
1290.521195,-4737.318029,612.876398,888.247130
1290.521507,-6217.729913,459.657299,-0.000000
1290.521818,-7105.977043,842.705048,-222.061783
1290.522129,-8660.409521,995.924147,-296.082377
1290.522441,-9030.512492,995.924147,148.041188
1290.522752,-9918.759623,766.095498,444.123565
1290.523063,-9474.636058,383.047749,666.185348
1290.523375,-9030.512492,-919.314598,370.102971
1290.523686,-8142.265362,-2145.067394,592.164754
1290.523998,-7105.977043,-1608.800546,222.061783
1290.524309,-8512.368333,-1915.238745,518.144159
1290.524620,-9696.697840,-1302.362347,592.164754
1290.524932,-11251.130318,-1072.533697,1184.329507
1290.525243,-11695.253884,0.000000,1924.535449
1290.525554,-10807.006753,229.828649,2368.659014
1290.525866,-9770.718434,153.219100,2294.638420
1290.526177,-8438.347739,-1608.800546,1924.535449
1290.526488,-6513.812290,-2604.724693,1036.288319
1290.526800,-5477.523971,-2298.286494,-0.000000
1290.527111,-5847.626942,-1149.143247,-888.247130
1290.527422,-8438.347739,-1149.143247,-962.267725
1290.527734,-10288.862594,-1149.143247,-592.164754
1290.528045,-12435.459826,-306.438199,-444.123565
1290.528356,-12805.562797,842.705048,1036.288319
1290.528668,-12361.439231,536.266849,1480.411884
1290.528979,-11621.233289,0.000000,740.205942
1290.529290,-8660.409521,-842.705048,1184.329507
1290.529602,-6661.853478,-919.314598,-0.000000
1290.529913,-5773.606348,-153.219100,-666.185348
1290.530224,-6069.688724,1149.143247,-962.267725
1290.530536,-8438.347739,1225.752797,-1406.391290
1290.530847,-10066.800811,229.828649,-518.144159
1290.531158,-11251.130318,1149.143247,370.102971
1290.531470,-11547.212695,1455.581446,1110.308913
1290.531781,-11251.130318,383.047749,1480.411884
1290.532092,-9844.739029,-612.876398,1258.350101
1290.532404,-7698.141797,-842.705048,592.164754
1290.532715,-6143.709319,-153.219100,444.123565
1290.533026,-6069.688724,76.609550,148.041188
1290.533338,-7328.038826,76.609550,-74.020594
1290.533649,-8734.430116,0.000000,222.061783
1290.533960,-8808.450710,0.000000,1110.308913
1290.534272,-9400.615463,0.000000,814.226536
1290.534583,-10288.862594,306.438199,518.144159
1290.534894,-8586.388927,459.657299,222.061783
1290.535206,-7402.059420,383.047749,-148.041188
1290.535517,-6735.874072,766.095498,740.205942
1290.535828,-7698.141797,229.828649,666.185348
1290.536140,-9474.636058,-306.438199,962.267725
1290.536451,-9696.697840,383.047749,2220.617826
1290.536762,-10066.800811,689.485948,2146.597232
1290.537074,-9326.594869,766.095498,2146.597232
1290.537385,-8660.409521,306.438199,1406.391290
1290.537696,-7328.038826,-919.314598,592.164754
1290.538008,-5181.441594,-1608.800546,-0.000000
1290.538319,-5773.606348,-1608.800546,-1036.288319
1290.538630,-7550.100608,-919.314598,-592.164754
1290.538942,-9548.656652,-1302.362347,-222.061783
1290.539253,-11473.192101,-1302.362347,296.082377
1290.539564,-12065.356855,-383.047749,1258.350101
1290.539876,-12139.377449,383.047749,1332.370696
1290.540187,-11547.212695,919.314598,1850.514855
1290.540498,-9844.739029,-766.095498,1702.473667
1290.540810,-7105.977043,-1302.362347,814.226536
1290.541121,-6217.729913,-842.705048,148.041188
1290.541432,-6365.771101,-995.924147,-592.164754
1290.541744,-7550.100608,-689.485948,-814.226536
1290.542055,-9474.636058,0.000000,-888.247130
1290.542366,-11473.192101,383.047749,-0.000000
1290.542678,-12509.480420,383.047749,592.164754
1290.542989,-12065.356855,1302.362347,1480.411884
1290.543300,-11917.315666,689.485948,1554.432478
1290.543612,-8882.471304,0.000000,518.144159
1290.543923,-6809.894666,-153.219100,148.041188
1290.544235,-6143.709319,0.000000,-518.144159
1290.544546,-6439.791695,689.485948,-962.267725
1290.544857,-7254.018232,1149.143247,-1258.350101
1290.545169,-8586.388927,919.314598,-740.205942
1290.545480,-9696.697840,383.047749,-0.000000
1290.545791,-10807.006753,-459.657299,296.082377
1290.546103,-10658.965565,76.609550,148.041188
1290.546414,-9104.533087,0.000000,-0.000000
1290.546725,-8290.306550,-459.657299,-0.000000
1290.547037,-7846.182985,-612.876398,592.164754
1290.547348,-9030.512492,-306.438199,-0.000000
1290.547659,-9400.615463,842.705048,814.226536
1290.547971,-9622.677246,1838.629195,1406.391290
1290.548282,-9474.636058,1225.752797,1776.494261
1290.548593,-8586.388927,1378.971896,1480.411884
1290.548905,-8068.244768,0.000000,740.205942
1290.549216,-5995.668130,-536.266849,518.144159
1290.549527,-5255.462188,-459.657299,-0.000000
1290.549839,-6439.791695,76.609550,-666.185348
1290.550150,-7550.100608,-612.876398,-370.102971
1290.550461,-9252.574275,-1378.971896,-370.102971
1290.550773,-10732.986159,-536.266849,666.185348
1290.551084,-11843.295072,536.266849,1480.411884
1290.551395,-11695.253884,1455.581446,1776.494261
1290.551707,-10584.944971,919.314598,1702.473667
1290.552018,-8660.409521,383.047749,1924.535449
1290.552329,-6513.812290,-1608.800546,1258.350101
1290.552641,-5181.441594,-842.705048,-0.000000
1290.552952,-5329.482782,-306.438199,-592.164754
1290.553263,-7550.100608,-383.047749,-666.185348
1290.553575,-10288.862594,0.000000,-0.000000
1290.553886,-12139.377449,0.000000,814.226536
1290.554197,-13175.665768,0.000000,1998.556043
1290.554509,-12509.480420,-459.657299,2886.803174
1290.554820,-11251.130318,-459.657299,1924.535449
1290.555131,-8364.327145,-459.657299,1184.329507
1290.555443,-6661.853478,-1225.752797,962.267725
1290.555754,-6143.709319,-1532.190996,518.144159
1290.556065,-6957.935855,-995.924147,-74.020594
1290.556377,-8216.285956,0.000000,-444.123565
1290.556688,-9104.533087,-306.438199,-0.000000
1290.556999,-9622.677246,-153.219100,518.144159
1290.557311,-9844.739029,-766.095498,740.205942
1290.557622,-9770.718434,-1378.971896,222.061783
1290.557933,-9178.553681,-919.314598,-0.000000
1290.558245,-8586.388927,-689.485948,518.144159
1290.558556,-9030.512492,0.000000,444.123565
1290.558867,-9622.677246,0.000000,518.144159
1290.559179,-9918.759623,76.609550,1184.329507
1290.559490,-9918.759623,306.438199,1776.494261
1290.559801,-9104.533087,766.095498,1036.288319
1290.560113,-8438.347739,459.657299,1110.308913
1290.560424,-7772.162391,-995.924147,518.144159
1290.560735,-6439.791695,-1532.190996,296.082377
1290.561047,-5699.585753,-1302.362347,-370.102971
1290.561358,-6883.915261,-536.266849,-518.144159
1290.561669,-7920.203579,0.000000,-370.102971
1290.561981,-9548.656652,0.000000,-74.020594
1290.562292,-10881.027347,766.095498,666.185348
1290.562603,-11473.192101,1838.629195,1110.308913
1290.562915,-11769.274478,1532.190996,1406.391290
1290.563226,-10140.821405,1149.143247,962.267725
1290.563538,-7698.141797,306.438199,444.123565
1290.563849,-5921.647536,-689.485948,-296.082377
1290.564160,-5033.400406,-612.876398,-666.185348
1290.564472,-5921.647536,-995.924147,-740.205942
1290.564783,-7772.162391,-919.314598,-370.102971
1290.565094,-10436.903782,-919.314598,444.123565
1290.565406,-12287.418637,-153.219100,1184.329507
1290.565717,-13027.624579,536.266849,1776.494261
1290.566028,-11991.336260,689.485948,1998.556043
1290.566340,-9474.636058,76.609550,1702.473667
1290.566651,-7328.038826,-153.219100,444.123565
1290.566962,-6143.709319,-766.095498,-222.061783
1290.567274,-5699.585753,-536.266849,-518.144159
1290.567585,-6957.935855,0.000000,-814.226536
1290.567896,-8290.306550,229.828649,-814.226536
1290.568208,-9918.759623,76.609550,-444.123565
1290.568519,-11325.150913,0.000000,222.061783
1290.568830,-11473.192101,0.000000,666.185348
1290.569142,-10584.944971,229.828649,444.123565
1290.569453,-8808.450710,0.000000,888.247130
1290.569764,-8512.368333,-459.657299,740.205942
1290.570076,-8660.409521,-612.876398,444.123565
1290.570387,-8956.491898,76.609550,222.061783
1290.570698,-9474.636058,153.219100,740.205942
1290.571010,-9992.780217,536.266849,1332.370696
1290.571321,-9918.759623,689.485948,1554.432478
1290.571632,-9178.553681,536.266849,1036.288319
1290.571944,-7994.224174,-536.266849,518.144159
1290.572255,-7254.018232,-842.705048,-74.020594
1290.572566,-6809.894666,-766.095498,-444.123565
1290.572878,-7624.121203,-459.657299,-814.226536
1290.573189,-8956.491898,229.828649,-666.185348
1290.573500,-10436.903782,1072.533697,296.082377
1290.573812,-11251.130318,2145.067394,1110.308913
1290.574123,-10807.006753,2068.457845,1554.432478
1290.574434,-10140.821405,1915.238745,1480.411884
1290.574746,-7994.224174,1378.971896,1554.432478
1290.575057,-5995.668130,76.609550,666.185348
1290.575368,-5181.441594,-153.219100,-518.144159
1290.575680,-5403.503377,0.000000,-740.205942
1290.575991,-7031.956449,383.047749,-518.144159
1290.576302,-9178.553681,229.828649,-0.000000
1290.576614,-11769.274478,459.657299,666.185348
1290.576925,-12657.521608,1072.533697,1332.370696
1290.577236,-11621.233289,1685.410096,1850.514855
1290.577548,-10288.862594,919.314598,2146.597232
1290.577859,-8142.265362,0.000000,1406.391290
1290.578170,-6439.791695,-153.219100,740.205942
1290.578482,-4885.359217,-306.438199,296.082377
1290.578793,-5921.647536,-459.657299,-518.144159
1290.579104,-7698.141797,0.000000,-666.185348
1290.579416,-9400.615463,0.000000,-666.185348
1290.579727,-10362.883188,0.000000,-0.000000
1290.580038,-10955.047942,-306.438199,370.102971
1290.580350,-11029.068536,-689.485948,592.164754
1290.580661,-10214.842000,-612.876398,296.082377
1290.580972,-8808.450710,-842.705048,592.164754
1290.581284,-8660.409521,-842.705048,740.205942
1290.581595,-9548.656652,-919.314598,1184.329507
1290.581906,-10362.883188,-1149.143247,1110.308913
1290.582218,-10288.862594,-612.876398,1036.288319
1290.582529,-10140.821405,0.000000,1628.453072
1290.582840,-9622.677246,-383.047749,1628.453072
1290.583152,-8734.430116,-1149.143247,1110.308913
1290.583463,-7920.203579,-1532.190996,666.185348
1290.583775,-7179.997637,-1378.971896,-0.000000
1290.584086,-7476.080014,-612.876398,-148.041188
1290.584397,-8364.327145,306.438199,-296.082377
1290.584709,-9844.739029,612.876398,-592.164754
1290.585020,-10658.965565,536.266849,518.144159
1290.585331,-10584.944971,1455.581446,740.205942
1290.585643,-10510.924376,1608.800546,888.247130
1290.585954,-9696.697840,995.924147,1036.288319
1290.586265,-7772.162391,-229.828649,666.185348
1290.586577,-5847.626942,-1072.533697,-0.000000
1290.586888,-5107.421000,-1149.143247,-444.123565
1290.587199,-6217.729913,-995.924147,-370.102971
1290.587511,-7994.224174,-306.438199,-148.041188
1290.587822,-10436.903782,0.000000,296.082377
1290.588134,-12213.398043,536.266849,666.185348
1290.588445,-12361.439231,1762.019645,1998.556043
1290.588756,-11473.192101,919.314598,2368.659014
1290.589068,-9474.636058,0.000000,1776.494261
1290.589379,-7105.977043,-229.828649,1184.329507
1290.589690,-5477.523971,-229.828649,148.041188
1290.590002,-4885.359217,-383.047749,-148.041188
1290.590313,-6439.791695,-689.485948,-666.185348
1290.590625,-7920.203579,0.000000,-814.226536
1290.590936,-9104.533087,76.609550,-814.226536
1290.591247,-10362.883188,229.828649,-148.041188
1290.591559,-11029.068536,612.876398,444.123565
1290.591870,-10807.006753,-153.219100,444.123565
1290.592181,-9178.553681,-612.876398,740.205942
1290.592493,-7846.182985,-689.485948,518.144159
1290.592804,-7920.203579,-1072.533697,296.082377
1290.593116,-8734.430116,-612.876398,444.123565
1290.593427,-9770.718434,-689.485948,666.185348
1290.593738,-10214.842000,-995.924147,1258.350101
1290.594050,-9918.759623,229.828649,1554.432478
1290.594361,-9548.656652,689.485948,1110.308913
1290.594672,-9400.615463,-766.095498,666.185348
1290.594984,-8142.265362,-2068.457845,296.082377
1290.595295,-6735.874072,-1378.971896,-0.000000
1290.595607,-7105.977043,153.219100,-888.247130
1290.595918,-8512.368333,0.000000,-444.123565
1290.596229,-10140.821405,-612.876398,-74.020594
1290.596541,-11843.295072,-153.219100,592.164754
1290.596852,-11399.171507,766.095498,1924.535449
1290.597164,-10955.047942,153.219100,2368.659014
1290.597475,-9844.739029,-689.485948,1628.453072
1290.597786,-7476.080014,-1149.143247,814.226536
1290.598098,-5329.482782,-1762.019645,-148.041188
1290.598409,-4737.318029,-612.876398,-518.144159
1290.598720,-6957.935855,0.000000,-1184.329507
1290.599032,-8956.491898,689.485948,-666.185348
1290.599343,-11325.150913,612.876398,-0.000000
1290.599655,-12879.583391,1378.971896,1628.453072
1290.599966,-12805.562797,1991.848295,2368.659014
1290.600277,-11547.212695,1378.971896,2442.679609
1290.600589,-9104.533087,459.657299,2368.659014
1290.600900,-6365.771101,-842.705048,1406.391290
1290.601211,-4441.235652,-306.438199,370.102971
1290.601523,-5255.462188,229.828649,-518.144159
1290.601834,-7105.977043,459.657299,-1110.308913
1290.602146,-8586.388927,995.924147,-888.247130
1290.602457,-9474.636058,1455.581446,-370.102971
1290.602768,-10214.842000,1532.190996,-0.000000
1290.603080,-10732.986159,1378.971896,518.144159
1290.603391,-10214.842000,995.924147,370.102971
1290.603702,-8734.430116,842.705048,444.123565
1290.604014,-7179.997637,919.314598,518.144159
1290.604325,-7476.080014,536.266849,296.082377
1290.604637,-8438.347739,76.609550,740.205942
1290.604948,-8956.491898,76.609550,814.226536
1290.605259,-9474.636058,153.219100,1258.350101
1290.605571,-9770.718434,306.438199,1036.288319
1290.605882,-9696.697840,-459.657299,1184.329507
1290.606193,-9400.615463,-766.095498,814.226536
1290.606505,-7994.224174,-1838.629195,296.082377
1290.606816,-6957.935855,-1225.752797,-0.000000
1290.607128,-7254.018232,-306.438199,-518.144159
1290.607439,-8364.327145,0.000000,-74.020594
1290.607750,-9844.739029,0.000000,-0.000000
1290.608062,-10288.862594,536.266849,814.226536
1290.608373,-10436.903782,459.657299,1702.473667
1290.608684,-10140.821405,229.828649,1036.288319
1290.608996,-8290.306550,-306.438199,1332.370696
1290.609307,-6883.915261,-1838.629195,-74.020594
1290.609619,-6217.729913,-2145.067394,-962.267725
1290.609930,-6661.853478,-1302.362347,-1480.411884
1290.610241,-8660.409521,-536.266849,-962.267725
1290.610553,-9992.780217,-1072.533697,-296.082377
1290.610864,-12361.439231,-919.314598,148.041188
1290.611175,-13027.624579,0.000000,1924.535449
1290.611487,-11991.336260,306.438199,2368.659014
1290.611798,-10658.965565,-383.047749,2220.617826
1290.612110,-8364.327145,-766.095498,1850.514855
1290.612421,-6735.874072,-766.095498,666.185348
1290.612732,-5107.421000,-1225.752797,-222.061783
1290.613044,-6069.688724,-229.828649,-592.164754
1290.613355,-8438.347739,-383.047749,-814.226536
1290.613666,-9548.656652,153.219100,-518.144159
1290.613978,-10732.986159,306.438199,-222.061783
1290.614289,-11621.233289,76.609550,296.082377
1290.614601,-11251.130318,536.266849,814.226536
1290.614912,-10214.842000,229.828649,518.144159
1290.615223,-7994.224174,229.828649,444.123565
1290.615535,-7105.977043,229.828649,1258.350101
1290.615846,-8068.244768,0.000000,740.205942
1290.616158,-8364.327145,0.000000,814.226536
1290.616469,-9622.677246,-153.219100,1406.391290
1290.616780,-9474.636058,0.000000,1554.432478
1290.617092,-9474.636058,536.266849,1480.411884
1290.617403,-8586.388927,0.000000,814.226536
1290.617714,-7920.203579,-1072.533697,518.144159
1290.618026,-6883.915261,-1225.752797,444.123565
1290.618337,-7105.977043,153.219100,-296.082377
1290.618649,-7772.162391,383.047749,-296.082377
1290.618960,-9030.512492,229.828649,518.144159
1290.619271,-10066.800811,383.047749,814.226536
1290.619583,-10066.800811,995.924147,1406.391290
1290.619894,-9622.677246,842.705048,1332.370696
1290.620205,-9104.533087,306.438199,1406.391290
1290.620517,-7994.224174,-919.314598,1036.288319
1290.620828,-6069.688724,-919.314598,296.082377
1290.621140,-5477.523971,-1225.752797,-444.123565
1290.621451,-5773.606348,-1149.143247,-814.226536
1290.621762,-7624.121203,-612.876398,-814.226536
1290.622074,-9918.759623,-459.657299,-74.020594
1290.622385,-11991.336260,536.266849,888.247130
1290.622696,-12509.480420,1225.752797,2294.638420
1290.623008,-12509.480420,383.047749,2516.700203
1290.623319,-10955.047942,-766.095498,2368.659014
1290.623631,-7846.182985,-1302.362347,1184.329507
1290.623942,-6069.688724,-2221.676944,-0.000000
1290.624253,-5107.421000,-1762.019645,-814.226536
1290.624565,-6291.750507,-1838.629195,-1850.514855
1290.624876,-8734.430116,-689.485948,-1776.494261
1290.625187,-9844.739029,0.000000,-740.205942
1290.625499,-10881.027347,-229.828649,222.061783
1290.625810,-12213.398043,76.609550,444.123565
1290.626122,-12065.356855,0.000000,962.267725
1290.626433,-9992.780217,-153.219100,592.164754
1290.626744,-8142.265362,153.219100,370.102971
1290.627056,-7179.997637,306.438199,518.144159
1290.627367,-7624.121203,-229.828649,-0.000000
1290.627678,-9326.594869,-995.924147,296.082377
1290.627990,-10066.800811,0.000000,666.185348
1290.628301,-10584.944971,689.485948,592.164754
1290.628613,-10140.821405,766.095498,592.164754
1290.628924,-9474.636058,0.000000,666.185348
1290.629235,-8512.368333,-1532.190996,296.082377
1290.629547,-7105.977043,0.000000,222.061783
1290.629858,-6661.853478,689.485948,-0.000000
1290.630169,-8068.244768,919.314598,-740.205942
1290.630481,-9400.615463,1378.971896,296.082377
1290.630792,-9992.780217,1225.752797,666.185348
1290.631104,-9622.677246,1455.581446,1628.453072
1290.631415,-9400.615463,689.485948,1702.473667
1290.631726,-8438.347739,-383.047749,1406.391290
1290.632038,-6291.750507,-383.047749,444.123565
1290.632349,-5847.626942,-459.657299,-740.205942
1290.632661,-5625.565159,0.000000,-592.164754
1290.632972,-6809.894666,0.000000,-518.144159
1290.633283,-9104.533087,459.657299,-296.082377
1290.633595,-10955.047942,1149.143247,814.226536
1290.633906,-12139.377449,1991.848295,1406.391290
1290.634217,-11843.295072,2068.457845,2664.741391
1290.634529,-11547.212695,1455.581446,2516.700203
1290.634840,-9030.512492,-383.047749,2442.679609
1290.635152,-5773.606348,-995.924147,1332.370696
1290.635463,-4367.215058,-1685.410096,370.102971
1290.635774,-4737.318029,-1532.190996,-518.144159
1290.636086,-6883.915261,-1225.752797,-1628.453072
1290.636397,-8586.388927,-383.047749,-1036.288319
1290.636708,-9548.656652,76.609550,-296.082377
1290.637020,-11991.336260,0.000000,444.123565
1290.637331,-12361.439231,229.828649,2072.576638
1290.637643,-11917.315666,229.828649,1702.473667
1290.637954,-9770.718434,-689.485948,1258.350101
1290.638265,-7994.224174,-383.047749,1184.329507
1290.638577,-7920.203579,-766.095498,518.144159
1290.638888,-8512.368333,-1608.800546,-0.000000
1290.639199,-8660.409521,-1838.629195,518.144159
1290.639511,-9474.636058,-919.314598,666.185348
1290.639822,-10214.842000,0.000000,1110.308913
1290.640134,-10658.965565,0.000000,1110.308913
1290.640445,-10288.862594,-1072.533697,1554.432478
1290.640756,-8882.471304,-1302.362347,962.267725
1290.641068,-6957.935855,-536.266849,740.205942
1290.641379,-7179.997637,306.438199,-444.123565
1290.641690,-7550.100608,536.266849,-518.144159
1290.642002,-8438.347739,1685.410096,-518.144159
1290.642313,-9474.636058,766.095498,592.164754
1290.642625,-10140.821405,0.000000,1554.432478
1290.642936,-10584.944971,-536.266849,1924.535449
1290.643247,-9030.512492,-1302.362347,1110.308913
1290.643559,-7476.080014,-1378.971896,296.082377
1290.643870,-6291.750507,-1149.143247,-592.164754
1290.644181,-5995.668130,-306.438199,-888.247130
1290.644493,-7846.182985,229.828649,-592.164754
1290.644804,-9770.718434,383.047749,-74.020594
1290.645116,-11325.150913,1149.143247,740.205942
1290.645427,-12435.459826,1838.629195,1998.556043
1290.645738,-11325.150913,1838.629195,2516.700203
1290.646050,-9770.718434,459.657299,2738.761985
1290.646361,-6883.915261,-919.314598,1702.473667
1290.646672,-5255.462188,-1225.752797,518.144159
1290.646984,-4737.318029,-919.314598,-296.082377
1290.647295,-5921.647536,-229.828649,-1184.329507
1290.647607,-8660.409521,306.438199,-1850.514855
1290.647918,-9992.780217,995.924147,-1036.288319
1290.648229,-11177.109724,1225.752797,-74.020594
1290.648541,-12065.356855,919.314598,666.185348
1290.648852,-11251.130318,383.047749,1480.411884
1290.649163,-9400.615463,-229.828649,962.267725
1290.649475,-7550.100608,-689.485948,888.247130
1290.649786,-6217.729913,-842.705048,888.247130
1290.650098,-7031.956449,-1532.190996,444.123565
1290.650409,-8808.450710,-1149.143247,444.123565
1290.650720,-9844.739029,-689.485948,888.247130
1290.651032,-10955.047942,76.609550,740.205942
1290.651343,-11177.109724,689.485948,814.226536
1290.651655,-10510.924376,-306.438199,1554.432478
1290.651966,-9474.636058,-1225.752797,962.267725
1290.652277,-7624.121203,-995.924147,740.205942
1290.652589,-7105.977043,306.438199,-0.000000
1290.652900,-7179.997637,995.924147,-444.123565
1290.653211,-8438.347739,459.657299,-148.041188
1290.653523,-9474.636058,0.000000,444.123565
1290.653834,-9622.677246,-229.828649,814.226536
1290.654146,-9696.697840,229.828649,1702.473667
1290.654457,-9918.759623,-459.657299,1628.453072
1290.654768,-9030.512492,-1608.800546,814.226536
1290.655080,-8216.285956,-2451.505594,-0.000000
1290.655391,-7402.059420,-1608.800546,-666.185348
1290.655702,-7624.121203,0.000000,-814.226536
1290.656014,-9474.636058,689.485948,-518.144159
1290.656325,-11325.150913,306.438199,-0.000000
1290.656637,-12065.356855,383.047749,666.185348
1290.656948,-11325.150913,459.657299,2146.597232
1290.657259,-10436.903782,919.314598,2294.638420
1290.657571,-8734.430116,0.000000,1850.514855
1290.657882,-6513.812290,-995.924147,1036.288319
1290.658193,-4885.359217,-1608.800546,444.123565
1290.658505,-4663.297435,-919.314598,-962.267725
1290.658816,-6957.935855,0.000000,-1628.453072
1290.659128,-8808.450710,459.657299,-1332.370696
1290.659439,-10436.903782,459.657299,-1184.329507
1290.659750,-11769.274478,1072.533697,296.082377
1290.660062,-11843.295072,1149.143247,962.267725
1290.660373,-11103.089130,842.705048,814.226536
1290.660684,-8660.409521,229.828649,962.267725
1290.660996,-6587.832884,76.609550,1110.308913
1290.661307,-5773.606348,76.609550,444.123565
1290.661619,-7328.038826,-459.657299,-0.000000
1290.661930,-8956.491898,0.000000,222.061783
1290.662241,-10214.842000,612.876398,888.247130
1290.662553,-10658.965565,919.314598,740.205942
1290.662864,-10955.047942,1378.971896,1480.411884
1290.663175,-10214.842000,76.609550,1036.288319
1290.663487,-8808.450710,-766.095498,1184.329507
1290.663798,-7402.059420,-383.047749,1036.288319
1290.664110,-7105.977043,536.266849,-0.000000
1290.664421,-7698.141797,536.266849,-296.082377
1290.664732,-8808.450710,766.095498,-0.000000
1290.665044,-9178.553681,995.924147,222.061783
1290.665355,-9400.615463,1149.143247,1036.288319
1290.665666,-9252.574275,919.314598,1258.350101
1290.665978,-8586.388927,0.000000,1184.329507
1290.666289,-7920.203579,-842.705048,296.082377
1290.666601,-7328.038826,-1762.019645,296.082377
1290.666912,-7254.018232,-612.876398,-74.020594
1290.667223,-8438.347739,229.828649,-148.041188
1290.667535,-10140.821405,306.438199,148.041188
1290.667846,-11325.150913,76.609550,1110.308913
1290.668158,-11103.089130,76.609550,1554.432478
1290.668469,-10955.047942,689.485948,2516.700203
1290.668780,-9770.718434,306.438199,2220.617826
1290.669092,-8068.244768,-766.095498,1776.494261
1290.669403,-6809.894666,-1685.410096,814.226536
1290.669714,-4959.379811,-1378.971896,-0.000000
1290.670026,-5255.462188,-689.485948,-666.185348
1290.670337,-7402.059420,-229.828649,-1184.329507
1290.670649,-8956.491898,153.219100,-1036.288319
1290.670960,-10807.006753,76.609550,-740.205942
1290.671271,-11177.109724,766.095498,296.082377
1290.671583,-10807.006753,766.095498,1110.308913
1290.671894,-10510.924376,-383.047749,592.164754
1290.672205,-8438.347739,-842.705048,666.185348
1290.672517,-6883.915261,-1072.533697,740.205942
1290.672828,-7105.977043,-1149.143247,370.102971
1290.673140,-8660.409521,-1149.143247,370.102971
1290.673451,-9844.739029,-1149.143247,592.164754
1290.673762,-10658.965565,-689.485948,444.123565
1290.674074,-11103.089130,-459.657299,1332.370696
1290.674385,-10658.965565,76.609550,1110.308913
1290.674696,-9844.739029,-306.438199,962.267725
1290.675008,-8734.430116,-919.314598,814.226536
1290.675319,-7402.059420,-919.314598,518.144159
1290.675631,-7179.997637,1149.143247,-148.041188
1290.675942,-7846.182985,919.314598,-444.123565
1290.676253,-8808.450710,842.705048,-0.000000
1290.676565,-9548.656652,306.438199,-74.020594
1290.676876,-9474.636058,842.705048,666.185348
1290.677187,-9770.718434,612.876398,444.123565
1290.677499,-8956.491898,0.000000,296.082377
1290.677810,-8512.368333,-229.828649,-222.061783
1290.678122,-7105.977043,-995.924147,-148.041188
1290.678433,-6809.894666,0.000000,-444.123565
1290.678744,-8734.430116,-536.266849,-444.123565
1290.679056,-10214.842000,383.047749,370.102971
1290.679367,-10955.047942,612.876398,1406.391290
1290.679678,-11547.212695,612.876398,2294.638420
1290.679990,-10732.986159,153.219100,2960.823768
1290.680301,-9252.574275,-383.047749,1480.411884
1290.680613,-7105.977043,-1149.143247,1628.453072
1290.680924,-5033.400406,-1608.800546,370.102971
1290.681235,-4885.359217,-1532.190996,-814.226536
1290.681547,-6217.729913,-995.924147,-888.247130
1290.681858,-8216.285956,-76.609550,-962.267725
1290.682169,-9696.697840,-229.828649,-148.041188
1290.682481,-10807.006753,0.000000,592.164754
1290.682792,-11769.274478,229.828649,1480.411884
1290.683104,-10807.006753,-536.266849,1332.370696
1290.683415,-8956.491898,0.000000,1036.288319
1290.683726,-7031.956449,-229.828649,518.144159
1290.684038,-5847.626942,-995.924147,666.185348
1290.684349,-7254.018232,-2068.457845,-0.000000
1290.684660,-9030.512492,-1685.410096,222.061783
1290.684972,-10436.903782,-536.266849,740.205942
1290.685283,-11325.150913,0.000000,592.164754
1290.685595,-11843.295072,229.828649,1184.329507
1290.685906,-10955.047942,-153.219100,814.226536
1290.686218,-9844.739029,-536.266849,518.144159
1290.686529,-8290.306550,153.219100,592.164754
1290.686841,-7179.997637,842.705048,518.144159
1290.687152,-7994.224174,1225.752797,-0.000000
1290.687464,-8660.409521,1532.190996,-0.000000
1290.687775,-9104.533087,2068.457845,370.102971
1290.688087,-9770.718434,1302.362347,296.082377
1290.688398,-8734.430116,1378.971896,444.123565
1290.688710,-9326.594869,766.095498,-148.041188
1290.689021,-8512.368333,0.000000,-370.102971
1290.689333,-7772.162391,-153.219100,-370.102971
1290.689644,-8364.327145,-229.828649,-370.102971
1290.689956,-8216.285956,0.000000,-0.000000
1290.690267,-9844.739029,76.609550,370.102971
1290.690579,-10066.800811,995.924147,1406.391290
1290.690890,-10436.903782,1378.971896,1702.473667
1290.691202,-10658.965565,1762.019645,2294.638420
1290.691513,-8808.450710,1302.362347,2294.638420
1290.691825,-7476.080014,306.438199,1702.473667
1290.692136,-5255.462188,-766.095498,962.267725
1290.692448,-5107.421000,-1532.190996,-592.164754
1290.692759,-5921.647536,-842.705048,-888.247130
1290.693071,-7476.080014,0.000000,-888.247130
1290.693382,-9474.636058,-459.657299,-1110.308913
1290.693694,-10658.965565,0.000000,296.082377
1290.694005,-11843.295072,459.657299,1036.288319
1290.694317,-11325.150913,383.047749,1702.473667
1290.694628,-9770.718434,766.095498,1258.350101
1290.694940,-8290.306550,0.000000,962.267725
1290.695251,-6143.709319,-153.219100,666.185348
1290.695563,-5625.565159,-383.047749,-0.000000
1290.695874,-6957.935855,-1762.019645,-148.041188
1290.696185,-8586.388927,-2221.676944,296.082377
1290.696497,-10510.924376,-2221.676944,148.041188
1290.696808,-11695.253884,-1302.362347,888.247130
1290.697120,-12213.398043,-383.047749,1406.391290
1290.697431,-11843.295072,-689.485948,1332.370696
1290.697743,-10955.047942,-1302.362347,740.205942
1290.698054,-9474.636058,0.000000,1628.453072
1290.698366,-7846.182985,229.828649,888.247130
1290.698677,-7328.038826,536.266849,-0.000000
1290.698989,-7328.038826,995.924147,518.144159
1290.699300,-7624.121203,76.609550,296.082377
1290.699612,-8512.368333,0.000000,-0.000000
1290.699923,-9326.594869,229.828649,-0.000000
1290.700235,-9104.533087,0.000000,-370.102971
1290.700546,-9326.594869,-766.095498,-370.102971
1290.700858,-9252.574275,-1302.362347,-0.000000
1290.701169,-8956.491898,-1378.971896,-74.020594
1290.701481,-9326.594869,-689.485948,-0.000000
1290.701792,-10214.842000,0.000000,1036.288319
1290.702104,-10732.986159,1072.533697,1332.370696
1290.702415,-10436.903782,1685.410096,1850.514855
1290.702727,-9696.697840,1302.362347,2294.638420
1290.703038,-8734.430116,383.047749,1110.308913
1290.703350,-7031.956449,-383.047749,1258.350101
1290.703661,-5181.441594,0.000000,-0.000000
1290.703973,-5255.462188,-1149.143247,-666.185348
1290.704284,-5921.647536,-1378.971896,-740.205942
1290.704596,-7698.141797,-842.705048,-1258.350101
1290.704907,-9918.759623,-612.876398,-0.000000
1290.705219,-11547.212695,919.314598,814.226536
1290.705530,-12139.377449,1149.143247,1258.350101
1290.705842,-11695.253884,1838.629195,1406.391290
1290.706153,-8956.491898,1532.190996,1110.308913
1290.706465,-6513.812290,612.876398,444.123565
1290.706776,-4737.318029,-459.657299,296.082377
1290.707088,-5181.441594,-229.828649,-1184.329507
1290.707399,-7031.956449,-612.876398,-888.247130
1290.707711,-9178.553681,-1225.752797,-148.041188
1290.708022,-11547.212695,-1225.752797,592.164754
1290.708334,-12953.603985,-612.876398,1628.453072
1290.708645,-13027.624579,-1072.533697,1702.473667
1290.708957,-11177.109724,-995.924147,1776.494261
1290.709268,-9622.677246,-229.828649,1776.494261
1290.709580,-7402.059420,-153.219100,814.226536
1290.709891,-6587.832884,0.000000,296.082377
1290.710203,-7105.977043,153.219100,-370.102971
1290.710514,-7624.121203,612.876398,-74.020594
1290.710826,-8586.388927,689.485948,-666.185348
1290.711137,-9474.636058,689.485948,-296.082377
1290.711449,-9622.677246,229.828649,-0.000000
1290.711760,-8882.471304,-612.876398,-0.000000
1290.712072,-9104.533087,-1532.190996,296.082377
1290.712383,-8882.471304,-1991.848295,148.041188
1290.712695,-8660.409521,-1378.971896,296.082377
1290.713006,-9992.780217,-612.876398,666.185348
1290.713318,-10658.965565,76.609550,962.267725
1290.713629,-10362.883188,1532.190996,1036.288319
1290.713941,-10066.800811,1532.190996,1554.432478
1290.714252,-9474.636058,919.314598,1332.370696
1290.714564,-8956.491898,306.438199,1258.350101
1290.714875,-7105.977043,0.000000,518.144159
1290.715187,-5921.647536,-1072.533697,-0.000000
1290.715498,-6365.771101,-1072.533697,-296.082377
1290.715810,-7698.141797,-842.705048,-666.185348
1290.716121,-9548.656652,-229.828649,-370.102971
1290.716433,-10510.924376,689.485948,296.082377
1290.716744,-11103.089130,1608.800546,888.247130
1290.717056,-11917.315666,1762.019645,1036.288319
1290.717367,-10510.924376,2528.115143,-0.000000
1290.717678,-8660.409521,1608.800546,-0.000000
1290.717990,-6217.729913,1072.533697,-74.020594
1290.718301,-4515.256246,766.095498,-148.041188
1290.718613,-6513.812290,-842.705048,-1332.370696
1290.718924,-8290.306550,-1838.629195,-222.061783
1290.719236,-10140.821405,-1072.533697,148.041188
1290.719547,-11695.253884,229.828649,1332.370696
1290.719859,-12213.398043,919.314598,2368.659014
1290.720170,-11917.315666,-842.705048,1850.514855
1290.720482,-9326.594869,-842.705048,1702.473667
1290.720793,-7550.100608,229.828649,1184.329507
1290.721105,-5995.668130,1149.143247,666.185348
1290.721416,-6439.791695,1225.752797,-444.123565
1290.721728,-7328.038826,842.705048,-222.061783
1290.722039,-7179.997637,766.095498,222.061783
1290.722351,-8882.471304,229.828649,-74.020594
1290.722662,-9918.759623,689.485948,666.185348
1290.722974,-10584.944971,459.657299,592.164754
1290.723285,-9400.615463,-459.657299,444.123565
1290.723597,-8512.368333,-1378.971896,740.205942
1290.723908,-8216.285956,-1378.971896,148.041188
1290.724220,-8216.285956,-1149.143247,740.205942
1290.724531,-9474.636058,-153.219100,592.164754
1290.724843,-9992.780217,689.485948,1036.288319
1290.725154,-10584.944971,689.485948,1332.370696
1290.725466,-10362.883188,689.485948,1924.535449
1290.725777,-9474.636058,383.047749,2220.617826
1290.726089,-8068.244768,-766.095498,1850.514855
1290.726400,-6587.832884,-1378.971896,1110.308913
1290.726712,-6513.812290,-2145.067394,296.082377
1290.727023,-7698.141797,-1608.800546,-148.041188
1290.727335,-9178.553681,-1225.752797,148.041188
1290.727646,-10510.924376,76.609550,-296.082377
1290.727958,-11251.130318,1225.752797,370.102971
1290.728269,-11399.171507,1762.019645,740.205942
1290.728581,-10066.800811,2068.457845,962.267725
1290.728892,-8586.388927,1762.019645,148.041188
1290.729204,-7105.977043,459.657299,-0.000000
1290.729515,-4885.359217,-766.095498,-0.000000
1290.729827,-4811.338623,-766.095498,-370.102971
1290.730138,-6883.915261,-1149.143247,-666.185348
1290.730450,-9030.512492,-1915.238745,148.041188
1290.730761,-11325.150913,-2145.067394,666.185348
1290.731073,-12509.480420,-1302.362347,1628.453072
1290.731384,-12509.480420,-919.314598,2146.597232
1290.731696,-11547.212695,-995.924147,1776.494261
1290.732007,-9770.718434,-842.705048,1258.350101
1290.732319,-6957.935855,536.266849,444.123565
1290.732630,-4737.318029,612.876398,-296.082377
1290.732942,-5699.585753,766.095498,-1036.288319
1290.733253,-6587.832884,1302.362347,-518.144159
1290.733565,-8808.450710,1149.143247,-740.205942
1290.733876,-10658.965565,1149.143247,-148.041188
1290.734188,-11103.089130,1378.971896,370.102971
1290.734499,-10955.047942,612.876398,-148.041188
1290.734811,-9400.615463,-766.095498,296.082377
1290.735122,-8142.265362,-1455.581446,370.102971
1290.735434,-7105.977043,-1149.143247,-0.000000
1290.735745,-7476.080014,153.219100,148.041188
1290.736057,-9326.594869,383.047749,-0.000000
1290.736368,-9326.594869,306.438199,888.247130
1290.736680,-10436.903782,1149.143247,1258.350101
1290.736991,-10362.883188,919.314598,1702.473667
1290.737303,-9844.739029,306.438199,1258.350101
1290.737614,-8956.491898,-459.657299,1184.329507
1290.737926,-6883.915261,-1149.143247,1332.370696
1290.738237,-7105.977043,-1838.629195,-0.000000
1290.738549,-7328.038826,-1685.410096,-148.041188
1290.738860,-8438.347739,-306.438199,-296.082377
1290.739171,-9918.759623,-459.657299,444.123565
1290.739483,-10807.006753,612.876398,962.267725
1290.739794,-11399.171507,1072.533697,1628.453072
1290.740106,-10362.883188,766.095498,1776.494261
1290.740417,-9030.512492,-229.828649,888.247130
1290.740729,-7105.977043,-766.095498,-0.000000
1290.741040,-5107.421000,-842.705048,-370.102971
1290.741352,-5699.585753,-1455.581446,-740.205942
1290.741663,-7550.100608,-2145.067394,-444.123565
1290.741975,-9918.759623,-2298.286494,592.164754
1290.742286,-12065.356855,-1915.238745,1406.391290
1290.742598,-13027.624579,-153.219100,2072.576638
1290.742909,-12435.459826,383.047749,2664.741391
1290.743221,-10584.944971,-383.047749,2220.617826
1290.743532,-8290.306550,76.609550,1258.350101
1290.743844,-5551.544565,76.609550,296.082377
1290.744155,-4959.379811,229.828649,-518.144159
1290.744467,-5921.647536,766.095498,-666.185348
1290.744778,-7920.203579,612.876398,-888.247130
1290.745090,-9548.656652,306.438199,-666.185348
1290.745401,-10140.821405,536.266849,148.041188
1290.745713,-10510.924376,919.314598,222.061783
1290.746024,-10732.986159,689.485948,444.123565
1290.746336,-9918.759623,-842.705048,1184.329507
1290.746647,-8586.388927,-1149.143247,740.205942
1290.746959,-7402.059420,612.876398,962.267725
1290.747270,-7994.224174,1302.362347,222.061783
1290.747582,-8882.471304,1685.410096,-0.000000
1290.747893,-9474.636058,2221.676944,518.144159
1290.748205,-9400.615463,2068.457845,222.061783
1290.748516,-8808.450710,2068.457845,666.185348
1290.748828,-9326.594869,919.314598,592.164754
1290.749139,-9030.512492,-612.876398,740.205942
1290.749451,-7920.203579,-1225.752797,148.041188
1290.749762,-7846.182985,-1378.971896,-0.000000
1290.750074,-8068.244768,-689.485948,444.123565
1290.750385,-9844.739029,-306.438199,-0.000000
1290.750697,-9992.780217,536.266849,666.185348
1290.751008,-9770.718434,1072.533697,518.144159
1290.751320,-9326.594869,1838.629195,1184.329507
1290.751631,-8290.306550,1225.752797,888.247130
1290.751943,-7476.080014,0.000000,-0.000000
1290.752254,-5773.606348,-1072.533697,-74.020594
1290.752566,-5181.441594,-1072.533697,-444.123565
1290.752877,-6735.874072,-1378.971896,-222.061783
1290.753189,-9326.594869,-3217.601092,444.123565
1290.753500,-11843.295072,-2681.334243,1036.288319
1290.753812,-13545.768739,-1915.238745,1480.411884
1290.754123,-13323.706956,-229.828649,2516.700203
1290.754435,-11991.336260,0.000000,2220.617826
1290.754746,-9844.739029,-383.047749,2220.617826
1290.755058,-7031.956449,-612.876398,1332.370696
1290.755369,-4515.256246,-153.219100,444.123565
1290.755681,-4811.338623,0.000000,-962.267725
1290.755992,-6587.832884,-76.609550,-888.247130
1290.756304,-8142.265362,-459.657299,-666.185348
1290.756615,-9918.759623,-459.657299,-370.102971
1290.756927,-11399.171507,-153.219100,740.205942
1290.757238,-11695.253884,0.000000,1184.329507
1290.757550,-11251.130318,-766.095498,1332.370696
1290.757861,-9992.780217,-1072.533697,1554.432478
1290.758173,-8068.244768,-1149.143247,814.226536
1290.758484,-7105.977043,-153.219100,518.144159
1290.758796,-7624.121203,842.705048,222.061783
1290.759107,-8068.244768,842.705048,222.061783
1290.759419,-9474.636058,766.095498,518.144159
1290.759730,-9622.677246,1225.752797,1110.308913
1290.760041,-9622.677246,1225.752797,1628.453072
1290.760353,-10214.842000,0.000000,1258.350101
1290.760664,-8438.347739,-919.314598,1110.308913
1290.760976,-7402.059420,-1378.971896,222.061783
1290.761287,-7031.956449,-842.705048,-222.061783
1290.761599,-7550.100608,153.219100,-148.041188
1290.761910,-8956.491898,1072.533697,-222.061783
1290.762222,-9622.677246,1608.800546,518.144159
1290.762533,-9918.759623,1915.238745,814.226536
1290.762845,-9474.636058,1838.629195,666.185348
1290.763156,-8438.347739,1378.971896,666.185348
1290.763468,-7476.080014,-689.485948,-0.000000
1290.763779,-5847.626942,-1838.629195,-370.102971
1290.764091,-5921.647536,-1685.410096,-814.226536
1290.764402,-7254.018232,-1302.362347,-370.102971
1290.764714,-9844.739029,-1838.629195,222.061783
1290.765025,-12065.356855,-2298.286494,1480.411884
1290.765337,-12805.562797,-153.219100,2294.638420
1290.765648,-12953.603985,1072.533697,2368.659014
1290.765960,-10955.047942,919.314598,1924.535449
1290.766271,-8216.285956,459.657299,1332.370696
1290.766583,-5181.441594,0.000000,444.123565
1290.766894,-3478.967927,-459.657299,-740.205942
1290.767206,-4811.338623,-612.876398,-1480.411884
1290.767517,-6883.915261,-1302.362347,-814.226536
1290.767829,-9474.636058,-1608.800546,-666.185348
1290.768140,-10955.047942,-1378.971896,148.041188
1290.768452,-12583.501014,-383.047749,1332.370696
1290.768763,-12953.603985,-612.876398,1332.370696
1290.769075,-11325.150913,-766.095498,1110.308913
1290.769386,-9548.656652,-689.485948,666.185348
1290.769698,-7105.977043,0.000000,148.041188
1290.770009,-6735.874072,842.705048,-592.164754
1290.770321,-7846.182985,1225.752797,-444.123565
1290.770632,-7698.141797,1072.533697,-0.000000
1290.770944,-9400.615463,306.438199,296.082377
1290.771255,-10066.800811,229.828649,1554.432478
1290.771567,-10732.986159,0.000000,1258.350101
1290.771878,-10658.965565,-536.266849,962.267725
1290.772190,-8956.491898,-766.095498,962.267725
1290.772501,-8068.244768,-1455.581446,444.123565
1290.772813,-7772.162391,-1149.143247,-296.082377
1290.773124,-8882.471304,153.219100,-370.102971
1290.773436,-9474.636058,1378.971896,222.061783
1290.773747,-9474.636058,2068.457845,370.102971
1290.774059,-9474.636058,2451.505594,740.205942
1290.774370,-8142.265362,1915.238745,370.102971
1290.774682,-6883.915261,689.485948,296.082377
1290.774993,-6217.729913,-842.705048,-518.144159
1290.775305,-5403.503377,-766.095498,-518.144159
1290.775616,-6809.894666,-766.095498,-814.226536
1290.775928,-9030.512492,-1455.581446,444.123565
1290.776239,-11473.192101,-1608.800546,1184.329507
1290.776551,-13249.686362,-612.876398,2368.659014
1290.776862,-12879.583391,1302.362347,2590.720797
1290.777174,-11621.233289,1838.629195,2220.617826
1290.777485,-9400.615463,1455.581446,1776.494261
1290.777797,-5921.647536,1149.143247,888.247130
1290.778108,-4145.153275,153.219100,-592.164754
1290.778420,-3404.947333,0.000000,-814.226536
1290.778731,-5329.482782,0.000000,-1184.329507
1290.779043,-8290.306550,0.000000,-888.247130
1290.779354,-10881.027347,-153.219100,-666.185348
1290.779666,-12879.583391,383.047749,740.205942
1290.779977,-13397.727550,536.266849,1184.329507
1290.780289,-12287.418637,1302.362347,1480.411884
1290.780600,-10732.986159,306.438199,518.144159
1290.780912,-8068.244768,0.000000,148.041188
1290.781223,-5551.544565,76.609550,-222.061783
1290.781534,-5255.462188,612.876398,-296.082377
1290.781846,-6439.791695,536.266849,-74.020594
1290.782157,-8882.471304,-229.828649,-0.000000
1290.782469,-10288.862594,0.000000,962.267725
1290.782780,-10955.047942,-153.219100,1998.556043
1290.783092,-11103.089130,-689.485948,1924.535449
1290.783403,-10362.883188,-2298.286494,1480.411884
1290.783715,-8586.388927,-2451.505594,1480.411884
1290.784026,-7550.100608,-2298.286494,1110.308913
1290.784338,-7550.100608,-995.924147,592.164754
1290.784649,-8956.491898,76.609550,296.082377
1290.784961,-9992.780217,1072.533697,1036.288319
1290.785272,-9474.636058,689.485948,962.267725
1290.785584,-8882.471304,1378.971896,1184.329507
1290.785895,-7846.182985,1378.971896,-0.000000
1290.786207,-7179.997637,-153.219100,-0.000000
1290.786518,-5847.626942,-1378.971896,-148.041188
1290.786830,-5847.626942,-1991.848295,-148.041188
1290.787141,-8586.388927,-1455.581446,-74.020594
1290.787453,-10658.965565,-1685.410096,962.267725
1290.787764,-12953.603985,-1378.971896,2072.576638
1290.788076,-13767.830521,153.219100,2368.659014
1290.788387,-12509.480420,1378.971896,2590.720797
1290.788699,-10658.965565,1378.971896,2072.576638
1290.789010,-8142.265362,1302.362347,1776.494261
1290.789321,-5477.523971,229.828649,222.061783
1290.789633,-3478.967927,-153.219100,-592.164754
1290.789944,-3627.009116,0.000000,-1332.370696
1290.790256,-6513.812290,-229.828649,-2146.597232
1290.790567,-9548.656652,76.609550,-1406.391290
1290.790879,-11103.089130,0.000000,-0.000000
1290.791190,-12953.603985,-153.219100,1184.329507
1290.791501,-13767.830521,0.000000,1924.535449
1290.791813,-12657.521608,0.000000,2072.576638
1290.792124,-10214.842000,0.000000,1480.411884
1290.792436,-6439.791695,-383.047749,962.267725
1290.792747,-4515.256246,0.000000,-222.061783
1290.793058,-5033.400406,766.095498,-1258.350101
1290.793370,-6069.688724,1302.362347,-962.267725
1290.793681,-7624.121203,1225.752797,-592.164754
1290.793993,-9844.739029,1455.581446,222.061783
1290.794304,-11177.109724,0.000000,1406.391290
1290.794615,-11473.192101,-536.266849,814.226536
1290.794927,-10362.883188,-1302.362347,1184.329507
1290.795238,-9252.574275,-1608.800546,1036.288319
1290.795550,-8290.306550,-1302.362347,296.082377
1290.795861,-8438.347739,-612.876398,-74.020594
1290.796173,-8956.491898,0.000000,-0.000000
1290.796484,-8734.430116,306.438199,-0.000000
1290.796795,-8512.368333,383.047749,296.082377
1290.797107,-8290.306550,153.219100,666.185348
1290.797418,-6957.935855,-766.095498,222.061783
1290.797730,-6809.894666,-2145.067394,-370.102971
1290.798041,-6661.853478,-2374.896044,-444.123565
1290.798352,-7920.203579,-2528.115143,-666.185348
1290.798664,-10362.883188,-2604.724693,370.102971
1290.798975,-12361.439231,-2451.505594,962.267725
1290.799287,-14063.912898,-612.876398,1998.556043
1290.799598,-13619.789333,612.876398,2368.659014
1290.799909,-12287.418637,459.657299,2220.617826
1290.800221,-10732.986159,306.438199,1702.473667
1290.800532,-7105.977043,612.876398,1036.288319
1290.800844,-4367.215058,536.266849,-518.144159
1290.801155,-3330.926739,229.828649,-1036.288319
1290.801466,-3923.091493,0.000000,-1554.432478
1290.801778,-7105.977043,153.219100,-2072.576638
1290.802089,-9622.677246,153.219100,-666.185348
1290.802401,-11769.274478,995.924147,888.247130
1290.802712,-13989.892304,842.705048,1628.453072
1290.803024,-13693.809927,1072.533697,2220.617826
1290.803335,-11843.295072,612.876398,1554.432478
1290.803646,-8734.430116,229.828649,962.267725
1290.803958,-5773.606348,612.876398,888.247130
1290.804269,-4811.338623,1532.190996,-222.061783
1290.804581,-5107.421000,1302.362347,-444.123565
1290.804892,-6365.771101,306.438199,148.041188
1290.805203,-8512.368333,612.876398,148.041188
1290.805515,-10510.924376,1149.143247,1110.308913
1290.805826,-11325.150913,919.314598,1184.329507
1290.806138,-11029.068536,0.000000,962.267725
1290.806449,-8956.491898,-459.657299,1036.288319
1290.806760,-7402.059420,0.000000,740.205942
1290.807072,-7402.059420,0.000000,518.144159
1290.807383,-7698.141797,612.876398,370.102971
1290.807695,-8068.244768,1532.190996,444.123565
1290.808006,-7846.182985,2374.896044,370.102971
1290.808318,-8364.327145,2374.896044,-0.000000
1290.808629,-7698.141797,842.705048,-296.082377
1290.808940,-6735.874072,-689.485948,-444.123565
1290.809252,-6439.791695,-1455.581446,-518.144159
1290.809563,-6661.853478,-2298.286494,-0.000000
1290.809875,-9400.615463,-2911.162892,-0.000000
1290.810186,-11621.233289,-3217.601092,1480.411884
1290.810497,-13397.727550,-2757.943793,1924.535449
1290.810809,-14285.974681,-1608.800546,2368.659014
1290.811120,-13249.686362,306.438199,2516.700203
1290.811432,-12287.418637,842.705048,2146.597232
1290.811743,-9400.615463,536.266849,1480.411884
1290.812054,-5477.523971,536.266849,444.123565
1290.812366,-3701.029710,-995.924147,-740.205942
1290.812677,-3182.885551,-1149.143247,-666.185348
1290.812989,-4737.318029,-1225.752797,-1628.453072
1290.813300,-7920.203579,-612.876398,-1406.391290
1290.813611,-10658.965565,-766.095498,-370.102971
1290.813923,-13249.686362,-383.047749,814.226536
1290.814234,-14878.139434,-306.438199,1776.494261
1290.814546,-14285.974681,0.000000,1998.556043
1290.814857,-12065.356855,-689.485948,1036.288319
1290.815169,-9104.533087,-536.266849,148.041188
1290.815480,-6291.750507,459.657299,-518.144159
1290.815791,-5921.647536,0.000000,-962.267725
1290.816103,-5403.503377,459.657299,-148.041188
1290.816414,-7031.956449,229.828649,518.144159
1290.816726,-9178.553681,-306.438199,888.247130
1290.817037,-10066.800811,0.000000,1628.453072
1290.817348,-10955.047942,383.047749,1480.411884
1290.817660,-10066.800811,0.000000,1332.370696
1290.817971,-9548.656652,-459.657299,518.144159
1290.818283,-8438.347739,-306.438199,296.082377
1290.818594,-7920.203579,612.876398,-370.102971
1290.818905,-8734.430116,842.705048,-0.000000
1290.819217,-9030.512492,1455.581446,222.061783
1290.819528,-8512.368333,1455.581446,444.123565
1290.819840,-7550.100608,1685.410096,296.082377
1290.820151,-6069.688724,995.924147,296.082377
1290.820463,-6439.791695,-459.657299,-592.164754
1290.820774,-6217.729913,-766.095498,-814.226536
1290.821085,-6365.771101,-1225.752797,-296.082377
1290.821397,-8734.430116,-1378.971896,148.041188
1290.821708,-11399.171507,-1072.533697,1036.288319
1290.822020,-14211.954086,-1225.752797,2294.638420
1290.822331,-13841.851115,-612.876398,3108.864956
1290.822642,-11843.295072,536.266849,3034.844362
1290.822954,-9844.739029,842.705048,2368.659014
1290.823265,-7105.977043,766.095498,740.205942
1290.823577,-4663.297435,-229.828649,-74.020594
1290.823888,-3627.009116,-1225.752797,-814.226536
1290.824199,-3478.967927,-306.438199,-1036.288319
1290.824511,-5995.668130,-383.047749,-1554.432478
1290.824822,-9474.636058,-1225.752797,-888.247130
1290.825134,-11695.253884,-1685.410096,666.185348
1290.825445,-13471.748144,-1532.190996,1480.411884
1290.825756,-14359.995275,-919.314598,2072.576638
1290.826068,-13027.624579,0.000000,2220.617826
1290.826379,-11177.109724,0.000000,444.123565
1290.826691,-7402.059420,306.438199,148.041188
1290.827002,-4737.318029,766.095498,-814.226536
1290.827314,-5329.482782,-153.219100,-1110.308913
1290.827625,-6143.709319,-612.876398,-148.041188
1290.827936,-7994.224174,-1149.143247,370.102971
1290.828248,-9474.636058,-459.657299,962.267725
1290.828559,-12065.356855,612.876398,962.267725
1290.828871,-12657.521608,76.609550,1628.453072
1290.829182,-11769.274478,-1225.752797,1036.288319
1290.829493,-9770.718434,-536.266849,1036.288319
1290.829805,-8956.491898,-306.438199,296.082377
1290.830116,-9252.574275,153.219100,-0.000000
1290.830428,-8882.471304,612.876398,-0.000000
1290.830739,-8364.327145,1149.143247,-0.000000
1290.831050,-7846.182985,1532.190996,-0.000000
1290.831362,-7698.141797,1838.629195,-370.102971
1290.831673,-7328.038826,919.314598,-740.205942
1290.831985,-6661.853478,0.000000,-740.205942
1290.832296,-6439.791695,-536.266849,-888.247130
1290.832608,-7476.080014,-306.438199,-444.123565
1290.832919,-9770.718434,-1225.752797,370.102971
1290.833230,-11769.274478,-1149.143247,1480.411884
1290.833542,-13101.645173,-459.657299,2072.576638
1290.833853,-12657.521608,1149.143247,2738.761985
1290.834165,-10955.047942,1608.800546,2516.700203
1290.834476,-8956.491898,1149.143247,1702.473667
1290.834787,-5403.503377,766.095498,740.205942
1290.835099,-2812.782580,-153.219100,-592.164754
1290.835410,-2516.700203,76.609550,-1554.432478
1290.835722,-4441.235652,383.047749,-1702.473667
1290.836033,-7772.162391,-229.828649,-1702.473667
1290.836344,-10732.986159,-536.266849,-148.041188
1290.836656,-13027.624579,-459.657299,1554.432478
1290.836967,-14359.995275,-153.219100,2146.597232
1290.837279,-13841.851115,612.876398,2516.700203
1290.837590,-11399.171507,612.876398,2220.617826
1290.837901,-8290.306550,0.000000,666.185348
1290.838213,-5107.421000,153.219100,-0.000000
1290.838524,-3330.926739,383.047749,-518.144159
1290.838836,-4663.297435,0.000000,-962.267725
1290.839147,-6883.915261,-842.705048,-592.164754
1290.839459,-9622.677246,-383.047749,-0.000000
1290.839770,-12287.418637,-229.828649,1036.288319
1290.840081,-13397.727550,0.000000,1776.494261
1290.840393,-13545.768739,-842.705048,2294.638420
1290.840704,-12287.418637,-1532.190996,1628.453072
1290.841016,-9844.739029,0.000000,666.185348
1290.841327,-7994.224174,153.219100,-370.102971
1290.841638,-7031.956449,1072.533697,-296.082377
1290.841950,-6957.935855,1072.533697,-148.041188
1290.842261,-7994.224174,383.047749,-148.041188
1290.842573,-7846.182985,766.095498,740.205942
1290.842884,-7698.141797,1302.362347,444.123565
1290.843195,-7105.977043,383.047749,814.226536
1290.843507,-7846.182985,-2374.896044,-74.020594
1290.843818,-7476.080014,-2911.162892,-148.041188
1290.844130,-8142.265362,-2374.896044,-0.000000
1290.844441,-10214.842000,-1302.362347,666.185348
1290.844753,-12139.377449,-919.314598,1998.556043
1290.845064,-13545.768739,-1149.143247,2516.700203
1290.845375,-12213.398043,-459.657299,3108.864956
1290.845687,-10140.821405,-229.828649,2886.803174
1290.845998,-7846.182985,536.266849,1924.535449
1290.846310,-5255.462188,459.657299,888.247130
1290.846621,-3478.967927,-536.266849,-666.185348
1290.846932,-2886.803174,-612.876398,-1480.411884
1290.847244,-4663.297435,229.828649,-1406.391290
1290.847555,-8216.285956,842.705048,-888.247130
1290.847867,-11843.295072,306.438199,148.041188
1290.848178,-13323.706956,689.485948,1776.494261
1290.848489,-13915.871710,842.705048,2294.638420
1290.848801,-12657.521608,1302.362347,2072.576638
1290.849112,-9844.739029,766.095498,1628.453072
1290.849424,-6957.935855,153.219100,444.123565
1290.849735,-3997.112087,842.705048,-962.267725
1290.850046,-3478.967927,1532.190996,-1850.514855
1290.850358,-5773.606348,459.657299,-2072.576638
1290.850669,-8290.306550,0.000000,-962.267725
1290.850981,-10955.047942,153.219100,370.102971
1290.851292,-12657.521608,459.657299,1850.514855
1290.851604,-14285.974681,0.000000,2368.659014
1290.851915,-13767.830521,-1302.362347,2812.782580
1290.852226,-11029.068536,-1608.800546,2220.617826
1290.852538,-7402.059420,-1302.362347,1110.308913
1290.852849,-6587.832884,-689.485948,222.061783
1290.853161,-6291.750507,0.000000,-592.164754
1290.853472,-6661.853478,383.047749,-740.205942
1290.853783,-6587.832884,689.485948,-740.205942
1290.854095,-7698.141797,689.485948,-296.082377
1290.854406,-8808.450710,383.047749,-296.082377
1290.854718,-9252.574275,-153.219100,-222.061783
1290.855029,-8734.430116,153.219100,-222.061783
1290.855340,-8512.368333,-1762.019645,-148.041188
1290.855652,-8956.491898,-1225.752797,222.061783
1290.855963,-10955.047942,-1455.581446,666.185348
1290.856275,-11991.336260,-842.705048,1332.370696
1290.856586,-11769.274478,-153.219100,2146.597232
1290.856898,-10658.965565,689.485948,2220.617826
1290.857209,-9030.512492,0.000000,1628.453072
1290.857520,-7179.997637,-919.314598,592.164754
1290.857832,-5033.400406,-995.924147,-0.000000
1290.858143,-4367.215058,-1072.533697,-1184.329507
1290.858455,-5995.668130,-995.924147,-1554.432478
1290.858766,-8364.327145,-383.047749,-1332.370696
1290.859077,-11325.150913,0.000000,-370.102971
1290.859389,-12213.398043,1149.143247,962.267725
1290.859700,-13323.706956,1302.362347,1554.432478
1290.860012,-12657.521608,689.485948,2294.638420
1290.860323,-11399.171507,229.828649,1406.391290
1290.860634,-8216.285956,153.219100,814.226536
1290.860946,-4885.359217,612.876398,-296.082377
1290.861257,-3849.070898,766.095498,-1258.350101
1290.861569,-4737.318029,229.828649,-1850.514855
1290.861880,-7105.977043,0.000000,-1554.432478
1290.862191,-9992.780217,1149.143247,-518.144159
1290.862503,-11917.315666,1915.238745,888.247130
1290.862814,-14211.954086,1072.533697,2368.659014
1290.863126,-13989.892304,153.219100,2590.720797
1290.863437,-11325.150913,0.000000,2516.700203
1290.863749,-7624.121203,-153.219100,1850.514855
1290.864060,-5033.400406,459.657299,518.144159
1290.864371,-4737.318029,612.876398,-0.000000
1290.864683,-5551.544565,766.095498,-888.247130
1290.864994,-6883.915261,383.047749,-814.226536
1290.865306,-7994.224174,1072.533697,148.041188
1290.865617,-9770.718434,1072.533697,296.082377
1290.865928,-10362.883188,536.266849,518.144159
1290.866240,-9326.594869,-689.485948,370.102971
1290.866551,-8216.285956,-1455.581446,666.185348
1290.866863,-7846.182985,-995.924147,1110.308913
1290.867174,-9622.677246,-1072.533697,592.164754
1290.867485,-10066.800811,-689.485948,1184.329507
1290.867797,-10658.965565,-306.438199,1850.514855
1290.868108,-10658.965565,76.609550,2146.597232
1290.868420,-9474.636058,689.485948,2146.597232
1290.868731,-8364.327145,0.000000,1332.370696
1290.869043,-6513.812290,-842.705048,592.164754
1290.869354,-4959.379811,-995.924147,-370.102971
1290.869665,-5403.503377,-842.705048,-1036.288319
1290.869977,-7476.080014,-229.828649,-1554.432478
1290.870288,-9918.759623,-1149.143247,-296.082377
1290.870600,-11991.336260,-766.095498,814.226536
1290.870911,-13175.665768,0.000000,1554.432478
1290.871222,-13545.768739,383.047749,2516.700203
1290.871534,-12879.583391,76.609550,1924.535449
1290.871845,-9844.739029,-766.095498,1480.411884
1290.872157,-5699.585753,-766.095498,592.164754
1290.872468,-3997.112087,-1455.581446,-1480.411884
1290.872779,-3923.091493,-612.876398,-1998.556043
1290.873091,-6217.729913,-383.047749,-1628.453072
1290.873402,-9030.512492,-153.219100,-814.226536
1290.873714,-11843.295072,306.438199,444.123565
1290.874025,-13841.851115,1225.752797,1924.535449
1290.874336,-14063.912898,612.876398,2812.782580
1290.874648,-12583.501014,-383.047749,2886.803174
1290.874959,-9178.553681,-1532.190996,2146.597232
1290.875271,-6069.688724,-612.876398,666.185348
1290.875582,-4959.379811,-383.047749,-222.061783
