#time,accel_x,accel_y,accel_z
1276.036654,-8956.491898,0.000000,370.102971
1276.036965,-8734.430116,-76.609550,518.144159
1276.037276,-9252.574275,-229.828649,296.082377
1276.037588,-8808.450710,-153.219100,444.123565
1276.037899,-8882.471304,0.000000,518.144159
1276.038210,-9030.512492,-229.828649,518.144159
1276.038521,-8956.491898,0.000000,666.185348
1276.038832,-9104.533087,0.000000,370.102971
1276.039144,-9030.512492,0.000000,148.041188
1276.039455,-9104.533087,76.609550,666.185348
1276.039766,-8734.430116,-536.266849,740.205942
1276.040077,-8956.491898,-306.438199,666.185348
1276.040389,-8956.491898,153.219100,444.123565
1276.040700,-8808.450710,0.000000,592.164754
1276.041011,-8882.471304,0.000000,518.144159
1276.041322,-8956.491898,0.000000,444.123565
1276.041633,-8586.388927,153.219100,592.164754
1276.041945,-8808.450710,-306.438199,592.164754
1276.042256,-8586.388927,-229.828649,518.144159
1276.042567,-9104.533087,-153.219100,518.144159
1276.042878,-8882.471304,0.000000,666.185348
1276.043190,-8956.491898,0.000000,666.185348
1276.043501,-9178.553681,0.000000,666.185348
1276.043812,-8734.430116,0.000000,740.205942
1276.044123,-8660.409521,-153.219100,444.123565
1276.044434,-8586.388927,0.000000,518.144159
1276.044746,-8660.409521,0.000000,592.164754
1276.045057,-8734.430116,-153.219100,814.226536
1276.045368,-8956.491898,0.000000,444.123565
1276.045679,-8808.450710,0.000000,592.164754
1276.045991,-8882.471304,0.000000,370.102971
1276.046302,-8956.491898,229.828649,814.226536
1276.046613,-8438.347739,-689.485948,888.247130
1276.046924,-8734.430116,0.000000,444.123565
1276.047235,-9030.512492,0.000000,666.185348
1276.047547,-8882.471304,0.000000,518.144159
1276.047858,-8808.450710,0.000000,518.144159
1276.048169,-8882.471304,-153.219100,592.164754
1276.048480,-9178.553681,0.000000,444.123565
1276.048792,-9030.512492,612.876398,370.102971
1276.049103,-8808.450710,-459.657299,518.144159
1276.049414,-8734.430116,-459.657299,148.041188
1276.049725,-9030.512492,0.000000,370.102971
1276.050036,-9030.512492,0.000000,518.144159
1276.050348,-8882.471304,76.609550,592.164754
1276.050659,-8956.491898,-229.828649,444.123565
1276.050970,-9252.574275,-229.828649,592.164754
1276.051281,-8734.430116,229.828649,1036.288319
1276.051593,-9030.512492,0.000000,444.123565
1276.051904,-8586.388927,306.438199,370.102971
1276.052215,-9030.512492,-153.219100,518.144159
1276.052526,-8956.491898,-153.219100,518.144159
1276.052837,-9030.512492,76.609550,518.144159
1276.053149,-9178.553681,0.000000,592.164754
1276.053460,-9030.512492,-229.828649,444.123565
1276.053771,-9178.553681,229.828649,370.102971
1276.054082,-8734.430116,0.000000,740.205942
1276.054394,-8660.409521,0.000000,370.102971
1276.054705,-8882.471304,0.000000,444.123565
1276.055016,-8808.450710,-153.219100,518.144159
1276.055327,-8808.450710,0.000000,666.185348
1276.055638,-8808.450710,0.000000,740.205942
1276.055950,-9178.553681,0.000000,296.082377
1276.056261,-8882.471304,-229.828649,518.144159
1276.056572,-8586.388927,-306.438199,592.164754
1276.056883,-8586.388927,0.000000,592.164754
1276.057195,-8734.430116,0.000000,518.144159
1276.057506,-8882.471304,0.000000,592.164754
1276.057817,-9104.533087,-229.828649,518.144159
1276.058128,-8956.491898,0.000000,444.123565
1276.058439,-8956.491898,306.438199,740.205942
1276.058751,-8512.368333,-612.876398,740.205942
1276.059062,-8512.368333,0.000000,592.164754
1276.059373,-8734.430116,153.219100,296.082377
1276.059684,-8956.491898,0.000000,444.123565
1276.059996,-9104.533087,0.000000,666.185348
1276.060307,-8882.471304,0.000000,666.185348
1276.060618,-9030.512492,0.000000,296.082377
1276.060929,-8882.471304,-229.828649,444.123565
1276.061240,-8660.409521,0.000000,666.185348
1276.061552,-8734.430116,-153.219100,518.144159
1276.061863,-8808.450710,0.000000,592.164754
1276.062174,-8808.450710,0.000000,518.144159
1276.062485,-9104.533087,0.000000,740.205942
1276.062797,-8956.491898,-306.438199,666.185348
1276.063108,-8956.491898,153.219100,518.144159
1276.063419,-8882.471304,0.000000,222.061783
1276.063730,-8364.327145,-306.438199,740.205942
1276.064041,-8956.491898,76.609550,148.041188
1276.064353,-9030.512492,-153.219100,518.144159
1276.064664,-9030.512492,0.000000,444.123565
1276.064975,-9104.533087,-153.219100,222.061783
1276.065286,-8882.471304,0.000000,666.185348
1276.065598,-8734.430116,153.219100,592.164754
1276.065909,-8808.450710,-689.485948,592.164754
1276.066220,-8512.368333,153.219100,740.205942
1276.066531,-8808.450710,0.000000,518.144159
1276.066842,-8956.491898,0.000000,444.123565
1276.067154,-8808.450710,0.000000,592.164754
1276.067465,-9030.512492,-229.828649,444.123565
1276.067776,-8956.491898,0.000000,444.123565
1276.068087,-9030.512492,76.609550,518.144159
1276.068399,-9696.697840,459.657299,444.123565
1276.068710,-12065.356855,1072.533697,-0.000000
1276.069021,-10288.862594,4060.306139,296.082377
1276.069332,-8216.285956,4826.401637,666.185348
1276.069643,-7328.038826,2757.943793,1184.329507
1276.069955,-6587.832884,0.000000,1184.329507
1276.070266,-7254.018232,-1302.362347,-74.020594
1276.070577,-7105.977043,-459.657299,-0.000000
1276.070888,-8808.450710,-459.657299,-592.164754
1276.071200,-12583.501014,-995.924147,-888.247130
1276.071511,-11325.150913,612.876398,444.123565
1276.071822,-9696.697840,842.705048,740.205942
1276.072133,-8660.409521,-536.266849,2368.659014
1276.072444,-10510.924376,-306.438199,2146.597232
1276.072756,-10955.047942,2374.896044,1258.350101
1276.073067,-5847.626942,5592.497135,2664.741391
1276.073378,-5699.585753,4366.744339,1702.473667
1276.073689,-8142.265362,3064.381992,148.041188
1276.074001,-7254.018232,2911.162892,-740.205942
1276.074312,-8290.306550,2987.772442,-2146.597232
1276.074623,-9178.553681,3753.867940,-370.102971
1276.074934,-9696.697840,3294.210641,-962.267725
1276.075245,-14137.933492,1072.533697,-888.247130
1276.075557,-11029.068536,-1225.752797,2590.720797
1276.075868,-8734.430116,-536.266849,1406.391290
1276.076179,-10584.944971,2834.553343,1332.370696
1276.076490,-7772.162391,7124.688131,2442.679609
1276.076802,-8290.306550,4596.572988,1258.350101
1276.077113,-6143.709319,3140.991542,2960.823768
1276.077424,-5995.668130,5592.497135,1258.350101
1276.077735,-7772.162391,7507.735880,-296.082377
1276.078046,-9178.553681,6511.811733,-1258.350101
1276.078358,-10140.821405,4826.401637,-592.164754
1276.078669,-9918.759623,5592.497135,-2294.638420
1276.078980,-11177.109724,5362.668486,-444.123565
1276.079291,-11325.150913,4519.963438,148.041188
1276.079603,-10807.006753,3830.477490,1998.556043
1276.079914,-10362.883188,4443.353888,2220.617826
1276.080225,-7994.224174,4826.401637,2368.659014
1276.080536,-6365.771101,5056.230287,962.267725
1276.080847,-6291.750507,4826.401637,370.102971
1276.081159,-5107.421000,4903.011187,962.267725
1276.081470,-5107.421000,4749.792088,-1110.308913
1276.081781,-7179.997637,3830.477490,-740.205942
1276.082092,-9474.636058,3217.601092,-814.226536
1276.082404,-9622.677246,1991.848295,-148.041188
1276.082715,-11251.130318,1915.238745,740.205942
1276.083026,-10658.965565,919.314598,1406.391290
1276.083337,-10881.027347,229.828649,1480.411884
1276.083648,-10362.883188,1302.362347,1628.453072
1276.083960,-8290.306550,3983.696590,1554.432478
1276.084271,-7254.018232,4519.963438,370.102971
1276.084582,-6587.832884,3140.991542,370.102971
1276.084893,-7105.977043,3907.087040,-592.164754
1276.085205,-7031.956449,3907.087040,-592.164754
1276.085516,-6661.853478,3294.210641,-1258.350101
1276.085827,-8290.306550,1072.533697,-1110.308913
1276.086138,-9770.718434,-1838.629195,-296.082377
1276.086449,-11029.068536,-2528.115143,296.082377
1276.086761,-12583.501014,-2681.334243,1184.329507
1276.087072,-13693.809927,-1455.581446,1776.494261
1276.087383,-13397.727550,-459.657299,1702.473667
1276.087694,-12139.377449,2528.115143,814.226536
1276.088006,-9696.697840,2987.772442,444.123565
1276.088317,-7105.977043,4060.306139,-0.000000
1276.088628,-5699.585753,4673.182538,740.205942
1276.088939,-5847.626942,4366.744339,814.226536
1276.089250,-6883.915261,2834.553343,888.247130
1276.089562,-8438.347739,689.485948,148.041188
1276.089873,-10140.821405,-306.438199,-0.000000
1276.090184,-11177.109724,-1072.533697,-666.185348
1276.090495,-11991.336260,-1991.848295,-296.082377
1276.090807,-12657.521608,-2834.553343,296.082377
1276.091118,-13175.665768,-1991.848295,296.082377
1276.091429,-11843.295072,766.095498,1110.308913
1276.091740,-9844.739029,3370.820191,1554.432478
1276.092051,-7476.080014,4749.792088,1998.556043
1276.092363,-4219.173869,4290.134789,1406.391290
1276.092674,-1258.350101,5056.230287,740.205942
1276.092985,0.000000,3983.696590,-888.247130
1276.093296,-1850.514855,2757.943793,-1036.288319
1276.093608,-6365.771101,612.876398,-1332.370696
1276.093919,-11325.150913,-383.047749,-740.205942
1276.094230,-15100.201217,-536.266849,444.123565
1276.094541,-16728.654289,0.000000,2072.576638
1276.094852,-16210.510130,153.219100,2590.720797
1276.095164,-12953.603985,306.438199,1850.514855
1276.095475,-8364.327145,306.438199,1184.329507
1276.095786,-3701.029710,1685.410096,1110.308913
1276.096097,-1480.411884,3447.429741,1110.308913
1276.096409,-222.061783,2911.162892,370.102971
1276.096720,-1850.514855,459.657299,-962.267725
1276.097031,-5181.441594,-1072.533697,-888.247130
1276.097342,-9400.615463,-1149.143247,-888.247130
1276.097653,-13101.645173,-1915.238745,-0.000000
1276.097965,-14804.118840,-2451.505594,1258.350101
1276.098276,-15322.262999,-3677.258390,1924.535449
1276.098587,-13693.809927,-4749.792088,2442.679609
1276.098898,-11843.295072,-3753.867940,1702.473667
1276.099210,-8956.491898,-1225.752797,888.247130
1276.099521,-5773.606348,1532.190996,-0.000000
1276.099832,-4811.338623,2068.457845,-592.164754
1276.100143,-5847.626942,2528.115143,-1406.391290
1276.100454,-7772.162391,1455.581446,-1702.473667
1276.100766,-9326.594869,1149.143247,-740.205942
1276.101077,-10288.862594,1378.971896,-74.020594
1276.101388,-12361.439231,536.266849,74.020594
1276.101699,-13101.645173,-1225.752797,1184.329507
1276.102011,-12435.459826,-2221.676944,1776.494261
1276.102322,-10510.924376,-2681.334243,2146.597232
1276.102633,-9548.656652,-1915.238745,1850.514855
1276.102944,-7994.224174,-1378.971896,1258.350101
1276.103255,-8068.244768,0.000000,370.102971
1276.103567,-7994.224174,1302.362347,-962.267725
1276.103878,-8364.327145,1915.238745,-1406.391290
1276.104189,-9400.615463,2911.162892,-1924.535449
1276.104500,-8512.368333,3294.210641,-1924.535449
1276.104812,-8734.430116,2068.457845,-1258.350101
1276.105123,-8808.450710,1149.143247,-0.000000
1276.105434,-8142.265362,0.000000,1924.535449
1276.105745,-7994.224174,-1608.800546,2886.803174
1276.106056,-7994.224174,-2834.553343,3997.112087
1276.106368,-8882.471304,-2451.505594,3849.070898
1276.106679,-9992.780217,229.828649,2664.741391
1276.106990,-8882.471304,2221.676944,-74.020594
1276.107301,-7698.141797,4213.525239,-1924.535449
1276.107613,-7179.997637,4979.620737,-2664.741391
1276.107924,-7105.977043,3677.258390,-2590.720797
1276.108235,-6365.771101,2604.724693,-740.205942
1276.108546,-6069.688724,919.314598,222.061783
1276.108857,-6291.750507,-919.314598,2516.700203
1276.109169,-6883.915261,-2911.162892,3256.906145
1276.109480,-9030.512492,-3753.867940,3552.988522
1276.109791,-10732.986159,-2221.676944,3627.009116
1276.110102,-11547.212695,-383.047749,2442.679609
1276.110414,-11177.109724,1455.581446,1332.370696
1276.110725,-10214.842000,1685.410096,-740.205942
1276.111036,-8956.491898,1838.629195,-1480.411884
1276.111347,-6957.935855,2374.896044,-2294.638420
1276.111658,-6069.688724,2451.505594,-1628.453072
1276.111970,-5699.585753,-919.314598,-666.185348
1276.112281,-5995.668130,-2298.286494,444.123565
1276.112592,-8364.327145,-3064.381992,1110.308913
1276.112903,-10658.965565,-3064.381992,2368.659014
1276.113215,-12287.418637,-3140.991542,3108.864956
1276.113526,-13323.706956,-2528.115143,3478.967927
1276.113837,-13323.706956,-1915.238745,3404.947333
1276.114149,-12213.398043,-459.657299,1628.453072
1276.114460,-10362.883188,383.047749,592.164754
1276.114772,-7624.121203,1685.410096,-296.082377
1276.115083,-6143.709319,1532.190996,-740.205942
1276.115394,-6217.729913,153.219100,-2220.617826
1276.115706,-6291.750507,-612.876398,-2146.597232
1276.116017,-7920.203579,-1225.752797,-1406.391290
1276.116329,-9770.718434,-1455.581446,444.123565
1276.116640,-11695.253884,-2221.676944,1258.350101
1276.116951,-12361.439231,-1915.238745,1998.556043
1276.117263,-12583.501014,-1915.238745,2812.782580
1276.117574,-11843.295072,-766.095498,2738.761985
1276.117886,-9548.656652,229.828649,2294.638420
1276.118197,-6661.853478,919.314598,666.185348
1276.118508,-5329.482782,1225.752797,-518.144159
1276.118820,-4737.318029,1225.752797,-1258.350101
1276.119131,-5699.585753,1685.410096,-2442.679609
1276.119442,-7698.141797,2221.676944,-1998.556043
1276.119754,-9622.677246,2145.067394,-962.267725
1276.120065,-11991.336260,612.876398,518.144159
1276.120377,-11473.192101,0.000000,1258.350101
1276.120688,-9548.656652,229.828649,2146.597232
1276.120999,-7846.182985,-306.438199,2590.720797
1276.121311,-7105.977043,-995.924147,2664.741391
1276.121622,-7179.997637,-1225.752797,2146.597232
1276.121934,-6883.915261,-919.314598,962.267725
1276.122245,-7994.224174,612.876398,-148.041188
1276.122556,-8660.409521,1838.629195,-1480.411884
1276.122868,-9400.615463,2451.505594,-2072.576638
1276.123179,-9474.636058,1302.362347,-1480.411884
1276.123490,-8734.430116,-919.314598,-814.226536
1276.123802,-8142.265362,-1149.143247,222.061783
1276.124113,-7105.977043,0.000000,1036.288319
1276.124425,-7402.059420,-1762.019645,1628.453072
1276.124736,-8734.430116,-2604.724693,2368.659014
1276.125047,-9770.718434,-2068.457845,2516.700203
1276.125359,-10955.047942,-919.314598,1998.556043
1276.125670,-11399.171507,919.314598,888.247130
1276.125982,-11547.212695,1991.848295,-0.000000
1276.126293,-10362.883188,2604.724693,-444.123565
1276.126604,-9474.636058,612.876398,-1036.288319
1276.126916,-7624.121203,0.000000,-888.247130
1276.127227,-7254.018232,-766.095498,-296.082377
1276.127538,-7476.080014,-1225.752797,-0.000000
1276.127850,-7698.141797,-2068.457845,592.164754
1276.128161,-8956.491898,-3140.991542,1258.350101
1276.128473,-9770.718434,-3064.381992,1850.514855
1276.128784,-10732.986159,-1608.800546,1924.535449
1276.129095,-12213.398043,229.828649,1258.350101
1276.129407,-12213.398043,0.000000,814.226536
1276.129718,-11103.089130,459.657299,222.061783
1276.130030,-9474.636058,766.095498,-888.247130
1276.130341,-7624.121203,1455.581446,-1110.308913
1276.130652,-5551.544565,1149.143247,-1036.288319
1276.130964,-5181.441594,-459.657299,-1036.288319
1276.131275,-5699.585753,-1225.752797,-74.020594
1276.131587,-7402.059420,-2757.943793,1554.432478
1276.131898,-10288.862594,-2221.676944,2368.659014
1276.132209,-11547.212695,-1378.971896,2886.803174
1276.132521,-12361.439231,76.609550,1850.514855
1276.132832,-11991.336260,612.876398,1332.370696
1276.133143,-10436.903782,1838.629195,296.082377
1276.133455,-8216.285956,1838.629195,-0.000000
1276.133766,-5551.544565,1532.190996,-518.144159
1276.134078,-5107.421000,459.657299,-444.123565
1276.134389,-5847.626942,-1532.190996,-592.164754
1276.134700,-6513.812290,-1302.362347,-222.061783
1276.135012,-8364.327145,-383.047749,148.041188
1276.135323,-9400.615463,-459.657299,1036.288319
1276.135635,-10362.883188,-689.485948,666.185348
1276.135946,-10436.903782,-1532.190996,888.247130
1276.136257,-9400.615463,-229.828649,1110.308913
1276.136569,-9030.512492,536.266849,444.123565
1276.136880,-8364.327145,383.047749,740.205942
1276.137191,-7994.224174,-76.609550,962.267725
1276.137503,-7994.224174,-612.876398,222.061783
1276.137814,-7920.203579,76.609550,-222.061783
1276.138126,-9252.574275,1225.752797,-518.144159
1276.138437,-9474.636058,1685.410096,-518.144159
1276.138748,-10436.903782,2221.676944,-592.164754
1276.139060,-10732.986159,766.095498,518.144159
1276.139371,-9400.615463,0.000000,1332.370696
1276.139683,-8438.347739,-459.657299,1332.370696
1276.139994,-8438.347739,-919.314598,2072.576638
1276.140305,-8438.347739,-1149.143247,1332.370696
1276.140617,-8956.491898,-1149.143247,296.082377
1276.140928,-9992.780217,-459.657299,-222.061783
1276.141239,-10214.842000,689.485948,-296.082377
1276.141551,-10658.965565,1149.143247,-888.247130
1276.141862,-10510.924376,842.705048,-666.185348
1276.142174,-9844.739029,536.266849,-740.205942
1276.142485,-8808.450710,229.828649,296.082377
1276.142796,-7994.224174,0.000000,1184.329507
1276.143108,-7105.977043,-153.219100,1850.514855
1276.143419,-7402.059420,-1149.143247,1554.432478
1276.143731,-7328.038826,-766.095498,1924.535449
1276.144042,-8142.265362,-1149.143247,1628.453072
1276.144353,-9770.718434,306.438199,666.185348
1276.144665,-9918.759623,1532.190996,592.164754
1276.144976,-10510.924376,919.314598,-296.082377
1276.145288,-10288.862594,766.095498,-148.041188
1276.145599,-8956.491898,1455.581446,-0.000000
1276.145910,-7698.141797,1302.362347,148.041188
1276.146222,-6365.771101,229.828649,888.247130
1276.146533,-5847.626942,-995.924147,1258.350101
1276.146844,-6291.750507,-2145.067394,1924.535449
1276.147156,-7402.059420,-2221.676944,1628.453072
1276.147467,-8882.471304,-1378.971896,1184.329507
1276.147779,-10066.800811,153.219100,518.144159
1276.148090,-10510.924376,153.219100,-74.020594
1276.148401,-9918.759623,-1072.533697,-296.082377
1276.148713,-9844.739029,-1072.533697,-222.061783
1276.149024,-9104.533087,-689.485948,-222.061783
1276.149336,-8364.327145,-153.219100,592.164754
1276.149647,-7772.162391,-536.266849,444.123565
1276.149958,-8364.327145,-1455.581446,370.102971
1276.150270,-8734.430116,-1915.238745,666.185348
1276.150581,-9104.533087,-766.095498,444.123565
1276.150892,-10066.800811,1072.533697,962.267725
1276.151204,-10807.006753,1455.581446,518.144159
1276.151515,-11029.068536,842.705048,518.144159
1276.151827,-9400.615463,383.047749,814.226536
1276.152138,-8586.388927,459.657299,370.102971
1276.152449,-7846.182985,229.828649,-74.020594
1276.152761,-7698.141797,383.047749,-592.164754
1276.153072,-8216.285956,-1685.410096,-1110.308913
1276.153384,-8808.450710,-995.924147,-814.226536
1276.153695,-9622.677246,-459.657299,-444.123565
1276.154006,-11251.130318,459.657299,-0.000000
1276.154318,-11843.295072,383.047749,1110.308913
1276.154629,-11473.192101,0.000000,1480.411884
1276.154940,-10436.903782,76.609550,1332.370696
1276.155252,-8438.347739,536.266849,1332.370696
1276.155563,-6587.832884,612.876398,814.226536
1276.155875,-5847.626942,-383.047749,296.082377
1276.156186,-6217.729913,-383.047749,-74.020594
1276.156497,-7328.038826,536.266849,-370.102971
1276.156809,-9326.594869,995.924147,-370.102971
1276.157120,-10955.047942,1455.581446,-0.000000
1276.157432,-10881.027347,689.485948,148.041188
1276.157743,-9844.739029,383.047749,592.164754
1276.158054,-8882.471304,229.828649,666.185348
1276.158366,-7476.080014,229.828649,1258.350101
1276.158677,-6957.935855,0.000000,1480.411884
1276.158989,-7031.956449,-1762.019645,2072.576638
1276.159300,-6957.935855,-2604.724693,1998.556043
1276.159611,-7476.080014,-2374.896044,1406.391290
1276.159923,-8290.306550,-1225.752797,814.226536
1276.160234,-9474.636058,-842.705048,-0.000000
1276.160545,-10066.800811,-536.266849,-888.247130
1276.160857,-9474.636058,-459.657299,-148.041188
1276.161168,-9252.574275,-306.438199,-148.041188
1276.161480,-9104.533087,76.609550,-222.061783
1276.161791,-8808.450710,459.657299,444.123565
1276.162102,-8216.285956,0.000000,1184.329507
1276.162414,-7846.182985,-689.485948,1554.432478
1276.162725,-9178.553681,-1302.362347,1332.370696
1276.163037,-9844.739029,76.609550,1480.411884
1276.163348,-10510.924376,1608.800546,962.267725
1276.163659,-10807.006753,1838.629195,370.102971
1276.163971,-10510.924376,1838.629195,-0.000000
1276.164282,-8734.430116,1608.800546,-740.205942
1276.164593,-7624.121203,1532.190996,-962.267725
1276.164905,-6883.915261,-459.657299,-370.102971
1276.165216,-7772.162391,-766.095498,-0.000000
1276.165528,-9178.553681,-842.705048,296.082377
1276.165839,-10288.862594,-1225.752797,962.267725
1276.166150,-10732.986159,-383.047749,1332.370696
1276.166462,-11177.109724,612.876398,740.205942
1276.166773,-11621.233289,1072.533697,888.247130
1276.167085,-10140.821405,1455.581446,296.082377
1276.167396,-9474.636058,536.266849,222.061783
1276.167707,-7328.038826,1532.190996,1406.391290
1276.168019,-5773.606348,919.314598,592.164754
1276.168330,-6069.688724,0.000000,148.041188
1276.168641,-6217.729913,-383.047749,148.041188
1276.168953,-7328.038826,0.000000,-0.000000
1276.169264,-9178.553681,995.924147,-296.082377
1276.169576,-10807.006753,2068.457845,-0.000000
1276.169887,-11843.295072,1838.629195,962.267725
1276.170198,-11251.130318,766.095498,1184.329507
1276.170510,-10140.821405,842.705048,962.267725
1276.170821,-7624.121203,1072.533697,962.267725
1276.171133,-6439.791695,76.609550,370.102971
1276.171444,-5551.544565,-306.438199,592.164754
1276.171755,-5847.626942,-1225.752797,592.164754
1276.172067,-7105.977043,-1685.410096,444.123565
1276.172378,-8734.430116,-995.924147,148.041188
1276.172690,-10732.986159,-612.876398,740.205942
1276.173001,-11103.089130,0.000000,592.164754
1276.173312,-10955.047942,-1072.533697,-0.000000
1276.173624,-10140.821405,-842.705048,222.061783
1276.173935,-9400.615463,-536.266849,296.082377
1276.174246,-8512.368333,0.000000,740.205942
1276.174558,-7624.121203,-612.876398,962.267725
1276.174869,-7920.203579,-1532.190996,1258.350101
1276.175181,-7994.224174,-1455.581446,962.267725
1276.175492,-8734.430116,-842.705048,962.267725
1276.175803,-9178.553681,689.485948,592.164754
1276.176115,-9918.759623,1149.143247,-0.000000
1276.176426,-10436.903782,536.266849,-0.000000
1276.176738,-9400.615463,229.828649,-148.041188
1276.177049,-8956.491898,612.876398,444.123565
1276.177360,-8586.388927,-536.266849,666.185348
1276.177672,-8290.306550,-1072.533697,888.247130
1276.177983,-8586.388927,-1302.362347,370.102971
1276.178294,-9030.512492,-1378.971896,814.226536
1276.178606,-9770.718434,-383.047749,592.164754
1276.178917,-10436.903782,229.828649,222.061783
1276.179229,-10807.006753,1302.362347,-0.000000
1276.179540,-10066.800811,1378.971896,148.041188
1276.179851,-9252.574275,1532.190996,-0.000000
1276.180163,-7476.080014,1225.752797,296.082377
1276.180474,-6661.853478,766.095498,592.164754
1276.180786,-6513.812290,0.000000,518.144159
1276.181097,-7179.997637,-229.828649,814.226536
1276.181408,-7994.224174,0.000000,888.247130
1276.181720,-9474.636058,0.000000,1110.308913
1276.182031,-10140.821405,306.438199,1332.370696
1276.182342,-10066.800811,1378.971896,444.123565
1276.182654,-10140.821405,1225.752797,-74.020594
1276.182965,-9252.574275,1378.971896,518.144159
1276.183277,-7624.121203,1149.143247,370.102971
1276.183588,-7105.977043,536.266849,962.267725
1276.183899,-6439.791695,-153.219100,1628.453072
1276.184211,-6661.853478,-1608.800546,1628.453072
1276.184522,-7772.162391,-2374.896044,1110.308913
1276.184834,-8586.388927,-2145.067394,740.205942
1276.185145,-9548.656652,-995.924147,740.205942
1276.185456,-9918.759623,-536.266849,222.061783
1276.185768,-10658.965565,-842.705048,-0.000000
1276.186079,-10066.800811,-919.314598,592.164754
1276.186391,-8660.409521,-689.485948,222.061783
1276.186702,-8068.244768,383.047749,666.185348
1276.187013,-7476.080014,459.657299,592.164754
1276.187325,-6957.935855,76.609550,740.205942
1276.187636,-7476.080014,-689.485948,518.144159
1276.187947,-8438.347739,-306.438199,666.185348
1276.188259,-9548.656652,536.266849,962.267725
1276.188570,-10214.842000,1532.190996,888.247130
1276.188882,-10362.883188,1072.533697,740.205942
1276.189193,-9992.780217,0.000000,-0.000000
1276.189504,-9474.636058,-766.095498,-0.000000
1276.189816,-8364.327145,-612.876398,148.041188
1276.190127,-7772.162391,-612.876398,666.185348
1276.190439,-8512.368333,-1991.848295,296.082377
1276.190750,-9474.636058,-2374.896044,222.061783
1276.191061,-10288.862594,-1608.800546,74.020594
1276.191373,-10436.903782,0.000000,370.102971
1276.191684,-11325.150913,1302.362347,888.247130
1276.191995,-11177.109724,-383.047749,666.185348
1276.192307,-9918.759623,-612.876398,444.123565
1276.192618,-8808.450710,0.000000,518.144159
1276.192930,-7254.018232,229.828649,740.205942
1276.193241,-6661.853478,-459.657299,296.082377
1276.193552,-6809.894666,-1378.971896,-0.000000
1276.193864,-7920.203579,-1072.533697,-296.082377
1276.194175,-9622.677246,-229.828649,-222.061783
1276.194487,-10881.027347,1838.629195,-518.144159
1276.194798,-11547.212695,1455.581446,148.041188
1276.195109,-11103.089130,1225.752797,-0.000000
1276.195421,-9844.739029,612.876398,296.082377
1276.195732,-8068.244768,842.705048,370.102971
1276.196043,-6513.812290,766.095498,1110.308913
1276.196355,-6365.771101,-306.438199,1406.391290
1276.196666,-6365.771101,-1225.752797,1554.432478
1276.196978,-6661.853478,-1608.800546,962.267725
1276.197289,-8438.347739,-1302.362347,370.102971
1276.197600,-9696.697840,0.000000,370.102971
1276.197912,-10436.903782,689.485948,-148.041188
1276.198223,-10510.924376,383.047749,-888.247130
1276.198535,-9548.656652,306.438199,-814.226536
1276.198846,-8734.430116,766.095498,-814.226536
1276.199157,-7254.018232,612.876398,-0.000000
1276.199469,-7772.162391,0.000000,1184.329507
1276.199780,-7846.182985,-1838.629195,1776.494261
1276.200092,-7994.224174,-2221.676944,2072.576638
1276.200403,-8882.471304,-1072.533697,1924.535449
1276.200714,-9622.677246,306.438199,1332.370696
1276.201026,-9992.780217,842.705048,1036.288319
1276.201337,-9770.718434,612.876398,-74.020594
1276.201648,-9548.656652,612.876398,-296.082377
1276.201960,-7920.203579,0.000000,-296.082377
1276.202271,-7624.121203,0.000000,-0.000000
1276.202583,-7994.224174,-919.314598,666.185348
1276.202894,-8216.285956,-1838.629195,666.185348
1276.203205,-9030.512492,-2221.676944,888.247130
1276.203517,-9844.739029,-1302.362347,1480.411884
1276.203828,-10362.883188,153.219100,1036.288319
1276.204140,-11103.089130,153.219100,1036.288319
1276.204451,-10658.965565,766.095498,1184.329507
1276.204762,-9696.697840,229.828649,1258.350101
1276.205074,-8512.368333,76.609550,592.164754
1276.205385,-7105.977043,766.095498,518.144159
1276.205696,-6143.709319,612.876398,-74.020594
1276.206008,-7105.977043,536.266849,-74.020594
1276.206319,-7402.059420,536.266849,370.102971
1276.206631,-8586.388927,0.000000,-0.000000
1276.206942,-10658.965565,1225.752797,222.061783
1276.207253,-11917.315666,2068.457845,666.185348
1276.207565,-11621.233289,1685.410096,1036.288319
1276.207876,-11399.171507,842.705048,814.226536
1276.208188,-8808.450710,766.095498,1110.308913
1276.208499,-6587.832884,383.047749,740.205942
1276.208810,-6069.688724,306.438199,1258.350101
1276.209122,-5625.565159,-1149.143247,1258.350101
1276.209433,-6217.729913,-2298.286494,666.185348
1276.209744,-7328.038826,-1991.848295,222.061783
1276.210056,-9252.574275,-689.485948,-0.000000
1276.210367,-10955.047942,0.000000,-444.123565
1276.210679,-11399.171507,229.828649,-814.226536
1276.210990,-11251.130318,-229.828649,-296.082377
1276.211301,-9548.656652,-306.438199,-222.061783
1276.211613,-8734.430116,-153.219100,666.185348
1276.211924,-7846.182985,0.000000,1258.350101
1276.212236,-7179.997637,-1149.143247,1924.535449
1276.212547,-6883.915261,-2145.067394,1702.473667
1276.212858,-7624.121203,-1608.800546,1184.329507
1276.213170,-8438.347739,-689.485948,296.082377
1276.213481,-9326.594869,383.047749,-444.123565
1276.213793,-9844.739029,689.485948,-148.041188
1276.214104,-9770.718434,536.266849,-74.020594
1276.214415,-9474.636058,76.609550,-0.000000
1276.214727,-9178.553681,-383.047749,222.061783
1276.215038,-8438.347739,-842.705048,962.267725
1276.215350,-8216.285956,-1225.752797,444.123565
1276.215661,-8068.244768,-1762.019645,444.123565
1276.215973,-9104.533087,-1608.800546,296.082377
1276.216284,-10362.883188,459.657299,-222.061783
1276.216595,-10732.986159,459.657299,740.205942
1276.216907,-11399.171507,229.828649,666.185348
1276.217218,-10584.944971,-383.047749,1184.329507
1276.217530,-9474.636058,-612.876398,518.144159
1276.217841,-7994.224174,0.000000,444.123565
1276.218153,-6661.853478,76.609550,-74.020594
1276.218464,-7105.977043,-766.095498,-222.061783
1276.218775,-7179.997637,-689.485948,222.061783
1276.219087,-9622.677246,-306.438199,-148.041188
1276.219398,-11177.109724,612.876398,592.164754
1276.219710,-11843.295072,1685.410096,962.267725
1276.220021,-12435.459826,1378.971896,1258.350101
1276.220332,-10881.027347,842.705048,814.226536
1276.220644,-8216.285956,842.705048,962.267725
1276.220955,-5625.565159,1532.190996,888.247130
1276.221267,-4959.379811,919.314598,962.267725
1276.221578,-5255.462188,-689.485948,666.185348
1276.221890,-6439.791695,-1302.362347,148.041188
1276.222201,-7846.182985,-689.485948,444.123565
1276.222512,-9770.718434,0.000000,370.102971
1276.222824,-11473.192101,689.485948,-0.000000
1276.223135,-11473.192101,612.876398,148.041188
1276.223447,-10807.006753,459.657299,148.041188
1276.223758,-9474.636058,842.705048,-0.000000
1276.224070,-8068.244768,1225.752797,148.041188
1276.224381,-6809.894666,689.485948,1036.288319
1276.224692,-6069.688724,-766.095498,1332.370696
1276.225004,-6291.750507,-1915.238745,1406.391290
1276.225315,-6587.832884,-1838.629195,1036.288319
1276.225627,-9030.512492,-612.876398,592.164754
1276.225938,-10510.924376,76.609550,444.123565
1276.226250,-11029.068536,306.438199,-222.061783
1276.226561,-11029.068536,153.219100,-0.000000
1276.226872,-9770.718434,-153.219100,-148.041188
1276.227184,-8734.430116,0.000000,296.082377
1276.227495,-8216.285956,-459.657299,444.123565
1276.227807,-7772.162391,-1149.143247,666.185348
1276.228118,-8290.306550,-1149.143247,888.247130
1276.228429,-9178.553681,-919.314598,1036.288319
1276.228741,-9992.780217,76.609550,740.205942
1276.229052,-10288.862594,1225.752797,-0.000000
1276.229364,-10807.006753,1225.752797,-0.000000
1276.229675,-10362.883188,1455.581446,-0.000000
1276.229987,-8956.491898,995.924147,-0.000000
1276.230298,-8216.285956,459.657299,-0.000000
1276.230609,-7031.956449,0.000000,222.061783
1276.230921,-6143.709319,-612.876398,-0.000000
1276.231232,-7698.141797,-995.924147,296.082377
1276.231544,-9474.636058,-459.657299,296.082377
1276.231855,-10510.924376,612.876398,370.102971
1276.232167,-11621.233289,1915.238745,518.144159
1276.232478,-11843.295072,2068.457845,1036.288319
1276.232789,-10955.047942,1762.019645,740.205942
1276.233101,-8808.450710,536.266849,1258.350101
1276.233412,-6439.791695,919.314598,1184.329507
1276.233724,-6069.688724,612.876398,740.205942
1276.234035,-5773.606348,-306.438199,444.123565
1276.234346,-7105.977043,-995.924147,370.102971
1276.234658,-8660.409521,-1378.971896,-148.041188
1276.234969,-9844.739029,-306.438199,-444.123565
1276.235281,-10807.006753,919.314598,-148.041188
1276.235592,-11399.171507,1072.533697,-296.082377
1276.235904,-10140.821405,76.609550,518.144159
1276.236215,-9326.594869,-689.485948,1184.329507
1276.236526,-7698.141797,-229.828649,1480.411884
1276.236838,-6661.853478,229.828649,1776.494261
1276.237149,-6143.709319,-306.438199,1628.453072
1276.237461,-6143.709319,-1302.362347,666.185348
1276.237772,-7031.956449,-1455.581446,370.102971
1276.238084,-8586.388927,-153.219100,-74.020594
1276.238395,-9844.739029,459.657299,222.061783
1276.238706,-11251.130318,919.314598,-222.061783
1276.239018,-11473.192101,612.876398,222.061783
1276.239329,-10510.924376,0.000000,666.185348
1276.239641,-9252.574275,-306.438199,296.082377
1276.239952,-7624.121203,0.000000,740.205942
1276.240263,-7328.038826,0.000000,666.185348
1276.240575,-8068.244768,-1762.019645,1036.288319
1276.240886,-8956.491898,-1225.752797,888.247130
1276.241198,-9548.656652,76.609550,740.205942
1276.241509,-10362.883188,1072.533697,1184.329507
1276.241821,-10362.883188,766.095498,518.144159
1276.242132,-9844.739029,0.000000,-0.000000
1276.242443,-8956.491898,0.000000,-296.082377
1276.242755,-8438.347739,229.828649,-148.041188
1276.243066,-7254.018232,229.828649,-0.000000
1276.243378,-6809.894666,-689.485948,666.185348
1276.243689,-9252.574275,-2068.457845,518.144159
1276.244001,-10066.800811,-1762.019645,888.247130
1276.244312,-10658.965565,383.047749,814.226536
1276.244623,-11399.171507,2221.676944,1036.288319
1276.244935,-10584.944971,1225.752797,1480.411884
1276.245246,-10955.047942,76.609550,592.164754
1276.245558,-8808.450710,612.876398,1480.411884
1276.245869,-6439.791695,1608.800546,1258.350101
1276.246180,-6069.688724,919.314598,592.164754
1276.246492,-5847.626942,-153.219100,444.123565
1276.246803,-6439.791695,-995.924147,148.041188
1276.247115,-7179.997637,-1302.362347,-0.000000
1276.247426,-9252.574275,0.000000,-148.041188
1276.247738,-11695.253884,766.095498,-0.000000
1276.248049,-11843.295072,1378.971896,-222.061783
1276.248360,-11473.192101,459.657299,740.205942
1276.248672,-9400.615463,612.876398,1036.288319
1276.248983,-7846.182985,153.219100,888.247130
1276.249295,-6587.832884,0.000000,1554.432478
1276.249606,-5551.544565,-842.705048,1332.370696
1276.249918,-5625.565159,-1149.143247,962.267725
1276.250229,-6809.894666,-1378.971896,666.185348
1276.250540,-9178.553681,-1685.410096,592.164754
1276.250852,-11547.212695,-919.314598,518.144159
1276.251163,-11917.315666,76.609550,518.144159
1276.251475,-11695.253884,536.266849,296.082377
1276.251786,-9844.739029,0.000000,666.185348
1276.252098,-8512.368333,-1302.362347,666.185348
1276.252409,-7254.018232,-229.828649,592.164754
1276.252720,-6587.832884,-689.485948,962.267725
1276.253032,-7031.956449,-612.876398,666.185348
1276.253343,-8216.285956,-536.266849,518.144159
1276.253655,-9326.594869,229.828649,-296.082377
1276.253966,-9918.759623,229.828649,-74.020594
1276.254277,-10288.862594,76.609550,-814.226536
1276.254589,-10881.027347,229.828649,-444.123565
1276.254900,-10140.821405,-229.828649,-148.041188
1276.255212,-9844.739029,-383.047749,222.061783
1276.255523,-8216.285956,-1072.533697,-0.000000
1276.255835,-7105.977043,-1072.533697,-0.000000
1276.256146,-7624.121203,-842.705048,-0.000000
1276.256457,-7994.224174,-766.095498,518.144159
1276.256769,-8808.450710,-383.047749,148.041188
1276.257080,-9844.739029,919.314598,740.205942
1276.257392,-10807.006753,842.705048,1110.308913
1276.257703,-11029.068536,0.000000,814.226536
1276.258015,-9770.718434,766.095498,518.144159
1276.258326,-8216.285956,995.924147,370.102971
1276.258637,-7179.997637,76.609550,-0.000000
1276.258949,-6809.894666,-612.876398,370.102971
1276.259260,-7846.182985,-1838.629195,-148.041188
1276.259572,-8512.368333,-1685.410096,222.061783
1276.259883,-9622.677246,0.000000,-0.000000
1276.260194,-10658.965565,229.828649,-0.000000
1276.260506,-10510.924376,1685.410096,-148.041188
1276.260817,-10066.800811,842.705048,-0.000000
1276.261129,-8956.491898,383.047749,370.102971
1276.261440,-7031.956449,459.657299,814.226536
1276.261752,-7179.997637,1072.533697,1036.288319
1276.262063,-6291.750507,0.000000,2294.638420
1276.262374,-7105.977043,-1532.190996,1036.288319
1276.262686,-8216.285956,-1762.019645,444.123565
1276.262997,-8956.491898,-306.438199,370.102971
1276.263309,-10362.883188,612.876398,-0.000000
1276.263620,-11251.130318,1072.533697,518.144159
1276.263932,-11325.150913,1072.533697,370.102971
1276.264243,-9548.656652,383.047749,1110.308913
1276.264554,-8216.285956,76.609550,962.267725
1276.264866,-6809.894666,459.657299,962.267725
1276.265177,-5995.668130,383.047749,518.144159
1276.265489,-6217.729913,-153.219100,740.205942
1276.265800,-6957.935855,-612.876398,814.226536
1276.266111,-8808.450710,-383.047749,814.226536
1276.266423,-10362.883188,229.828649,1036.288319
1276.266734,-11769.274478,-383.047749,518.144159
1276.267046,-11769.274478,-536.266849,592.164754
1276.267357,-10066.800811,0.000000,-370.102971
1276.267669,-8364.327145,229.828649,-148.041188
1276.267980,-7254.018232,229.828649,-814.226536
1276.268291,-6809.894666,-153.219100,-0.000000
1276.268603,-6809.894666,0.000000,148.041188
1276.268914,-8142.265362,-1378.971896,444.123565
1276.269226,-9548.656652,0.000000,1036.288319
1276.269537,-10807.006753,459.657299,1036.288319
1276.269849,-12065.356855,383.047749,592.164754
1276.270160,-11547.212695,383.047749,962.267725
1276.270471,-9992.780217,0.000000,518.144159
1276.270783,-8068.244768,-153.219100,814.226536
1276.271094,-7105.977043,-842.705048,1036.288319
1276.271406,-6143.709319,-2068.457845,666.185348
1276.271717,-6513.812290,-2145.067394,-0.000000
1276.272028,-7476.080014,-1685.410096,-0.000000
1276.272340,-8956.491898,-612.876398,-222.061783
1276.272651,-10658.965565,612.876398,-222.061783
1276.272963,-11547.212695,1072.533697,-0.000000
1276.273274,-11325.150913,536.266849,296.082377
1276.273586,-9844.739029,76.609550,666.185348
1276.273897,-8216.285956,766.095498,1332.370696
1276.274208,-7402.059420,0.000000,1776.494261
1276.274520,-7105.977043,-1762.019645,962.267725
1276.274831,-7105.977043,-2451.505594,1554.432478
1276.275143,-8142.265362,-2145.067394,814.226536
1276.275454,-9474.636058,-1149.143247,296.082377
1276.275766,-10436.903782,536.266849,-0.000000
1276.276077,-11029.068536,1532.190996,-0.000000
1276.276388,-11103.089130,1685.410096,-0.000000
1276.276700,-9474.636058,689.485948,444.123565
1276.277011,-7994.224174,612.876398,666.185348
1276.277323,-6809.894666,536.266849,1332.370696
1276.277634,-6587.832884,-306.438199,1554.432478
1276.277946,-6735.874072,-1225.752797,1480.411884
1276.278257,-7402.059420,-1608.800546,1184.329507
1276.278568,-8808.450710,-995.924147,666.185348
1276.278880,-9696.697840,306.438199,444.123565
1276.279191,-10955.047942,153.219100,-0.000000
1276.279503,-10881.027347,0.000000,222.061783
1276.279814,-9844.739029,-229.828649,222.061783
1276.280125,-8364.327145,-153.219100,296.082377
1276.280437,-7328.038826,0.000000,296.082377
1276.280748,-6513.812290,-383.047749,296.082377
1276.281060,-6069.688724,-383.047749,-0.000000
1276.281371,-7550.100608,0.000000,-0.000000
1276.281683,-8586.388927,0.000000,592.164754
1276.281994,-10436.903782,766.095498,666.185348
1276.282305,-11843.295072,536.266849,1110.308913
1276.282617,-11917.315666,689.485948,740.205942
1276.282928,-10436.903782,1072.533697,370.102971
1276.283240,-8068.244768,995.924147,-74.020594
1276.283551,-6957.935855,306.438199,-222.061783
1276.283863,-6439.791695,-842.705048,-444.123565
1276.284174,-6513.812290,-2068.457845,-518.144159
1276.284485,-7994.224174,-1838.629195,-222.061783
1276.284797,-9622.677246,-1378.971896,-296.082377
1276.285108,-11695.253884,0.000000,-74.020594
1276.285420,-11843.295072,0.000000,666.185348
1276.285731,-12213.398043,-689.485948,-148.041188
1276.286042,-11103.089130,-383.047749,518.144159
1276.286354,-8586.388927,-153.219100,1036.288319
1276.286665,-8216.285956,0.000000,296.082377
1276.286977,-6291.750507,-1532.190996,740.205942
1276.287288,-6513.812290,-2604.724693,1110.308913
1276.287600,-7994.224174,-2757.943793,370.102971
1276.287911,-8734.430116,-919.314598,222.061783
1276.288222,-10807.006753,689.485948,-0.000000
1276.288534,-11473.192101,1762.019645,592.164754
1276.288845,-11621.233289,689.485948,-0.000000
1276.289157,-10584.944971,229.828649,296.082377
1276.289468,-8808.450710,919.314598,444.123565
1276.289780,-7476.080014,1072.533697,740.205942
1276.290091,-7179.997637,842.705048,888.247130
1276.290402,-7179.997637,0.000000,814.226536
1276.290714,-6439.791695,-153.219100,962.267725
1276.291025,-8956.491898,-306.438199,296.082377
1276.291337,-9252.574275,536.266849,518.144159
1276.291648,-10066.800811,1378.971896,-296.082377
1276.291959,-11029.068536,612.876398,-518.144159
1276.292271,-9252.574275,76.609550,148.041188
1276.292582,-8882.471304,-153.219100,-0.000000
1276.292894,-8364.327145,229.828649,1258.350101
1276.293205,-7179.997637,-383.047749,1332.370696
1276.293517,-8290.306550,-1455.581446,1036.288319
1276.293828,-8142.265362,-383.047749,1776.494261
1276.294139,-9400.615463,536.266849,1110.308913
1276.294451,-9622.677246,1455.581446,1036.288319
1276.294762,-10140.821405,2298.286494,1036.288319
1276.295074,-10214.842000,2451.505594,296.082377
1276.295385,-8956.491898,2068.457845,-0.000000
1276.295697,-7698.141797,1685.410096,148.041188
1276.296008,-5995.668130,1915.238745,518.144159
1276.296319,-5921.647536,76.609550,296.082377
1276.296631,-6883.915261,-1762.019645,518.144159
1276.296942,-8438.347739,-1991.848295,518.144159
1276.297254,-9548.656652,-919.314598,-0.000000
1276.297565,-10807.006753,1225.752797,222.061783
1276.297877,-11103.089130,689.485948,296.082377
1276.298188,-11473.192101,306.438199,444.123565
1276.298499,-10362.883188,0.000000,1110.308913
1276.298811,-8956.491898,0.000000,962.267725
1276.299122,-7254.018232,383.047749,1110.308913
1276.299434,-6883.915261,-229.828649,1036.288319
1276.299745,-6883.915261,-2068.457845,592.164754
1276.300056,-7105.977043,-2374.896044,370.102971
1276.300368,-8290.306550,-1455.581446,-222.061783
1276.300679,-10214.842000,0.000000,-0.000000
1276.300991,-11917.315666,459.657299,296.082377
1276.301302,-12213.398043,153.219100,666.185348
1276.301614,-11251.130318,-153.219100,740.205942
1276.301925,-9844.739029,-153.219100,814.226536
1276.302236,-8290.306550,229.828649,962.267725
1276.302548,-6957.935855,76.609550,1036.288319
1276.302859,-6143.709319,-612.876398,518.144159
1276.303171,-5847.626942,-1685.410096,370.102971
1276.303482,-7402.059420,-1685.410096,-0.000000
1276.303794,-9474.636058,-689.485948,222.061783
1276.304105,-11399.171507,-153.219100,222.061783
1276.304416,-11769.274478,-383.047749,-222.061783
1276.304728,-11547.212695,153.219100,-296.082377
1276.305039,-10066.800811,229.828649,-148.041188
1276.305351,-8734.430116,536.266849,296.082377
1276.305662,-7846.182985,-383.047749,740.205942
1276.305973,-7402.059420,-689.485948,222.061783
1276.306285,-7402.059420,-229.828649,1184.329507
1276.306596,-8290.306550,766.095498,1258.350101
1276.306908,-9252.574275,1378.971896,962.267725
1276.307219,-10140.821405,1685.410096,740.205942
1276.307531,-9548.656652,1838.629195,370.102971
1276.307842,-9622.677246,2374.896044,-296.082377
1276.308153,-8216.285956,2221.676944,-370.102971
1276.308465,-7550.100608,1608.800546,-0.000000
1276.308776,-7402.059420,-229.828649,148.041188
1276.309088,-6587.832884,-919.314598,666.185348
1276.309399,-7624.121203,-1378.971896,740.205942
1276.309711,-8142.265362,-995.924147,444.123565
1276.310022,-9326.594869,0.000000,370.102971
1276.310333,-10140.821405,229.828649,444.123565
1276.310645,-10510.924376,229.828649,740.205942
1276.310956,-10214.842000,-536.266849,1480.411884
1276.311268,-9548.656652,-383.047749,1554.432478
1276.311579,-8290.306550,-612.876398,1554.432478
1276.311890,-7105.977043,-995.924147,1332.370696
1276.312202,-6069.688724,-1532.190996,1110.308913
1276.312513,-6069.688724,-1991.848295,666.185348
1276.312825,-8068.244768,-1302.362347,444.123565
1276.313136,-9918.759623,-383.047749,592.164754
1276.313448,-11177.109724,766.095498,518.144159
1276.313759,-11325.150913,1072.533697,444.123565
1276.314071,-10807.006753,919.314598,518.144159
1276.314382,-9178.553681,76.609550,592.164754
1276.314694,-7772.162391,-612.876398,296.082377
1276.315005,-6735.874072,-306.438199,666.185348
1276.315317,-7402.059420,-1225.752797,740.205942
1276.315628,-8142.265362,-1378.971896,1036.288319
1276.315940,-8808.450710,-1608.800546,814.226536
1276.316251,-9992.780217,-1532.190996,592.164754
1276.316563,-10214.842000,-459.657299,370.102971
1276.316874,-10955.047942,-383.047749,-0.000000
1276.317186,-10732.986159,76.609550,-74.020594
1276.317497,-9474.636058,0.000000,-148.041188
1276.317809,-8956.491898,76.609550,-222.061783
1276.318120,-8068.244768,383.047749,-0.000000
1276.318432,-7624.121203,0.000000,518.144159
1276.318743,-7550.100608,-689.485948,518.144159
1276.319055,-8808.450710,-842.705048,740.205942
1276.319366,-10140.821405,229.828649,1184.329507
1276.319678,-10955.047942,1302.362347,962.267725
1276.319989,-10807.006753,1302.362347,1258.350101
1276.320301,-10732.986159,1072.533697,-296.082377
1276.320612,-8216.285956,1225.752797,148.041188
1276.320924,-6735.874072,1302.362347,-296.082377
1276.321235,-6217.729913,536.266849,-370.102971
1276.321547,-6735.874072,-153.219100,-148.041188
1276.321858,-8068.244768,0.000000,-222.061783
1276.322170,-8882.471304,0.000000,-0.000000
1276.322481,-10066.800811,689.485948,-370.102971
1276.322793,-10807.006753,2068.457845,-222.061783
1276.323104,-10510.924376,1455.581446,-0.000000
1276.323416,-9474.636058,459.657299,740.205942
1276.323727,-8586.388927,76.609550,1258.350101
1276.324039,-7698.141797,306.438199,2146.597232
1276.324350,-6735.874072,-229.828649,1998.556043
1276.324662,-6513.812290,-1455.581446,1036.288319
1276.324973,-6883.915261,-1915.238745,1110.308913
1276.325285,-7846.182985,-919.314598,-74.020594
1276.325596,-9178.553681,612.876398,-592.164754
1276.325908,-10584.944971,1608.800546,-296.082377
1276.326219,-11547.212695,1072.533697,296.082377
1276.326530,-11621.233289,459.657299,740.205942
1276.326842,-10288.862594,383.047749,1332.370696
1276.327153,-8290.306550,306.438199,1850.514855
1276.327465,-6291.750507,-229.828649,2072.576638
1276.327776,-5625.565159,-1149.143247,2072.576638
1276.328088,-5551.544565,-1838.629195,888.247130
1276.328399,-7031.956449,-1685.410096,592.164754
1276.328711,-9178.553681,-1149.143247,222.061783
1276.329022,-10584.944971,0.000000,-0.000000
1276.329334,-11769.274478,-306.438199,-592.164754
1276.329645,-11991.336260,-842.705048,-518.144159
1276.329957,-10658.965565,-229.828649,-74.020594
1276.330268,-9548.656652,-689.485948,370.102971
1276.330580,-8734.430116,-766.095498,962.267725
1276.330891,-7994.224174,-1378.971896,962.267725
1276.331203,-8142.265362,-1455.581446,1332.370696
1276.331514,-8586.388927,-383.047749,1702.473667
1276.331826,-8882.471304,229.828649,814.226536
1276.332137,-10066.800811,536.266849,740.205942
1276.332449,-10214.842000,1072.533697,740.205942
1276.332760,-9696.697840,919.314598,444.123565
1276.333072,-8734.430116,1302.362347,-0.000000
1276.333383,-7698.141797,1149.143247,148.041188
1276.333695,-7105.977043,-153.219100,-0.000000
1276.334006,-7105.977043,-919.314598,740.205942
1276.334318,-7994.224174,-1378.971896,-148.041188
1276.334629,-8512.368333,-766.095498,222.061783
1276.334941,-9696.697840,229.828649,148.041188
1276.335252,-10436.903782,766.095498,370.102971
1276.335564,-10436.903782,842.705048,-0.000000
1276.335875,-10140.821405,0.000000,-0.000000
1276.336187,-8882.471304,153.219100,444.123565
1276.336498,-7624.121203,229.828649,666.185348
1276.336810,-7105.977043,-153.219100,666.185348
1276.337121,-6809.894666,-1225.752797,148.041188
1276.337433,-6883.915261,-2221.676944,444.123565
1276.337744,-8808.450710,-1685.410096,-0.000000
1276.338056,-10140.821405,0.000000,222.061783
1276.338367,-11103.089130,1225.752797,296.082377
1276.338679,-11251.130318,1072.533697,666.185348
1276.338990,-11029.068536,766.095498,814.226536
1276.339302,-9622.677246,459.657299,666.185348
1276.339613,-7920.203579,689.485948,814.226536
1276.339925,-6587.832884,306.438199,962.267725
1276.340236,-6513.812290,-229.828649,518.144159
1276.340548,-6661.853478,-919.314598,222.061783
1276.340859,-7476.080014,-1302.362347,-0.000000
1276.341171,-8586.388927,-1378.971896,370.102971
1276.341482,-10510.924376,-995.924147,222.061783
1276.341794,-11029.068536,-612.876398,-0.000000
1276.342105,-11843.295072,-306.438199,-74.020594
1276.342417,-10881.027347,-306.438199,370.102971
1276.342728,-9400.615463,-229.828649,740.205942
1276.343040,-7846.182985,76.609550,1110.308913
1276.343351,-6661.853478,-229.828649,1480.411884
1276.343663,-6365.771101,-995.924147,1184.329507
1276.343974,-7179.997637,-689.485948,1406.391290
1276.344285,-8808.450710,-383.047749,814.226536
1276.344597,-10066.800811,383.047749,962.267725
1276.344908,-10584.944971,0.000000,814.226536
1276.345220,-10584.944971,-229.828649,444.123565
1276.345531,-9548.656652,-153.219100,-0.000000
1276.345843,-8438.347739,-383.047749,444.123565
1276.346154,-7179.997637,-1149.143247,1184.329507
1276.346466,-6513.812290,-2681.334243,962.267725
1276.346777,-7698.141797,-2221.676944,592.164754
1276.347089,-9104.533087,-1685.410096,-0.000000
1276.347400,-9474.636058,-229.828649,148.041188
1276.347712,-10066.800811,1149.143247,-148.041188
1276.348023,-10658.965565,995.924147,-0.000000
1276.348335,-10807.006753,0.000000,-74.020594
1276.348646,-9992.780217,0.000000,-296.082377
1276.348958,-9030.512492,612.876398,740.205942
1276.349269,-8290.306550,536.266849,370.102971
1276.349581,-7402.059420,-612.876398,370.102971
1276.349892,-7772.162391,-1915.238745,-0.000000
1276.350204,-8364.327145,-1225.752797,-296.082377
1276.350515,-9400.615463,459.657299,-296.082377
1276.350827,-10658.965565,1915.238745,222.061783
1276.351138,-11473.192101,1685.410096,-0.000000
1276.351450,-11103.089130,842.705048,592.164754
1276.351761,-9918.759623,1455.581446,518.144159
1276.352073,-7698.141797,1072.533697,-0.000000
1276.352384,-7179.997637,842.705048,888.247130
1276.352696,-6661.853478,153.219100,592.164754
1276.353007,-6735.874072,-766.095498,-0.000000
1276.353319,-8068.244768,-459.657299,-0.000000
1276.353630,-9474.636058,-459.657299,-0.000000
1276.353942,-10584.944971,306.438199,-222.061783
1276.354253,-10732.986159,689.485948,-222.061783
1276.354565,-10807.006753,306.438199,-222.061783
1276.354876,-9918.759623,612.876398,296.082377
1276.355188,-8808.450710,383.047749,518.144159
1276.355499,-7550.100608,153.219100,962.267725
1276.355811,-6365.771101,229.828649,1258.350101
1276.356122,-7105.977043,-689.485948,962.267725
1276.356434,-6957.935855,-612.876398,1628.453072
1276.356745,-9252.574275,-229.828649,740.205942
1276.357057,-10362.883188,1072.533697,962.267725
1276.357368,-10140.821405,1455.581446,370.102971
1276.357680,-10510.924376,842.705048,296.082377
1276.357991,-9178.553681,995.924147,222.061783
1276.358303,-7846.182985,842.705048,-0.000000
1276.358614,-7105.977043,536.266849,222.061783
1276.358926,-6513.812290,-459.657299,666.185348
1276.359237,-7476.080014,-1532.190996,592.164754
1276.359549,-8808.450710,-1762.019645,962.267725
1276.359860,-9992.780217,-689.485948,1036.288319
1276.360172,-11103.089130,-536.266849,1036.288319
1276.360483,-11177.109724,-459.657299,1480.411884
1276.360795,-11325.150913,-766.095498,1110.308913
1276.361106,-9918.759623,-612.876398,1110.308913
1276.361417,-8216.285956,-153.219100,1480.411884
1276.361729,-7624.121203,-689.485948,1036.288319
1276.362040,-7105.977043,-766.095498,518.144159
1276.362352,-7105.977043,-1149.143247,-74.020594
1276.362663,-7476.080014,-1225.752797,-0.000000
1276.362975,-9474.636058,0.000000,222.061783
1276.363286,-11177.109724,536.266849,370.102971
1276.363598,-12583.501014,1455.581446,666.185348
1276.363909,-11917.315666,766.095498,1110.308913
1276.364221,-10584.944971,1532.190996,1332.370696
1276.364532,-8956.491898,1072.533697,1184.329507
1276.364844,-7328.038826,306.438199,1110.308913
1276.365155,-5403.503377,-306.438199,814.226536
1276.365467,-4959.379811,-153.219100,592.164754
1276.365778,-5921.647536,-459.657299,-0.000000
1276.366090,-8290.306550,0.000000,-296.082377
1276.366401,-10066.800811,459.657299,-74.020594
1276.366713,-10955.047942,536.266849,-0.000000
1276.367024,-11251.130318,842.705048,-148.041188
1276.367336,-10510.924376,1149.143247,148.041188
1276.367647,-9696.697840,459.657299,444.123565
1276.367959,-7846.182985,153.219100,962.267725
1276.368270,-5773.606348,0.000000,1776.494261
1276.368582,-5329.482782,-995.924147,1406.391290
1276.368893,-6143.709319,-1302.362347,1406.391290
1276.369205,-8290.306550,-842.705048,666.185348
1276.369516,-9992.780217,766.095498,814.226536
1276.369828,-10732.986159,1378.971896,-0.000000
1276.370139,-10436.903782,1072.533697,-222.061783
1276.370451,-9770.718434,1225.752797,-444.123565
1276.370762,-8660.409521,536.266849,-74.020594
1276.371074,-7846.182985,0.000000,-148.041188
1276.371385,-7254.018232,-919.314598,518.144159
1276.371697,-7994.224174,-1685.410096,962.267725
1276.372008,-8586.388927,-2221.676944,1406.391290
1276.372320,-9474.636058,-1302.362347,962.267725
1276.372631,-10140.821405,0.000000,592.164754
1276.372943,-10584.944971,153.219100,296.082377
1276.373254,-10584.944971,-153.219100,-444.123565
1276.373566,-10436.903782,-689.485948,-222.061783
1276.373877,-9178.553681,-229.828649,-0.000000
1276.374189,-9178.553681,-536.266849,-0.000000
1276.374500,-8808.450710,-995.924147,148.041188
1276.374812,-8364.327145,-1762.019645,-0.000000
1276.375123,-7698.141797,-1685.410096,222.061783
1276.375435,-8956.491898,-766.095498,592.164754
1276.375746,-10658.965565,-383.047749,1554.432478
1276.376058,-10955.047942,-536.266849,1332.370696
1276.376369,-11177.109724,0.000000,888.247130
1276.376681,-10140.821405,689.485948,1258.350101
1276.376992,-8290.306550,459.657299,518.144159
1276.377304,-7476.080014,229.828649,592.164754
1276.377615,-6809.894666,-689.485948,814.226536
1276.377927,-6069.688724,-1225.752797,444.123565
1276.378238,-6809.894666,-1915.238745,-0.000000
1276.378550,-8364.327145,-766.095498,-0.000000
1276.378861,-9992.780217,0.000000,222.061783
1276.379172,-10510.924376,612.876398,-0.000000
1276.379484,-10140.821405,689.485948,296.082377
1276.379795,-9474.636058,919.314598,518.144159
1276.380107,-8734.430116,1302.362347,592.164754
1276.380418,-7328.038826,1455.581446,962.267725
1276.380730,-6809.894666,76.609550,1258.350101
1276.381041,-6587.832884,-689.485948,1480.411884
1276.381353,-6809.894666,-995.924147,888.247130
1276.381664,-7994.224174,76.609550,444.123565
1276.381976,-9622.677246,1302.362347,296.082377
1276.382287,-10436.903782,1685.410096,740.205942
1276.382599,-11029.068536,1455.581446,74.020594
1276.382910,-10214.842000,919.314598,518.144159
1276.383222,-8734.430116,1149.143247,740.205942
1276.383533,-7920.203579,689.485948,148.041188
1276.383845,-7402.059420,536.266849,518.144159
1276.384156,-7105.977043,-153.219100,370.102971
1276.384468,-7846.182985,-612.876398,-0.000000
1276.384779,-8512.368333,536.266849,370.102971
1276.385091,-10066.800811,1455.581446,-0.000000
1276.385402,-11177.109724,919.314598,222.061783
1276.385714,-11029.068536,76.609550,-148.041188
1276.386025,-10066.800811,0.000000,296.082377
1276.386337,-9104.533087,229.828649,-0.000000
1276.386648,-8216.285956,-229.828649,814.226536
1276.386960,-7994.224174,-1608.800546,296.082377
1276.387271,-7624.121203,-1915.238745,296.082377
1276.387583,-7846.182985,-1532.190996,444.123565
1276.387894,-9252.574275,-689.485948,-0.000000
1276.388206,-10807.006753,459.657299,-0.000000
1276.388517,-11399.171507,919.314598,592.164754
1276.388829,-11325.150913,459.657299,814.226536
1276.389140,-10658.965565,536.266849,1036.288319
1276.389452,-9104.533087,919.314598,1184.329507
1276.389763,-7920.203579,0.000000,814.226536
1276.390075,-6439.791695,-612.876398,1332.370696
1276.390386,-5921.647536,-1302.362347,444.123565
1276.390698,-6291.750507,-1685.410096,-0.000000
1276.391009,-7698.141797,-1072.533697,148.041188
1276.391321,-9474.636058,-612.876398,-222.061783
1276.391632,-11251.130318,0.000000,-296.082377
1276.391944,-11473.192101,612.876398,-0.000000
1276.392255,-10362.883188,766.095498,-0.000000
1276.392567,-9104.533087,842.705048,592.164754
1276.392878,-8660.409521,459.657299,814.226536
1276.393190,-6809.894666,153.219100,1628.453072
1276.393501,-6365.771101,-459.657299,1998.556043
1276.393813,-6069.688724,-1302.362347,1924.535449
1276.394124,-7179.997637,-995.924147,1480.411884
1276.394436,-8660.409521,383.047749,888.247130
1276.394747,-10288.862594,689.485948,-74.020594
1276.395059,-10732.986159,1685.410096,-666.185348
1276.395370,-10584.944971,2068.457845,-740.205942
1276.395682,-9474.636058,1455.581446,-296.082377
1276.395993,-8216.285956,689.485948,148.041188
1276.396305,-7328.038826,-536.266849,962.267725
1276.396616,-7179.997637,-1378.971896,1184.329507
1276.396927,-7846.182985,-995.924147,740.205942
1276.397239,-7772.162391,-229.828649,592.164754
1276.397550,-8660.409521,229.828649,518.144159
1276.397862,-10066.800811,76.609550,-0.000000
1276.398173,-10807.006753,76.609550,-370.102971
1276.398485,-9844.739029,-76.609550,-0.000000
1276.398796,-9030.512492,0.000000,74.020594
1276.399108,-8586.388927,0.000000,370.102971
1276.399419,-8438.347739,-995.924147,-148.041188
1276.399731,-8438.347739,-1225.752797,444.123565
1276.400042,-8512.368333,-1608.800546,-0.000000
1276.400354,-9326.594869,-383.047749,296.082377
1276.400665,-10807.006753,0.000000,888.247130
1276.400977,-11325.150913,229.828649,666.185348
1276.401288,-10955.047942,76.609550,1184.329507
1276.401600,-10140.821405,76.609550,888.247130
1276.401911,-7846.182985,766.095498,1332.370696
1276.402223,-8586.388927,229.828649,666.185348
1276.402534,-6809.894666,-612.876398,1406.391290
1276.402846,-6291.750507,-1149.143247,666.185348
1276.403157,-6957.935855,-1608.800546,-0.000000
1276.403469,-8438.347739,-1302.362347,-0.000000
1276.403780,-10510.924376,-689.485948,-222.061783
1276.404092,-11177.109724,306.438199,-0.000000
1276.404403,-11547.212695,306.438199,-0.000000
1276.404715,-10658.965565,919.314598,370.102971
1276.405026,-9474.636058,612.876398,1036.288319
1276.405338,-8068.244768,229.828649,1480.411884
1276.405649,-6587.832884,76.609550,1554.432478
1276.405961,-5773.606348,-383.047749,1184.329507
1276.406272,-6143.709319,-1225.752797,666.185348
1276.406584,-7105.977043,-1072.533697,888.247130
1276.406895,-8882.471304,-229.828649,518.144159
1276.407207,-10658.965565,689.485948,296.082377
1276.407518,-11547.212695,919.314598,-0.000000
1276.407830,-11473.192101,689.485948,296.082377
1276.408141,-9474.636058,459.657299,444.123565
1276.408453,-7328.038826,76.609550,296.082377
1276.408764,-6217.729913,-229.828649,740.205942
1276.409076,-6439.791695,-766.095498,518.144159
1276.409387,-7105.977043,-1072.533697,666.185348
1276.409699,-7994.224174,0.000000,222.061783
1276.410010,-9030.512492,766.095498,-0.000000
1276.410322,-10288.862594,229.828649,296.082377
1276.410633,-10584.944971,0.000000,-222.061783
1276.410945,-10066.800811,-153.219100,-0.000000
1276.411256,-9252.574275,-689.485948,-148.041188
1276.411568,-8808.450710,-995.924147,592.164754
1276.411879,-8290.306550,-1149.143247,370.102971
1276.412191,-8290.306550,-1762.019645,444.123565
1276.412502,-8290.306550,-1685.410096,370.102971
1276.412814,-8660.409521,-995.924147,444.123565
1276.413125,-9252.574275,76.609550,592.164754
1276.413437,-10510.924376,919.314598,-0.000000
1276.413748,-11103.089130,919.314598,592.164754
1276.414059,-10288.862594,766.095498,1036.288319
1276.414371,-9252.574275,306.438199,1184.329507
1276.414682,-7994.224174,536.266849,740.205942
1276.414994,-7476.080014,-612.876398,518.144159
1276.415305,-7105.977043,-1225.752797,222.061783
1276.415617,-7402.059420,-919.314598,-74.020594
1276.415928,-9104.533087,-689.485948,-0.000000
1276.416240,-10510.924376,229.828649,-0.000000
1276.416551,-11399.171507,612.876398,-74.020594
1276.416862,-10658.965565,1072.533697,222.061783
1276.417174,-9844.739029,766.095498,296.082377
1276.417485,-8734.430116,1072.533697,148.041188
1276.417796,-7328.038826,1072.533697,740.205942
1276.418108,-6661.853478,76.609550,1406.391290
1276.418419,-6291.750507,-459.657299,1258.350101
1276.418731,-6735.874072,-995.924147,1332.370696
1276.419042,-8068.244768,-612.876398,666.185348
1276.419353,-9844.739029,-153.219100,740.205942
1276.419665,-10510.924376,536.266849,740.205942
1276.419976,-10658.965565,1532.190996,814.226536
1276.420288,-10288.862594,1302.362347,740.205942
1276.420599,-8882.471304,1072.533697,444.123565
1276.420910,-7476.080014,919.314598,740.205942
1276.421222,-5551.544565,536.266849,888.247130
1276.421533,-5551.544565,229.828649,962.267725
1276.421844,-6587.832884,-995.924147,962.267725
1276.422156,-7994.224174,-1149.143247,592.164754
1276.422467,-9770.718434,-306.438199,740.205942
1276.422779,-10881.027347,229.828649,518.144159
1276.423090,-11103.089130,536.266849,-74.020594
1276.423401,-10288.862594,689.485948,-74.020594
1276.423713,-8438.347739,766.095498,-666.185348
1276.424024,-7550.100608,-306.438199,-74.020594
1276.424336,-7031.956449,-612.876398,-222.061783
1276.424647,-7105.977043,-1149.143247,222.061783
1276.424958,-7624.121203,-1455.581446,666.185348
1276.425270,-9030.512492,-1532.190996,592.164754
1276.425581,-10288.862594,-229.828649,1036.288319
1276.425892,-10881.027347,459.657299,888.247130
1276.426204,-11695.253884,0.000000,1110.308913
1276.426515,-10881.027347,-229.828649,1036.288319
1276.426827,-9326.594869,-536.266849,666.185348
1276.427138,-8364.327145,-306.438199,666.185348
1276.427449,-7846.182985,-995.924147,1110.308913
1276.427761,-7624.121203,-1532.190996,888.247130
1276.428072,-8068.244768,-1532.190996,296.082377
1276.428383,-8438.347739,-229.828649,148.041188
1276.428695,-10140.821405,306.438199,-370.102971
1276.429006,-10732.986159,1225.752797,-148.041188
1276.429318,-10881.027347,1762.019645,370.102971
1276.429629,-10436.903782,459.657299,-148.041188
1276.429940,-9474.636058,612.876398,370.102971
1276.430252,-8512.368333,842.705048,814.226536
1276.430563,-7328.038826,459.657299,1110.308913
1276.430875,-6513.812290,-306.438199,1332.370696
1276.431186,-6291.750507,-1838.629195,1480.411884
1276.431497,-8364.327145,-1072.533697,592.164754
1276.431809,-9326.594869,0.000000,740.205942
1276.432120,-10881.027347,1378.971896,518.144159
1276.432431,-11399.171507,1455.581446,222.061783
1276.432743,-10510.924376,1838.629195,-0.000000
1276.433054,-9622.677246,1762.019645,370.102971
1276.433366,-7624.121203,1302.362347,-222.061783
1276.433677,-6439.791695,1072.533697,1184.329507
1276.433988,-6513.812290,-919.314598,2146.597232
1276.434300,-6735.874072,-1532.190996,1924.535449
1276.434611,-7994.224174,-1532.190996,1406.391290
1276.434923,-9178.553681,-153.219100,518.144159
1276.435234,-9696.697840,1072.533697,222.061783
1276.435545,-9844.739029,1378.971896,-0.000000
1276.435857,-9474.636058,-306.438199,-518.144159
1276.436168,-8734.430116,-919.314598,-0.000000
1276.436479,-7328.038826,-306.438199,-0.000000
1276.436791,-7179.997637,-459.657299,740.205942
1276.437102,-7179.997637,-1149.143247,740.205942
1276.437414,-7402.059420,-1991.848295,1036.288319
1276.437725,-8512.368333,-1608.800546,888.247130
1276.438036,-9770.718434,-766.095498,1184.329507
1276.438348,-9844.739029,306.438199,740.205942
1276.438659,-11251.130318,0.000000,1184.329507
1276.438971,-11251.130318,-1072.533697,1036.288319
1276.439282,-10066.800811,0.000000,1110.308913
1276.439593,-8956.491898,0.000000,444.123565
1276.439905,-7994.224174,0.000000,518.144159
1276.440216,-7624.121203,-995.924147,444.123565
1276.440527,-7328.038826,-1302.362347,-222.061783
1276.440839,-8216.285956,-1149.143247,-370.102971
1276.441150,-9622.677246,0.000000,-444.123565
1276.441462,-11177.109724,766.095498,-74.020594
1276.441773,-11325.150913,229.828649,518.144159
1276.442084,-11029.068536,0.000000,-0.000000
1276.442396,-9844.739029,0.000000,592.164754
1276.442707,-8734.430116,766.095498,592.164754
1276.443019,-7476.080014,306.438199,518.144159
1276.443330,-6809.894666,-459.657299,222.061783
1276.443641,-7328.038826,-919.314598,592.164754
1276.443953,-7994.224174,-459.657299,518.144159
1276.444264,-9622.677246,0.000000,-0.000000
1276.444575,-10362.883188,766.095498,518.144159
1276.444887,-11251.130318,995.924147,222.061783
1276.445198,-11399.171507,1225.752797,518.144159
1276.445510,-10214.842000,995.924147,518.144159
1276.445821,-8068.244768,1149.143247,666.185348
1276.446132,-5847.626942,766.095498,962.267725
1276.446444,-6217.729913,0.000000,962.267725
1276.446755,-6439.791695,-766.095498,592.164754
1276.447067,-7476.080014,-536.266849,370.102971
1276.447378,-8290.306550,306.438199,444.123565
1276.447689,-9252.574275,919.314598,-296.082377
1276.448001,-9770.718434,766.095498,-148.041188
1276.448312,-10066.800811,995.924147,-0.000000
1276.448623,-8660.409521,0.000000,-0.000000
1276.448935,-8068.244768,306.438199,296.082377
1276.449246,-7698.141797,-153.219100,1110.308913
1276.449558,-7328.038826,-1072.533697,1332.370696
1276.449869,-7402.059420,-2221.676944,1258.350101
1276.450180,-8438.347739,-1685.410096,814.226536
1276.450492,-8734.430116,383.047749,666.185348
1276.450803,-10066.800811,1302.362347,666.185348
1276.451115,-11325.150913,842.705048,740.205942
1276.451426,-11103.089130,459.657299,740.205942
1276.451737,-9992.780217,612.876398,1110.308913
1276.452049,-8734.430116,459.657299,740.205942
1276.452360,-7846.182985,153.219100,962.267725
1276.452671,-6809.894666,-919.314598,444.123565
1276.452983,-6883.915261,-1225.752797,-0.000000
1276.453294,-7846.182985,-1685.410096,740.205942
1276.453606,-9326.594869,-536.266849,296.082377
1276.453917,-11177.109724,689.485948,666.185348
1276.454228,-11843.295072,842.705048,666.185348
1276.454540,-11399.171507,0.000000,296.082377
1276.454851,-9992.780217,229.828649,-0.000000
1276.455163,-8734.430116,919.314598,-148.041188
1276.455474,-7105.977043,459.657299,370.102971
1276.455785,-6661.853478,-459.657299,444.123565
1276.456097,-6957.935855,-1225.752797,962.267725
1276.456408,-7920.203579,-1838.629195,1110.308913
1276.456719,-9696.697840,-1455.581446,1110.308913
1276.457031,-10881.027347,-229.828649,962.267725
1276.457342,-11103.089130,766.095498,1110.308913
1276.457654,-10732.986159,1149.143247,666.185348
1276.457965,-9474.636058,995.924147,666.185348
1276.458276,-7772.162391,995.924147,-0.000000
1276.458588,-6957.935855,689.485948,592.164754
1276.458899,-6143.709319,-229.828649,888.247130
1276.459211,-6957.935855,-995.924147,814.226536
1276.459522,-7846.182985,-1072.533697,444.123565
1276.459833,-7698.141797,-459.657299,296.082377
1276.460145,-9696.697840,0.000000,-444.123565
1276.460456,-9696.697840,229.828649,-370.102971
1276.460767,-9844.739029,-383.047749,-592.164754
1276.461079,-9400.615463,0.000000,-0.000000
1276.461390,-8734.430116,0.000000,-0.000000
1276.461702,-8216.285956,-229.828649,814.226536
1276.462013,-7772.162391,-1072.533697,1184.329507
1276.462324,-7846.182985,-2221.676944,1184.329507
1276.462636,-7846.182985,-1608.800546,888.247130
1276.462947,-9104.533087,-1225.752797,666.185348
1276.463259,-9844.739029,459.657299,518.144159
1276.463570,-11103.089130,536.266849,296.082377
1276.463881,-11029.068536,459.657299,296.082377
1276.464193,-9992.780217,842.705048,518.144159
1276.464504,-9104.533087,995.924147,148.041188
1276.464815,-8142.265362,612.876398,740.205942
1276.465127,-7476.080014,-689.485948,962.267725
1276.465438,-7105.977043,-766.095498,370.102971
1276.465750,-7624.121203,-995.924147,222.061783
1276.466061,-8808.450710,-153.219100,-0.000000
1276.466372,-9770.718434,995.924147,-0.000000
1276.466684,-11695.253884,536.266849,370.102971
1276.466995,-11399.171507,0.000000,296.082377
1276.467307,-10214.842000,0.000000,666.185348
1276.467618,-9548.656652,1072.533697,592.164754
1276.467929,-7846.182985,383.047749,666.185348
1276.468241,-7105.977043,-842.705048,888.247130
1276.468552,-6513.812290,-1149.143247,962.267725
1276.468863,-7254.018232,-766.095498,370.102971
1276.469175,-8290.306550,76.609550,370.102971
1276.469486,-9844.739029,1225.752797,370.102971
1276.469798,-11103.089130,919.314598,888.247130
1276.470109,-10436.903782,612.876398,666.185348
1276.470420,-9622.677246,919.314598,518.144159
1276.470732,-8438.347739,995.924147,222.061783
1276.471043,-7476.080014,383.047749,592.164754
1276.471355,-7031.956449,-1149.143247,666.185348
1276.471666,-6365.771101,-1608.800546,888.247130
1276.471977,-7105.977043,-2068.457845,518.144159
1276.472289,-7846.182985,-1378.971896,370.102971
1276.472600,-8956.491898,-689.485948,-0.000000
1276.472911,-10066.800811,-612.876398,-74.020594
1276.473223,-10140.821405,-689.485948,-74.020594
1276.473534,-9696.697840,-536.266849,-0.000000
1276.473846,-8956.491898,-383.047749,-222.061783
1276.474157,-8438.347739,-612.876398,296.082377
1276.474468,-8216.285956,-1762.019645,-0.000000
1276.474780,-8068.244768,-1762.019645,1406.391290
1276.475091,-8808.450710,-1685.410096,814.226536
1276.475403,-9326.594869,-1149.143247,888.247130
1276.475714,-10658.965565,229.828649,962.267725
1276.476025,-11251.130318,153.219100,962.267725
1276.476337,-10807.006753,536.266849,666.185348
1276.476648,-9474.636058,689.485948,-0.000000
1276.476959,-7550.100608,919.314598,-296.082377
1276.477271,-7772.162391,842.705048,-888.247130
1276.477582,-7031.956449,0.000000,-370.102971
1276.477894,-8364.327145,-229.828649,-74.020594
1276.478205,-9030.512492,-229.828649,-0.000000
1276.478516,-9992.780217,0.000000,296.082377
1276.478828,-11251.130318,153.219100,666.185348
1276.479139,-11473.192101,842.705048,296.082377
1276.479451,-10807.006753,306.438199,592.164754
1276.479762,-10066.800811,612.876398,222.061783
1276.480073,-8586.388927,1532.190996,222.061783
1276.480385,-7328.038826,1685.410096,148.041188
1276.480696,-5995.668130,842.705048,740.205942
1276.481007,-6365.771101,0.000000,444.123565
1276.481319,-7105.977043,0.000000,370.102971
1276.481630,-8438.347739,1072.533697,296.082377
1276.481942,-10140.821405,1685.410096,518.144159
1276.482253,-11473.192101,1838.629195,592.164754
1276.482564,-11473.192101,1991.848295,740.205942
1276.482876,-9844.739029,1149.143247,1036.288319
1276.483187,-8142.265362,766.095498,1406.391290
1276.483499,-6291.750507,689.485948,1480.411884
1276.483810,-5625.565159,0.000000,1258.350101
1276.484121,-5995.668130,-536.266849,1036.288319
1276.484433,-6661.853478,-842.705048,666.185348
1276.484744,-8068.244768,-919.314598,222.061783
1276.485055,-9622.677246,-153.219100,-370.102971
1276.485367,-10732.986159,0.000000,-0.000000
1276.485678,-10955.047942,-689.485948,296.082377
1276.485990,-9918.759623,-1378.971896,888.247130
1276.486301,-9326.594869,-1532.190996,1184.329507
1276.486612,-8142.265362,-1608.800546,1776.494261
1276.486924,-7402.059420,-1455.581446,1110.308913
1276.487235,-7254.018232,-1991.848295,1480.411884
1276.487547,-7624.121203,-1838.629195,888.247130
1276.487858,-8216.285956,-1608.800546,666.185348
1276.488169,-9474.636058,306.438199,370.102971
1276.488481,-10436.903782,536.266849,370.102971
1276.488792,-10955.047942,153.219100,222.061783
1276.489103,-10807.006753,-383.047749,-0.000000
1276.489415,-9400.615463,0.000000,-0.000000
1276.489726,-8808.450710,-536.266849,-0.000000
1276.490038,-8660.409521,-1225.752797,370.102971
1276.490349,-8808.450710,-1608.800546,222.061783
1276.490660,-8808.450710,-1455.581446,296.082377
1276.490972,-9548.656652,-1149.143247,-0.000000
1276.491283,-9474.636058,689.485948,-0.000000
1276.491595,-10732.986159,1378.971896,-740.205942
1276.491906,-10807.006753,1225.752797,-666.185348
1276.492217,-9992.780217,76.609550,-0.000000
1276.492529,-9104.533087,306.438199,-740.205942
1276.492840,-7994.224174,842.705048,148.041188
1276.493151,-7402.059420,229.828649,222.061783
1276.493463,-7031.956449,-1072.533697,888.247130
1276.493774,-7994.224174,-1838.629195,962.267725
1276.494086,-9474.636058,-766.095498,1110.308913
1276.494397,-10362.883188,0.000000,740.205942
1276.494708,-11473.192101,995.924147,814.226536
1276.495020,-11103.089130,1838.629195,666.185348
1276.495331,-9622.677246,1991.848295,-0.000000
1276.495642,-7994.224174,1915.238745,-0.000000
1276.495954,-5995.668130,1149.143247,740.205942
1276.496265,-5995.668130,536.266849,1258.350101
1276.496577,-6661.853478,-689.485948,1332.370696
1276.496888,-7254.018232,-1455.581446,1850.514855
1276.497199,-8438.347739,-1685.410096,1110.308913
1276.497511,-10066.800811,-766.095498,1110.308913
1276.497822,-10658.965565,536.266849,740.205942
1276.498134,-9918.759623,612.876398,-0.000000
1276.498445,-9178.553681,612.876398,-0.000000
1276.498756,-8068.244768,76.609550,148.041188
1276.499068,-7179.997637,766.095498,518.144159
1276.499379,-7254.018232,306.438199,518.144159
1276.499690,-7105.977043,-459.657299,1628.453072
1276.500002,-7402.059420,-1072.533697,1480.411884
1276.500313,-8364.327145,-612.876398,1036.288319
1276.500625,-9474.636058,-306.438199,1258.350101
1276.500936,-10066.800811,-459.657299,740.205942
1276.501247,-10584.944971,-689.485948,888.247130
1276.501559,-10436.903782,-383.047749,962.267725
1276.501870,-9400.615463,-766.095498,222.061783
1276.502182,-8586.388927,-1149.143247,740.205942
1276.502493,-7846.182985,-1302.362347,888.247130
1276.502804,-7402.059420,-1455.581446,888.247130
1276.503116,-8142.265362,-1225.752797,370.102971
1276.503427,-9030.512492,-612.876398,-0.000000
1276.503738,-9770.718434,229.828649,148.041188
1276.504050,-9622.677246,1072.533697,-0.000000
1276.504361,-10510.924376,766.095498,-148.041188
1276.504673,-10288.862594,0.000000,-0.000000
1276.504984,-9400.615463,76.609550,-0.000000
1276.505295,-8364.327145,306.438199,-0.000000
1276.505607,-7402.059420,-153.219100,296.082377
1276.505918,-7402.059420,-1225.752797,-0.000000
1276.506230,-8512.368333,-1532.190996,-0.000000
1276.506541,-9326.594869,-919.314598,-0.000000
1276.506852,-10955.047942,689.485948,-740.205942
1276.507164,-11843.295072,1608.800546,-74.020594
1276.507475,-11991.336260,1302.362347,-74.020594
1276.507786,-11547.212695,1225.752797,-296.082377
1276.508098,-9474.636058,1302.362347,-74.020594
1276.508409,-6365.771101,1302.362347,740.205942
1276.508721,-6217.729913,383.047749,740.205942
1276.509032,-6217.729913,-612.876398,1036.288319
1276.509343,-7476.080014,-919.314598,370.102971
1276.509655,-8142.265362,-383.047749,-0.000000
1276.509966,-9770.718434,919.314598,-148.041188
1276.510278,-10584.944971,1762.019645,-296.082377
1276.510589,-10214.842000,1072.533697,-740.205942
1276.510900,-9992.780217,229.828649,-666.185348
1276.511212,-8586.388927,766.095498,-222.061783
1276.511523,-7994.224174,1225.752797,444.123565
1276.511834,-7772.162391,689.485948,666.185348
1276.512146,-7698.141797,-383.047749,1480.411884
1276.512457,-7254.018232,-1072.533697,1480.411884
1276.512769,-7772.162391,-383.047749,1332.370696
1276.513080,-8438.347739,153.219100,740.205942
1276.513391,-9474.636058,1072.533697,888.247130
1276.513703,-9992.780217,919.314598,740.205942
1276.514014,-9918.759623,383.047749,962.267725
1276.514326,-8808.450710,612.876398,962.267725
1276.514637,-8438.347739,0.000000,666.185348
1276.514948,-7179.997637,-689.485948,1036.288319
1276.515260,-6957.935855,-919.314598,740.205942
1276.515571,-7105.977043,-1149.143247,1184.329507
1276.515883,-8660.409521,-995.924147,1036.288319
1276.516194,-9992.780217,-1072.533697,1628.453072
1276.516505,-10288.862594,-536.266849,1480.411884
1276.516817,-10732.986159,0.000000,1480.411884
1276.517128,-9992.780217,-536.266849,1036.288319
1276.517440,-8808.450710,0.000000,666.185348
1276.517751,-7550.100608,-536.266849,740.205942
1276.518062,-7031.956449,-383.047749,-148.041188
1276.518374,-6957.935855,-689.485948,-0.000000
1276.518685,-7624.121203,-689.485948,-0.000000
1276.518997,-9622.677246,-1302.362347,-0.000000
1276.519308,-10510.924376,0.000000,740.205942
1276.519619,-11177.109724,536.266849,1184.329507
1276.519931,-11843.295072,842.705048,1184.329507
1276.520242,-11325.150913,536.266849,888.247130
1276.520554,-9770.718434,612.876398,740.205942
1276.520865,-7772.162391,1302.362347,370.102971
1276.521176,-6957.935855,76.609550,296.082377
1276.521488,-6587.832884,-383.047749,222.061783
1276.521799,-7105.977043,-1225.752797,-0.000000
1276.522111,-8290.306550,-1072.533697,-0.000000
1276.522422,-9252.574275,-536.266849,-296.082377
1276.522733,-10510.924376,459.657299,-148.041188
1276.523045,-10807.006753,766.095498,-444.123565
1276.523356,-10732.986159,-306.438199,-444.123565
1276.523668,-9474.636058,0.000000,296.082377
1276.523979,-8660.409521,536.266849,-0.000000
1276.524291,-7846.182985,459.657299,888.247130
1276.524602,-7402.059420,-383.047749,1184.329507
1276.524913,-7254.018232,-1608.800546,1998.556043
1276.525225,-7698.141797,-689.485948,1332.370696
1276.525536,-8660.409521,-306.438199,370.102971
1276.525848,-9400.615463,383.047749,666.185348
1276.526159,-9918.759623,1149.143247,-296.082377
1276.526470,-9696.697840,536.266849,-740.205942
1276.526782,-8808.450710,0.000000,-444.123565
1276.527093,-8586.388927,-459.657299,-148.041188
1276.527405,-8068.244768,-842.705048,592.164754
1276.527716,-8068.244768,-995.924147,1184.329507
1276.528027,-8216.285956,-1608.800546,1258.350101
1276.528339,-8586.388927,-1685.410096,1554.432478
1276.528650,-9474.636058,-306.438199,962.267725
1276.528962,-9992.780217,459.657299,1258.350101
1276.529273,-10288.862594,383.047749,814.226536
1276.529584,-9992.780217,0.000000,222.061783
1276.529896,-9104.533087,459.657299,148.041188
1276.530207,-8290.306550,229.828649,-0.000000
1276.530519,-7550.100608,-1072.533697,296.082377
1276.530830,-6883.915261,-1149.143247,592.164754
1276.531141,-7402.059420,-1532.190996,592.164754
1276.531453,-9178.553681,-995.924147,666.185348
1276.531764,-10584.944971,0.000000,592.164754
1276.532076,-11473.192101,612.876398,1406.391290
1276.532387,-11399.171507,459.657299,1480.411884
1276.532698,-10658.965565,689.485948,1110.308913
1276.533010,-8882.471304,689.485948,1184.329507
1276.533321,-6217.729913,459.657299,666.185348
1276.533633,-5477.523971,76.609550,740.205942
1276.533944,-5921.647536,-1302.362347,370.102971
1276.534256,-6735.874072,-1608.800546,-0.000000
1276.534567,-8512.368333,-1149.143247,-222.061783
1276.534878,-10362.883188,-153.219100,-74.020594
1276.535190,-11251.130318,306.438199,-74.020594
1276.535501,-11695.253884,536.266849,-0.000000
1276.535813,-10584.944971,612.876398,518.144159
1276.536124,-9696.697840,153.219100,518.144159
1276.536435,-8364.327145,229.828649,740.205942
1276.536747,-7254.018232,153.219100,1184.329507
1276.537058,-6661.853478,-612.876398,962.267725
1276.537370,-6143.709319,-1149.143247,888.247130
1276.537681,-7105.977043,-995.924147,-0.000000
1276.537992,-8734.430116,-153.219100,-296.082377
1276.538304,-10140.821405,76.609550,-0.000000
1276.538615,-11695.253884,306.438199,-0.000000
1276.538927,-11769.274478,536.266849,148.041188
1276.539238,-10955.047942,689.485948,-0.000000
1276.539549,-9326.594869,229.828649,296.082377
1276.539861,-7624.121203,76.609550,148.041188
1276.540172,-6365.771101,-229.828649,592.164754
1276.540484,-6809.894666,0.000000,222.061783
1276.540795,-8068.244768,0.000000,-0.000000
1276.541106,-9030.512492,612.876398,-0.000000
1276.541418,-9844.739029,612.876398,-0.000000
1276.541729,-10288.862594,612.876398,-0.000000
1276.542041,-9992.780217,0.000000,-0.000000
1276.542352,-9474.636058,153.219100,222.061783
1276.542663,-8882.471304,-306.438199,-0.000000
1276.542975,-8364.327145,153.219100,444.123565
1276.543286,-8142.265362,-153.219100,814.226536
1276.543598,-7772.162391,-536.266849,740.205942
1276.543909,-8734.430116,0.000000,592.164754
1276.544221,-9326.594869,229.828649,666.185348
1276.544532,-9548.656652,1225.752797,592.164754
1276.544843,-10510.924376,1685.410096,592.164754
1276.545155,-10288.862594,1149.143247,814.226536
1276.545466,-9030.512492,995.924147,666.185348
1276.545778,-7624.121203,536.266849,962.267725
1276.546089,-7031.956449,153.219100,1110.308913
1276.546400,-7105.977043,-919.314598,1110.308913
1276.546712,-7254.018232,-1532.190996,888.247130
1276.547023,-7994.224174,-1378.971896,666.185348
1276.547335,-9474.636058,-919.314598,444.123565
1276.547646,-10584.944971,76.609550,-0.000000
1276.547957,-10510.924376,689.485948,666.185348
1276.548269,-10436.903782,-459.657299,-0.000000
1276.548580,-9030.512492,-383.047749,666.185348
1276.548892,-7920.203579,-536.266849,444.123565
1276.549203,-7698.141797,-842.705048,1184.329507
1276.549514,-7402.059420,-1685.410096,1406.391290
1276.549826,-7179.997637,-2221.676944,1554.432478
1276.550137,-8290.306550,-2604.724693,1480.411884
1276.550449,-9252.574275,-1838.629195,888.247130
1276.550760,-10510.924376,-766.095498,888.247130
1276.551071,-11399.171507,0.000000,888.247130
1276.551383,-10658.965565,689.485948,740.205942
1276.551694,-9622.677246,1072.533697,148.041188
1276.552006,-8660.409521,842.705048,-370.102971
1276.552317,-7698.141797,612.876398,-0.000000
1276.552628,-6883.915261,919.314598,962.267725
1276.552940,-7105.977043,306.438199,370.102971
1276.553251,-7772.162391,229.828649,592.164754
1276.553563,-9400.615463,0.000000,518.144159
1276.553874,-10436.903782,306.438199,592.164754
1276.554186,-10510.924376,536.266849,296.082377
1276.554497,-9992.780217,842.705048,-740.205942
1276.554808,-9326.594869,842.705048,-222.061783
1276.555120,-8364.327145,0.000000,-296.082377
1276.555431,-7698.141797,-153.219100,148.041188
1276.555743,-7105.977043,-612.876398,-0.000000
1276.556054,-7476.080014,-842.705048,296.082377
1276.556365,-8660.409521,-612.876398,296.082377
1276.556677,-9696.697840,153.219100,-0.000000
1276.556988,-10362.883188,919.314598,296.082377
1276.557300,-11103.089130,383.047749,370.102971
1276.557611,-11251.130318,153.219100,814.226536
1276.557922,-10362.883188,229.828649,814.226536
1276.558234,-8216.285956,383.047749,296.082377
1276.558545,-6587.832884,229.828649,518.144159
1276.558857,-6069.688724,-612.876398,-0.000000
1276.559168,-6365.771101,-1149.143247,-0.000000
1276.559479,-8142.265362,-1225.752797,-222.061783
1276.559791,-8882.471304,0.000000,-296.082377
1276.560102,-10288.862594,1072.533697,-222.061783
1276.560414,-11325.150913,536.266849,-0.000000
1276.560725,-11029.068536,0.000000,74.020594
1276.561036,-10214.842000,-612.876398,296.082377
1276.561348,-8364.327145,153.219100,518.144159
1276.561659,-7179.997637,-689.485948,740.205942
1276.561971,-7328.038826,-1532.190996,1036.288319
1276.562282,-6735.874072,-3294.210641,1554.432478
1276.562593,-7254.018232,-3447.429741,1924.535449
1276.562905,-8808.450710,-2757.943793,1702.473667
1276.563216,-10510.924376,-1378.971896,1628.453072
1276.563528,-11251.130318,-612.876398,1110.308913
1276.563839,-11695.253884,0.000000,592.164754
1276.564151,-10510.924376,153.219100,666.185348
1276.564462,-9030.512492,306.438199,296.082377
1276.564773,-8216.285956,919.314598,740.205942
1276.565085,-7402.059420,-229.828649,1184.329507
1276.565396,-7031.956449,0.000000,1702.473667
1276.565708,-7624.121203,-612.876398,1184.329507
1276.566019,-8216.285956,76.609550,1036.288319
1276.566330,-9326.594869,1378.971896,740.205942
1276.566642,-9770.718434,1455.581446,518.144159
1276.566953,-10362.883188,1762.019645,-370.102971
1276.567265,-9696.697840,766.095498,-444.123565
1276.567576,-8808.450710,995.924147,-518.144159
1276.567887,-7920.203579,995.924147,148.041188
1276.568199,-7179.997637,76.609550,740.205942
1276.568510,-7550.100608,-612.876398,888.247130
1276.568822,-8364.327145,-689.485948,1258.350101
1276.569133,-8734.430116,76.609550,1110.308913
1276.569444,-9474.636058,919.314598,518.144159
1276.569756,-10288.862594,1685.410096,-0.000000
1276.570067,-10732.986159,1378.971896,592.164754
1276.570379,-9696.697840,1302.362347,222.061783
1276.570690,-7698.141797,1685.410096,592.164754
1276.571001,-6957.935855,1302.362347,296.082377
1276.571313,-6143.709319,459.657299,148.041188
1276.571624,-6661.853478,-1072.533697,518.144159
1276.571936,-7624.121203,-383.047749,-148.041188
1276.572247,-8512.368333,-153.219100,-0.000000
1276.572558,-10140.821405,689.485948,-444.123565
1276.572870,-10658.965565,919.314598,-74.020594
1276.573181,-10288.862594,536.266849,-74.020594
1276.573493,-9474.636058,0.000000,-0.000000
1276.573804,-8438.347739,306.438199,370.102971
1276.574116,-7698.141797,383.047749,592.164754
1276.574427,-7402.059420,-612.876398,1036.288319
1276.574738,-7846.182985,-1685.410096,814.226536
1276.575050,-8290.306550,-1915.238745,296.082377
1276.575361,-9400.615463,-1762.019645,-0.000000
1276.575673,-10658.965565,-689.485948,296.082377
1276.575984,-11621.233289,-842.705048,444.123565
1276.576295,-12139.377449,-612.876398,518.144159
1276.576607,-11325.150913,-306.438199,814.226536
1276.576918,-9918.759623,76.609550,814.226536
1276.577230,-8364.327145,0.000000,962.267725
1276.577541,-7105.977043,-153.219100,1184.329507
1276.577852,-6587.832884,-459.657299,962.267725
1276.578164,-6809.894666,-306.438199,888.247130
1276.578475,-8142.265362,-689.485948,444.123565
1276.578787,-9770.718434,459.657299,-0.000000
1276.579098,-10807.006753,459.657299,-74.020594
1276.579409,-11103.089130,-76.609550,-148.041188
1276.579721,-10436.903782,-306.438199,-74.020594
1276.580032,-9252.574275,-306.438199,-0.000000
1276.580344,-8142.265362,-919.314598,814.226536
1276.580655,-7698.141797,-1072.533697,962.267725
1276.580966,-7254.018232,-1225.752797,1628.453072
1276.581278,-8216.285956,-995.924147,1554.432478
1276.581589,-8734.430116,306.438199,962.267725
1276.581901,-9030.512492,1378.971896,1036.288319
1276.582212,-10140.821405,1225.752797,888.247130
1276.582523,-9918.759623,1072.533697,666.185348
1276.582835,-9548.656652,1302.362347,814.226536
1276.583146,-8438.347739,1225.752797,666.185348
1276.583458,-7254.018232,1149.143247,666.185348
1276.583769,-6291.750507,-306.438199,444.123565
1276.584081,-6291.750507,-536.266849,148.041188
1276.584392,-6957.935855,-536.266849,-0.000000
1276.584703,-7698.141797,0.000000,148.041188
1276.585015,-8808.450710,1225.752797,-0.000000
1276.585326,-9770.718434,1455.581446,296.082377
1276.585638,-10214.842000,919.314598,222.061783
1276.585949,-9844.739029,-153.219100,518.144159
1276.586260,-8734.430116,459.657299,444.123565
1276.586572,-8438.347739,229.828649,740.205942
1276.586883,-7476.080014,-1072.533697,888.247130
1276.587195,-7624.121203,-2221.676944,666.185348
1276.587506,-8142.265362,-2145.067394,740.205942
1276.587817,-9178.553681,-1532.190996,666.185348
1276.588129,-10658.965565,-689.485948,666.185348
1276.588440,-11621.233289,1532.190996,518.144159
1276.588752,-11325.150913,536.266849,296.082377
1276.589063,-10807.006753,612.876398,-0.000000
1276.589374,-9400.615463,766.095498,444.123565
1276.589686,-7846.182985,1072.533697,592.164754
1276.589997,-7105.977043,306.438199,1036.288319
1276.590309,-6809.894666,-536.266849,666.185348
1276.590620,-7550.100608,-1915.238745,222.061783
1276.590931,-8364.327145,-919.314598,666.185348
1276.591243,-9844.739029,-1072.533697,444.123565
1276.591554,-10436.903782,0.000000,740.205942
1276.591866,-11325.150913,-383.047749,296.082377
1276.592177,-11251.130318,-306.438199,296.082377
1276.592488,-9622.677246,76.609550,-74.020594
1276.592800,-8438.347739,306.438199,-0.000000
1276.593111,-6809.894666,0.000000,148.041188
1276.593423,-7105.977043,-1225.752797,-0.000000
1276.593734,-7624.121203,-1685.410096,592.164754
1276.594046,-8956.491898,-995.924147,592.164754
1276.594357,-10140.821405,0.000000,1036.288319
1276.594668,-11103.089130,383.047749,1702.473667
1276.594980,-11251.130318,0.000000,1184.329507
1276.595291,-10584.944971,383.047749,740.205942
1276.595603,-7994.224174,1072.533697,148.041188
1276.595914,-6439.791695,1378.971896,-740.205942
1276.596225,-5329.482782,153.219100,-148.041188
1276.596537,-5699.585753,-766.095498,-296.082377
1276.596848,-6883.915261,-1149.143247,-296.082377
1276.597160,-8216.285956,-612.876398,222.061783
1276.597471,-9548.656652,459.657299,-0.000000
1276.597782,-11103.089130,689.485948,296.082377
1276.598094,-11251.130318,0.000000,592.164754
1276.598405,-10140.821405,229.828649,370.102971
1276.598717,-9252.574275,-306.438199,888.247130
1276.599028,-7994.224174,536.266849,814.226536
1276.599339,-7476.080014,0.000000,962.267725
1276.599651,-7105.977043,-1455.581446,1036.288319
1276.599962,-7772.162391,-1378.971896,518.144159
1276.600274,-8364.327145,0.000000,-0.000000
1276.600585,-9844.739029,612.876398,-592.164754
1276.600896,-11029.068536,1149.143247,-222.061783
1276.601208,-11325.150913,1762.019645,-370.102971
1276.601519,-10362.883188,1455.581446,-74.020594
1276.601831,-8882.471304,995.924147,518.144159
1276.602142,-7994.224174,0.000000,1258.350101
1276.602453,-7105.977043,-766.095498,1332.370696
1276.602765,-7624.121203,-383.047749,1258.350101
1276.603076,-7772.162391,-383.047749,1258.350101
1276.603388,-8586.388927,229.828649,444.123565
1276.603699,-10288.862594,-306.438199,-0.000000
1276.604011,-10732.986159,76.609550,-0.000000
1276.604322,-10732.986159,0.000000,-148.041188
1276.604633,-9770.718434,0.000000,148.041188
1276.604945,-8586.388927,0.000000,-0.000000
1276.605256,-8068.244768,76.609550,148.041188
1276.605568,-7179.997637,-842.705048,740.205942
1276.605879,-7105.977043,-1225.752797,1554.432478
1276.606190,-7254.018232,-842.705048,1702.473667
1276.606502,-8586.388927,-689.485948,1480.411884
1276.606813,-9548.656652,-229.828649,1554.432478
1276.607125,-10140.821405,229.828649,1258.350101
1276.607436,-10066.800811,995.924147,1036.288319
1276.607747,-9622.677246,766.095498,444.123565
1276.608059,-8364.327145,1225.752797,-0.000000
1276.608370,-7105.977043,995.924147,-0.000000
1276.608682,-5995.668130,0.000000,-148.041188
1276.608993,-5921.647536,-766.095498,-74.020594
1276.609304,-7254.018232,-766.095498,-222.061783
1276.609616,-8956.491898,-689.485948,148.041188
1276.609927,-10658.965565,-612.876398,370.102971
1276.610239,-11399.171507,76.609550,592.164754
1276.610550,-11991.336260,383.047749,888.247130
1276.610861,-10955.047942,-536.266849,962.267725
1276.611173,-9696.697840,-536.266849,888.247130
1276.611484,-7772.162391,0.000000,666.185348
1276.611796,-6883.915261,-306.438199,518.144159
1276.612107,-6661.853478,-1532.190996,-0.000000
1276.612418,-6883.915261,-1302.362347,-0.000000
1276.612730,-8586.388927,-842.705048,-222.061783
1276.613041,-9770.718434,76.609550,-0.000000
1276.613353,-11029.068536,1225.752797,222.061783
1276.613664,-12287.418637,1149.143247,740.205942
1276.613976,-11399.171507,1302.362347,814.226536
1276.614287,-9622.677246,1378.971896,1110.308913
1276.614598,-7698.141797,1762.019645,888.247130
1276.614910,-6735.874072,459.657299,888.247130
1276.615221,-6069.688724,-153.219100,814.226536
1276.615533,-6661.853478,-995.924147,-0.000000
1276.615844,-7920.203579,-1072.533697,-222.061783
1276.616156,-9400.615463,-153.219100,-74.020594
1276.616467,-10732.986159,0.000000,-296.082377
1276.616779,-11473.192101,0.000000,-0.000000
1276.617090,-10807.006753,0.000000,518.144159
1276.617401,-9474.636058,-383.047749,296.082377
1276.617713,-8586.388927,0.000000,888.247130
1276.618024,-7624.121203,-306.438199,1258.350101
1276.618336,-6809.894666,-842.705048,1332.370696
1276.618647,-7254.018232,-766.095498,1554.432478
1276.618959,-8364.327145,-612.876398,1554.432478
1276.619270,-9252.574275,153.219100,814.226536
1276.619582,-10140.821405,612.876398,962.267725
1276.619893,-10807.006753,0.000000,296.082377
1276.620204,-9918.759623,0.000000,888.247130
1276.620516,-9252.574275,306.438199,296.082377
1276.620827,-8142.265362,153.219100,814.226536
1276.621139,-6883.915261,-229.828649,444.123565
1276.621450,-6809.894666,-919.314598,962.267725
1276.621762,-7105.977043,-1455.581446,888.247130
1276.622073,-8068.244768,-842.705048,666.185348
1276.622385,-9104.533087,-306.438199,740.205942
1276.622696,-9918.759623,459.657299,740.205942
1276.623008,-10510.924376,-153.219100,-0.000000
1276.623319,-10881.027347,-536.266849,296.082377
1276.623630,-9548.656652,-689.485948,518.144159
1276.623942,-8586.388927,-383.047749,592.164754
1276.624253,-7846.182985,-919.314598,444.123565
1276.624565,-7550.100608,-1225.752797,518.144159
1276.624876,-8068.244768,-1991.848295,740.205942
1276.625188,-8882.471304,-1532.190996,1110.308913
1276.625499,-9844.739029,-919.314598,888.247130
1276.625811,-10658.965565,536.266849,592.164754
1276.626122,-11325.150913,1149.143247,444.123565
1276.626434,-11251.130318,995.924147,-0.000000
1276.626745,-9474.636058,1991.848295,-0.000000
1276.627056,-7772.162391,2374.896044,-74.020594
1276.627368,-7105.977043,1302.362347,-0.000000
1276.627679,-6883.915261,-229.828649,518.144159
1276.627991,-7105.977043,-842.705048,370.102971
1276.628302,-7846.182985,-1072.533697,518.144159
1276.628614,-8808.450710,-766.095498,370.102971
1276.628925,-10362.883188,-383.047749,-0.000000
1276.629237,-10658.965565,229.828649,-0.000000
1276.629548,-10140.821405,0.000000,-444.123565
1276.629859,-9992.780217,-459.657299,-74.020594
1276.630171,-8512.368333,0.000000,814.226536
1276.630482,-7994.224174,0.000000,592.164754
1276.630794,-7179.997637,-1072.533697,1184.329507
1276.631105,-7179.997637,-1149.143247,1554.432478
1276.631417,-8216.285956,-1072.533697,1036.288319
1276.631728,-9474.636058,229.828649,1036.288319
1276.632040,-10584.944971,1915.238745,1110.308913
1276.632351,-11177.109724,1378.971896,592.164754
1276.632663,-11325.150913,1915.238745,222.061783
1276.632974,-9474.636058,2528.115143,-0.000000
1276.633285,-7624.121203,1532.190996,-148.041188
1276.633597,-6513.812290,459.657299,-0.000000
1276.633908,-5921.647536,-153.219100,444.123565
1276.634220,-7254.018232,-1838.629195,-0.000000
1276.634531,-8142.265362,-919.314598,740.205942
1276.634843,-10066.800811,-919.314598,1036.288319
1276.635154,-11251.130318,229.828649,666.185348
1276.635466,-10732.986159,229.828649,518.144159
1276.635777,-10584.944971,-383.047749,370.102971
1276.636088,-9252.574275,-459.657299,666.185348
1276.636400,-8290.306550,0.000000,518.144159
1276.636711,-7476.080014,0.000000,1332.370696
1276.637023,-7328.038826,-1532.190996,962.267725
1276.637334,-7402.059420,-1762.019645,740.205942
1276.637646,-8734.430116,-1455.581446,444.123565
1276.637957,-9696.697840,0.000000,-0.000000
1276.638269,-10436.903782,1225.752797,-0.000000
1276.638580,-11399.171507,1838.629195,-0.000000
1276.638892,-11843.295072,1915.238745,592.164754
1276.639203,-10214.842000,1225.752797,666.185348
1276.639514,-8290.306550,1455.581446,814.226536
1276.639826,-6735.874072,766.095498,1110.308913
1276.640137,-5847.626942,0.000000,1110.308913
1276.640449,-5921.647536,-612.876398,518.144159
1276.640760,-6661.853478,-842.705048,296.082377
1276.641072,-9030.512492,-229.828649,-370.102971
1276.641383,-10584.944971,76.609550,-148.041188
1276.641695,-10807.006753,76.609550,-222.061783
1276.642006,-11325.150913,536.266849,-592.164754
1276.642317,-9992.780217,-689.485948,-0.000000
1276.642629,-9030.512492,-536.266849,-0.000000
1276.642940,-8364.327145,-536.266849,1036.288319
1276.643252,-7624.121203,-229.828649,1628.453072
1276.643563,-7846.182985,-919.314598,1480.411884
1276.643875,-7624.121203,306.438199,1332.370696
1276.644186,-8808.450710,536.266849,592.164754
1276.644498,-9622.677246,689.485948,592.164754
1276.644809,-10066.800811,1225.752797,-74.020594
1276.645121,-10214.842000,1685.410096,-0.000000
1276.645432,-9400.615463,1685.410096,-74.020594
1276.645743,-8142.265362,1072.533697,-0.000000
1276.646055,-6957.935855,-383.047749,-0.000000
1276.646366,-6735.874072,-612.876398,222.061783
1276.646678,-6883.915261,-1608.800546,592.164754
1276.646989,-8068.244768,-1532.190996,888.247130
1276.647301,-9474.636058,-919.314598,592.164754
1276.647612,-10658.965565,0.000000,518.144159
1276.647924,-10807.006753,0.000000,888.247130
1276.648235,-10658.965565,-536.266849,814.226536
1276.648547,-9696.697840,-459.657299,518.144159
1276.648858,-8364.327145,-383.047749,296.082377
1276.649169,-7624.121203,-536.266849,592.164754
1276.649481,-7846.182985,-1225.752797,444.123565
1276.649792,-7772.162391,-2221.676944,592.164754
1276.650104,-9030.512492,-1762.019645,592.164754
1276.650415,-9622.677246,-842.705048,296.082377
1276.650727,-10510.924376,459.657299,444.123565
1276.651038,-10807.006753,1225.752797,518.144159
1276.651350,-10955.047942,689.485948,666.185348
1276.651661,-9770.718434,1072.533697,740.205942
1276.651972,-8512.368333,459.657299,1184.329507
1276.652284,-7476.080014,919.314598,1702.473667
1276.652595,-7031.956449,0.000000,962.267725
1276.652907,-6809.894666,-612.876398,888.247130
1276.653218,-7179.997637,-995.924147,222.061783
1276.653530,-8882.471304,-842.705048,-74.020594
1276.653841,-10066.800811,536.266849,148.041188
1276.654153,-10955.047942,383.047749,-222.061783
1276.654464,-11177.109724,-306.438199,-0.000000
1276.654776,-10955.047942,-229.828649,370.102971
1276.655087,-9178.553681,0.000000,814.226536
1276.655398,-7846.182985,0.000000,962.267725
1276.655710,-6883.915261,153.219100,1258.350101
1276.656021,-6217.729913,0.000000,1184.329507
1276.656333,-6883.915261,306.438199,888.247130
1276.656644,-7846.182985,612.876398,370.102971
1276.656956,-9326.594869,689.485948,518.144159
1276.657267,-10362.883188,689.485948,222.061783
1276.657579,-10362.883188,995.924147,-0.000000
1276.657890,-9474.636058,919.314598,-74.020594
1276.658201,-7920.203579,689.485948,-0.000000
1276.658513,-7105.977043,0.000000,-0.000000
1276.658824,-6217.729913,-1149.143247,370.102971
1276.659136,-7254.018232,-1838.629195,148.041188
1276.659447,-7846.182985,-995.924147,444.123565
1276.659759,-9326.594869,0.000000,222.061783
1276.660070,-10436.903782,306.438199,-0.000000
1276.660382,-10658.965565,0.000000,370.102971
1276.660693,-10510.924376,-842.705048,-0.000000
1276.661005,-9770.718434,-842.705048,370.102971
1276.661316,-9178.553681,-383.047749,222.061783
1276.661627,-8216.285956,-1072.533697,962.267725
1276.661939,-8216.285956,-1991.848295,370.102971
1276.662250,-7994.224174,-2451.505594,444.123565
1276.662562,-8142.265362,-1608.800546,148.041188
1276.662873,-9918.759623,-306.438199,-222.061783
1276.663185,-11251.130318,766.095498,148.041188
1276.663496,-11695.253884,1072.533697,-74.020594
1276.663808,-11695.253884,2068.457845,-0.000000
1276.664119,-10140.821405,1302.362347,518.144159
1276.664430,-8586.388927,1072.533697,592.164754
1276.664742,-7476.080014,689.485948,1110.308913
1276.665053,-6735.874072,0.000000,1110.308913
1276.665365,-6513.812290,-536.266849,740.205942
1276.665676,-7994.224174,-919.314598,444.123565
1276.665988,-9918.759623,-766.095498,518.144159
1276.666299,-10732.986159,0.000000,222.061783
1276.666611,-10658.965565,536.266849,-0.000000
1276.666922,-10584.944971,1455.581446,-148.041188
1276.667234,-9770.718434,1302.362347,-0.000000
1276.667545,-8364.327145,1072.533697,222.061783
1276.667856,-7031.956449,459.657299,814.226536
1276.668168,-6809.894666,766.095498,962.267725
1276.668479,-6513.812290,842.705048,1776.494261
1276.668791,-6439.791695,153.219100,1628.453072
1276.669102,-7328.038826,0.000000,1480.411884
1276.669414,-8956.491898,229.828649,1332.370696
1276.669725,-10066.800811,383.047749,666.185348
1276.670037,-10658.965565,1302.362347,518.144159
1276.670348,-9474.636058,1532.190996,-0.000000
1276.670660,-8068.244768,1608.800546,-0.000000
1276.670971,-6957.935855,306.438199,222.061783
1276.671282,-6143.709319,-536.266849,666.185348
1276.671594,-6735.874072,-1378.971896,444.123565
1276.671905,-7624.121203,-1072.533697,592.164754
1276.672217,-8364.327145,-459.657299,518.144159
1276.672528,-9918.759623,76.609550,370.102971
1276.672840,-10955.047942,-536.266849,962.267725
1276.673151,-11325.150913,-1532.190996,888.247130
1276.673463,-10362.883188,-842.705048,962.267725
1276.673774,-8956.491898,-766.095498,814.226536
1276.674085,-8882.471304,-536.266849,666.185348
1276.674397,-7920.203579,-1685.410096,-0.000000
1276.674708,-7328.038826,-1838.629195,-0.000000
1276.675020,-7328.038826,-1838.629195,-370.102971
1276.675331,-8956.491898,-1302.362347,-370.102971
1276.675643,-11251.130318,383.047749,-666.185348
1276.675954,-12213.398043,1149.143247,444.123565
1276.676266,-12287.418637,1072.533697,740.205942
1276.676577,-11843.295072,612.876398,1110.308913
1276.676889,-10066.800811,229.828649,1110.308913
1276.677200,-8216.285956,76.609550,814.226536
1276.677511,-7105.977043,-612.876398,666.185348
1276.677823,-6143.709319,-229.828649,592.164754
1276.678134,-7179.997637,-842.705048,-0.000000
1276.678446,-8586.388927,-766.095498,370.102971
1276.678757,-10066.800811,-919.314598,-0.000000
1276.679069,-10732.986159,0.000000,-74.020594
1276.679380,-11103.089130,995.924147,-296.082377
1276.679692,-10436.903782,689.485948,-370.102971
1276.680003,-9178.553681,689.485948,-0.000000
1276.680314,-8142.265362,229.828649,1036.288319
1276.680626,-6661.853478,76.609550,1480.411884
1276.680937,-6439.791695,-919.314598,1998.556043
1276.681249,-6957.935855,-1225.752797,1628.453072
1276.681560,-7698.141797,-612.876398,1332.370696
1276.681872,-8586.388927,153.219100,592.164754
1276.682183,-9992.780217,459.657299,444.123565
1276.682495,-9622.677246,229.828649,-0.000000
1276.682806,-9548.656652,919.314598,-74.020594
1276.683118,-9178.553681,612.876398,-0.000000
1276.683429,-7624.121203,0.000000,592.164754
1276.683740,-7179.997637,-766.095498,740.205942
1276.684052,-6883.915261,-919.314598,1110.308913
1276.684363,-7550.100608,-842.705048,962.267725
1276.684675,-7994.224174,-306.438199,370.102971
1276.684986,-9622.677246,1149.143247,740.205942
1276.685298,-10214.842000,1455.581446,814.226536
1276.685609,-9770.718434,766.095498,-0.000000
1276.685921,-9696.697840,76.609550,370.102971
1276.686232,-9104.533087,0.000000,-0.000000
1276.686543,-8956.491898,-536.266849,-0.000000
1276.686855,-8142.265362,-1072.533697,148.041188
1276.687166,-8142.265362,-1532.190996,-0.000000
1276.687478,-7920.203579,-1455.581446,296.082377
1276.687789,-10214.842000,-1532.190996,-148.041188
1276.688101,-11547.212695,-536.266849,740.205942
1276.688412,-11695.253884,153.219100,1258.350101
1276.688724,-11473.192101,689.485948,1776.494261
1276.689035,-10658.965565,229.828649,962.267725
1276.689347,-8808.450710,0.000000,1184.329507
1276.689658,-7772.162391,306.438199,888.247130
1276.689969,-6809.894666,76.609550,666.185348
1276.690281,-6439.791695,-612.876398,-0.000000
1276.690592,-7402.059420,-689.485948,-74.020594
1276.690904,-9030.512492,-995.924147,-222.061783
1276.691215,-10214.842000,-536.266849,-370.102971
1276.691527,-10807.006753,-229.828649,222.061783
1276.691838,-11029.068536,76.609550,222.061783
1276.692150,-10436.903782,229.828649,296.082377
1276.692461,-9474.636058,306.438199,518.144159
1276.692773,-8586.388927,536.266849,444.123565
1276.693084,-7105.977043,229.828649,1184.329507
1276.693395,-6587.832884,229.828649,1110.308913
1276.693707,-6439.791695,-459.657299,814.226536
1276.694018,-7031.956449,-612.876398,148.041188
1276.694330,-8586.388927,-229.828649,296.082377
1276.694641,-10436.903782,0.000000,-296.082377
1276.694953,-11547.212695,306.438199,-0.000000
1276.695264,-11547.212695,766.095498,74.020594
1276.695576,-10140.821405,1225.752797,-0.000000
1276.695887,-8142.265362,995.924147,-0.000000
1276.696198,-6809.894666,0.000000,296.082377
1276.696510,-6587.832884,-1072.533697,1036.288319
1276.696821,-6883.915261,-1378.971896,888.247130
1276.697133,-7031.956449,-689.485948,814.226536
1276.697444,-9770.718434,306.438199,-74.020594
1276.697756,-10066.800811,383.047749,444.123565
1276.698067,-10362.883188,0.000000,296.082377
1276.698379,-9844.739029,0.000000,-0.000000
1276.698690,-8512.368333,306.438199,148.041188
1276.699002,-8216.285956,229.828649,296.082377
1276.699313,-8290.306550,-383.047749,222.061783
1276.699624,-8364.327145,-1149.143247,1110.308913
1276.699936,-8660.409521,-1532.190996,962.267725
1276.700247,-9030.512492,-689.485948,814.226536
1276.700559,-10658.965565,612.876398,444.123565
1276.700870,-11177.109724,1838.629195,444.123565
1276.701182,-11547.212695,1838.629195,888.247130
1276.701493,-10658.965565,1302.362347,962.267725
1276.701805,-8142.265362,1838.629195,1036.288319
1276.702116,-7105.977043,766.095498,814.226536
1276.702427,-6587.832884,306.438199,962.267725
1276.702739,-6365.771101,-306.438199,666.185348
1276.703050,-6513.812290,-766.095498,814.226536
1276.703362,-8068.244768,-689.485948,518.144159
1276.703673,-9844.739029,-1225.752797,518.144159
1276.703985,-11251.130318,-306.438199,-0.000000
1276.704296,-11843.295072,459.657299,370.102971
1276.704608,-10807.006753,689.485948,-222.061783
1276.704919,-9696.697840,689.485948,-0.000000
1276.705231,-8068.244768,0.000000,1036.288319
1276.705542,-6883.915261,-229.828649,1480.411884
1276.705853,-5921.647536,-1149.143247,1850.514855
1276.706165,-6365.771101,-1455.581446,1776.494261
1276.706476,-7772.162391,-919.314598,1184.329507
1276.706788,-9918.759623,-766.095498,444.123565
1276.707099,-10140.821405,536.266849,370.102971
1276.707411,-10658.965565,612.876398,-148.041188
1276.707722,-10510.924376,306.438199,222.061783
1276.708034,-9474.636058,229.828649,-0.000000
1276.708345,-8586.388927,0.000000,296.082377
1276.708656,-7476.080014,0.000000,592.164754
1276.708968,-6661.853478,-229.828649,814.226536
1276.709279,-7179.997637,-153.219100,666.185348
1276.709591,-7328.038826,0.000000,518.144159
1276.709902,-8438.347739,-459.657299,148.041188
1276.710214,-9622.677246,0.000000,370.102971
1276.710525,-10362.883188,306.438199,-0.000000
1276.710837,-10436.903782,383.047749,-0.000000
1276.711148,-10066.800811,-536.266849,222.061783
1276.711460,-8734.430116,0.000000,370.102971
1276.711771,-8216.285956,-1072.533697,-518.144159
1276.712082,-7846.182985,-383.047749,-0.000000
1276.712394,-8290.306550,-383.047749,-148.041188
1276.712705,-9548.656652,-766.095498,148.041188
1276.713017,-10584.944971,-306.438199,370.102971
1276.713328,-11103.089130,766.095498,740.205942
1276.713640,-11251.130318,1072.533697,814.226536
1276.713951,-10436.903782,612.876398,962.267725
1276.714263,-8512.368333,766.095498,740.205942
1276.714574,-6883.915261,383.047749,888.247130
1276.714886,-6957.935855,76.609550,1184.329507
1276.715197,-6809.894666,-995.924147,814.226536
1276.715508,-7254.018232,-1149.143247,592.164754
1276.715820,-8956.491898,-842.705048,-0.000000
1276.716131,-9992.780217,153.219100,-148.041188
1276.716443,-10881.027347,1225.752797,-0.000000
1276.716754,-11399.171507,842.705048,-0.000000
1276.717066,-10955.047942,1378.971896,222.061783
1276.717377,-9992.780217,229.828649,888.247130
1276.717689,-8290.306550,536.266849,1110.308913
1276.718000,-6587.832884,995.924147,1628.453072
1276.718312,-5699.585753,153.219100,1258.350101
1276.718623,-6069.688724,-153.219100,1110.308913
1276.718934,-6883.915261,-1225.752797,962.267725
1276.719246,-8586.388927,0.000000,592.164754
1276.719557,-9918.759623,0.000000,740.205942
1276.719869,-11399.171507,0.000000,814.226536
1276.720180,-10955.047942,76.609550,296.082377
1276.720492,-9696.697840,459.657299,-0.000000
1276.720803,-8512.368333,0.000000,370.102971
1276.721115,-6735.874072,-229.828649,814.226536
1276.721426,-6957.935855,-153.219100,444.123565
1276.721738,-6809.894666,-766.095498,962.267725
1276.722049,-6735.874072,-1532.190996,888.247130
1276.722361,-8068.244768,-766.095498,888.247130
1276.722672,-9548.656652,-766.095498,592.164754
1276.722983,-9770.718434,-842.705048,296.082377
1276.723295,-10510.924376,-842.705048,-0.000000
1276.723606,-9992.780217,0.000000,-370.102971
1276.723918,-9252.574275,-383.047749,-296.082377
1276.724229,-9104.533087,-1302.362347,-518.144159
1276.724541,-8438.347739,-1685.410096,296.082377
1276.724852,-7920.203579,-1608.800546,592.164754
1276.725164,-9104.533087,-1378.971896,740.205942
1276.725475,-9992.780217,-306.438199,666.185348
1276.725787,-10362.883188,766.095498,666.185348
1276.726098,-10510.924376,842.705048,444.123565
1276.726410,-9400.615463,1685.410096,592.164754
1276.726721,-9252.574275,1915.238745,-0.000000
1276.727033,-8142.265362,842.705048,-74.020594
1276.727344,-7328.038826,766.095498,296.082377
1276.727655,-7698.141797,76.609550,-0.000000
1276.727967,-8364.327145,-612.876398,148.041188
1276.728278,-9844.739029,-995.924147,-148.041188
1276.728590,-10436.903782,-459.657299,-444.123565
1276.728901,-10955.047942,612.876398,-370.102971
1276.729213,-11399.171507,1608.800546,-444.123565
1276.729524,-10510.924376,995.924147,-0.000000
1276.729836,-9548.656652,229.828649,740.205942
1276.730147,-8142.265362,-229.828649,1332.370696
1276.730459,-6217.729913,229.828649,1554.432478
1276.730770,-6069.688724,306.438199,1036.288319
1276.731082,-6365.771101,0.000000,814.226536
1276.731393,-7179.997637,-229.828649,962.267725
1276.731705,-9178.553681,612.876398,-74.020594
1276.732016,-10214.842000,842.705048,444.123565
1276.732327,-11547.212695,612.876398,444.123565
1276.732639,-11251.130318,1072.533697,666.185348
1276.732950,-10214.842000,1838.629195,962.267725
1276.733262,-8068.244768,1762.019645,814.226536
1276.733573,-6217.729913,1225.752797,592.164754
1276.733885,-5329.482782,1149.143247,1332.370696
1276.734196,-5625.565159,229.828649,814.226536
1276.734508,-6587.832884,-153.219100,814.226536
1276.734819,-7772.162391,229.828649,666.185348
1276.735131,-9770.718434,229.828649,592.164754
1276.735442,-10881.027347,-766.095498,518.144159
1276.735754,-10362.883188,-1378.971896,518.144159
1276.736065,-9992.780217,-689.485948,296.082377
1276.736376,-9474.636058,-1455.581446,296.082377
1276.736688,-8438.347739,-1838.629195,740.205942
1276.736999,-8142.265362,-1532.190996,1036.288319
1276.737311,-7772.162391,-2145.067394,962.267725
1276.737622,-8216.285956,-2221.676944,1110.308913
1276.737934,-9474.636058,-1149.143247,962.267725
1276.738245,-10214.842000,0.000000,666.185348
1276.738557,-10584.944971,1608.800546,814.226536
1276.738868,-10510.924376,536.266849,740.205942
1276.739180,-9696.697840,383.047749,592.164754
1276.739491,-9030.512492,0.000000,666.185348
1276.739803,-8586.388927,-612.876398,370.102971
1276.740114,-7698.141797,-995.924147,-0.000000
1276.740426,-7772.162391,-689.485948,-296.082377
1276.740737,-8142.265362,-1302.362347,-148.041188
1276.741048,-9474.636058,-1455.581446,-370.102971
1276.741360,-10732.986159,0.000000,-0.000000
1276.741671,-11325.150913,766.095498,222.061783
1276.741983,-11473.192101,1072.533697,-0.000000
1276.742294,-10955.047942,1072.533697,222.061783
1276.742606,-8882.471304,1225.752797,-0.000000
1276.742917,-6883.915261,919.314598,740.205942
1276.743229,-6365.771101,0.000000,518.144159
1276.743540,-6735.874072,-459.657299,592.164754
1276.743852,-7328.038826,-612.876398,-0.000000
1276.744163,-9474.636058,153.219100,370.102971
1276.744475,-10807.006753,383.047749,444.123565
1276.744786,-11621.233289,1532.190996,296.082377
1276.745098,-11473.192101,1685.410096,-0.000000
1276.745409,-9474.636058,1762.019645,-74.020594
1276.745720,-7476.080014,1302.362347,-0.000000
1276.746032,-5995.668130,0.000000,740.205942
1276.746343,-5995.668130,-459.657299,1110.308913
1276.746655,-6291.750507,-766.095498,1554.432478
1276.746966,-7031.956449,-1072.533697,1480.411884
1276.747278,-8512.368333,-766.095498,888.247130
1276.747589,-9992.780217,-306.438199,814.226536
1276.747901,-10658.965565,-536.266849,592.164754
1276.748212,-10066.800811,0.000000,592.164754
1276.748524,-9474.636058,76.609550,296.082377
1276.748835,-9030.512492,0.000000,296.082377
1276.749147,-8586.388927,-766.095498,666.185348
1276.749458,-7476.080014,-1149.143247,740.205942
1276.749769,-6957.935855,-1072.533697,666.185348
1276.750081,-7105.977043,-1225.752797,962.267725
1276.750392,-8734.430116,-1072.533697,1036.288319
1276.750704,-10436.903782,153.219100,1110.308913
1276.751015,-10362.883188,383.047749,1258.350101
1276.751327,-10807.006753,459.657299,814.226536
1276.751638,-9770.718434,306.438199,1184.329507
1276.751950,-8438.347739,0.000000,222.061783
1276.752261,-7402.059420,-612.876398,296.082377
1276.752573,-6661.853478,-842.705048,222.061783
1276.752884,-7031.956449,-1302.362347,-0.000000
1276.753196,-8364.327145,-1072.533697,-296.082377
1276.753507,-9844.739029,-1762.019645,148.041188
1276.753819,-11177.109724,-612.876398,-0.000000
1276.754130,-11917.315666,229.828649,-0.000000
1276.754441,-11917.315666,383.047749,370.102971
1276.754753,-11103.089130,-229.828649,592.164754
1276.755064,-9474.636058,-383.047749,888.247130
1276.755376,-7698.141797,-383.047749,1036.288319
1276.755687,-6217.729913,-612.876398,1036.288319
1276.755999,-6439.791695,-1225.752797,370.102971
1276.756310,-7105.977043,-1225.752797,296.082377
1276.756622,-8364.327145,-229.828649,-444.123565
1276.756933,-10436.903782,229.828649,-740.205942
1276.757245,-11991.336260,1302.362347,-148.041188
1276.757556,-12139.377449,1991.848295,-370.102971
1276.757868,-10807.006753,2298.286494,-0.000000
1276.758179,-8808.450710,2528.115143,296.082377
1276.758491,-7105.977043,1378.971896,296.082377
1276.758802,-6217.729913,459.657299,962.267725
1276.759113,-5255.462188,306.438199,1036.288319
1276.759425,-6365.771101,0.000000,444.123565
1276.759736,-7476.080014,306.438199,-0.000000
1276.760048,-9696.697840,919.314598,-370.102971
1276.760359,-10732.986159,-306.438199,-222.061783
1276.760671,-10140.821405,0.000000,-518.144159
1276.760982,-9474.636058,153.219100,-0.000000
1276.761294,-8808.450710,-383.047749,-74.020594
1276.761605,-8734.430116,-1302.362347,296.082377
1276.761917,-8068.244768,-1838.629195,666.185348
1276.762228,-7105.977043,-1378.971896,1184.329507
1276.762540,-7698.141797,-1455.581446,1480.411884
1276.762851,-8956.491898,-536.266849,962.267725
1276.763162,-10066.800811,0.000000,888.247130
1276.763474,-10436.903782,1378.971896,888.247130
1276.763785,-10214.842000,1685.410096,370.102971
1276.764097,-9918.759623,1225.752797,370.102971
1276.764408,-8660.409521,766.095498,-222.061783
1276.764720,-7846.182985,153.219100,-592.164754
1276.765031,-7772.162391,-612.876398,-222.061783
1276.765343,-7105.977043,-1455.581446,-0.000000
1276.765654,-8364.327145,-1532.190996,592.164754
1276.765966,-9918.759623,-2221.676944,1036.288319
1276.766277,-11029.068536,-1762.019645,1702.473667
1276.766589,-11547.212695,0.000000,1480.411884
1276.766900,-11251.130318,612.876398,1110.308913
1276.767212,-9992.780217,1149.143247,666.185348
1276.767523,-8512.368333,306.438199,1036.288319
1276.767834,-7105.977043,1072.533697,888.247130
1276.768146,-6291.750507,0.000000,888.247130
1276.768457,-6809.894666,-153.219100,666.185348
1276.768769,-7698.141797,-229.828649,1036.288319
1276.769080,-9104.533087,-229.828649,444.123565
1276.769392,-10807.006753,-459.657299,592.164754
1276.769703,-11325.150913,1838.629195,814.226536
1276.770015,-11177.109724,1455.581446,962.267725
1276.770326,-9770.718434,1608.800546,518.144159
1276.770638,-8660.409521,1225.752797,370.102971
1276.770949,-7476.080014,612.876398,518.144159
1276.771261,-6291.750507,306.438199,1258.350101
1276.771572,-5551.544565,-536.266849,1628.453072
1276.771884,-5773.606348,-1685.410096,962.267725
1276.772195,-7179.997637,-1838.629195,666.185348
1276.772506,-9104.533087,-1762.019645,296.082377
1276.772818,-9918.759623,-995.924147,-74.020594
1276.773129,-10732.986159,153.219100,-222.061783
1276.773441,-10510.924376,-459.657299,-222.061783
1276.773752,-9548.656652,-689.485948,148.041188
1276.774064,-9104.533087,-842.705048,222.061783
1276.774375,-7698.141797,-383.047749,666.185348
1276.774687,-7105.977043,-536.266849,1036.288319
1276.774998,-7698.141797,-1149.143247,1184.329507
1276.775310,-8586.388927,-1225.752797,962.267725
1276.775621,-9400.615463,0.000000,518.144159
1276.775933,-9918.759623,995.924147,888.247130
1276.776244,-9474.636058,1072.533697,222.061783
1276.776555,-9474.636058,919.314598,-0.000000
1276.776867,-8734.430116,229.828649,-148.041188
1276.777178,-8216.285956,-306.438199,-74.020594
1276.777490,-7476.080014,76.609550,148.041188
1276.777801,-7994.224174,76.609550,-74.020594
1276.778113,-8586.388927,-919.314598,-0.000000
1276.778424,-9474.636058,-1378.971896,-148.041188
1276.778736,-10214.842000,-383.047749,296.082377
1276.779047,-11473.192101,229.828649,-0.000000
1276.779359,-12583.501014,0.000000,370.102971
1276.779670,-11843.295072,0.000000,1036.288319
1276.779982,-10214.842000,0.000000,888.247130
1276.780293,-8068.244768,0.000000,962.267725
1276.780605,-6587.832884,-766.095498,962.267725
1276.780916,-6069.688724,-1302.362347,740.205942
1276.781227,-6661.853478,-1225.752797,592.164754
1276.781539,-8068.244768,-459.657299,296.082377
1276.781850,-10510.924376,306.438199,370.102971
1276.782162,-11547.212695,1378.971896,814.226536
1276.782473,-11769.274478,1072.533697,666.185348
1276.782785,-10288.862594,1072.533697,296.082377
1276.783096,-8364.327145,1532.190996,592.164754
1276.783408,-7031.956449,1378.971896,370.102971
1276.783719,-6143.709319,0.000000,888.247130
1276.784031,-5329.482782,-842.705048,814.226536
1276.784342,-6291.750507,-1608.800546,1332.370696
1276.784654,-7179.997637,-1685.410096,1036.288319
1276.784965,-9252.574275,-919.314598,148.041188
1276.785277,-10066.800811,-153.219100,222.061783
1276.785588,-10362.883188,0.000000,-0.000000
1276.785899,-10510.924376,-459.657299,-74.020594
1276.786211,-9622.677246,-689.485948,-0.000000
1276.786522,-9104.533087,0.000000,-0.000000
1276.786834,-8586.388927,-842.705048,370.102971
1276.787145,-7624.121203,-689.485948,962.267725
1276.787457,-7994.224174,-1455.581446,1332.370696
1276.787768,-8956.491898,-1072.533697,888.247130
1276.788080,-9252.574275,76.609550,962.267725
1276.788391,-9770.718434,1532.190996,666.185348
1276.788703,-10066.800811,1838.629195,666.185348
1276.789014,-9622.677246,1149.143247,-0.000000
1276.789326,-8438.347739,995.924147,-148.041188
1276.789637,-7846.182985,995.924147,-0.000000
1276.789948,-7476.080014,0.000000,148.041188
1276.790260,-7550.100608,-842.705048,-0.000000
1276.790571,-8364.327145,-1378.971896,296.082377
1276.790883,-9696.697840,-1762.019645,296.082377
1276.791194,-10955.047942,-689.485948,-74.020594
1276.791506,-11103.089130,766.095498,518.144159
1276.791817,-11843.295072,1608.800546,-0.000000
1276.792129,-10658.965565,612.876398,1036.288319
1276.792440,-9104.533087,153.219100,1184.329507
1276.792752,-7179.997637,536.266849,1036.288319
1276.793063,-6217.729913,689.485948,1036.288319
1276.793375,-6513.812290,-153.219100,444.123565
1276.793686,-7402.059420,0.000000,-222.061783
1276.793998,-8882.471304,1072.533697,-444.123565
1276.794309,-9918.759623,1072.533697,-518.144159
1276.794620,-11251.130318,1915.238745,-0.000000
1276.794932,-11843.295072,1455.581446,666.185348
1276.795243,-11029.068536,1302.362347,740.205942
1276.795555,-9696.697840,1149.143247,962.267725
1276.795866,-7624.121203,1378.971896,666.185348
1276.796178,-5699.585753,766.095498,592.164754
1276.796489,-5403.503377,-153.219100,962.267725
1276.796801,-5773.606348,-1685.410096,962.267725
1276.797112,-6587.832884,-1991.848295,814.226536
1276.797424,-8808.450710,-1455.581446,592.164754
1276.797735,-10732.986159,-612.876398,1036.288319
1276.798047,-11695.253884,-1225.752797,444.123565
1276.798358,-11103.089130,-1455.581446,444.123565
1276.798670,-10214.842000,-766.095498,296.082377
1276.798981,-8956.491898,-689.485948,148.041188
1276.799292,-7920.203579,-306.438199,666.185348
1276.799604,-7179.997637,-995.924147,1110.308913
1276.799915,-7328.038826,-1608.800546,1924.535449
1276.800227,-7846.182985,-1302.362347,1776.494261
1276.800538,-8808.450710,76.609550,1184.329507
1276.800850,-9326.594869,1685.410096,962.267725
1276.801161,-9252.574275,1302.362347,-74.020594
1276.801473,-9252.574275,1072.533697,-0.000000
1276.801784,-8660.409521,766.095498,-444.123565
1276.802096,-8660.409521,76.609550,-148.041188
1276.802407,-8438.347739,-995.924147,592.164754
1276.802719,-8364.327145,-1532.190996,666.185348
1276.803030,-8734.430116,-2145.067394,592.164754
1276.803341,-9548.656652,-1838.629195,370.102971
1276.803653,-10214.842000,0.000000,518.144159
1276.803964,-10510.924376,919.314598,296.082377
1276.804276,-11029.068536,842.705048,222.061783
1276.804587,-10807.006753,612.876398,-0.000000
1276.804899,-9104.533087,842.705048,222.061783
1276.805210,-7550.100608,842.705048,222.061783
1276.805522,-5699.585753,0.000000,518.144159
1276.805833,-5699.585753,-1149.143247,370.102971
1276.806145,-7550.100608,-1225.752797,740.205942
1276.806456,-8882.471304,-459.657299,444.123565
1276.806768,-10955.047942,-229.828649,-0.000000
1276.807079,-11695.253884,766.095498,370.102971
1276.807391,-11769.274478,1532.190996,-0.000000
1276.807702,-10807.006753,1608.800546,-222.061783
1276.808013,-9622.677246,1685.410096,-0.000000
1276.808325,-7772.162391,1532.190996,222.061783
1276.808636,-6661.853478,1149.143247,1110.308913
1276.808948,-5625.565159,153.219100,1702.473667
1276.809259,-5921.647536,-1378.971896,1184.329507
1276.809571,-7179.997637,-1608.800546,814.226536
1276.809882,-8956.491898,-995.924147,296.082377
1276.810194,-10214.842000,-153.219100,-0.000000
1276.810505,-10658.965565,0.000000,-222.061783
1276.810817,-10881.027347,-306.438199,-0.000000
1276.811128,-9992.780217,-612.876398,370.102971
1276.811440,-9252.574275,0.000000,148.041188
1276.811751,-8290.306550,0.000000,444.123565
1276.812063,-7105.977043,-383.047749,1184.329507
1276.812374,-7031.956449,-536.266849,1554.432478
1276.812685,-7698.141797,-1149.143247,962.267725
1276.812997,-8512.368333,229.828649,888.247130
1276.813308,-9548.656652,536.266849,814.226536
1276.813620,-9548.656652,766.095498,518.144159
1276.813931,-9770.718434,919.314598,592.164754
1276.814243,-9326.594869,-76.609550,296.082377
1276.814554,-8216.285956,-383.047749,518.144159
