#time,accel_x,accel_y,accel_z
1145.973605,-8882.471304,0.000000,518.144159
1145.973917,-9030.512492,0.000000,666.185348
1145.974229,-9178.553681,0.000000,592.164754
1145.974540,-9030.512492,0.000000,592.164754
1145.974852,-8956.491898,0.000000,518.144159
1145.975163,-8808.450710,0.000000,296.082377
1145.975475,-8882.471304,76.609550,444.123565
1145.975787,-8808.450710,-229.828649,518.144159
1145.976098,-8660.409521,-306.438199,740.205942
1145.976410,-9104.533087,0.000000,444.123565
1145.976721,-8956.491898,0.000000,666.185348
1145.977033,-9030.512492,-229.828649,666.185348
1145.977344,-8956.491898,153.219100,370.102971
1145.977656,-8808.450710,0.000000,518.144159
1145.977968,-8808.450710,0.000000,962.267725
1145.978279,-8808.450710,153.219100,592.164754
1145.978591,-9030.512492,0.000000,444.123565
1145.978902,-8956.491898,0.000000,518.144159
1145.979214,-8956.491898,0.000000,740.205942
1145.979526,-9178.553681,0.000000,518.144159
1145.979837,-8586.388927,383.047749,592.164754
1145.980149,-8808.450710,153.219100,148.041188
1145.980460,-8660.409521,383.047749,814.226536
1145.980772,-8808.450710,383.047749,518.144159
1145.981084,-8734.430116,76.609550,370.102971
1145.981395,-8808.450710,0.000000,592.164754
1145.981707,-8956.491898,0.000000,518.144159
1145.982018,-9104.533087,-229.828649,444.123565
1145.982330,-9030.512492,-306.438199,370.102971
1145.982641,-9030.512492,229.828649,740.205942
1145.982953,-8956.491898,-383.047749,518.144159
1145.983265,-8808.450710,0.000000,444.123565
1145.983576,-8882.471304,0.000000,518.144159
1145.983888,-8956.491898,0.000000,592.164754
1145.984199,-9030.512492,0.000000,592.164754
1145.984511,-8956.491898,-153.219100,592.164754
1145.984823,-8808.450710,306.438199,666.185348
1145.985134,-8734.430116,76.609550,148.041188
1145.985446,-8438.347739,0.000000,814.226536
1145.985757,-8882.471304,0.000000,370.102971
1145.986069,-9030.512492,153.219100,666.185348
1145.986380,-9030.512492,-229.828649,592.164754
1145.986692,-8956.491898,-153.219100,444.123565
1145.987004,-8586.388927,0.000000,592.164754
1145.987315,-8734.430116,0.000000,518.144159
1145.987627,-8734.430116,919.314598,370.102971
1145.987938,-8956.491898,-612.876398,814.226536
1145.988250,-8808.450710,0.000000,592.164754
1145.988562,-9030.512492,-153.219100,592.164754
1145.988873,-9178.553681,-153.219100,518.144159
1145.989185,-9030.512492,-229.828649,444.123565
1145.989496,-9104.533087,229.828649,518.144159
1145.989808,-8956.491898,0.000000,222.061783
1145.990120,-8882.471304,0.000000,888.247130
1145.990431,-9030.512492,229.828649,740.205942
1145.990743,-8956.491898,0.000000,444.123565
1145.991054,-8808.450710,0.000000,740.205942
1145.991366,-8882.471304,0.000000,370.102971
1145.991677,-8956.491898,-229.828649,592.164754
1145.991989,-8882.471304,0.000000,444.123565
1145.992301,-8660.409521,229.828649,444.123565
1145.992612,-8882.471304,0.000000,444.123565
1145.992924,-8882.471304,-306.438199,592.164754
1145.993235,-8882.471304,0.000000,592.164754
1145.993547,-9104.533087,0.000000,592.164754
1145.993859,-8808.450710,0.000000,666.185348
1145.994170,-8956.491898,76.609550,444.123565
1145.994482,-8734.430116,0.000000,666.185348
1145.994793,-8660.409521,-153.219100,444.123565
1145.995105,-9104.533087,0.000000,-0.000000
1145.995417,-9252.574275,0.000000,444.123565
1145.995728,-9104.533087,-306.438199,370.102971
1145.996040,-8734.430116,0.000000,592.164754
1145.996351,-8882.471304,-306.438199,592.164754
1145.996663,-9104.533087,-306.438199,666.185348
1145.996974,-10436.903782,76.609550,444.123565
1145.997286,-11695.253884,2145.067394,444.123565
1145.997598,-9252.574275,4213.525239,666.185348
1145.997909,-7772.162391,4673.182538,814.226536
1145.998221,-7031.956449,1991.848295,1258.350101
1145.998532,-6661.853478,-689.485948,444.123565
1145.998844,-7476.080014,-1149.143247,-296.082377
1145.999156,-6883.915261,-383.047749,-0.000000
1145.999467,-10288.862594,-612.876398,-1184.329507
1145.999779,-13545.768739,-383.047749,-962.267725
1146.000090,-10881.027347,995.924147,444.123565
1146.000402,-9400.615463,0.000000,1036.288319
1146.000713,-8808.450710,-612.876398,3108.864956
1146.001025,-11399.171507,0.000000,1850.514855
1146.001337,-9622.677246,3524.039291,2294.638420
1146.001648,-5033.400406,5515.887586,2368.659014
1146.001960,-6143.709319,3600.648841,962.267725
1146.002271,-7994.224174,2298.286494,-444.123565
1146.002583,-7105.977043,3294.210641,-1554.432478
1146.002895,-8586.388927,3217.601092,-1628.453072
1146.003206,-9400.615463,3447.429741,-296.082377
1146.003518,-11325.150913,2374.896044,-1258.350101
1146.003829,-14582.057057,-1149.143247,296.082377
1146.004141,-9326.594869,-1838.629195,3108.864956
1146.004453,-8290.306550,-766.095498,962.267725
1146.004764,-9918.759623,2987.772442,2220.617826
1146.005076,-6069.688724,5056.230287,2812.782580
1146.005387,-7624.121203,1532.190996,1110.308913
1146.005699,-5329.482782,2298.286494,3108.864956
1146.006010,-7254.018232,4060.306139,518.144159
1146.006322,-9252.574275,4443.353888,-888.247130
1146.006634,-8438.347739,4519.963438,-1184.329507
1146.006945,-10510.924376,3600.648841,-1628.453072
1146.007257,-10288.862594,3294.210641,-518.144159
1146.007568,-12879.583391,3830.477490,-0.000000
1146.007880,-12213.398043,3524.039291,962.267725
1146.008192,-9696.697840,3600.648841,2294.638420
1146.008503,-8660.409521,4136.915689,2294.638420
1146.008815,-6883.915261,4519.963438,2368.659014
1146.009126,-4885.359217,2911.162892,-666.185348
1146.009438,-5477.523971,3140.991542,518.144159
1146.009749,-4737.318029,2528.115143,-296.082377
1146.010061,-6513.812290,2298.286494,-1628.453072
1146.010373,-8586.388927,536.266849,-1406.391290
1146.010684,-9474.636058,-919.314598,-814.226536
1146.010996,-10584.944971,-2145.067394,296.082377
1146.011307,-10510.924376,-3370.820191,1998.556043
1146.011619,-11399.171507,-3677.258390,2146.597232
1146.011931,-10436.903782,-3370.820191,2960.823768
1146.012242,-9326.594869,-1608.800546,2442.679609
1146.012554,-8142.265362,0.000000,2516.700203
1146.012865,-7179.997637,153.219100,592.164754
1146.013177,-7550.100608,1225.752797,-0.000000
1146.013489,-7994.224174,1455.581446,-814.226536
1146.013800,-6957.935855,1915.238745,-962.267725
1146.014112,-8808.450710,229.828649,-1628.453072
1146.014423,-9252.574275,-1991.848295,-888.247130
1146.014735,-9622.677246,-3140.991542,148.041188
1146.015046,-10732.986159,-3370.820191,370.102971
1146.015358,-11251.130318,-2911.162892,740.205942
1146.015670,-10362.883188,-2298.286494,888.247130
1146.015981,-10584.944971,-1838.629195,666.185348
1146.016293,-9252.574275,-153.219100,-222.061783
1146.016604,-8290.306550,-995.924147,-370.102971
1146.016916,-7772.162391,-1225.752797,-592.164754
1146.017228,-7994.224174,-995.924147,-592.164754
1146.017539,-8956.491898,-842.705048,222.061783
1146.017851,-9474.636058,-1915.238745,-444.123565
1146.018162,-10436.903782,-1915.238745,370.102971
1146.018474,-10658.965565,-2757.943793,370.102971
1146.018786,-11177.109724,-3064.381992,1850.514855
1146.019097,-11695.253884,-3140.991542,1184.329507
1146.019409,-11991.336260,-1532.190996,1998.556043
1146.019720,-11251.130318,0.000000,592.164754
1146.020032,-9844.739029,1915.238745,518.144159
1146.020343,-7994.224174,3600.648841,-74.020594
1146.020655,-7031.956449,3753.867940,-1332.370696
1146.020967,-5921.647536,4213.525239,-962.267725
1146.021278,-5699.585753,3524.039291,-1628.453072
1146.021590,-6143.709319,2451.505594,-370.102971
1146.021901,-7624.121203,1608.800546,592.164754
1146.022213,-9474.636058,536.266849,1998.556043
1146.022525,-9622.677246,-612.876398,1998.556043
1146.022836,-10658.965565,-612.876398,2146.597232
1146.023148,-9918.759623,-153.219100,2294.638420
1146.023459,-9252.574275,1302.362347,1110.308913
1146.023771,-8734.430116,1532.190996,666.185348
1146.024082,-7402.059420,1685.410096,296.082377
1146.024394,-6661.853478,1915.238745,370.102971
1146.024706,-6291.750507,1838.629195,444.123565
1146.025017,-5847.626942,1532.190996,148.041188
1146.025329,-5995.668130,153.219100,370.102971
1146.025640,-7031.956449,-689.485948,1924.535449
1146.025952,-8068.244768,-1608.800546,1628.453072
1146.026264,-8660.409521,-1608.800546,1998.556043
1146.026575,-9918.759623,-1225.752797,1554.432478
1146.026887,-9918.759623,-766.095498,1702.473667
1146.027198,-9548.656652,-229.828649,1480.411884
1146.027510,-9178.553681,-153.219100,666.185348
1146.027822,-8364.327145,383.047749,592.164754
1146.028133,-7772.162391,1149.143247,222.061783
1146.028445,-7772.162391,1532.190996,-296.082377
1146.028756,-7920.203579,306.438199,-592.164754
1146.029068,-7846.182985,0.000000,-222.061783
1146.029379,-8660.409521,-766.095498,-148.041188
1146.029691,-9696.697840,-919.314598,518.144159
1146.030003,-10732.986159,-1225.752797,1184.329507
1146.030314,-11473.192101,-1915.238745,1110.308913
1146.030626,-11547.212695,-1685.410096,1258.350101
1146.030937,-11029.068536,-1608.800546,1110.308913
1146.031249,-11325.150913,-612.876398,-74.020594
1146.031561,-9918.759623,612.876398,-0.000000
1146.031872,-9474.636058,383.047749,-592.164754
1146.032184,-8734.430116,306.438199,-1480.411884
1146.032495,-8364.327145,536.266849,-740.205942
1146.032807,-8290.306550,306.438199,-1110.308913
1146.033119,-8438.347739,0.000000,-592.164754
1146.033430,-8882.471304,-689.485948,-0.000000
1146.033742,-9696.697840,-766.095498,518.144159
1146.034053,-9474.636058,-536.266849,1036.288319
1146.034365,-10732.986159,-1378.971896,814.226536
1146.034676,-10436.903782,-383.047749,962.267725
1146.034988,-10066.800811,76.609550,370.102971
1146.035300,-9622.677246,766.095498,222.061783
1146.035611,-8660.409521,459.657299,-444.123565
1146.035923,-7550.100608,76.609550,-592.164754
1146.036234,-7550.100608,76.609550,-592.164754
1146.036546,-6957.935855,459.657299,-518.144159
1146.036858,-7105.977043,153.219100,-0.000000
1146.037169,-7550.100608,0.000000,814.226536
1146.037481,-8290.306550,-229.828649,962.267725
1146.037792,-8512.368333,0.000000,1702.473667
1146.038104,-9104.533087,76.609550,1628.453072
1146.038415,-9030.512492,383.047749,1554.432478
1146.038727,-8586.388927,766.095498,1258.350101
1146.039039,-8512.368333,919.314598,518.144159
1146.039350,-7846.182985,689.485948,518.144159
1146.039662,-7550.100608,766.095498,222.061783
1146.039973,-7846.182985,536.266849,-0.000000
1146.040285,-7698.141797,229.828649,296.082377
1146.040597,-7402.059420,-383.047749,444.123565
1146.040908,-7254.018232,-1302.362347,1110.308913
1146.041220,-8660.409521,-1991.848295,1258.350101
1146.041531,-8882.471304,-2298.286494,2072.576638
1146.041843,-9770.718434,-1762.019645,1924.535449
1146.042155,-10066.800811,-1149.143247,1998.556043
1146.042466,-10362.883188,-766.095498,1628.453072
1146.042778,-9548.656652,-842.705048,1036.288319
1146.043089,-9844.739029,0.000000,370.102971
1146.043401,-8956.491898,-536.266849,-0.000000
1146.043712,-8216.285956,153.219100,-518.144159
1146.044024,-8882.471304,0.000000,-148.041188
1146.044336,-8734.430116,-153.219100,222.061783
1146.044647,-8882.471304,-766.095498,296.082377
1146.044958,-9400.615463,-536.266849,1036.288319
1146.045270,-9992.780217,0.000000,888.247130
1146.045581,-10066.800811,0.000000,592.164754
1146.045892,-10140.821405,229.828649,1110.308913
1146.046203,-9622.677246,306.438199,296.082377
1146.046515,-9104.533087,536.266849,-0.000000
1146.046826,-9696.697840,229.828649,-222.061783
1146.047137,-9104.533087,229.828649,-444.123565
1146.047449,-8956.491898,612.876398,-444.123565
1146.047760,-9178.553681,1072.533697,-222.061783
1146.048071,-8364.327145,-153.219100,-0.000000
1146.048382,-8068.244768,-459.657299,222.061783
1146.048694,-8512.368333,-995.924147,222.061783
1146.049005,-8734.430116,-842.705048,666.185348
1146.049316,-8438.347739,-612.876398,888.247130
1146.049628,-8956.491898,-153.219100,740.205942
1146.049939,-9178.553681,-459.657299,444.123565
1146.050250,-9326.594869,-229.828649,370.102971
1146.050561,-9030.512492,153.219100,-0.000000
1146.050873,-8512.368333,306.438199,-148.041188
1146.051184,-8364.327145,383.047749,-592.164754
1146.051495,-8438.347739,229.828649,-444.123565
1146.051807,-7920.203579,229.828649,222.061783
1146.052118,-7846.182985,766.095498,592.164754
1146.052429,-8142.265362,766.095498,962.267725
1146.052740,-8290.306550,612.876398,962.267725
1146.053052,-8438.347739,536.266849,1258.350101
1146.053363,-9104.533087,-153.219100,888.247130
1146.053674,-8660.409521,1072.533697,814.226536
1146.053986,-9030.512492,1072.533697,666.185348
1146.054297,-8882.471304,766.095498,-0.000000
1146.054608,-8808.450710,459.657299,-0.000000
1146.054919,-8586.388927,306.438199,-0.000000
1146.055231,-8512.368333,-383.047749,-0.000000
1146.055542,-8734.430116,-689.485948,814.226536
1146.055853,-8956.491898,-1532.190996,666.185348
1146.056165,-7994.224174,-1608.800546,1258.350101
1146.056476,-8734.430116,-1378.971896,1776.494261
1146.056787,-9252.574275,-1302.362347,1554.432478
1146.057098,-9252.574275,-1225.752797,1480.411884
1146.057410,-9474.636058,-1149.143247,1332.370696
1146.057721,-9326.594869,-306.438199,962.267725
1146.058032,-9844.739029,-536.266849,296.082377
1146.058344,-9474.636058,-229.828649,666.185348
1146.058655,-9178.553681,-306.438199,296.082377
1146.058966,-9178.553681,-612.876398,444.123565
1146.059277,-9474.636058,-919.314598,518.144159
1146.059589,-9326.594869,-536.266849,518.144159
1146.059900,-8660.409521,153.219100,592.164754
1146.060211,-8882.471304,459.657299,666.185348
1146.060523,-9474.636058,536.266849,666.185348
1146.060834,-9252.574275,612.876398,814.226536
1146.061145,-9474.636058,306.438199,370.102971
1146.061456,-8438.347739,536.266849,296.082377
1146.061768,-8438.347739,612.876398,-74.020594
1146.062079,-9030.512492,0.000000,-518.144159
1146.062390,-8364.327145,0.000000,-296.082377
1146.062702,-9104.533087,76.609550,-296.082377
1146.063013,-9622.677246,-76.609550,296.082377
1146.063324,-8956.491898,-536.266849,1036.288319
1146.063635,-8808.450710,-612.876398,888.247130
1146.063947,-8364.327145,-995.924147,740.205942
1146.064258,-8438.347739,-536.266849,666.185348
1146.064569,-8142.265362,0.000000,518.144159
1146.064881,-8364.327145,306.438199,444.123565
1146.065192,-8882.471304,-919.314598,592.164754
1146.065503,-9400.615463,153.219100,666.185348
1146.065814,-9252.574275,459.657299,-74.020594
1146.066126,-9252.574275,536.266849,592.164754
1146.066437,-8438.347739,383.047749,518.144159
1146.066748,-8290.306550,-153.219100,296.082377
1146.067060,-7920.203579,153.219100,444.123565
1146.067371,-8068.244768,536.266849,666.185348
1146.067682,-8068.244768,1149.143247,444.123565
1146.067993,-8290.306550,1455.581446,740.205942
1146.068305,-8956.491898,689.485948,740.205942
1146.068616,-8808.450710,536.266849,740.205942
1146.068927,-9104.533087,306.438199,592.164754
1146.069239,-9252.574275,229.828649,296.082377
1146.069550,-9178.553681,-153.219100,222.061783
1146.069861,-9400.615463,-153.219100,-0.000000
1146.070172,-9474.636058,-306.438199,222.061783
1146.070484,-8956.491898,-459.657299,888.247130
1146.070795,-9400.615463,-842.705048,1258.350101
1146.071106,-8734.430116,-1302.362347,1036.288319
1146.071418,-8364.327145,-766.095498,1110.308913
1146.071729,-8216.285956,-766.095498,888.247130
1146.072040,-8438.347739,0.000000,740.205942
1146.072351,-9178.553681,-306.438199,370.102971
1146.072663,-9252.574275,-459.657299,666.185348
1146.072974,-9474.636058,-536.266849,370.102971
1146.073285,-9548.656652,-229.828649,888.247130
1146.073597,-9770.718434,-536.266849,592.164754
1146.073908,-9400.615463,-766.095498,666.185348
1146.074219,-9178.553681,-306.438199,592.164754
1146.074530,-9178.553681,0.000000,-0.000000
1146.074842,-8956.491898,612.876398,296.082377
1146.075153,-8586.388927,459.657299,148.041188
1146.075464,-8364.327145,153.219100,74.020594
1146.075776,-8586.388927,306.438199,666.185348
1146.076087,-9178.553681,229.828649,222.061783
1146.076398,-8734.430116,0.000000,-74.020594
1146.076709,-8808.450710,0.000000,222.061783
1146.077021,-8956.491898,-536.266849,370.102971
1146.077332,-8290.306550,-766.095498,-0.000000
1146.077643,-8808.450710,-766.095498,222.061783
1146.077955,-8586.388927,-919.314598,740.205942
1146.078266,-9326.594869,-229.828649,518.144159
1146.078577,-8956.491898,306.438199,1036.288319
1146.078888,-8882.471304,-153.219100,740.205942
1146.079200,-8290.306550,-842.705048,518.144159
1146.079511,-7772.162391,0.000000,592.164754
1146.079822,-8142.265362,0.000000,-148.041188
1146.080134,-8660.409521,229.828649,-0.000000
1146.080445,-8956.491898,0.000000,-0.000000
1146.080756,-9400.615463,-383.047749,222.061783
1146.081067,-9622.677246,-689.485948,518.144159
1146.081379,-9770.718434,-229.828649,518.144159
1146.081690,-9474.636058,229.828649,444.123565
1146.082001,-8734.430116,76.609550,296.082377
1146.082313,-8438.347739,459.657299,148.041188
1146.082624,-8586.388927,-306.438199,814.226536
1146.082935,-8586.388927,459.657299,444.123565
1146.083246,-8882.471304,919.314598,444.123565
1146.083558,-9252.574275,919.314598,296.082377
1146.083869,-9252.574275,842.705048,444.123565
1146.084180,-8882.471304,76.609550,222.061783
1146.084492,-9030.512492,153.219100,296.082377
1146.084803,-9178.553681,-536.266849,1036.288319
1146.085114,-9178.553681,-306.438199,888.247130
1146.085426,-9326.594869,0.000000,1110.308913
1146.085737,-9178.553681,0.000000,1184.329507
1146.086048,-9104.533087,-536.266849,1110.308913
1146.086359,-8882.471304,-689.485948,1258.350101
1146.086671,-8142.265362,-306.438199,962.267725
1146.086982,-7846.182985,-306.438199,444.123565
1146.087293,-8068.244768,-153.219100,592.164754
1146.087605,-8956.491898,-153.219100,222.061783
1146.087916,-8660.409521,-383.047749,222.061783
1146.088227,-9178.553681,-306.438199,888.247130
1146.088538,-9252.574275,-612.876398,888.247130
1146.088850,-8956.491898,0.000000,592.164754
1146.089161,-8660.409521,-153.219100,888.247130
1146.089472,-9474.636058,76.609550,740.205942
1146.089784,-8808.450710,612.876398,888.247130
1146.090095,-8956.491898,612.876398,370.102971
1146.090406,-9104.533087,842.705048,370.102971
1146.090717,-8438.347739,995.924147,370.102971
1146.091029,-8882.471304,919.314598,222.061783
1146.091340,-8660.409521,689.485948,148.041188
1146.091651,-8290.306550,842.705048,-148.041188
1146.091963,-8882.471304,306.438199,-0.000000
1146.092274,-8882.471304,306.438199,-0.000000
1146.092585,-8808.450710,612.876398,-0.000000
1146.092896,-9622.677246,383.047749,148.041188
1146.093208,-9252.574275,306.438199,814.226536
1146.093519,-9474.636058,153.219100,888.247130
1146.093830,-9252.574275,0.000000,888.247130
1146.094142,-8808.450710,0.000000,518.144159
1146.094453,-8364.327145,-76.609550,-0.000000
1146.094764,-7698.141797,-229.828649,-0.000000
1146.095075,-7772.162391,-306.438199,-148.041188
1146.095387,-8364.327145,-536.266849,-0.000000
1146.095698,-8734.430116,-536.266849,148.041188
1146.096009,-9474.636058,-612.876398,814.226536
1146.096321,-9844.739029,-1149.143247,814.226536
1146.096632,-9252.574275,-689.485948,592.164754
1146.096943,-9178.553681,229.828649,666.185348
1146.097254,-8660.409521,229.828649,962.267725
1146.097566,-8586.388927,76.609550,148.041188
1146.097877,-8660.409521,76.609550,518.144159
1146.098188,-8808.450710,229.828649,444.123565
1146.098500,-8882.471304,76.609550,444.123565
1146.098811,-9104.533087,153.219100,518.144159
1146.099122,-9252.574275,153.219100,370.102971
1146.099433,-8808.450710,459.657299,296.082377
1146.099745,-9252.574275,-383.047749,518.144159
1146.100056,-9252.574275,-229.828649,814.226536
1146.100367,-9178.553681,-383.047749,518.144159
1146.100679,-9548.656652,-383.047749,1036.288319
1146.100990,-9104.533087,0.000000,1184.329507
1146.101301,-8956.491898,-229.828649,888.247130
1146.101612,-9030.512492,-1072.533697,1406.391290
1146.101924,-8512.368333,-1149.143247,814.226536
1146.102235,-8068.244768,-1149.143247,592.164754
1146.102546,-8290.306550,-1072.533697,518.144159
1146.102858,-8586.388927,-1149.143247,148.041188
1146.103169,-8808.450710,-842.705048,370.102971
1146.103480,-9326.594869,-306.438199,518.144159
1146.103791,-9252.574275,-229.828649,518.144159
1146.104103,-9474.636058,-383.047749,740.205942
1146.104414,-9696.697840,0.000000,740.205942
1146.104725,-9104.533087,0.000000,1184.329507
1146.105037,-8808.450710,153.219100,962.267725
1146.105348,-8734.430116,766.095498,370.102971
1146.105659,-8586.388927,766.095498,222.061783
1146.105970,-7698.141797,995.924147,-74.020594
1146.106282,-8142.265362,1225.752797,-222.061783
1146.106593,-8660.409521,842.705048,222.061783
1146.106904,-8956.491898,536.266849,222.061783
1146.107216,-8956.491898,536.266849,-0.000000
1146.107527,-8882.471304,459.657299,-0.000000
1146.107838,-8808.450710,383.047749,444.123565
1146.108149,-9252.574275,-383.047749,-0.000000
1146.108461,-9252.574275,153.219100,666.185348
1146.108772,-8660.409521,0.000000,888.247130
1146.109083,-9104.533087,0.000000,296.082377
1146.109395,-8586.388927,459.657299,740.205942
1146.109706,-8438.347739,-229.828649,370.102971
1146.110017,-8216.285956,-689.485948,-0.000000
1146.110328,-8068.244768,-383.047749,296.082377
1146.110640,-8364.327145,-153.219100,-148.041188
1146.110951,-8512.368333,383.047749,222.061783
1146.111262,-9252.574275,-536.266849,666.185348
1146.111574,-9400.615463,-689.485948,740.205942
1146.111885,-9474.636058,-1072.533697,666.185348
1146.112196,-9918.759623,-459.657299,888.247130
1146.112507,-9844.739029,0.000000,814.226536
1146.112819,-9474.636058,-153.219100,888.247130
1146.113130,-9252.574275,-153.219100,888.247130
1146.113441,-9104.533087,0.000000,296.082377
1146.113753,-8660.409521,229.828649,370.102971
1146.114064,-8734.430116,1149.143247,222.061783
1146.114375,-8882.471304,1072.533697,444.123565
1146.114686,-8808.450710,459.657299,370.102971
1146.114998,-9178.553681,153.219100,518.144159
1146.115309,-8586.388927,-383.047749,814.226536
1146.115620,-8808.450710,-536.266849,1184.329507
1146.115932,-9252.574275,-1149.143247,1110.308913
1146.116243,-9030.512492,-689.485948,888.247130
1146.116554,-9178.553681,-383.047749,1036.288319
1146.116865,-9400.615463,-995.924147,1110.308913
1146.117177,-8956.491898,-1149.143247,1036.288319
1146.117488,-8216.285956,-919.314598,740.205942
1146.117799,-7994.224174,-919.314598,370.102971
1146.118111,-7846.182985,-919.314598,370.102971
1146.118422,-8142.265362,-689.485948,666.185348
1146.118733,-8586.388927,-383.047749,222.061783
1146.119044,-9030.512492,-612.876398,814.226536
1146.119356,-9474.636058,-536.266849,1110.308913
1146.119667,-9770.718434,-383.047749,888.247130
1146.119978,-9622.677246,-383.047749,740.205942
1146.120290,-9030.512492,-153.219100,444.123565
1146.120601,-8882.471304,229.828649,-0.000000
1146.120912,-8956.491898,766.095498,-148.041188
1146.121223,-8882.471304,766.095498,-444.123565
1146.121535,-8216.285956,536.266849,-74.020594
1146.121846,-8882.471304,995.924147,-0.000000
1146.122157,-8882.471304,842.705048,-0.000000
1146.122469,-8364.327145,612.876398,-0.000000
1146.122780,-8808.450710,306.438199,296.082377
1146.123091,-8734.430116,306.438199,-74.020594
1146.123402,-9030.512492,76.609550,-148.041188
1146.123714,-9918.759623,383.047749,296.082377
1146.124025,-9474.636058,383.047749,370.102971
1146.124336,-9770.718434,-229.828649,444.123565
1146.124648,-9696.697840,-459.657299,888.247130
1146.124959,-9178.553681,-459.657299,370.102971
1146.125270,-8512.368333,0.000000,-0.000000
1146.125582,-8364.327145,0.000000,-0.000000
1146.125893,-8068.244768,-153.219100,222.061783
1146.126204,-7846.182985,-536.266849,296.082377
1146.126515,-8586.388927,-536.266849,666.185348
1146.126827,-9178.553681,-536.266849,962.267725
1146.127138,-9548.656652,0.000000,888.247130
1146.127449,-10066.800811,0.000000,518.144159
1146.127761,-9400.615463,0.000000,222.061783
1146.128072,-8586.388927,153.219100,444.123565
1146.128383,-8956.491898,153.219100,-0.000000
1146.128694,-9030.512492,-229.828649,222.061783
1146.129006,-8882.471304,306.438199,370.102971
1146.129317,-8734.430116,459.657299,592.164754
1146.129628,-8660.409521,383.047749,888.247130
1146.129940,-8956.491898,229.828649,1110.308913
1146.130251,-8216.285956,0.000000,740.205942
1146.130562,-9326.594869,306.438199,296.082377
1146.130873,-8882.471304,76.609550,1036.288319
1146.131185,-9104.533087,0.000000,888.247130
1146.131496,-9178.553681,-306.438199,1258.350101
1146.131807,-8956.491898,-612.876398,1110.308913
1146.132119,-8734.430116,-995.924147,962.267725
1146.132430,-8808.450710,-383.047749,1332.370696
1146.132741,-7920.203579,0.000000,370.102971
1146.133052,-8142.265362,-536.266849,-0.000000
1146.133364,-7328.038826,-383.047749,370.102971
1146.133675,-8660.409521,-842.705048,-0.000000
1146.133986,-8586.388927,-612.876398,518.144159
1146.134298,-9178.553681,-459.657299,814.226536
1146.134609,-9400.615463,-459.657299,1110.308913
1146.134920,-9252.574275,-536.266849,962.267725
1146.135231,-9252.574275,-689.485948,740.205942
1146.135543,-9030.512492,-1072.533697,666.185348
1146.135854,-8808.450710,-306.438199,592.164754
1146.136165,-9030.512492,459.657299,444.123565
1146.136477,-8882.471304,689.485948,-0.000000
1146.136788,-8586.388927,536.266849,-0.000000
1146.137099,-8512.368333,459.657299,222.061783
1146.137410,-8808.450710,766.095498,-74.020594
1146.137722,-8808.450710,1149.143247,-0.000000
1146.138033,-8734.430116,919.314598,-296.082377
1146.138344,-8956.491898,306.438199,-518.144159
1146.138656,-9030.512492,76.609550,148.041188
1146.138967,-9474.636058,-459.657299,-0.000000
1146.139278,-9548.656652,-536.266849,370.102971
1146.139589,-9178.553681,-153.219100,666.185348
1146.139901,-9548.656652,76.609550,518.144159
1146.140212,-9030.512492,-383.047749,962.267725
1146.140523,-9030.512492,-536.266849,-74.020594
1146.140835,-8364.327145,-459.657299,148.041188
1146.141146,-8364.327145,-229.828649,-74.020594
1146.141457,-8660.409521,-153.219100,-222.061783
1146.141768,-8808.450710,0.000000,-0.000000
1146.142080,-8808.450710,-383.047749,518.144159
1146.142391,-9474.636058,-1149.143247,444.123565
1146.142702,-8956.491898,-766.095498,888.247130
1146.143014,-9474.636058,153.219100,1036.288319
1146.143325,-9548.656652,0.000000,1036.288319
1146.143636,-9326.594869,76.609550,370.102971
1146.143947,-9252.574275,229.828649,740.205942
1146.144259,-8586.388927,459.657299,296.082377
1146.144570,-7772.162391,1072.533697,222.061783
1146.144881,-7698.141797,1608.800546,666.185348
1146.145193,-8438.347739,1149.143247,370.102971
1146.145504,-8660.409521,1455.581446,296.082377
1146.145815,-8882.471304,459.657299,666.185348
1146.146126,-8882.471304,0.000000,1110.308913
1146.146438,-8882.471304,0.000000,1184.329507
1146.146749,-9104.533087,76.609550,1184.329507
1146.147060,-8956.491898,459.657299,888.247130
1146.147372,-8808.450710,-459.657299,962.267725
1146.147683,-8882.471304,-229.828649,1332.370696
1146.147994,-7920.203579,-842.705048,1110.308913
1146.148305,-7994.224174,-612.876398,814.226536
1146.148617,-7846.182985,-306.438199,666.185348
1146.148928,-7994.224174,0.000000,444.123565
1146.149239,-8512.368333,306.438199,296.082377
1146.149551,-8586.388927,153.219100,518.144159
1146.149862,-9104.533087,0.000000,148.041188
1146.150173,-9548.656652,306.438199,666.185348
1146.150484,-9400.615463,-306.438199,1036.288319
1146.150796,-9474.636058,-306.438199,814.226536
1146.151107,-9326.594869,0.000000,740.205942
1146.151418,-9400.615463,459.657299,-0.000000
1146.151729,-9252.574275,612.876398,296.082377
1146.152041,-9030.512492,995.924147,-0.000000
1146.152352,-8882.471304,1225.752797,-148.041188
1146.152663,-8882.471304,1532.190996,-0.000000
1146.152975,-8882.471304,919.314598,296.082377
1146.153286,-8660.409521,536.266849,-222.061783
1146.153597,-8882.471304,153.219100,148.041188
1146.153908,-8808.450710,306.438199,222.061783
1146.154220,-9178.553681,76.609550,-0.000000
1146.154531,-9696.697840,-153.219100,518.144159
1146.154842,-9622.677246,-306.438199,444.123565
1146.155154,-9770.718434,-612.876398,148.041188
1146.155465,-9918.759623,-459.657299,518.144159
1146.155776,-8882.471304,-689.485948,296.082377
1146.156087,-8142.265362,-766.095498,296.082377
1146.156399,-7846.182985,-459.657299,444.123565
1146.156710,-7920.203579,-612.876398,-0.000000
1146.157021,-7920.203579,-842.705048,740.205942
1146.157333,-9400.615463,-612.876398,-0.000000
1146.157644,-8956.491898,-842.705048,1184.329507
1146.157955,-9548.656652,-536.266849,962.267725
1146.158266,-9992.780217,-612.876398,814.226536
1146.158578,-9474.636058,-536.266849,666.185348
1146.158889,-9326.594869,-536.266849,592.164754
1146.159200,-9178.553681,0.000000,518.144159
1146.159512,-8734.430116,0.000000,222.061783
1146.159823,-8290.306550,76.609550,444.123565
1146.160134,-8216.285956,689.485948,592.164754
1146.160445,-8586.388927,306.438199,444.123565
1146.160757,-8586.388927,383.047749,1184.329507
1146.161068,-8882.471304,0.000000,814.226536
1146.161379,-8660.409521,0.000000,1036.288319
1146.161691,-8364.327145,229.828649,1184.329507
1146.162002,-8660.409521,153.219100,666.185348
1146.162313,-9252.574275,0.000000,1036.288319
1146.162624,-8882.471304,-229.828649,814.226536
1146.162936,-9178.553681,-306.438199,592.164754
1146.163247,-8660.409521,0.000000,962.267725
1146.163558,-8512.368333,0.000000,518.144159
1146.163869,-8068.244768,-536.266849,370.102971
1146.164181,-7846.182985,-383.047749,444.123565
1146.164492,-8882.471304,229.828649,-74.020594
1146.164803,-8586.388927,-153.219100,740.205942
1146.165115,-9474.636058,-383.047749,444.123565
1146.165426,-9918.759623,-229.828649,888.247130
1146.165737,-9696.697840,-459.657299,740.205942
1146.166048,-9474.636058,-229.828649,1036.288319
1146.166360,-9030.512492,-306.438199,888.247130
1146.166671,-8956.491898,-306.438199,370.102971
1146.166982,-8512.368333,842.705048,666.185348
1146.167294,-8808.450710,1149.143247,-370.102971
1146.167605,-8216.285956,1532.190996,-0.000000
1146.167916,-8808.450710,1149.143247,-0.000000
1146.168227,-9326.594869,919.314598,-74.020594
1146.168539,-9104.533087,612.876398,-0.000000
1146.168850,-9252.574275,612.876398,148.041188
1146.169161,-9400.615463,689.485948,-0.000000
1146.169473,-8734.430116,383.047749,-0.000000
1146.169784,-9326.594869,-842.705048,444.123565
1146.170095,-9030.512492,-459.657299,370.102971
1146.170406,-9104.533087,-229.828649,592.164754
1146.170718,-9326.594869,-459.657299,740.205942
1146.171029,-8734.430116,-842.705048,592.164754
1146.171340,-8586.388927,-995.924147,370.102971
1146.171652,-8438.347739,-689.485948,222.061783
1146.171963,-7846.182985,-459.657299,-74.020594
1146.172274,-8808.450710,76.609550,-370.102971
1146.172585,-8956.491898,-536.266849,370.102971
1146.172897,-9104.533087,-383.047749,666.185348
1146.173208,-9696.697840,-766.095498,1110.308913
1146.173519,-9622.677246,-689.485948,962.267725
1146.173831,-9770.718434,0.000000,962.267725
1146.174142,-9326.594869,383.047749,1258.350101
1146.174453,-9030.512492,-229.828649,296.082377
1146.174764,-8956.491898,229.828649,444.123565
1146.175076,-8512.368333,306.438199,296.082377
1146.175387,-8512.368333,689.485948,518.144159
1146.175698,-8660.409521,766.095498,518.144159
1146.176010,-9178.553681,919.314598,592.164754
1146.176321,-8734.430116,766.095498,444.123565
1146.176632,-8882.471304,76.609550,1332.370696
1146.176943,-8512.368333,0.000000,1702.473667
1146.177255,-9030.512492,-76.609550,962.267725
1146.177566,-8882.471304,0.000000,1110.308913
1146.177877,-8882.471304,-306.438199,1184.329507
1146.178188,-8512.368333,-536.266849,1110.308913
1146.178500,-8586.388927,-689.485948,888.247130
1146.178811,-8808.450710,-919.314598,518.144159
1146.179122,-8142.265362,0.000000,962.267725
1146.179434,-8216.285956,-459.657299,444.123565
1146.179745,-8734.430116,-76.609550,444.123565
1146.180056,-8660.409521,-306.438199,370.102971
1146.180367,-9104.533087,0.000000,666.185348
1146.180679,-9104.533087,-153.219100,888.247130
1146.180990,-8734.430116,153.219100,1110.308913
1146.181301,-9474.636058,0.000000,518.144159
1146.181613,-9104.533087,383.047749,296.082377
1146.181924,-8956.491898,0.000000,814.226536
1146.182235,-9326.594869,229.828649,148.041188
1146.182546,-9326.594869,306.438199,-222.061783
1146.182858,-9104.533087,919.314598,-296.082377
1146.183169,-8808.450710,612.876398,-148.041188
1146.183480,-8882.471304,536.266849,-0.000000
1146.183792,-8512.368333,919.314598,370.102971
1146.184103,-8882.471304,383.047749,296.082377
1146.184414,-8808.450710,-383.047749,-0.000000
1146.184725,-9030.512492,0.000000,444.123565
1146.185037,-9400.615463,-229.828649,-0.000000
1146.185348,-9474.636058,0.000000,296.082377
1146.185659,-9622.677246,0.000000,444.123565
1146.185971,-9622.677246,-306.438199,-0.000000
1146.186282,-9400.615463,0.000000,-0.000000
1146.186593,-8586.388927,153.219100,296.082377
1146.186904,-8512.368333,-536.266849,-148.041188
1146.187216,-8438.347739,0.000000,74.020594
1146.187527,-8586.388927,-229.828649,-74.020594
1146.187838,-8364.327145,-229.828649,444.123565
1146.188150,-9178.553681,-536.266849,666.185348
1146.188461,-9844.739029,-612.876398,962.267725
1146.188772,-9548.656652,-459.657299,1184.329507
1146.189083,-10214.842000,-919.314598,962.267725
1146.189395,-9104.533087,-842.705048,666.185348
1146.189706,-8660.409521,-459.657299,370.102971
1146.190017,-8882.471304,0.000000,518.144159
1146.190328,-8512.368333,0.000000,592.164754
1146.190640,-8438.347739,306.438199,296.082377
1146.190951,-8734.430116,536.266849,518.144159
1146.191262,-8808.450710,0.000000,222.061783
1146.191574,-8438.347739,306.438199,518.144159
1146.191885,-8586.388927,229.828649,592.164754
1146.192196,-8512.368333,306.438199,888.247130
1146.192507,-8734.430116,306.438199,814.226536
1146.192819,-9178.553681,76.609550,740.205942
1146.193130,-8734.430116,76.609550,1110.308913
1146.193441,-9030.512492,0.000000,814.226536
1146.193753,-9030.512492,306.438199,1184.329507
1146.194064,-8142.265362,-383.047749,1036.288319
1146.194375,-8142.265362,-383.047749,592.164754
1146.194686,-8068.244768,-919.314598,296.082377
1146.194998,-8068.244768,-995.924147,666.185348
1146.195309,-8660.409521,-919.314598,592.164754
1146.195620,-8808.450710,-995.924147,518.144159
1146.195932,-9400.615463,-995.924147,592.164754
1146.196243,-9474.636058,-383.047749,1036.288319
1146.196554,-9770.718434,-689.485948,1110.308913
1146.196865,-9104.533087,-766.095498,1258.350101
1146.197177,-8882.471304,-689.485948,888.247130
1146.197488,-8586.388927,0.000000,370.102971
1146.197799,-8808.450710,536.266849,370.102971
1146.198111,-8734.430116,1378.971896,148.041188
1146.198422,-8660.409521,842.705048,-74.020594
1146.198733,-8734.430116,306.438199,148.041188
1146.199044,-9030.512492,842.705048,-0.000000
1146.199356,-8882.471304,842.705048,-74.020594
1146.199667,-9178.553681,612.876398,-0.000000
1146.199978,-8882.471304,76.609550,148.041188
1146.200290,-8734.430116,-306.438199,-0.000000
1146.200601,-9474.636058,-383.047749,-74.020594
1146.200912,-9178.553681,-76.609550,370.102971
1146.201223,-9474.636058,-229.828649,148.041188
1146.201535,-9326.594869,0.000000,222.061783
1146.201846,-9104.533087,-612.876398,370.102971
1146.202157,-8956.491898,-766.095498,148.041188
1146.202468,-8586.388927,-459.657299,296.082377
1146.202780,-8882.471304,-306.438199,-0.000000
1146.203091,-8882.471304,0.000000,222.061783
1146.203402,-8956.491898,-306.438199,148.041188
1146.203714,-9326.594869,-153.219100,-0.000000
1146.204025,-9252.574275,-459.657299,888.247130
1146.204336,-9474.636058,-229.828649,518.144159
1146.204647,-9474.636058,0.000000,666.185348
1146.204959,-9400.615463,229.828649,962.267725
1146.205270,-9252.574275,229.828649,370.102971
1146.205581,-9104.533087,842.705048,444.123565
1146.205893,-8364.327145,612.876398,518.144159
1146.206204,-7698.141797,1072.533697,148.041188
1146.206515,-8364.327145,919.314598,444.123565
1146.206826,-8882.471304,1149.143247,666.185348
1146.207138,-8956.491898,612.876398,518.144159
1146.207449,-8808.450710,383.047749,888.247130
1146.207760,-8586.388927,0.000000,1184.329507
1146.208072,-8808.450710,-229.828649,666.185348
1146.208383,-8512.368333,0.000000,666.185348
1146.208694,-8512.368333,-536.266849,962.267725
1146.209005,-8956.491898,-689.485948,740.205942
1146.209317,-9030.512492,-766.095498,1110.308913
1146.209628,-8512.368333,-536.266849,1110.308913
1146.209939,-8290.306550,-766.095498,666.185348
1146.210251,-8142.265362,-612.876398,592.164754
1146.210562,-8438.347739,536.266849,518.144159
1146.210873,-8142.265362,-306.438199,444.123565
1146.211184,-8438.347739,-459.657299,888.247130
1146.211496,-8660.409521,-229.828649,962.267725
1146.211807,-8734.430116,-383.047749,1110.308913
1146.212118,-9326.594869,-153.219100,962.267725
1146.212430,-9326.594869,0.000000,962.267725
1146.212741,-9104.533087,-153.219100,740.205942
1146.213052,-9252.574275,306.438199,222.061783
1146.213363,-9474.636058,459.657299,-0.000000
1146.213675,-8956.491898,536.266849,-74.020594
1146.213986,-9178.553681,689.485948,74.020594
1146.214297,-9252.574275,612.876398,-74.020594
1146.214609,-9252.574275,766.095498,148.041188
1146.214920,-8734.430116,0.000000,-0.000000
1146.215231,-9326.594869,0.000000,148.041188
1146.215542,-8586.388927,536.266849,370.102971
1146.215854,-9252.574275,0.000000,-148.041188
1146.216165,-9252.574275,0.000000,592.164754
1146.216476,-9326.594869,0.000000,370.102971
1146.216787,-9474.636058,-306.438199,222.061783
1146.217099,-9400.615463,-612.876398,592.164754
1146.217410,-9104.533087,-383.047749,370.102971
1146.217721,-8586.388927,-383.047749,-222.061783
1146.218033,-8512.368333,229.828649,-518.144159
1146.218344,-8142.265362,0.000000,-148.041188
1146.218655,-8512.368333,-383.047749,296.082377
1146.218966,-9030.512492,-766.095498,740.205942
1146.219278,-9548.656652,-306.438199,814.226536
1146.219589,-9474.636058,-459.657299,814.226536
1146.219900,-9400.615463,-383.047749,962.267725
1146.220212,-9030.512492,-459.657299,814.226536
1146.220523,-8586.388927,-612.876398,148.041188
1146.220834,-8512.368333,383.047749,518.144159
1146.221145,-8660.409521,306.438199,296.082377
1146.221457,-8660.409521,612.876398,-0.000000
1146.221768,-8956.491898,612.876398,592.164754
1146.222079,-9030.512492,536.266849,666.185348
1146.222391,-8438.347739,536.266849,518.144159
1146.222702,-8586.388927,0.000000,962.267725
1146.223013,-9030.512492,229.828649,592.164754
1146.223324,-8808.450710,76.609550,740.205942
1146.223636,-9474.636058,0.000000,814.226536
1146.223947,-9030.512492,-229.828649,888.247130
1146.224258,-8956.491898,-306.438199,814.226536
1146.224570,-9104.533087,-229.828649,962.267725
1146.224881,-8438.347739,-766.095498,592.164754
1146.225192,-8142.265362,-612.876398,666.185348
1146.225503,-7772.162391,-153.219100,888.247130
1146.225815,-8512.368333,-536.266849,370.102971
1146.226126,-8734.430116,-459.657299,666.185348
1146.226437,-9104.533087,-612.876398,888.247130
1146.226749,-9548.656652,-153.219100,1036.288319
1146.227060,-9326.594869,306.438199,592.164754
1146.227371,-9178.553681,612.876398,814.226536
1146.227682,-8808.450710,0.000000,1110.308913
1146.227994,-8216.285956,0.000000,888.247130
1146.228305,-8956.491898,0.000000,222.061783
1146.228616,-9030.512492,153.219100,222.061783
1146.228927,-9178.553681,459.657299,-0.000000
1146.229239,-9104.533087,536.266849,-148.041188
1146.229550,-9030.512492,689.485948,-0.000000
1146.229861,-9104.533087,689.485948,-148.041188
1146.230173,-8290.306550,383.047749,-148.041188
1146.230484,-8586.388927,0.000000,-0.000000
1146.230795,-8808.450710,76.609550,592.164754
1146.231106,-8882.471304,-306.438199,148.041188
1146.231418,-9474.636058,-153.219100,814.226536
1146.231729,-9326.594869,0.000000,814.226536
1146.232040,-9326.594869,-612.876398,-0.000000
1146.232352,-9104.533087,536.266849,518.144159
1146.232663,-8734.430116,0.000000,-0.000000
1146.232974,-8660.409521,-612.876398,-74.020594
1146.233285,-8660.409521,-153.219100,296.082377
1146.233597,-8882.471304,-383.047749,-0.000000
1146.233908,-8882.471304,76.609550,518.144159
1146.234219,-9178.553681,383.047749,222.061783
1146.234531,-8808.450710,766.095498,592.164754
1146.234842,-8290.306550,-306.438199,740.205942
1146.235153,-9326.594869,0.000000,-0.000000
1146.235464,-9104.533087,-229.828649,666.185348
1146.235776,-9178.553681,-153.219100,740.205942
1146.236087,-9474.636058,0.000000,444.123565
1146.236398,-9104.533087,-536.266849,518.144159
1146.236710,-8956.491898,-306.438199,518.144159
1146.237021,-8882.471304,306.438199,592.164754
1146.237332,-8808.450710,306.438199,222.061783
1146.237643,-9252.574275,612.876398,962.267725
1146.237955,-8882.471304,0.000000,666.185348
1146.238266,-8882.471304,-229.828649,814.226536
1146.238577,-8512.368333,76.609550,962.267725
1146.238889,-8734.430116,0.000000,444.123565
1146.239200,-9104.533087,229.828649,962.267725
1146.239511,-9030.512492,0.000000,518.144159
1146.239822,-8956.491898,-306.438199,518.144159
1146.240134,-8882.471304,-1072.533697,1110.308913
1146.240445,-8586.388927,-842.705048,888.247130
1146.240756,-8068.244768,-1149.143247,592.164754
1146.241067,-8142.265362,-612.876398,888.247130
1146.241379,-8586.388927,-383.047749,592.164754
1146.241690,-8290.306550,76.609550,444.123565
1146.242001,-8956.491898,229.828649,666.185348
1146.242313,-9104.533087,383.047749,814.226536
1146.242624,-9178.553681,-383.047749,666.185348
1146.242935,-9474.636058,153.219100,666.185348
1146.243246,-9252.574275,153.219100,666.185348
1146.243558,-8882.471304,153.219100,296.082377
1146.243869,-9400.615463,229.828649,222.061783
1146.244180,-9400.615463,383.047749,-222.061783
1146.244492,-9400.615463,995.924147,-74.020594
1146.244803,-9474.636058,1072.533697,444.123565
1146.245114,-9326.594869,766.095498,148.041188
1146.245426,-8956.491898,842.705048,-0.000000
1146.245737,-8438.347739,536.266849,-0.000000
1146.246048,-8512.368333,306.438199,-148.041188
1146.246359,-8586.388927,842.705048,-0.000000
1146.246671,-8512.368333,76.609550,-74.020594
1146.246982,-9178.553681,0.000000,-0.000000
1146.247293,-9474.636058,0.000000,518.144159
1146.247605,-9918.759623,-612.876398,592.164754
1146.247916,-9326.594869,-766.095498,740.205942
1146.248227,-8956.491898,-612.876398,592.164754
1146.248538,-8438.347739,-689.485948,296.082377
1146.248850,-8438.347739,-766.095498,-74.020594
1146.249161,-8142.265362,383.047749,370.102971
1146.249472,-8364.327145,0.000000,370.102971
1146.249784,-8586.388927,-306.438199,592.164754
1146.250095,-9252.574275,-383.047749,962.267725
1146.250406,-9178.553681,-459.657299,740.205942
1146.250718,-9030.512492,0.000000,740.205942
1146.251029,-8660.409521,-229.828649,814.226536
1146.251340,-8438.347739,-383.047749,518.144159
1146.251651,-8586.388927,-459.657299,518.144159
1146.251963,-8882.471304,-536.266849,370.102971
1146.252274,-8586.388927,229.828649,296.082377
1146.252585,-9030.512492,383.047749,888.247130
1146.252897,-9178.553681,536.266849,518.144159
1146.253208,-8956.491898,76.609550,444.123565
1146.253519,-9104.533087,76.609550,666.185348
1146.253831,-8438.347739,536.266849,740.205942
1146.254142,-8364.327145,76.609550,222.061783
1146.254453,-9030.512492,-229.828649,740.205942
1146.254764,-8956.491898,-536.266849,1332.370696
1146.255076,-9030.512492,-689.485948,888.247130
1146.255387,-9104.533087,-459.657299,1332.370696
1146.255698,-8734.430116,-766.095498,962.267725
1146.256010,-8438.347739,-1302.362347,592.164754
1146.256321,-8512.368333,-306.438199,370.102971
1146.256632,-8216.285956,-995.924147,592.164754
1146.256943,-7920.203579,-612.876398,518.144159
1146.257255,-8882.471304,-459.657299,592.164754
1146.257566,-9400.615463,-306.438199,888.247130
1146.257877,-9474.636058,-153.219100,1036.288319
1146.258189,-9326.594869,-153.219100,1036.288319
1146.258500,-8808.450710,-612.876398,1036.288319
1146.258811,-7994.224174,0.000000,444.123565
1146.259123,-9030.512492,0.000000,-0.000000
1146.259434,-8882.471304,0.000000,296.082377
1146.259745,-9030.512492,383.047749,-0.000000
1146.260056,-9178.553681,919.314598,-0.000000
1146.260368,-9252.574275,995.924147,-0.000000
1146.260679,-9030.512492,919.314598,-0.000000
1146.260990,-8882.471304,383.047749,-666.185348
1146.261302,-8290.306550,0.000000,-222.061783
1146.261613,-8290.306550,76.609550,296.082377
1146.261924,-8586.388927,-383.047749,370.102971
1146.262236,-9326.594869,-689.485948,740.205942
1146.262547,-9548.656652,-612.876398,814.226536
1146.262858,-9548.656652,-689.485948,666.185348
1146.263169,-9178.553681,-383.047749,740.205942
1146.263481,-8808.450710,-536.266849,148.041188
1146.263792,-8660.409521,-689.485948,-74.020594
1146.264103,-9030.512492,-383.047749,-0.000000
1146.264415,-9474.636058,153.219100,-148.041188
1146.264726,-8882.471304,383.047749,370.102971
1146.265037,-9252.574275,536.266849,296.082377
1146.265348,-9178.553681,0.000000,592.164754
1146.265660,-8734.430116,153.219100,444.123565
1146.265971,-8512.368333,459.657299,592.164754
1146.266282,-8660.409521,229.828649,444.123565
1146.266594,-8882.471304,612.876398,592.164754
1146.266905,-8734.430116,306.438199,296.082377
1146.267216,-8882.471304,0.000000,444.123565
1146.267528,-8734.430116,383.047749,592.164754
1146.267839,-8660.409521,842.705048,592.164754
1146.268150,-8734.430116,1302.362347,740.205942
1146.268461,-8660.409521,229.828649,888.247130
1146.268773,-8512.368333,0.000000,814.226536
1146.269084,-8660.409521,-306.438199,444.123565
1146.269395,-8512.368333,-459.657299,1110.308913
1146.269707,-8660.409521,-612.876398,962.267725
1146.270018,-8660.409521,-919.314598,1110.308913
1146.270329,-9030.512492,-1149.143247,1258.350101
1146.270641,-8882.471304,-1378.971896,1184.329507
1146.270952,-8808.450710,-612.876398,1480.411884
1146.271263,-8364.327145,-842.705048,1110.308913
1146.271574,-8216.285956,-1455.581446,592.164754
1146.271886,-8438.347739,-1149.143247,666.185348
1146.272197,-8438.347739,-383.047749,370.102971
1146.272508,-8290.306550,229.828649,370.102971
1146.272820,-8808.450710,76.609550,518.144159
1146.273131,-9178.553681,0.000000,518.144159
1146.273442,-8882.471304,-383.047749,370.102971
1146.273753,-9474.636058,153.219100,296.082377
1146.274065,-9474.636058,153.219100,444.123565
1146.274376,-9696.697840,0.000000,222.061783
1146.274687,-9548.656652,306.438199,296.082377
1146.274999,-9104.533087,536.266849,-0.000000
1146.275310,-8956.491898,612.876398,-0.000000
1146.275621,-8882.471304,919.314598,-0.000000
1146.275933,-8882.471304,1455.581446,-222.061783
1146.276244,-8438.347739,612.876398,-0.000000
1146.276555,-8734.430116,536.266849,518.144159
1146.276866,-8660.409521,0.000000,-0.000000
1146.277178,-8660.409521,0.000000,-222.061783
1146.277489,-9474.636058,-306.438199,-74.020594
1146.277800,-9474.636058,-229.828649,-0.000000
1146.278112,-9844.739029,-919.314598,-0.000000
1146.278423,-9622.677246,-536.266849,666.185348
1146.278734,-9104.533087,-689.485948,296.082377
1146.279045,-8882.471304,-842.705048,-0.000000
1146.279357,-8142.265362,-766.095498,370.102971
1146.279668,-7994.224174,-536.266849,-0.000000
1146.279979,-8142.265362,-306.438199,222.061783
1146.280291,-9030.512492,-383.047749,-0.000000
1146.280602,-9252.574275,153.219100,962.267725
1146.280913,-9622.677246,0.000000,740.205942
1146.281225,-9622.677246,-612.876398,444.123565
1146.281536,-9178.553681,-153.219100,740.205942
1146.281847,-8882.471304,-229.828649,740.205942
1146.282158,-8956.491898,-153.219100,370.102971
1146.282470,-9030.512492,76.609550,592.164754
1146.282781,-8734.430116,153.219100,444.123565
1146.283092,-8512.368333,766.095498,296.082377
1146.283404,-8438.347739,612.876398,592.164754
1146.283715,-8586.388927,459.657299,370.102971
1146.284026,-8364.327145,229.828649,666.185348
1146.284338,-8586.388927,306.438199,888.247130
1146.284649,-8734.430116,306.438199,962.267725
1146.284960,-9030.512492,0.000000,814.226536
1146.285271,-9104.533087,0.000000,1036.288319
1146.285583,-8956.491898,-459.657299,1258.350101
1146.285894,-8956.491898,-689.485948,1110.308913
1146.286205,-9030.512492,-536.266849,1332.370696
1146.286517,-8660.409521,-612.876398,962.267725
1146.286828,-8216.285956,-689.485948,740.205942
1146.287139,-8068.244768,-383.047749,666.185348
1146.287450,-8512.368333,0.000000,222.061783
1146.287762,-8512.368333,0.000000,370.102971
1146.288073,-8956.491898,306.438199,296.082377
1146.288384,-9474.636058,229.828649,1036.288319
1146.288696,-9400.615463,0.000000,814.226536
1146.289007,-9400.615463,0.000000,1184.329507
1146.289318,-9030.512492,-536.266849,1036.288319
1146.289630,-8734.430116,-306.438199,666.185348
1146.289941,-8808.450710,1072.533697,370.102971
1146.290252,-8808.450710,612.876398,-296.082377
1146.290563,-8216.285956,919.314598,-222.061783
1146.290875,-9104.533087,1149.143247,-518.144159
1146.291186,-9252.574275,919.314598,-296.082377
1146.291497,-9252.574275,842.705048,-0.000000
1146.291809,-9178.553681,689.485948,-0.000000
1146.292120,-9030.512492,229.828649,222.061783
1146.292431,-8290.306550,76.609550,222.061783
1146.292743,-9030.512492,-536.266849,-0.000000
1146.293054,-8882.471304,-612.876398,222.061783
1146.293365,-9252.574275,0.000000,-0.000000
1146.293676,-9844.739029,-383.047749,148.041188
1146.293988,-9252.574275,-229.828649,814.226536
1146.294299,-9104.533087,-766.095498,518.144159
1146.294610,-8808.450710,-1072.533697,222.061783
1146.294922,-8290.306550,153.219100,-0.000000
1146.295233,-8512.368333,153.219100,-74.020594
1146.295544,-8660.409521,-153.219100,-592.164754
1146.295855,-8586.388927,-459.657299,296.082377
1146.296167,-9548.656652,-689.485948,740.205942
1146.296478,-9400.615463,-766.095498,1036.288319
1146.296789,-9548.656652,-306.438199,1184.329507
1146.297101,-9252.574275,76.609550,1110.308913
1146.297412,-8956.491898,-459.657299,518.144159
1146.297723,-8956.491898,-229.828649,592.164754
1146.298035,-9400.615463,306.438199,-148.041188
1146.298346,-8882.471304,766.095498,-370.102971
1146.298657,-9030.512492,1302.362347,222.061783
1146.298968,-9252.574275,1072.533697,296.082377
1146.299280,-8882.471304,536.266849,518.144159
1146.299591,-9252.574275,76.609550,814.226536
1146.299902,-8216.285956,0.000000,1184.329507
1146.300214,-8142.265362,0.000000,1258.350101
1146.300525,-8882.471304,-383.047749,1258.350101
1146.300836,-8660.409521,-383.047749,1258.350101
1146.301148,-8734.430116,-689.485948,1184.329507
1146.301459,-8882.471304,-766.095498,1110.308913
1146.301770,-8586.388927,-689.485948,1036.288319
1146.302081,-7994.224174,-689.485948,740.205942
1146.302393,-8290.306550,-995.924147,666.185348
1146.302704,-8808.450710,-612.876398,740.205942
1146.303015,-9178.553681,-766.095498,444.123565
1146.303327,-8956.491898,0.000000,666.185348
1146.303638,-9178.553681,-153.219100,888.247130
1146.303949,-8956.491898,-153.219100,1036.288319
1146.304260,-9178.553681,153.219100,814.226536
1146.304572,-8882.471304,0.000000,962.267725
1146.304883,-8808.450710,153.219100,814.226536
1146.305194,-8734.430116,0.000000,518.144159
1146.305506,-9104.533087,306.438199,148.041188
1146.305817,-9104.533087,766.095498,-0.000000
1146.306128,-8882.471304,1072.533697,-74.020594
1146.306440,-9030.512492,1149.143247,-0.000000
1146.306751,-9030.512492,919.314598,296.082377
1146.307062,-8438.347739,766.095498,-0.000000
1146.307373,-8882.471304,459.657299,-0.000000
1146.307685,-8216.285956,689.485948,222.061783
1146.307996,-8364.327145,76.609550,-148.041188
1146.308307,-9400.615463,76.609550,296.082377
1146.308619,-9252.574275,0.000000,296.082377
1146.308930,-9474.636058,-229.828649,370.102971
1146.309241,-9548.656652,0.000000,518.144159
1146.309553,-9474.636058,-459.657299,-0.000000
1146.309864,-8438.347739,153.219100,-74.020594
1146.310175,-8364.327145,-306.438199,370.102971
1146.310486,-8290.306550,-306.438199,-74.020594
1146.310798,-7994.224174,-306.438199,148.041188
1146.311109,-8808.450710,-612.876398,518.144159
1146.311420,-9178.553681,-612.876398,740.205942
1146.311732,-9252.574275,-229.828649,888.247130
1146.312043,-9474.636058,0.000000,666.185348
1146.312354,-9326.594869,0.000000,370.102971
1146.312665,-9178.553681,0.000000,-0.000000
1146.312977,-9400.615463,-153.219100,-0.000000
1146.313288,-9104.533087,-306.438199,222.061783
1146.313599,-8956.491898,459.657299,296.082377
1146.313911,-9104.533087,459.657299,444.123565
1146.314222,-9104.533087,536.266849,814.226536
1146.314533,-9178.553681,229.828649,814.226536
1146.314845,-8882.471304,153.219100,296.082377
1146.315156,-8882.471304,383.047749,814.226536
1146.315467,-8660.409521,229.828649,888.247130
1146.315778,-8882.471304,0.000000,740.205942
1146.316090,-8808.450710,-306.438199,962.267725
1146.316401,-8882.471304,-383.047749,1036.288319
1146.316712,-9030.512492,0.000000,592.164754
1146.317024,-8586.388927,-459.657299,1258.350101
1146.317335,-8438.347739,-919.314598,370.102971
1146.317646,-8068.244768,-1225.752797,444.123565
1146.317958,-8290.306550,-842.705048,740.205942
1146.318269,-8734.430116,-919.314598,592.164754
1146.318580,-8882.471304,-842.705048,740.205942
1146.318891,-9252.574275,-612.876398,962.267725
1146.319203,-9326.594869,-306.438199,1036.288319
1146.319514,-8660.409521,-153.219100,814.226536
1146.319825,-9400.615463,0.000000,666.185348
1146.320137,-8956.491898,-459.657299,666.185348
1146.320448,-8808.450710,-76.609550,370.102971
1146.320759,-8808.450710,229.828649,592.164754
1146.321070,-8586.388927,306.438199,296.082377
1146.321382,-8882.471304,536.266849,74.020594
1146.321693,-8586.388927,766.095498,518.144159
1146.322004,-8734.430116,919.314598,-0.000000
1146.322316,-8882.471304,536.266849,-0.000000
1146.322627,-8956.491898,612.876398,-0.000000
1146.322938,-8956.491898,383.047749,-0.000000
1146.323250,-8512.368333,-229.828649,296.082377
1146.323561,-9400.615463,-383.047749,296.082377
1146.323872,-8734.430116,0.000000,370.102971
1146.324183,-9400.615463,76.609550,296.082377
1146.324495,-9326.594869,153.219100,1036.288319
1146.324806,-8956.491898,-1072.533697,592.164754
1146.325117,-9104.533087,-766.095498,370.102971
1146.325429,-8808.450710,-612.876398,296.082377
1146.325740,-8438.347739,-306.438199,-0.000000
1146.326051,-9030.512492,-153.219100,-0.000000
1146.326362,-9104.533087,0.000000,518.144159
1146.326674,-8956.491898,-995.924147,444.123565
1146.326985,-9326.594869,-1532.190996,1036.288319
1146.327296,-9178.553681,-766.095498,592.164754
1146.327608,-9548.656652,-229.828649,666.185348
1146.327919,-9400.615463,0.000000,962.267725
1146.328230,-9252.574275,0.000000,222.061783
1146.328542,-9030.512492,383.047749,592.164754
1146.328853,-8734.430116,919.314598,592.164754
1146.329164,-8660.409521,306.438199,148.041188
1146.329475,-8290.306550,919.314598,370.102971
1146.329787,-8808.450710,766.095498,296.082377
1146.330098,-8734.430116,612.876398,444.123565
1146.330409,-8882.471304,536.266849,592.164754
1146.330721,-8586.388927,-153.219100,1184.329507
1146.331032,-8586.388927,-459.657299,814.226536
1146.331343,-8734.430116,-229.828649,962.267725
1146.331655,-8364.327145,-459.657299,1036.288319
1146.331966,-9252.574275,-919.314598,740.205942
1146.332277,-8808.450710,-612.876398,1628.453072
1146.332588,-8808.450710,-842.705048,814.226536
1146.332900,-8512.368333,-689.485948,592.164754
1146.333211,-8364.327145,-536.266849,666.185348
1146.333522,-8290.306550,-306.438199,740.205942
1146.333834,-8512.368333,-153.219100,296.082377
1146.334145,-8734.430116,0.000000,370.102971
1146.334456,-8882.471304,0.000000,592.164754
1146.334767,-8956.491898,0.000000,1036.288319
1146.335079,-9178.553681,-612.876398,814.226536
1146.335390,-9178.553681,-153.219100,962.267725
1146.335701,-8956.491898,-153.219100,740.205942
1146.336013,-9474.636058,383.047749,-0.000000
1146.336324,-9104.533087,689.485948,-0.000000
1146.336635,-8808.450710,383.047749,370.102971
1146.336947,-8734.430116,766.095498,-148.041188
1146.337258,-8956.491898,689.485948,222.061783
1146.337569,-8660.409521,766.095498,222.061783
1146.337880,-8512.368333,306.438199,-0.000000
1146.338192,-8586.388927,229.828649,-0.000000
1146.338503,-8586.388927,612.876398,296.082377
1146.338814,-9030.512492,0.000000,-0.000000
1146.339126,-9326.594869,306.438199,444.123565
1146.339437,-9474.636058,0.000000,-0.000000
1146.339748,-9696.697840,-536.266849,296.082377
1146.340060,-9474.636058,-536.266849,888.247130
1146.340371,-9252.574275,-689.485948,370.102971
1146.340682,-8660.409521,-612.876398,296.082377
1146.340993,-8142.265362,-459.657299,-0.000000
1146.341305,-8142.265362,-383.047749,74.020594
1146.341616,-7624.121203,-536.266849,518.144159
1146.341927,-8734.430116,-689.485948,962.267725
1146.342239,-9474.636058,-612.876398,740.205942
1146.342550,-9696.697840,0.000000,888.247130
1146.342861,-9918.759623,-153.219100,666.185348
1146.343172,-9622.677246,0.000000,296.082377
1146.343484,-8882.471304,76.609550,592.164754
1146.343795,-9178.553681,-306.438199,518.144159
1146.344106,-8734.430116,0.000000,444.123565
1146.344418,-8956.491898,612.876398,296.082377
1146.344729,-9104.533087,766.095498,518.144159
1146.345040,-8882.471304,612.876398,370.102971
1146.345352,-8512.368333,536.266849,740.205942
1146.345663,-8290.306550,383.047749,444.123565
1146.345974,-8290.306550,383.047749,592.164754
1146.346285,-8586.388927,612.876398,1036.288319
1146.346597,-9030.512492,-153.219100,592.164754
1146.346908,-8882.471304,-383.047749,1036.288319
1146.347220,-8882.471304,-306.438199,1110.308913
1146.347531,-8882.471304,-689.485948,962.267725
1146.347842,-8512.368333,-536.266849,814.226536
1146.348154,-7994.224174,-383.047749,814.226536
1146.348465,-7994.224174,-1149.143247,370.102971
1146.348776,-8364.327145,-383.047749,296.082377
1146.349088,-8216.285956,-842.705048,444.123565
1146.349399,-8882.471304,-383.047749,444.123565
1146.349710,-9030.512492,-306.438199,666.185348
1146.350022,-9474.636058,-306.438199,962.267725
1146.350333,-9474.636058,-383.047749,814.226536
1146.350644,-8808.450710,-383.047749,814.226536
1146.350956,-9104.533087,-766.095498,518.144159
1146.351267,-8956.491898,-689.485948,-0.000000
1146.351578,-8586.388927,459.657299,148.041188
1146.351890,-8734.430116,536.266849,296.082377
1146.352201,-8734.430116,842.705048,-0.000000
1146.352513,-9178.553681,919.314598,148.041188
1146.352824,-9400.615463,689.485948,-0.000000
1146.353135,-8956.491898,1072.533697,-222.061783
1146.353447,-8956.491898,383.047749,-0.000000
1146.353758,-8882.471304,229.828649,222.061783
1146.354069,-9030.512492,-153.219100,-74.020594
1146.354381,-9696.697840,-536.266849,296.082377
1146.354692,-9696.697840,-612.876398,370.102971
1146.355003,-9770.718434,-612.876398,370.102971
1146.355315,-9548.656652,-153.219100,740.205942
1146.355626,-9178.553681,-306.438199,370.102971
1146.355937,-9030.512492,-383.047749,-0.000000
1146.356249,-8216.285956,-153.219100,592.164754
1146.356560,-8660.409521,-229.828649,-0.000000
1146.356871,-8734.430116,0.000000,222.061783
1146.357183,-8808.450710,0.000000,296.082377
1146.357494,-8808.450710,-459.657299,518.144159
1146.357806,-9178.553681,-919.314598,814.226536
1146.358117,-9474.636058,-536.266849,370.102971
1146.358428,-9252.574275,306.438199,592.164754
1146.358740,-8882.471304,-383.047749,1036.288319
1146.359051,-9252.574275,0.000000,740.205942
1146.359362,-9178.553681,0.000000,666.185348
1146.359674,-8586.388927,306.438199,518.144159
1146.359985,-8216.285956,1149.143247,370.102971
1146.360296,-8068.244768,1072.533697,444.123565
1146.360608,-8290.306550,1302.362347,592.164754
1146.360919,-8216.285956,536.266849,74.020594
1146.361230,-8364.327145,842.705048,666.185348
1146.361542,-8216.285956,306.438199,1036.288319
1146.361853,-8586.388927,0.000000,592.164754
1146.362165,-9030.512492,-153.219100,814.226536
1146.362476,-8882.471304,-536.266849,962.267725
1146.362787,-8734.430116,0.000000,592.164754
1146.363099,-8956.491898,-536.266849,1036.288319
1146.363410,-9252.574275,-153.219100,962.267725
1146.363721,-8364.327145,-306.438199,814.226536
1146.364033,-8660.409521,-612.876398,740.205942
1146.364344,-8586.388927,-459.657299,370.102971
1146.364655,-8512.368333,-153.219100,370.102971
1146.364967,-8882.471304,0.000000,740.205942
1146.365278,-9030.512492,-383.047749,444.123565
1146.365589,-9474.636058,0.000000,888.247130
1146.365901,-9474.636058,0.000000,1036.288319
1146.366212,-9474.636058,0.000000,888.247130
1146.366523,-9474.636058,-306.438199,740.205942
1146.366835,-9474.636058,0.000000,444.123565
1146.367146,-9030.512492,306.438199,222.061783
1146.367458,-8956.491898,1225.752797,-0.000000
1146.367769,-8660.409521,1685.410096,-74.020594
1146.368080,-9178.553681,1915.238745,-148.041188
1146.368392,-9030.512492,1455.581446,-0.000000
1146.368703,-9178.553681,689.485948,-0.000000
1146.369014,-8808.450710,306.438199,-0.000000
1146.369326,-8734.430116,76.609550,-0.000000
1146.369637,-9400.615463,0.000000,-148.041188
1146.369948,-9104.533087,-229.828649,518.144159
1146.370260,-9178.553681,-612.876398,666.185348
1146.370571,-10066.800811,-229.828649,296.082377
1146.370882,-9252.574275,-536.266849,666.185348
1146.371194,-9104.533087,-766.095498,444.123565
1146.371505,-8438.347739,-919.314598,296.082377
1146.371817,-7994.224174,-536.266849,148.041188
1146.372128,-8290.306550,0.000000,-0.000000
1146.372439,-8068.244768,153.219100,-0.000000
1146.372751,-8956.491898,-459.657299,148.041188
1146.373062,-9104.533087,0.000000,666.185348
1146.373373,-9474.636058,-383.047749,370.102971
1146.373685,-9622.677246,76.609550,592.164754
1146.373996,-9326.594869,306.438199,666.185348
1146.374307,-8882.471304,0.000000,444.123565
1146.374619,-9178.553681,76.609550,370.102971
1146.374930,-8586.388927,306.438199,148.041188
1146.375241,-8660.409521,-459.657299,-74.020594
1146.375553,-8438.347739,689.485948,888.247130
1146.375864,-8586.388927,229.828649,666.185348
1146.376175,-8438.347739,153.219100,814.226536
1146.376487,-8882.471304,-153.219100,962.267725
1146.376798,-8734.430116,0.000000,1036.288319
1146.377110,-8586.388927,0.000000,888.247130
1146.377421,-8956.491898,-229.828649,1036.288319
1146.377732,-8438.347739,-842.705048,888.247130
1146.378044,-8956.491898,-383.047749,592.164754
1146.378355,-9400.615463,-536.266849,1406.391290
1146.378666,-8734.430116,-612.876398,740.205942
1146.378978,-8512.368333,-459.657299,592.164754
1146.379289,-8290.306550,-612.876398,444.123565
1146.379600,-8216.285956,-612.876398,-0.000000
1146.379912,-8364.327145,-383.047749,-0.000000
1146.380223,-9252.574275,0.000000,-0.000000
1146.380534,-9104.533087,-689.485948,962.267725
1146.380846,-9622.677246,-383.047749,962.267725
1146.381157,-9400.615463,-459.657299,1036.288319
1146.381469,-9178.553681,-76.609550,962.267725
1146.381780,-8956.491898,-306.438199,962.267725
1146.382091,-8882.471304,-306.438199,222.061783
1146.382403,-9104.533087,689.485948,222.061783
1146.382714,-8882.471304,766.095498,148.041188
1146.383025,-9030.512492,0.000000,-0.000000
1146.383337,-9252.574275,612.876398,296.082377
1146.383648,-9326.594869,842.705048,-0.000000
1146.383959,-8882.471304,306.438199,-74.020594
1146.384271,-9030.512492,383.047749,-0.000000
1146.384582,-8438.347739,383.047749,518.144159
1146.384893,-8586.388927,0.000000,-148.041188
1146.385205,-9400.615463,-229.828649,518.144159
1146.385516,-9326.594869,-536.266849,740.205942
1146.385827,-9548.656652,-229.828649,814.226536
1146.386139,-9030.512492,306.438199,1110.308913
1146.386450,-8660.409521,-306.438199,518.144159
1146.386762,-8364.327145,-306.438199,-0.000000
1146.387073,-7920.203579,76.609550,-0.000000
1146.387384,-7846.182985,-459.657299,-296.082377
1146.387696,-7994.224174,0.000000,-0.000000
1146.388007,-9030.512492,-229.828649,296.082377
1146.388318,-9252.574275,-612.876398,296.082377
1146.388630,-9178.553681,-842.705048,814.226536
1146.388941,-9548.656652,-536.266849,592.164754
1146.389252,-9474.636058,153.219100,666.185348
1146.389564,-9326.594869,689.485948,740.205942
1146.389875,-9252.574275,76.609550,444.123565
1146.390186,-8734.430116,0.000000,518.144159
1146.390498,-8808.450710,459.657299,444.123565
1146.390809,-8290.306550,459.657299,296.082377
1146.391121,-8512.368333,689.485948,370.102971
1146.391432,-8586.388927,842.705048,666.185348
1146.391743,-8734.430116,229.828649,222.061783
1146.392055,-8808.450710,229.828649,296.082377
1146.392366,-8364.327145,0.000000,888.247130
1146.392677,-8734.430116,-306.438199,814.226536
1146.392989,-9104.533087,-306.438199,1036.288319
1146.393300,-9178.553681,-459.657299,1110.308913
1146.393611,-9474.636058,-842.705048,1036.288319
1146.393923,-9104.533087,-689.485948,1332.370696
1146.394234,-9178.553681,-842.705048,814.226536
1146.394545,-8438.347739,-842.705048,888.247130
1146.394857,-8438.347739,-612.876398,888.247130
1146.395168,-8216.285956,-689.485948,444.123565
1146.395479,-8364.327145,-229.828649,518.144159
1146.395791,-8734.430116,-153.219100,666.185348
1146.396102,-9178.553681,-536.266849,740.205942
1146.396414,-9104.533087,-766.095498,1036.288319
1146.396725,-8956.491898,229.828649,888.247130
1146.397036,-9844.739029,-153.219100,-0.000000
1146.397348,-9030.512492,-229.828649,518.144159
1146.397659,-9104.533087,0.000000,592.164754
1146.397970,-9178.553681,459.657299,-0.000000
1146.398282,-9104.533087,766.095498,148.041188
1146.398593,-9104.533087,919.314598,-0.000000
1146.398904,-9030.512492,919.314598,222.061783
1146.399216,-8734.430116,1149.143247,296.082377
1146.399527,-8660.409521,76.609550,-0.000000
1146.399838,-8808.450710,842.705048,-222.061783
1146.400150,-8142.265362,229.828649,-0.000000
1146.400461,-8882.471304,229.828649,-0.000000
1146.400773,-8956.491898,153.219100,296.082377
1146.401084,-9326.594869,0.000000,666.185348
1146.401395,-8882.471304,0.000000,962.267725
1146.401707,-9178.553681,-383.047749,370.102971
1146.402018,-9030.512492,-383.047749,518.144159
1146.402329,-8290.306550,-842.705048,-0.000000
1146.402641,-8068.244768,-612.876398,-0.000000
1146.402952,-7994.224174,-383.047749,-0.000000
1146.403263,-8512.368333,-612.876398,222.061783
1146.403575,-8882.471304,-995.924147,740.205942
1146.403886,-9474.636058,-459.657299,1036.288319
1146.404197,-9326.594869,-536.266849,592.164754
1146.404509,-9474.636058,153.219100,666.185348
1146.404820,-8808.450710,-153.219100,962.267725
1146.405131,-9030.512492,-229.828649,370.102971
1146.405443,-9104.533087,76.609550,370.102971
1146.405754,-8808.450710,612.876398,370.102971
1146.406066,-8734.430116,383.047749,222.061783
1146.406377,-8882.471304,766.095498,444.123565
1146.406688,-9474.636058,459.657299,148.041188
1146.407000,-8808.450710,153.219100,518.144159
1146.407311,-8586.388927,229.828649,814.226536
1146.407622,-8882.471304,0.000000,666.185348
1146.407934,-8808.450710,-306.438199,592.164754
1146.408245,-9252.574275,-229.828649,666.185348
1146.408556,-8734.430116,0.000000,1184.329507
1146.408868,-8956.491898,-536.266849,740.205942
1146.409179,-9030.512492,-383.047749,1036.288319
1146.409490,-8808.450710,-766.095498,444.123565
1146.409802,-8660.409521,-766.095498,518.144159
1146.410113,-8660.409521,-689.485948,444.123565
1146.410425,-8586.388927,-842.705048,444.123565
1146.410736,-8660.409521,-689.485948,296.082377
1146.411047,-8734.430116,-689.485948,740.205942
1146.411359,-9030.512492,-766.095498,888.247130
1146.411670,-9326.594869,-919.314598,962.267725
1146.411981,-9400.615463,-612.876398,888.247130
1146.412293,-9104.533087,0.000000,962.267725
1146.412604,-8808.450710,0.000000,888.247130
1146.412915,-8956.491898,76.609550,296.082377
1146.413227,-8660.409521,842.705048,-0.000000
1146.413538,-8438.347739,1225.752797,-0.000000
1146.413849,-8364.327145,995.924147,-148.041188
1146.414161,-8586.388927,995.924147,-148.041188
1146.414472,-9030.512492,766.095498,-222.061783
1146.414783,-8808.450710,459.657299,-148.041188
1146.415095,-8808.450710,306.438199,-0.000000
1146.415406,-8660.409521,229.828649,370.102971
1146.415718,-9178.553681,-536.266849,148.041188
1146.416029,-9474.636058,-536.266849,444.123565
1146.416340,-9696.697840,-383.047749,666.185348
1146.416652,-9622.677246,0.000000,592.164754
1146.416963,-9252.574275,0.000000,740.205942
1146.417274,-8956.491898,-766.095498,370.102971
1146.417586,-8290.306550,-842.705048,222.061783
1146.417897,-7994.224174,-306.438199,370.102971
1146.418208,-8364.327145,-383.047749,-0.000000
1146.418520,-8290.306550,0.000000,-0.000000
1146.418831,-9178.553681,0.000000,518.144159
1146.419142,-9178.553681,0.000000,518.144159
1146.419454,-9178.553681,-229.828649,592.164754
1146.419765,-9548.656652,-153.219100,666.185348
1146.420077,-9474.636058,0.000000,592.164754
1146.420388,-9252.574275,229.828649,666.185348
1146.420699,-9252.574275,306.438199,888.247130
1146.421011,-8438.347739,76.609550,740.205942
1146.421322,-8290.306550,-229.828649,814.226536
1146.421633,-8068.244768,536.266849,962.267725
1146.421945,-8586.388927,383.047749,666.185348
1146.422256,-8438.347739,459.657299,814.226536
1146.422567,-8956.491898,536.266849,592.164754
1146.422879,-8808.450710,76.609550,888.247130
1146.423190,-8438.347739,76.609550,814.226536
1146.423501,-9178.553681,-153.219100,814.226536
1146.423813,-9474.636058,459.657299,814.226536
1146.424124,-9252.574275,0.000000,1258.350101
1146.424435,-9104.533087,-612.876398,1184.329507
1146.424747,-8808.450710,-919.314598,1110.308913
1146.425058,-8290.306550,-766.095498,888.247130
1146.425370,-7920.203579,-536.266849,740.205942
1146.425681,-7624.121203,-766.095498,666.185348
1146.425992,-8438.347739,-306.438199,-0.000000
1146.426304,-9030.512492,-229.828649,-148.041188
1146.426615,-8882.471304,-306.438199,592.164754
1146.426926,-9252.574275,-153.219100,1036.288319
1146.427238,-9400.615463,-536.266849,740.205942
1146.427549,-9548.656652,-536.266849,888.247130
1146.427860,-9474.636058,-153.219100,740.205942
1146.428172,-8882.471304,229.828649,740.205942
1146.428483,-9400.615463,229.828649,222.061783
1146.428794,-8956.491898,766.095498,888.247130
1146.429106,-8734.430116,689.485948,222.061783
1146.429417,-8586.388927,766.095498,222.061783
1146.429729,-8512.368333,536.266849,-0.000000
1146.430040,-8216.285956,536.266849,-296.082377
1146.430351,-8808.450710,689.485948,148.041188
1146.430663,-8512.368333,306.438199,-0.000000
1146.430974,-8808.450710,0.000000,-74.020594
1146.431285,-9696.697840,-383.047749,-0.000000
1146.431597,-9474.636058,229.828649,740.205942
1146.431908,-9696.697840,-153.219100,518.144159
1146.432219,-9474.636058,-229.828649,962.267725
1146.432531,-8808.450710,-306.438199,444.123565
1146.432842,-8290.306550,-459.657299,-148.041188
1146.433153,-7994.224174,0.000000,-0.000000
1146.433465,-7994.224174,-383.047749,-370.102971
1146.433776,-8216.285956,0.000000,-296.082377
1146.434087,-8956.491898,-306.438199,-74.020594
1146.434399,-9992.780217,-689.485948,296.082377
1146.434710,-10510.924376,-612.876398,814.226536
1146.435022,-10658.965565,-306.438199,370.102971
1146.435333,-9844.739029,-459.657299,1258.350101
1146.435644,-9400.615463,-306.438199,1258.350101
1146.435956,-9548.656652,-612.876398,518.144159
1146.436267,-8660.409521,-459.657299,296.082377
1146.436578,-7920.203579,153.219100,222.061783
1146.436890,-7772.162391,459.657299,222.061783
1146.437201,-8512.368333,612.876398,296.082377
1146.437512,-8808.450710,459.657299,444.123565
1146.437824,-8956.491898,153.219100,666.185348
1146.438135,-9030.512492,459.657299,888.247130
1146.438446,-9030.512492,0.000000,888.247130
1146.438758,-9474.636058,0.000000,518.144159
1146.439069,-9474.636058,-229.828649,1110.308913
1146.439381,-8956.491898,-229.828649,1332.370696
1146.439692,-8808.450710,-153.219100,962.267725
1146.440003,-8438.347739,0.000000,1332.370696
1146.440315,-7994.224174,76.609550,888.247130
1146.440626,-7402.059420,-306.438199,444.123565
1146.440937,-7254.018232,-612.876398,370.102971
1146.441249,-8142.265362,-995.924147,296.082377
1146.441560,-8438.347739,-536.266849,370.102971
1146.441871,-9400.615463,-383.047749,814.226536
1146.442183,-9770.718434,-536.266849,1110.308913
1146.442494,-9696.697840,-536.266849,1184.329507
1146.442805,-9770.718434,-689.485948,888.247130
1146.443117,-9326.594869,-536.266849,814.226536
1146.443428,-8660.409521,0.000000,962.267725
1146.443739,-9030.512492,306.438199,666.185348
1146.444051,-8882.471304,766.095498,296.082377
1146.444362,-8438.347739,1225.752797,222.061783
1146.444674,-8660.409521,1225.752797,-0.000000
1146.444985,-8586.388927,919.314598,-370.102971
1146.445296,-8660.409521,842.705048,-296.082377
1146.445608,-9178.553681,1455.581446,-444.123565
1146.445919,-9030.512492,689.485948,-0.000000
1146.446230,-9104.533087,229.828649,518.144159
1146.446542,-9696.697840,-459.657299,370.102971
1146.446853,-9474.636058,-459.657299,888.247130
1146.447164,-9326.594869,0.000000,666.185348
1146.447476,-9030.512492,229.828649,518.144159
1146.447787,-8512.368333,76.609550,518.144159
1146.448099,-8438.347739,0.000000,-0.000000
1146.448410,-7920.203579,-459.657299,-0.000000
1146.448721,-8290.306550,0.000000,-0.000000
1146.449033,-8882.471304,-306.438199,-74.020594
1146.449344,-9030.512492,-153.219100,-0.000000
1146.449655,-9252.574275,-919.314598,296.082377
1146.449967,-9474.636058,-536.266849,592.164754
1146.450278,-9918.759623,-842.705048,-0.000000
1146.450590,-9548.656652,0.000000,814.226536
1146.450901,-9252.574275,-459.657299,1110.308913
1146.451212,-9178.553681,-306.438199,666.185348
1146.451524,-8586.388927,0.000000,888.247130
1146.451835,-8438.347739,229.828649,444.123565
1146.452146,-7772.162391,612.876398,-0.000000
1146.452458,-8216.285956,689.485948,222.061783
1146.452769,-8808.450710,689.485948,-0.000000
1146.453081,-8882.471304,229.828649,444.123565
1146.453392,-9474.636058,76.609550,592.164754
1146.453703,-9400.615463,0.000000,666.185348
1146.454015,-9030.512492,-383.047749,888.247130
1146.454326,-9400.615463,-459.657299,666.185348
1146.454637,-9104.533087,-306.438199,444.123565
1146.454949,-9030.512492,-153.219100,814.226536
1146.455260,-9030.512492,-153.219100,1036.288319
1146.455572,-8734.430116,-306.438199,1110.308913
1146.455883,-8438.347739,-459.657299,740.205942
1146.456194,-8216.285956,-383.047749,518.144159
1146.456506,-8216.285956,-306.438199,296.082377
1146.456817,-8364.327145,0.000000,370.102971
1146.457128,-8512.368333,-153.219100,222.061783
1146.457440,-9030.512492,-383.047749,-0.000000
1146.457751,-9400.615463,-536.266849,888.247130
1146.458062,-9474.636058,-306.438199,740.205942
1146.458374,-9400.615463,-383.047749,740.205942
1146.458685,-9400.615463,153.219100,888.247130
1146.458997,-9104.533087,229.828649,296.082377
1146.459308,-8956.491898,1072.533697,148.041188
1146.459619,-8290.306550,1072.533697,370.102971
1146.459931,-8438.347739,689.485948,296.082377
1146.460242,-8438.347739,689.485948,-0.000000
1146.460553,-8438.347739,459.657299,-0.000000
1146.460865,-8142.265362,-153.219100,-0.000000
1146.461176,-8586.388927,0.000000,444.123565
1146.461488,-8882.471304,-153.219100,444.123565
1146.461799,-9030.512492,-229.828649,296.082377
1146.462110,-9326.594869,229.828649,592.164754
1146.462422,-9548.656652,536.266849,222.061783
1146.462733,-9696.697840,153.219100,592.164754
1146.463044,-9030.512492,153.219100,888.247130
1146.463356,-8512.368333,-536.266849,148.041188
1146.463667,-8216.285956,-612.876398,-0.000000
1146.463979,-7550.100608,0.000000,-0.000000
1146.464290,-8216.285956,-153.219100,-518.144159
1146.464601,-8364.327145,-383.047749,222.061783
1146.464913,-9474.636058,-1072.533697,-0.000000
1146.465224,-9696.697840,-995.924147,666.185348
1146.465535,-10288.862594,-612.876398,1258.350101
1146.465847,-10436.903782,-306.438199,814.226536
1146.466158,-10066.800811,-153.219100,592.164754
1146.466470,-8586.388927,0.000000,666.185348
1146.466781,-8438.347739,0.000000,222.061783
1146.467092,-8364.327145,-383.047749,148.041188
1146.467404,-8290.306550,536.266849,444.123565
1146.467715,-8364.327145,1072.533697,296.082377
1146.468026,-8956.491898,306.438199,296.082377
1146.468338,-9252.574275,229.828649,888.247130
1146.468649,-9252.574275,0.000000,444.123565
1146.468961,-9178.553681,612.876398,740.205942
1146.469272,-9178.553681,229.828649,1184.329507
1146.469583,-9104.533087,-459.657299,1184.329507
1146.469895,-9104.533087,0.000000,1406.391290
1146.470206,-8734.430116,0.000000,962.267725
1146.470517,-8734.430116,-383.047749,888.247130
1146.470829,-8068.244768,-459.657299,1258.350101
1146.471140,-7772.162391,-459.657299,962.267725
1146.471452,-7624.121203,0.000000,370.102971
1146.471763,-7772.162391,-766.095498,370.102971
1146.472074,-7920.203579,-536.266849,518.144159
1146.472386,-9178.553681,-383.047749,222.061783
1146.472697,-9622.677246,-612.876398,1110.308913
1146.473008,-9696.697840,-536.266849,1406.391290
1146.473320,-9326.594869,-229.828649,1332.370696
1146.473631,-9252.574275,306.438199,1258.350101
1146.473942,-9030.512492,0.000000,740.205942
1146.474254,-8364.327145,306.438199,518.144159
1146.474565,-8734.430116,459.657299,370.102971
1146.474877,-8068.244768,1455.581446,148.041188
1146.475188,-8290.306550,1225.752797,-148.041188
1146.475499,-8512.368333,536.266849,-0.000000
1146.475811,-8882.471304,153.219100,-0.000000
1146.476122,-9030.512492,0.000000,-0.000000
1146.476433,-9474.636058,229.828649,-0.000000
1146.476745,-9400.615463,76.609550,296.082377
1146.477056,-9030.512492,-383.047749,518.144159
1146.477368,-9474.636058,-919.314598,518.144159
1146.477679,-9326.594869,-612.876398,666.185348
1146.477990,-9400.615463,-153.219100,666.185348
1146.478302,-9474.636058,229.828649,592.164754
1146.478613,-9178.553681,0.000000,518.144159
1146.478924,-8882.471304,-536.266849,370.102971
1146.479236,-8512.368333,-1225.752797,-0.000000
1146.479547,-8808.450710,-536.266849,-0.000000
1146.479859,-9178.553681,0.000000,-0.000000
1146.480170,-9474.636058,-153.219100,-0.000000
1146.480481,-9474.636058,-459.657299,370.102971
1146.480793,-9622.677246,-689.485948,888.247130
1146.481104,-9400.615463,-842.705048,518.144159
1146.481415,-9104.533087,-383.047749,740.205942
1146.481727,-8956.491898,0.000000,814.226536
1146.482038,-8586.388927,0.000000,370.102971
1146.482350,-8660.409521,383.047749,370.102971
1146.482661,-8512.368333,536.266849,296.082377
1146.482972,-8216.285956,229.828649,-0.000000
1146.483284,-8734.430116,612.876398,148.041188
1146.483595,-8808.450710,612.876398,518.144159
1146.483906,-9178.553681,536.266849,-0.000000
1146.484218,-9400.615463,-612.876398,962.267725
1146.484529,-9400.615463,-536.266849,1036.288319
1146.484841,-9178.553681,-229.828649,962.267725
1146.485152,-9104.533087,153.219100,1110.308913
1146.485463,-8808.450710,153.219100,962.267725
1146.485775,-8512.368333,-306.438199,888.247130
1146.486086,-8290.306550,-306.438199,962.267725
1146.486397,-8290.306550,-459.657299,592.164754
1146.486709,-7772.162391,0.000000,740.205942
1146.487020,-7994.224174,-383.047749,740.205942
1146.487332,-8216.285956,-536.266849,444.123565
1146.487643,-8068.244768,-612.876398,740.205942
1146.487954,-8808.450710,-536.266849,740.205942
1146.488266,-9178.553681,0.000000,888.247130
1146.488577,-9474.636058,-306.438199,1258.350101
1146.488888,-9696.697840,0.000000,740.205942
1146.489200,-9400.615463,76.609550,1258.350101
1146.489511,-9030.512492,306.438199,962.267725
1146.489823,-8956.491898,383.047749,222.061783
1146.490134,-8734.430116,612.876398,296.082377
1146.490445,-8290.306550,306.438199,296.082377
1146.490757,-8364.327145,0.000000,148.041188
1146.491068,-8586.388927,459.657299,-0.000000
1146.491379,-8438.347739,153.219100,592.164754
1146.491691,-9030.512492,306.438199,-0.000000
1146.492002,-8882.471304,76.609550,296.082377
1146.492313,-9030.512492,76.609550,-0.000000
1146.492625,-9252.574275,0.000000,-74.020594
1146.492936,-9474.636058,0.000000,-0.000000
1146.493248,-9474.636058,306.438199,592.164754
1146.493559,-9030.512492,0.000000,222.061783
1146.493870,-9030.512492,-306.438199,666.185348
1146.494182,-8956.491898,-306.438199,518.144159
1146.494493,-8660.409521,-1072.533697,-0.000000
1146.494804,-8438.347739,-612.876398,148.041188
1146.495116,-8660.409521,-766.095498,-0.000000
1146.495427,-8734.430116,-842.705048,222.061783
1146.495739,-9548.656652,-842.705048,296.082377
1146.496050,-10066.800811,-1149.143247,814.226536
1146.496361,-9770.718434,-383.047749,740.205942
1146.496673,-10066.800811,-383.047749,814.226536
1146.496984,-9326.594869,0.000000,518.144159
1146.497295,-8438.347739,0.000000,592.164754
1146.497607,-8438.347739,0.000000,444.123565
1146.497918,-8290.306550,0.000000,-0.000000
1146.498230,-8142.265362,689.485948,-0.000000
1146.498541,-8660.409521,995.924147,592.164754
1146.498852,-9178.553681,306.438199,518.144159
1146.499164,-8512.368333,383.047749,888.247130
1146.499475,-9104.533087,229.828649,592.164754
1146.499786,-9030.512492,153.219100,666.185348
1146.500098,-8660.409521,153.219100,962.267725
1146.500409,-9030.512492,153.219100,740.205942
1146.500721,-8586.388927,0.000000,888.247130
1146.501032,-8068.244768,0.000000,1110.308913
1146.501343,-8660.409521,0.000000,666.185348
1146.501655,-8586.388927,-306.438199,370.102971
1146.501966,-7846.182985,-306.438199,592.164754
1146.502277,-7698.141797,-766.095498,518.144159
1146.502589,-7994.224174,-1072.533697,444.123565
1146.502900,-9252.574275,-536.266849,666.185348
1146.503212,-9030.512492,-1149.143247,444.123565
1146.503523,-9622.677246,-995.924147,666.185348
1146.503834,-9918.759623,-229.828649,1110.308913
1146.504146,-9474.636058,-459.657299,1184.329507
1146.504457,-9474.636058,0.000000,888.247130
1146.504768,-9178.553681,0.000000,740.205942
1146.505080,-8808.450710,229.828649,370.102971
1146.505391,-8216.285956,995.924147,444.123565
1146.505703,-8290.306550,1225.752797,-0.000000
1146.506014,-8068.244768,842.705048,-0.000000
1146.506325,-8364.327145,995.924147,-0.000000
1146.506637,-9474.636058,76.609550,74.020594
1146.506948,-8882.471304,459.657299,296.082377
1146.507259,-9770.718434,306.438199,518.144159
1146.507571,-9770.718434,76.609550,296.082377
1146.507882,-9548.656652,-536.266849,148.041188
1146.508193,-9474.636058,-383.047749,-0.000000
1146.508505,-9104.533087,-229.828649,-0.000000
1146.508816,-9474.636058,612.876398,222.061783
1146.509128,-9474.636058,459.657299,296.082377
1146.509439,-8660.409521,153.219100,518.144159
1146.509750,-8364.327145,-153.219100,518.144159
1146.510062,-8142.265362,-153.219100,444.123565
1146.510373,-8216.285956,76.609550,-0.000000
1146.510684,-8586.388927,0.000000,296.082377
1146.510996,-8956.491898,-229.828649,-0.000000
1146.511307,-9474.636058,-766.095498,518.144159
1146.511619,-9474.636058,-689.485948,814.226536
1146.511930,-9474.636058,-919.314598,962.267725
1146.512241,-9400.615463,-153.219100,814.226536
1146.512553,-9178.553681,153.219100,888.247130
1146.512864,-8882.471304,689.485948,814.226536
1146.513175,-8364.327145,612.876398,666.185348
1146.513487,-7846.182985,842.705048,444.123565
1146.513798,-7698.141797,612.876398,370.102971
1146.514110,-8364.327145,689.485948,592.164754
1146.514421,-9030.512492,459.657299,888.247130
1146.514732,-9178.553681,612.876398,814.226536
1146.515044,-8882.471304,229.828649,888.247130
1146.515355,-9104.533087,0.000000,1110.308913
1146.515666,-9030.512492,-229.828649,370.102971
1146.515978,-8956.491898,0.000000,444.123565
1146.516289,-8660.409521,0.000000,888.247130
1146.516601,-8586.388927,-536.266849,888.247130
1146.516912,-8808.450710,0.000000,1036.288319
1146.517223,-8660.409521,-459.657299,1110.308913
1146.517535,-8068.244768,-689.485948,666.185348
1146.517846,-7772.162391,-459.657299,666.185348
1146.518157,-8216.285956,-153.219100,444.123565
1146.518469,-8512.368333,-383.047749,296.082377
1146.518780,-9326.594869,-459.657299,740.205942
1146.519092,-9844.739029,-612.876398,666.185348
1146.519403,-9770.718434,-459.657299,740.205942
1146.519714,-9696.697840,-306.438199,740.205942
1146.520026,-9548.656652,76.609550,518.144159
1146.520337,-9252.574275,-1149.143247,370.102971
1146.520648,-8734.430116,229.828649,296.082377
1146.520960,-8660.409521,459.657299,-0.000000
1146.521271,-8512.368333,536.266849,296.082377
1146.521583,-8660.409521,383.047749,296.082377
1146.521894,-8734.430116,229.828649,296.082377
1146.522205,-8882.471304,689.485948,74.020594
1146.522517,-9030.512492,459.657299,148.041188
1146.522828,-8586.388927,842.705048,-148.041188
1146.523139,-8734.430116,-229.828649,-0.000000
1146.523451,-9252.574275,-306.438199,-0.000000
1146.523762,-9400.615463,0.000000,296.082377
1146.524073,-9326.594869,229.828649,666.185348
1146.524385,-9696.697840,-383.047749,444.123565
1146.524696,-9474.636058,-383.047749,592.164754
1146.525008,-8882.471304,-306.438199,296.082377
1146.525319,-8364.327145,-459.657299,296.082377
1146.525630,-8068.244768,-766.095498,-0.000000
1146.525942,-8586.388927,0.000000,-0.000000
1146.526253,-8734.430116,-536.266849,-0.000000
1146.526564,-9474.636058,-536.266849,592.164754
1146.526876,-10066.800811,-383.047749,740.205942
1146.527187,-9696.697840,229.828649,592.164754
1146.527499,-9622.677246,0.000000,740.205942
1146.527810,-8660.409521,0.000000,666.185348
1146.528121,-8438.347739,229.828649,222.061783
1146.528433,-8586.388927,459.657299,222.061783
1146.528744,-8438.347739,842.705048,222.061783
1146.529055,-8068.244768,612.876398,148.041188
1146.529367,-8512.368333,536.266849,592.164754
1146.529678,-8808.450710,229.828649,296.082377
1146.529990,-8808.450710,306.438199,370.102971
1146.530301,-9104.533087,0.000000,740.205942
1146.530612,-8882.471304,-153.219100,1110.308913
1146.530924,-8882.471304,-536.266849,1184.329507
1146.531235,-9326.594869,-383.047749,1184.329507
1146.531546,-8734.430116,-306.438199,1258.350101
1146.531858,-8586.388927,-229.828649,1110.308913
1146.532169,-8512.368333,0.000000,1184.329507
1146.532481,-8068.244768,0.000000,666.185348
1146.532792,-8068.244768,-536.266849,444.123565
1146.533103,-7846.182985,-383.047749,444.123565
1146.533415,-8290.306550,-612.876398,666.185348
1146.533726,-8956.491898,-766.095498,370.102971
1146.534037,-9474.636058,-689.485948,888.247130
1146.534349,-9622.677246,-229.828649,814.226536
1146.534660,-10214.842000,-153.219100,666.185348
1146.534972,-9474.636058,612.876398,1036.288319
1146.535283,-9030.512492,-459.657299,888.247130
1146.535594,-8660.409521,0.000000,814.226536
1146.535906,-8734.430116,229.828649,296.082377
1146.536217,-8734.430116,995.924147,148.041188
1146.536528,-8882.471304,919.314598,-0.000000
1146.536840,-8808.450710,153.219100,-0.000000
1146.537151,-9252.574275,459.657299,-296.082377
1146.537463,-9104.533087,383.047749,-0.000000
1146.537774,-8956.491898,612.876398,-74.020594
1146.538085,-9326.594869,0.000000,-0.000000
1146.538397,-9178.553681,0.000000,370.102971
1146.538708,-8882.471304,-229.828649,148.041188
1146.539019,-9474.636058,0.000000,444.123565
1146.539331,-9252.574275,0.000000,592.164754
1146.539642,-9474.636058,153.219100,-74.020594
1146.539953,-8734.430116,919.314598,666.185348
1146.540265,-8364.327145,-153.219100,-0.000000
1146.540576,-8068.244768,-229.828649,-0.000000
1146.540888,-8142.265362,-229.828649,148.041188
1146.541199,-8512.368333,-306.438199,-0.000000
1146.541510,-8364.327145,-536.266849,-0.000000
1146.541822,-8956.491898,-536.266849,-148.041188
1146.542133,-9252.574275,-306.438199,592.164754
1146.542444,-9104.533087,-1378.971896,814.226536
1146.542756,-8956.491898,-766.095498,1110.308913
1146.543067,-9400.615463,-689.485948,814.226536
1146.543379,-9474.636058,0.000000,740.205942
1146.543690,-9400.615463,76.609550,518.144159
1146.544001,-8586.388927,-383.047749,592.164754
1146.544313,-8512.368333,612.876398,370.102971
1146.544624,-7846.182985,689.485948,222.061783
1146.544935,-8290.306550,383.047749,296.082377
1146.545247,-9104.533087,919.314598,666.185348
1146.545558,-9252.574275,306.438199,888.247130
1146.545864,-8956.491898,0.000000,1110.308913
1146.546176,-8956.491898,0.000000,888.247130
1146.546487,-8808.450710,383.047749,222.061783
1146.546799,-8882.471304,-459.657299,666.185348
1146.547110,-8586.388927,0.000000,1036.288319
1146.547422,-9178.553681,0.000000,962.267725
1146.547733,-8882.471304,0.000000,1258.350101
1146.548045,-8882.471304,-536.266849,1110.308913
1146.548356,-8364.327145,-689.485948,962.267725
1146.548668,-8364.327145,-766.095498,888.247130
1146.548980,-8586.388927,-306.438199,296.082377
1146.549291,-7920.203579,-306.438199,592.164754
1146.549603,-8438.347739,-459.657299,1110.308913
1146.549914,-9178.553681,0.000000,1332.370696
1146.550226,-9622.677246,-383.047749,1110.308913
1146.550537,-9696.697840,-229.828649,962.267725
1146.550849,-9252.574275,0.000000,888.247130
1146.551160,-8734.430116,0.000000,518.144159
1146.551472,-8660.409521,919.314598,370.102971
1146.551783,-8364.327145,766.095498,-0.000000
1146.552095,-7772.162391,995.924147,-0.000000
1146.552406,-8438.347739,612.876398,296.082377
1146.552718,-8734.430116,766.095498,148.041188
1146.553029,-8364.327145,842.705048,148.041188
1146.553341,-8808.450710,536.266849,148.041188
1146.553652,-8586.388927,76.609550,-0.000000
1146.553964,-8882.471304,-153.219100,-222.061783
1146.554275,-9548.656652,76.609550,-518.144159
1146.554587,-8660.409521,-153.219100,592.164754
1146.554898,-9918.759623,76.609550,-74.020594
1146.555210,-9992.780217,-459.657299,592.164754
1146.555521,-8956.491898,-689.485948,518.144159
1146.555833,-8512.368333,-612.876398,444.123565
1146.556144,-7994.224174,-536.266849,222.061783
1146.556456,-7920.203579,-229.828649,-74.020594
1146.556768,-8142.265362,-919.314598,148.041188
1146.557079,-8586.388927,-1302.362347,370.102971
1146.557391,-9548.656652,-842.705048,740.205942
1146.557702,-10288.862594,0.000000,666.185348
1146.558014,-10214.842000,0.000000,518.144159
1146.558325,-9770.718434,153.219100,518.144159
1146.558637,-8882.471304,0.000000,592.164754
1146.558948,-8290.306550,-229.828649,-74.020594
1146.559260,-9030.512492,306.438199,-0.000000
1146.559571,-8290.306550,1149.143247,-74.020594
1146.559883,-8364.327145,1072.533697,148.041188
1146.560194,-8660.409521,689.485948,666.185348
1146.560506,-8882.471304,76.609550,740.205942
1146.560817,-8882.471304,-306.438199,518.144159
1146.561129,-9104.533087,0.000000,1036.288319
1146.561440,-9104.533087,76.609550,1110.308913
1146.561752,-9104.533087,-459.657299,814.226536
1146.562063,-9030.512492,-153.219100,1036.288319
1146.562375,-8882.471304,-766.095498,1554.432478
1146.562686,-8586.388927,-689.485948,1110.308913
1146.562998,-8512.368333,-153.219100,1258.350101
1146.563309,-8142.265362,-306.438199,740.205942
1146.563621,-7920.203579,-153.219100,592.164754
1146.563933,-7994.224174,-689.485948,444.123565
1146.564244,-8142.265362,-689.485948,222.061783
1146.564556,-8734.430116,-689.485948,666.185348
1146.564867,-9474.636058,-612.876398,814.226536
1146.565179,-9548.656652,-612.876398,1036.288319
1146.565490,-9474.636058,-383.047749,1036.288319
1146.565802,-9474.636058,-689.485948,888.247130
1146.566113,-8660.409521,-1072.533697,1332.370696
1146.566425,-8290.306550,0.000000,962.267725
1146.566736,-8364.327145,153.219100,740.205942
1146.567048,-8586.388927,766.095498,-0.000000
1146.567359,-8734.430116,612.876398,-0.000000
1146.567671,-8882.471304,689.485948,-0.000000
1146.567982,-8956.491898,612.876398,-0.000000
1146.568294,-9252.574275,995.924147,-0.000000
1146.568605,-9030.512492,1072.533697,-296.082377
1146.568917,-9030.512492,76.609550,-222.061783
1146.569228,-8660.409521,383.047749,222.061783
1146.569540,-9400.615463,0.000000,-0.000000
1146.569851,-9474.636058,0.000000,444.123565
1146.570163,-9400.615463,0.000000,666.185348
1146.570474,-9178.553681,153.219100,148.041188
1146.570786,-8660.409521,383.047749,518.144159
1146.571097,-8290.306550,153.219100,148.041188
1146.571409,-8068.244768,-306.438199,296.082377
1146.571721,-8364.327145,-536.266849,296.082377
1146.572032,-8512.368333,0.000000,296.082377
1146.572344,-8808.450710,-306.438199,-0.000000
1146.572655,-9400.615463,-383.047749,370.102971
1146.572967,-9622.677246,-995.924147,592.164754
1146.573278,-9474.636058,-1225.752797,814.226536
1146.573590,-9326.594869,-536.266849,666.185348
1146.573901,-9622.677246,-153.219100,444.123565
1146.574213,-9400.615463,0.000000,592.164754
1146.574524,-9326.594869,-153.219100,518.144159
1146.574836,-8808.450710,153.219100,666.185348
1146.575147,-8290.306550,306.438199,370.102971
1146.575459,-8364.327145,383.047749,592.164754
1146.575770,-8216.285956,229.828649,444.123565
1146.576082,-8512.368333,306.438199,370.102971
1146.576393,-9030.512492,306.438199,592.164754
1146.576705,-9178.553681,-383.047749,1036.288319
1146.577016,-9252.574275,-383.047749,1036.288319
1146.577328,-9400.615463,-459.657299,740.205942
1146.577639,-8734.430116,-459.657299,1110.308913
1146.577951,-8734.430116,-229.828649,962.267725
1146.578262,-8512.368333,-459.657299,1184.329507
1146.578574,-8438.347739,-306.438199,1406.391290
1146.578885,-8808.450710,-612.876398,888.247130
1146.579197,-8290.306550,-689.485948,814.226536
1146.579509,-8142.265362,-536.266849,592.164754
1146.579820,-8586.388927,-536.266849,444.123565
1146.580132,-8586.388927,-689.485948,444.123565
1146.580443,-8882.471304,-766.095498,592.164754
1146.580755,-9326.594869,0.000000,592.164754
1146.581066,-9474.636058,-536.266849,888.247130
1146.581378,-9622.677246,153.219100,1036.288319
1146.581689,-9474.636058,-229.828649,592.164754
1146.582001,-8808.450710,229.828649,222.061783
1146.582312,-8882.471304,689.485948,-0.000000
1146.582624,-8364.327145,1149.143247,-0.000000
1146.582935,-8142.265362,995.924147,-148.041188
1146.583247,-8586.388927,1378.971896,222.061783
1146.583558,-9178.553681,229.828649,-0.000000
1146.583870,-8586.388927,536.266849,-0.000000
1146.584181,-9400.615463,383.047749,370.102971
1146.584493,-9252.574275,536.266849,148.041188
1146.584804,-9178.553681,76.609550,-222.061783
1146.585116,-9548.656652,76.609550,-0.000000
1146.585427,-9104.533087,383.047749,222.061783
1146.585739,-9474.636058,153.219100,370.102971
1146.586050,-9104.533087,0.000000,518.144159
1146.586362,-8956.491898,153.219100,444.123565
1146.586674,-8364.327145,-383.047749,296.082377
1146.586985,-8142.265362,-153.219100,222.061783
1146.587297,-8290.306550,-153.219100,-148.041188
1146.587608,-8290.306550,0.000000,148.041188
1146.587920,-9252.574275,-766.095498,222.061783
1146.588231,-9770.718434,0.000000,814.226536
1146.588543,-10066.800811,-842.705048,740.205942
1146.588854,-10140.821405,-306.438199,666.185348
1146.589166,-9104.533087,229.828649,740.205942
1146.589477,-8660.409521,0.000000,814.226536
1146.589789,-8512.368333,-153.219100,296.082377
1146.590100,-8068.244768,76.609550,370.102971
1146.590412,-8290.306550,0.000000,-0.000000
1146.590723,-8290.306550,995.924147,740.205942
1146.591035,-8808.450710,459.657299,740.205942
1146.591346,-9252.574275,76.609550,814.226536
1146.591658,-8956.491898,-689.485948,666.185348
1146.591969,-8734.430116,-459.657299,888.247130
1146.592281,-8586.388927,76.609550,1036.288319
1146.592592,-8882.471304,76.609550,444.123565
1146.592904,-9178.553681,-153.219100,888.247130
1146.593215,-8734.430116,-383.047749,962.267725
1146.593527,-8808.450710,-459.657299,1036.288319
1146.593838,-8512.368333,0.000000,740.205942
1146.594150,-8290.306550,-229.828649,518.144159
1146.594462,-8068.244768,-689.485948,222.061783
1146.594773,-8142.265362,-766.095498,518.144159
1146.595085,-8882.471304,-842.705048,222.061783
1146.595396,-8586.388927,-536.266849,444.123565
1146.595708,-9548.656652,-766.095498,740.205942
1146.596019,-10140.821405,-536.266849,740.205942
1146.596331,-9474.636058,-306.438199,1036.288319
1146.596642,-9474.636058,-229.828649,962.267725
1146.596954,-9030.512492,0.000000,814.226536
1146.597265,-8882.471304,229.828649,370.102971
1146.597577,-9252.574275,689.485948,-0.000000
1146.597888,-8956.491898,0.000000,-74.020594
1146.598200,-8882.471304,1455.581446,-222.061783
1146.598511,-8734.430116,689.485948,148.041188
1146.598823,-9178.553681,536.266849,-74.020594
1146.599134,-9030.512492,995.924147,148.041188
1146.599446,-9030.512492,306.438199,-0.000000
1146.599757,-9030.512492,0.000000,222.061783
1146.600069,-8438.347739,306.438199,370.102971
1146.600380,-8808.450710,-229.828649,-0.000000
1146.600692,-9104.533087,-536.266849,296.082377
1146.601003,-8956.491898,153.219100,666.185348
1146.601315,-9326.594869,306.438199,518.144159
1146.601626,-8364.327145,76.609550,740.205942
1146.601938,-8364.327145,-306.438199,518.144159
1146.602250,-7846.182985,-842.705048,148.041188
1146.602561,-7994.224174,-383.047749,370.102971
1146.602873,-8290.306550,76.609550,370.102971
1146.603184,-8660.409521,0.000000,222.061783
1146.603496,-9474.636058,-919.314598,592.164754
1146.603807,-9622.677246,-1072.533697,888.247130
1146.604119,-9030.512492,-766.095498,740.205942
1146.604430,-9474.636058,-153.219100,888.247130
1146.604742,-9104.533087,0.000000,814.226536
1146.605053,-9104.533087,0.000000,-0.000000
1146.605365,-8734.430116,76.609550,444.123565
1146.605676,-8808.450710,229.828649,-74.020594
1146.605988,-8216.285956,229.828649,518.144159
1146.606299,-8808.450710,383.047749,592.164754
1146.606611,-8956.491898,229.828649,592.164754
1146.606922,-9104.533087,229.828649,814.226536
1146.607234,-9474.636058,459.657299,888.247130
1146.607545,-9030.512492,-306.438199,740.205942
1146.607857,-8438.347739,-536.266849,740.205942
1146.608168,-9104.533087,-153.219100,444.123565
1146.608480,-9178.553681,0.000000,666.185348
1146.608791,-9252.574275,76.609550,740.205942
1146.609103,-9474.636058,0.000000,962.267725
1146.609414,-8882.471304,-612.876398,1184.329507
1146.609726,-8512.368333,-842.705048,666.185348
1146.610038,-8068.244768,-689.485948,592.164754
1146.610349,-7994.224174,-612.876398,370.102971
1146.610661,-8068.244768,-689.485948,814.226536
1146.610972,-8586.388927,-689.485948,592.164754
1146.611284,-8956.491898,-612.876398,814.226536
1146.611595,-9474.636058,-383.047749,1110.308913
1146.611907,-9474.636058,0.000000,962.267725
1146.612218,-9252.574275,383.047749,592.164754
1146.612530,-9178.553681,536.266849,740.205942
1146.612841,-8956.491898,153.219100,-0.000000
1146.613153,-8808.450710,459.657299,-74.020594
1146.613464,-8512.368333,1072.533697,-0.000000
1146.613776,-8290.306550,995.924147,-0.000000
1146.614087,-8808.450710,842.705048,592.164754
1146.614399,-8734.430116,536.266849,666.185348
1146.614710,-8438.347739,842.705048,148.041188
1146.615022,-8734.430116,306.438199,222.061783
1146.615333,-8956.491898,919.314598,-0.000000
1146.615645,-9252.574275,0.000000,-296.082377
1146.615956,-9622.677246,76.609550,-0.000000
1146.616268,-9326.594869,306.438199,592.164754
1146.616579,-9252.574275,0.000000,666.185348
1146.616891,-9326.594869,153.219100,1036.288319
1146.617203,-9178.553681,-383.047749,370.102971
1146.617514,-8216.285956,-383.047749,-0.000000
1146.617826,-7772.162391,-153.219100,148.041188
1146.618137,-8438.347739,0.000000,-222.061783
1146.618449,-8438.347739,76.609550,-0.000000
1146.618760,-9474.636058,-536.266849,296.082377
1146.619072,-9474.636058,-536.266849,814.226536
1146.619383,-9770.718434,-153.219100,518.144159
1146.619695,-9770.718434,383.047749,1036.288319
1146.620006,-9474.636058,-612.876398,666.185348
1146.620318,-8586.388927,-459.657299,518.144159
1146.620629,-8438.347739,-383.047749,444.123565
1146.620941,-8438.347739,0.000000,370.102971
1146.621252,-8586.388927,0.000000,592.164754
1146.621564,-8808.450710,459.657299,592.164754
1146.621875,-8956.491898,229.828649,666.185348
1146.622187,-9178.553681,153.219100,518.144159
1146.622498,-8956.491898,-383.047749,370.102971
1146.622810,-8512.368333,-459.657299,962.267725
1146.623121,-8586.388927,-306.438199,1110.308913
1146.623433,-8956.491898,-383.047749,666.185348
1146.623744,-9178.553681,-153.219100,1110.308913
1146.624056,-8956.491898,0.000000,1110.308913
1146.624367,-9326.594869,-842.705048,666.185348
1146.624679,-8512.368333,76.609550,740.205942
1146.624991,-7920.203579,-153.219100,592.164754
1146.625302,-8290.306550,-1072.533697,-0.000000
1146.625614,-8290.306550,-919.314598,370.102971
1146.625925,-8660.409521,-689.485948,370.102971
1146.626237,-8956.491898,-612.876398,370.102971
1146.626548,-9548.656652,-383.047749,518.144159
1146.626860,-9474.636058,0.000000,888.247130
1146.627171,-9400.615463,153.219100,444.123565
1146.627483,-9326.594869,383.047749,1036.288319
1146.627794,-8956.491898,0.000000,518.144159
1146.628106,-9104.533087,153.219100,370.102971
1146.628417,-9178.553681,919.314598,370.102971
1146.628729,-9326.594869,919.314598,-0.000000
1146.629040,-8660.409521,842.705048,74.020594
1146.629352,-8808.450710,842.705048,222.061783
1146.629663,-9474.636058,459.657299,-222.061783
1146.629975,-8882.471304,459.657299,-0.000000
1146.630286,-8882.471304,229.828649,-0.000000
1146.630598,-8956.491898,0.000000,296.082377
1146.630909,-8808.450710,0.000000,740.205942
1146.631221,-9474.636058,-536.266849,296.082377
1146.631532,-9252.574275,306.438199,740.205942
1146.631844,-9326.594869,-383.047749,666.185348
1146.632155,-9622.677246,0.000000,740.205942
1146.632467,-8734.430116,229.828649,814.226536
1146.632779,-8364.327145,-229.828649,666.185348
1146.633090,-8142.265362,-383.047749,370.102971
1146.633402,-8142.265362,-383.047749,296.082377
1146.633713,-8660.409521,0.000000,-0.000000
1146.634025,-8734.430116,153.219100,592.164754
1146.634336,-9030.512492,-536.266849,148.041188
1146.634648,-8734.430116,-919.314598,1110.308913
1146.634959,-8808.450710,-766.095498,1110.308913
1146.635271,-9326.594869,-459.657299,740.205942
1146.635582,-9400.615463,0.000000,1110.308913
1146.635894,-9326.594869,-153.219100,444.123565
1146.636205,-9400.615463,0.000000,1110.308913
1146.636517,-8290.306550,306.438199,666.185348
1146.636828,-8068.244768,229.828649,370.102971
1146.637140,-7994.224174,153.219100,518.144159
1146.637451,-8660.409521,383.047749,888.247130
1146.637763,-8734.430116,459.657299,740.205942
1146.638074,-9178.553681,306.438199,888.247130
1146.638386,-9252.574275,153.219100,814.226536
1146.638697,-8956.491898,536.266849,370.102971
1146.639009,-9104.533087,-153.219100,370.102971
1146.639320,-8808.450710,153.219100,592.164754
1146.639632,-9104.533087,-229.828649,444.123565
1146.639944,-9252.574275,76.609550,814.226536
1146.640255,-8882.471304,-459.657299,962.267725
1146.640567,-8290.306550,-459.657299,888.247130
1146.640878,-8290.306550,-766.095498,666.185348
1146.641190,-8142.265362,-842.705048,296.082377
1146.641501,-7920.203579,0.000000,444.123565
1146.641813,-8734.430116,-229.828649,444.123565
1146.642124,-9030.512492,-459.657299,592.164754
1146.642436,-9622.677246,-459.657299,814.226536
1146.642747,-9844.739029,-689.485948,814.226536
1146.643059,-9622.677246,-919.314598,962.267725
1146.643370,-9030.512492,-612.876398,888.247130
1146.643682,-9326.594869,-306.438199,222.061783
1146.643993,-8956.491898,766.095498,-0.000000
1146.644305,-8216.285956,842.705048,444.123565
1146.644616,-8364.327145,766.095498,-0.000000
1146.644928,-8660.409521,536.266849,148.041188
1146.645239,-8882.471304,536.266849,518.144159
1146.645551,-8734.430116,306.438199,148.041188
1146.645862,-8586.388927,536.266849,-0.000000
1146.646174,-8808.450710,842.705048,-0.000000
1146.646485,-9104.533087,383.047749,-0.000000
1146.646797,-9030.512492,153.219100,296.082377
1146.647108,-9400.615463,306.438199,370.102971
1146.647420,-9548.656652,0.000000,296.082377
1146.647732,-9400.615463,0.000000,1110.308913
1146.648043,-9030.512492,-229.828649,666.185348
1146.648355,-8438.347739,229.828649,296.082377
1146.648666,-8068.244768,0.000000,-0.000000
1146.648977,-8586.388927,-229.828649,-74.020594
1146.649289,-7994.224174,0.000000,-0.000000
1146.649600,-9178.553681,-459.657299,518.144159
1146.649912,-9770.718434,-306.438199,962.267725
1146.650223,-9918.759623,-229.828649,666.185348
1146.650535,-9844.739029,-306.438199,1036.288319
1146.650846,-9326.594869,-306.438199,740.205942
1146.651158,-8586.388927,-306.438199,962.267725
1146.651469,-8364.327145,0.000000,296.082377
1146.651781,-7994.224174,-229.828649,666.185348
1146.652092,-8438.347739,306.438199,518.144159
1146.652404,-8808.450710,153.219100,666.185348
1146.652715,-9104.533087,76.609550,518.144159
1146.653026,-8586.388927,229.828649,740.205942
1146.653338,-9104.533087,-229.828649,296.082377
1146.653649,-8882.471304,-229.828649,1110.308913
1146.653961,-8364.327145,0.000000,962.267725
1146.654272,-9326.594869,-459.657299,444.123565
1146.654584,-9030.512492,-383.047749,1036.288319
1146.654895,-9178.553681,-153.219100,962.267725
1146.655207,-9104.533087,-689.485948,1036.288319
1146.655518,-7994.224174,-612.876398,814.226536
1146.655830,-7994.224174,-383.047749,-74.020594
1146.656141,-7772.162391,-612.876398,592.164754
1146.656452,-7994.224174,-536.266849,-74.020594
1146.656764,-8808.450710,-995.924147,370.102971
1146.657075,-9326.594869,-766.095498,444.123565
1146.657387,-9844.739029,-536.266849,740.205942
1146.657698,-9992.780217,-536.266849,962.267725
1146.658010,-9770.718434,-689.485948,592.164754
1146.658321,-9474.636058,-306.438199,888.247130
1146.658633,-8956.491898,-383.047749,592.164754
1146.658944,-8586.388927,-306.438199,222.061783
1146.659256,-8956.491898,536.266849,222.061783
1146.659567,-8956.491898,1072.533697,-296.082377
1146.659879,-8956.491898,842.705048,-222.061783
1146.660190,-9252.574275,995.924147,148.041188
1146.660501,-9548.656652,536.266849,-0.000000
1146.660813,-8734.430116,0.000000,-0.000000
1146.661124,-9252.574275,0.000000,-0.000000
1146.661436,-8734.430116,306.438199,444.123565
1146.661747,-8882.471304,0.000000,148.041188
1146.662059,-9252.574275,0.000000,370.102971
1146.662370,-8882.471304,229.828649,592.164754
1146.662682,-9178.553681,306.438199,444.123565
1146.662993,-8808.450710,766.095498,888.247130
1146.663305,-8438.347739,459.657299,444.123565
1146.663616,-8216.285956,383.047749,296.082377
1146.663927,-8068.244768,-153.219100,592.164754
1146.664239,-8364.327145,-229.828649,222.061783
1146.664550,-8364.327145,0.000000,296.082377
1146.664862,-8956.491898,-383.047749,518.144159
1146.665173,-9178.553681,-689.485948,740.205942
1146.665485,-8808.450710,-536.266849,1184.329507
1146.665796,-9030.512492,-689.485948,518.144159
1146.666108,-9474.636058,-229.828649,592.164754
1146.666419,-9104.533087,0.000000,740.205942
1146.666731,-9030.512492,76.609550,666.185348
1146.667042,-8808.450710,76.609550,666.185348
1146.667354,-8364.327145,153.219100,592.164754
1146.667665,-8438.347739,689.485948,518.144159
1146.667976,-8142.265362,766.095498,518.144159
1146.668288,-9178.553681,383.047749,444.123565
1146.668599,-8956.491898,153.219100,1258.350101
1146.668911,-9252.574275,-153.219100,1036.288319
1146.669222,-9178.553681,-383.047749,962.267725
1146.669534,-8956.491898,-536.266849,740.205942
1146.669845,-9104.533087,-229.828649,888.247130
1146.670157,-8956.491898,0.000000,888.247130
1146.670468,-9178.553681,-383.047749,518.144159
1146.670780,-8734.430116,-306.438199,1628.453072
1146.671091,-9178.553681,-689.485948,740.205942
1146.671402,-8364.327145,-995.924147,592.164754
1146.671714,-8142.265362,-689.485948,740.205942
1146.672025,-8512.368333,-459.657299,296.082377
1146.672337,-8438.347739,-306.438199,296.082377
1146.672648,-9178.553681,-229.828649,222.061783
1146.672960,-9474.636058,0.000000,592.164754
1146.673271,-9326.594869,-153.219100,592.164754
1146.673583,-9622.677246,0.000000,666.185348
1146.673894,-9178.553681,229.828649,518.144159
1146.674206,-8660.409521,229.828649,148.041188
1146.674517,-9030.512492,459.657299,-0.000000
1146.674829,-9030.512492,919.314598,-74.020594
1146.675140,-8586.388927,1072.533697,-148.041188
1146.675451,-8734.430116,766.095498,74.020594
1146.675763,-8882.471304,689.485948,518.144159
1146.676074,-9178.553681,459.657299,296.082377
1146.676386,-9104.533087,0.000000,-0.000000
1146.676697,-8512.368333,0.000000,296.082377
1146.677009,-8586.388927,229.828649,-0.000000
1146.677320,-9474.636058,459.657299,-0.000000
1146.677632,-9030.512492,536.266849,296.082377
1146.677943,-9252.574275,229.828649,222.061783
1146.678255,-9400.615463,0.000000,296.082377
1146.678566,-9326.594869,76.609550,666.185348
1146.678877,-8956.491898,-76.609550,592.164754
1146.679189,-8364.327145,-689.485948,444.123565
1146.679500,-8142.265362,-459.657299,370.102971
1146.679812,-8290.306550,0.000000,-0.000000
1146.680123,-8438.347739,-306.438199,518.144159
1146.680435,-8956.491898,-383.047749,592.164754
1146.680746,-9548.656652,-536.266849,666.185348
1146.681058,-9474.636058,-153.219100,962.267725
1146.681369,-9252.574275,0.000000,740.205942
1146.681681,-8734.430116,0.000000,962.267725
1146.681992,-8438.347739,0.000000,518.144159
1146.682304,-8512.368333,0.000000,296.082377
1146.682615,-8882.471304,0.000000,296.082377
1146.682926,-8512.368333,0.000000,666.185348
1146.683238,-9030.512492,76.609550,888.247130
1146.683549,-9178.553681,0.000000,666.185348
1146.683861,-8660.409521,-689.485948,1110.308913
1146.684172,-9252.574275,-689.485948,1036.288319
1146.684484,-9178.553681,-306.438199,888.247130
1146.684795,-8808.450710,-229.828649,1110.308913
1146.685107,-9474.636058,76.609550,888.247130
1146.685418,-8808.450710,-306.438199,962.267725
1146.685730,-8808.450710,0.000000,962.267725
1146.686041,-8364.327145,-383.047749,888.247130
1146.686352,-8142.265362,0.000000,444.123565
1146.686664,-7994.224174,-306.438199,592.164754
1146.686975,-8512.368333,-536.266849,1036.288319
1146.687287,-8808.450710,-842.705048,296.082377
1146.687598,-9104.533087,383.047749,518.144159
1146.687910,-9622.677246,0.000000,814.226536
1146.688221,-9696.697840,-306.438199,740.205942
1146.688533,-9696.697840,-306.438199,888.247130
1146.688844,-9400.615463,-153.219100,518.144159
1146.689156,-8956.491898,153.219100,518.144159
1146.689467,-8956.491898,842.705048,370.102971
1146.689779,-8512.368333,842.705048,-0.000000
1146.690090,-8660.409521,919.314598,370.102971
1146.690401,-8882.471304,1302.362347,-296.082377
1146.690713,-8808.450710,459.657299,-74.020594
1146.691024,-9104.533087,459.657299,148.041188
1146.691336,-9178.553681,536.266849,148.041188
1146.691647,-8956.491898,383.047749,-0.000000
1146.691959,-9178.553681,0.000000,-0.000000
1146.692270,-8364.327145,-383.047749,444.123565
1146.692582,-8586.388927,0.000000,-370.102971
1146.692893,-9104.533087,76.609550,296.082377
1146.693205,-9252.574275,0.000000,-0.000000
1146.693516,-9400.615463,0.000000,296.082377
1146.693827,-9252.574275,306.438199,740.205942
1146.694139,-8956.491898,76.609550,296.082377
1146.694450,-8290.306550,-383.047749,-0.000000
1146.694762,-8808.450710,-842.705048,370.102971
1146.695073,-8660.409521,-229.828649,370.102971
1146.695385,-8660.409521,-383.047749,370.102971
1146.695696,-8734.430116,-383.047749,592.164754
1146.696008,-9178.553681,-842.705048,518.144159
1146.696319,-9326.594869,-919.314598,888.247130
1146.696631,-9770.718434,-995.924147,666.185348
1146.696942,-9400.615463,-383.047749,962.267725
1146.697254,-9104.533087,0.000000,1036.288319
1146.697565,-9178.553681,0.000000,444.123565
1146.697876,-9030.512492,76.609550,740.205942
1146.698188,-8882.471304,459.657299,740.205942
1146.698499,-8512.368333,306.438199,1036.288319
1146.698811,-8956.491898,306.438199,888.247130
1146.699122,-9252.574275,306.438199,1110.308913
1146.699434,-8956.491898,76.609550,962.267725
1146.699745,-8660.409521,-306.438199,1110.308913
1146.700057,-8068.244768,0.000000,1406.391290
1146.700368,-8734.430116,-306.438199,444.123565
1146.700680,-8882.471304,0.000000,592.164754
1146.700991,-9178.553681,153.219100,666.185348
1146.701302,-9252.574275,-153.219100,592.164754
1146.701614,-9104.533087,0.000000,888.247130
1146.701925,-8364.327145,-612.876398,1258.350101
1146.702237,-7920.203579,-689.485948,814.226536
1146.702548,-7624.121203,-383.047749,592.164754
1146.702860,-8290.306550,0.000000,444.123565
1146.703171,-8586.388927,0.000000,592.164754
1146.703483,-8586.388927,-153.219100,740.205942
1146.703794,-8956.491898,-306.438199,740.205942
1146.704106,-9400.615463,-383.047749,296.082377
1146.704417,-9474.636058,383.047749,666.185348
1146.704729,-9474.636058,0.000000,296.082377
1146.705040,-8586.388927,0.000000,444.123565
1146.705351,-9030.512492,153.219100,222.061783
1146.705663,-8660.409521,229.828649,148.041188
1146.705974,-8068.244768,612.876398,296.082377
1146.706286,-8290.306550,459.657299,592.164754
1146.706597,-9104.533087,0.000000,592.164754
1146.706909,-8956.491898,383.047749,-0.000000
1146.707220,-8808.450710,536.266849,222.061783
1146.707532,-8660.409521,306.438199,148.041188
1146.707843,-9030.512492,306.438199,-148.041188
1146.708155,-9474.636058,153.219100,-444.123565
1146.708466,-9474.636058,0.000000,-148.041188
1146.708777,-9548.656652,153.219100,444.123565
1146.709089,-9548.656652,-306.438199,370.102971
1146.709400,-9548.656652,-612.876398,740.205942
1146.709712,-9178.553681,76.609550,592.164754
1146.710023,-8734.430116,-612.876398,296.082377
1146.710335,-8216.285956,-229.828649,-0.000000
1146.710646,-8364.327145,-459.657299,296.082377
1146.710958,-8734.430116,-842.705048,444.123565
1146.711269,-9696.697840,-1532.190996,740.205942
1146.711581,-9696.697840,-842.705048,1036.288319
1146.711892,-9770.718434,-689.485948,814.226536
1146.712204,-9548.656652,-306.438199,518.144159
1146.712515,-8660.409521,-229.828649,814.226536
1146.712826,-8512.368333,-766.095498,518.144159
1146.713138,-8586.388927,-229.828649,592.164754
1146.713449,-8734.430116,459.657299,740.205942
1146.713761,-8660.409521,612.876398,592.164754
1146.714072,-8882.471304,689.485948,888.247130
1146.714384,-9030.512492,459.657299,962.267725
1146.714695,-8512.368333,0.000000,444.123565
1146.715007,-8808.450710,76.609550,888.247130
1146.715318,-8956.491898,229.828649,1184.329507
1146.715630,-8882.471304,0.000000,666.185348
1146.715941,-9030.512492,0.000000,1184.329507
1146.716252,-8512.368333,229.828649,1110.308913
1146.716564,-8512.368333,-536.266849,740.205942
1146.716875,-8438.347739,-153.219100,1036.288319
1146.717187,-8290.306550,0.000000,888.247130
1146.717498,-7994.224174,-229.828649,666.185348
1146.717810,-8068.244768,0.000000,740.205942
1146.718121,-8142.265362,-229.828649,444.123565
1146.718433,-8586.388927,-766.095498,222.061783
1146.718744,-9474.636058,-229.828649,518.144159
1146.719056,-9178.553681,0.000000,444.123565
1146.719367,-9326.594869,229.828649,1036.288319
1146.719679,-9770.718434,-153.219100,814.226536
1146.719990,-9400.615463,-459.657299,962.267725
1146.720301,-8808.450710,-536.266849,740.205942
1146.720613,-8808.450710,0.000000,370.102971
1146.720924,-8808.450710,842.705048,-0.000000
1146.721236,-8364.327145,766.095498,148.041188
1146.721547,-8512.368333,919.314598,-0.000000
1146.721859,-8734.430116,153.219100,-0.000000
1146.722170,-9104.533087,536.266849,-0.000000
1146.722482,-9178.553681,689.485948,-0.000000
1146.722793,-9030.512492,229.828649,-0.000000
1146.723105,-8660.409521,0.000000,296.082377
1146.723416,-8734.430116,-536.266849,-0.000000
1146.723727,-9474.636058,-229.828649,444.123565
1146.724039,-9770.718434,-536.266849,666.185348
1146.724350,-9770.718434,229.828649,370.102971
1146.724662,-9326.594869,153.219100,962.267725
1146.724973,-9030.512492,0.000000,518.144159
1146.725285,-8660.409521,-919.314598,370.102971
1146.725596,-8512.368333,-459.657299,370.102971
1146.725908,-8512.368333,-153.219100,-0.000000
1146.726219,-8290.306550,-536.266849,370.102971
1146.726531,-8734.430116,-306.438199,370.102971
1146.726842,-9474.636058,-1072.533697,444.123565
1146.727154,-8956.491898,-1149.143247,1036.288319
1146.727465,-9326.594869,-842.705048,814.226536
1146.727776,-9770.718434,-306.438199,740.205942
1146.728088,-9622.677246,0.000000,222.061783
1146.728399,-9474.636058,459.657299,370.102971
1146.728711,-8290.306550,306.438199,148.041188
1146.729022,-8216.285956,689.485948,-74.020594
1146.729334,-8142.265362,459.657299,592.164754
1146.729645,-8586.388927,612.876398,592.164754
1146.729957,-8734.430116,689.485948,666.185348
1146.730268,-8882.471304,229.828649,666.185348
1146.730580,-8660.409521,229.828649,518.144159
1146.730891,-8882.471304,306.438199,444.123565
1146.731202,-8734.430116,-229.828649,962.267725
1146.731514,-8660.409521,-153.219100,666.185348
1146.731825,-8586.388927,0.000000,888.247130
1146.732137,-9104.533087,-383.047749,814.226536
1146.732448,-8956.491898,-536.266849,1110.308913
1146.732760,-8734.430116,-383.047749,1110.308913
1146.733071,-8142.265362,-229.828649,740.205942
1146.733383,-7772.162391,-766.095498,592.164754
1146.733694,-8290.306550,0.000000,370.102971
1146.734006,-8290.306550,-536.266849,148.041188
1146.734317,-8808.450710,-612.876398,592.164754
1146.734629,-9252.574275,-459.657299,814.226536
1146.734940,-9474.636058,-536.266849,592.164754
1146.735251,-9622.677246,0.000000,592.164754
1146.735563,-9326.594869,0.000000,222.061783
1146.735874,-9030.512492,536.266849,370.102971
1146.736186,-9030.512492,-766.095498,296.082377
1146.736497,-8808.450710,153.219100,444.123565
1146.736809,-8512.368333,459.657299,-0.000000
1146.737120,-8882.471304,612.876398,296.082377
1146.737432,-9178.553681,383.047749,296.082377
1146.737743,-9400.615463,0.000000,-74.020594
1146.738055,-8956.491898,766.095498,444.123565
1146.738366,-8956.491898,459.657299,-0.000000
1146.738677,-8882.471304,-153.219100,-74.020594
1146.738989,-9548.656652,0.000000,-0.000000
1146.739300,-9474.636058,0.000000,222.061783
1146.739612,-9622.677246,-153.219100,296.082377
1146.739923,-9474.636058,-153.219100,518.144159
1146.740235,-9178.553681,-306.438199,370.102971
1146.740546,-9178.553681,-306.438199,296.082377
1146.740858,-8734.430116,0.000000,518.144159
1146.741169,-8142.265362,-612.876398,148.041188
1146.741481,-7994.224174,-306.438199,296.082377
1146.741792,-8734.430116,-612.876398,296.082377
1146.742104,-9104.533087,-919.314598,814.226536
1146.742415,-9622.677246,-459.657299,962.267725
1146.742726,-9400.615463,-153.219100,888.247130
1146.743038,-9474.636058,0.000000,444.123565
1146.743349,-9030.512492,-459.657299,666.185348
1146.743661,-8586.388927,0.000000,222.061783
1146.743972,-8512.368333,0.000000,222.061783
1146.744284,-8512.368333,612.876398,592.164754
1146.744595,-8512.368333,842.705048,370.102971
1146.744907,-8660.409521,612.876398,518.144159
1146.745218,-8142.265362,153.219100,666.185348
1146.745530,-8142.265362,0.000000,518.144159
1146.745841,-8142.265362,-536.266849,888.247130
1146.746152,-8808.450710,0.000000,814.226536
1146.746464,-8956.491898,-306.438199,666.185348
1146.746775,-9104.533087,-229.828649,1110.308913
1146.747087,-9178.553681,-229.828649,1184.329507
1146.747398,-9474.636058,-536.266849,740.205942
1146.747710,-8438.347739,153.219100,1628.453072
1146.748021,-7994.224174,536.266849,370.102971
1146.748333,-7550.100608,-383.047749,-0.000000
1146.748644,-8068.244768,-153.219100,370.102971
1146.748956,-8734.430116,-383.047749,296.082377
1146.749267,-8956.491898,-766.095498,740.205942
1146.749579,-9622.677246,-536.266849,814.226536
1146.749890,-9844.739029,-459.657299,740.205942
1146.750202,-10066.800811,-459.657299,444.123565
1146.750513,-9696.697840,-153.219100,740.205942
1146.750824,-8660.409521,-153.219100,740.205942
1146.751136,-8808.450710,-536.266849,296.082377
1146.751447,-9178.553681,76.609550,370.102971
1146.751759,-9178.553681,536.266849,-0.000000
1146.752070,-8660.409521,995.924147,222.061783
1146.752382,-8882.471304,1302.362347,-0.000000
1146.752693,-9326.594869,842.705048,-74.020594
1146.753005,-8808.450710,919.314598,-444.123565
1146.753316,-9178.553681,612.876398,-222.061783
1146.753628,-8808.450710,536.266849,-0.000000
1146.753939,-8956.491898,383.047749,-0.000000
1146.754251,-9326.594869,-459.657299,-74.020594
1146.754562,-9474.636058,-612.876398,518.144159
1146.754874,-9474.636058,-459.657299,370.102971
1146.755185,-9622.677246,229.828649,296.082377
1146.755497,-8956.491898,76.609550,740.205942
1146.755808,-8586.388927,-459.657299,444.123565
1146.756119,-8068.244768,-766.095498,592.164754
1146.756431,-7846.182985,-612.876398,222.061783
1146.756742,-8142.265362,-153.219100,148.041188
1146.757054,-8216.285956,-229.828649,518.144159
1146.757365,-8808.450710,-306.438199,666.185348
1146.757677,-8956.491898,-306.438199,666.185348
1146.757988,-9104.533087,-766.095498,666.185348
1146.758300,-9474.636058,-1072.533697,1258.350101
1146.758611,-9696.697840,-612.876398,1258.350101
1146.758923,-9622.677246,-153.219100,814.226536
1146.759234,-9252.574275,0.000000,740.205942
1146.759546,-8364.327145,689.485948,370.102971
1146.759857,-7772.162391,995.924147,222.061783
1146.760169,-7846.182985,1072.533697,518.144159
1146.760480,-8216.285956,459.657299,518.144159
1146.760791,-8586.388927,689.485948,740.205942
1146.761103,-8956.491898,612.876398,1036.288319
1146.761414,-8956.491898,153.219100,740.205942
1146.761726,-8808.450710,0.000000,740.205942
1146.762037,-9252.574275,153.219100,444.123565
1146.762349,-8882.471304,0.000000,370.102971
1146.762660,-8882.471304,0.000000,592.164754
1146.762972,-9104.533087,-229.828649,592.164754
1146.763283,-9178.553681,-459.657299,1110.308913
1146.763595,-8660.409521,-459.657299,814.226536
1146.763906,-8290.306550,-383.047749,592.164754
