#time,accel_x,accel_y,accel_z
1488.369761,-9104.533087,-383.047749,444.123565
1488.370072,-8734.430116,76.609550,1110.308913
1488.370383,-8586.388927,76.609550,444.123565
1488.370695,-8808.450710,0.000000,592.164754
1488.371006,-8956.491898,153.219100,518.144159
1488.371317,-8956.491898,0.000000,444.123565
1488.371629,-8956.491898,0.000000,666.185348
1488.371940,-9030.512492,0.000000,444.123565
1488.372251,-8956.491898,153.219100,814.226536
1488.372563,-8586.388927,-306.438199,740.205942
1488.372874,-8734.430116,383.047749,962.267725
1488.373185,-8956.491898,0.000000,518.144159
1488.373497,-8882.471304,76.609550,666.185348
1488.373808,-9104.533087,76.609550,444.123565
1488.374119,-9030.512492,0.000000,518.144159
1488.374431,-9104.533087,0.000000,148.041188
1488.374742,-8956.491898,0.000000,888.247130
1488.375053,-9030.512492,153.219100,222.061783
1488.375365,-8660.409521,0.000000,518.144159
1488.375676,-8882.471304,0.000000,518.144159
1488.375987,-8956.491898,-229.828649,740.205942
1488.376299,-8882.471304,-153.219100,592.164754
1488.376610,-8956.491898,-153.219100,592.164754
1488.376921,-9104.533087,306.438199,-0.000000
1488.377233,-8808.450710,0.000000,444.123565
1488.377544,-8956.491898,0.000000,592.164754
1488.377855,-8808.450710,0.000000,444.123565
1488.378167,-8882.471304,0.000000,740.205942
1488.378478,-8808.450710,153.219100,666.185348
1488.378789,-8882.471304,0.000000,518.144159
1488.379101,-9030.512492,0.000000,518.144159
1488.379412,-9104.533087,306.438199,518.144159
1488.379724,-8882.471304,-612.876398,592.164754
1488.380035,-8438.347739,-229.828649,592.164754
1488.380346,-9104.533087,0.000000,444.123565
1488.380658,-8882.471304,0.000000,518.144159
1488.380969,-8882.471304,-153.219100,592.164754
1488.381280,-8956.491898,0.000000,518.144159
1488.381592,-8808.450710,-153.219100,592.164754
1488.381903,-9400.615463,0.000000,222.061783
1488.382214,-8956.491898,383.047749,148.041188
1488.382526,-9030.512492,-306.438199,444.123565
1488.382837,-9178.553681,229.828649,444.123565
1488.383148,-8956.491898,0.000000,444.123565
1488.383460,-9030.512492,0.000000,518.144159
1488.383771,-8956.491898,-153.219100,740.205942
1488.384082,-9030.512492,-459.657299,370.102971
1488.384394,-8956.491898,229.828649,296.082377
1488.384705,-9030.512492,153.219100,370.102971
1488.385016,-8882.471304,-306.438199,444.123565
1488.385328,-8882.471304,0.000000,592.164754
1488.385639,-8660.409521,-153.219100,518.144159
1488.385950,-8956.491898,-229.828649,592.164754
1488.386262,-8956.491898,-153.219100,370.102971
1488.386573,-8660.409521,-612.876398,518.144159
1488.386884,-8734.430116,0.000000,370.102971
1488.387196,-8882.471304,-153.219100,370.102971
1488.387507,-8808.450710,0.000000,222.061783
1488.387818,-8882.471304,-229.828649,666.185348
1488.388130,-9030.512492,-153.219100,518.144159
1488.388441,-9030.512492,0.000000,444.123565
1488.388752,-9030.512492,0.000000,592.164754
1488.389064,-8956.491898,76.609550,444.123565
1488.389375,-9474.636058,0.000000,222.061783
1488.389686,-8882.471304,459.657299,592.164754
1488.389998,-8956.491898,0.000000,296.082377
1488.390309,-8956.491898,0.000000,518.144159
1488.390620,-8956.491898,0.000000,666.185348
1488.390932,-8882.471304,76.609550,518.144159
1488.391243,-8512.368333,153.219100,740.205942
1488.391554,-8882.471304,-459.657299,888.247130
1488.391866,-8586.388927,229.828649,592.164754
1488.392177,-8882.471304,306.438199,592.164754
1488.392488,-8586.388927,0.000000,666.185348
1488.392800,-8808.450710,0.000000,518.144159
1488.393111,-9104.533087,0.000000,444.123565
1488.393422,-9030.512492,0.000000,518.144159
1488.393734,-8512.368333,0.000000,518.144159
1488.394045,-8882.471304,229.828649,740.205942
1488.394356,-8660.409521,459.657299,148.041188
1488.394668,-8586.388927,229.828649,518.144159
1488.394979,-8882.471304,0.000000,222.061783
1488.395290,-8882.471304,-306.438199,518.144159
1488.395602,-8956.491898,-153.219100,592.164754
1488.395913,-8882.471304,-229.828649,740.205942
1488.396224,-8660.409521,-153.219100,444.123565
1488.396536,-8956.491898,0.000000,444.123565
1488.396847,-9030.512492,-766.095498,814.226536
1488.397158,-8586.388927,76.609550,666.185348
1488.397470,-8882.471304,-229.828649,518.144159
1488.397781,-9104.533087,0.000000,370.102971
1488.398092,-8956.491898,0.000000,444.123565
1488.398404,-8956.491898,0.000000,666.185348
1488.398715,-8882.471304,153.219100,222.061783
1488.399026,-8882.471304,0.000000,370.102971
1488.399338,-9030.512492,459.657299,296.082377
1488.399649,-8956.491898,76.609550,444.123565
1488.399960,-8882.471304,-153.219100,518.144159
1488.400272,-8734.430116,0.000000,592.164754
1488.400583,-8882.471304,0.000000,740.205942
1488.400894,-9030.512492,76.609550,592.164754
1488.401206,-8956.491898,0.000000,296.082377
1488.401517,-8512.368333,76.609550,370.102971
1488.401828,-8734.430116,536.266849,222.061783
1488.402140,-8956.491898,-306.438199,370.102971
1488.402451,-9104.533087,-383.047749,518.144159
1488.402762,-9030.512492,0.000000,740.205942
1488.403074,-9178.553681,-153.219100,518.144159
1488.403385,-9104.533087,0.000000,296.082377
1488.403696,-8956.491898,0.000000,666.185348
1488.404008,-8660.409521,-383.047749,444.123565
1488.404319,-8808.450710,-229.828649,592.164754
1488.404630,-8808.450710,-229.828649,518.144159
1488.404942,-9400.615463,76.609550,592.164754
1488.405253,-11695.253884,995.924147,148.041188
1488.405564,-10140.821405,3447.429741,814.226536
1488.405876,-8290.306550,4903.011187,222.061783
1488.406187,-7031.956449,2604.724693,888.247130
1488.406498,-6143.709319,153.219100,1036.288319
1488.406810,-7254.018232,-1532.190996,-592.164754
1488.407121,-7402.059420,-919.314598,-0.000000
1488.407432,-9030.512492,-612.876398,-592.164754
1488.407744,-12657.521608,-919.314598,-1036.288319
1488.408055,-11621.233289,383.047749,-0.000000
1488.408366,-9992.780217,383.047749,296.082377
1488.408678,-8512.368333,76.609550,2516.700203
1488.408989,-10658.965565,-919.314598,2072.576638
1488.409300,-11621.233289,1455.581446,1850.514855
1488.409612,-6513.812290,5209.449386,2664.741391
1488.409923,-5847.626942,4519.963438,1480.411884
1488.410234,-7994.224174,2451.505594,296.082377
1488.410546,-7402.059420,2757.943793,-1036.288319
1488.410857,-7772.162391,4136.915689,-2220.617826
1488.411168,-8956.491898,3294.210641,-962.267725
1488.411480,-8956.491898,3600.648841,-592.164754
1488.411791,-14359.995275,689.485948,-1036.288319
1488.412102,-11695.253884,-1378.971896,2294.638420
1488.412414,-8364.327145,-919.314598,1850.514855
1488.412725,-10436.903782,2221.676944,1332.370696
1488.413036,-7772.162391,5822.325785,2442.679609
1488.413348,-7772.162391,4060.306139,1110.308913
1488.413659,-6365.771101,3140.991542,2590.720797
1488.413970,-6809.894666,5056.230287,1628.453072
1488.414282,-8290.306550,6894.859482,-0.000000
1488.414593,-8364.327145,6281.983084,-1258.350101
1488.414904,-9400.615463,4826.401637,-814.226536
1488.415216,-9548.656652,4979.620737,-1554.432478
1488.415527,-10881.027347,5362.668486,-0.000000
1488.415838,-11917.315666,5132.839837,148.041188
1488.416150,-10510.924376,3907.087040,2294.638420
1488.416461,-10140.821405,4213.525239,1998.556043
1488.416772,-8364.327145,5745.716235,2368.659014
1488.417084,-6439.791695,5515.887586,518.144159
1488.417395,-5699.585753,5362.668486,518.144159
1488.417706,-4959.379811,5286.058936,666.185348
1488.418018,-5107.421000,5822.325785,-592.164754
1488.418329,-7105.977043,4826.401637,-888.247130
1488.418641,-8438.347739,3753.867940,-1184.329507
1488.418952,-9770.718434,2757.943793,-0.000000
1488.419263,-10807.006753,1225.752797,814.226536
1488.419575,-11103.089130,76.609550,1776.494261
1488.419886,-11621.233289,-229.828649,1850.514855
1488.420197,-10658.965565,1685.410096,2220.617826
1488.420509,-8882.471304,2528.115143,2072.576638
1488.420820,-7254.018232,3830.477490,1554.432478
1488.421131,-6365.771101,2987.772442,296.082377
1488.421443,-6513.812290,3753.867940,-222.061783
1488.421754,-6809.894666,4060.306139,-518.144159
1488.422065,-6883.915261,3447.429741,-1332.370696
1488.422377,-8216.285956,919.314598,-1036.288319
1488.422688,-9622.677246,-1455.581446,-1036.288319
1488.422999,-11103.089130,-1838.629195,666.185348
1488.423311,-12583.501014,-1685.410096,1332.370696
1488.423622,-13619.789333,-1378.971896,1406.391290
1488.423933,-13249.686362,-153.219100,1702.473667
1488.424245,-12065.356855,1302.362347,962.267725
1488.424556,-9992.780217,3140.991542,592.164754
1488.424867,-7179.997637,4213.525239,-296.082377
1488.425179,-5625.565159,4673.182538,-0.000000
1488.425490,-6069.688724,4519.963438,-0.000000
1488.425801,-6957.935855,3753.867940,962.267725
1488.426113,-8882.471304,2145.067394,-148.041188
1488.426424,-11325.150913,995.924147,74.020594
1488.426735,-12583.501014,76.609550,-0.000000
1488.427047,-13545.768739,-306.438199,-296.082377
1488.427358,-13989.892304,0.000000,148.041188
1488.427669,-12731.542202,1455.581446,148.041188
1488.427981,-10658.965565,3140.991542,1036.288319
1488.428292,-9326.594869,3064.381992,1184.329507
1488.428603,-6291.750507,4443.353888,2294.638420
1488.428915,-3627.009116,6052.154434,962.267725
1488.429226,-2146.597232,6052.154434,-0.000000
1488.429537,-2294.638420,5286.058936,-888.247130
1488.429849,-4145.153275,3753.867940,-1554.432478
1488.430160,-8142.265362,3140.991542,-1628.453072
1488.430471,-12435.459826,2757.943793,-888.247130
1488.430783,-14582.057057,3217.601092,1110.308913
1488.431094,-16432.571912,2604.724693,2146.597232
1488.431405,-13989.892304,2911.162892,3627.009116
1488.431717,-9992.780217,2911.162892,3330.926739
1488.432028,-6217.729913,3370.820191,2146.597232
1488.432339,-3701.029710,5286.058936,1036.288319
1488.432651,-2146.597232,6818.249932,-666.185348
1488.432962,-2664.741391,7890.783629,-1850.514855
1488.433273,-4515.256246,7507.735880,-1924.535449
1488.433585,-7105.977043,4596.572988,-1480.411884
1488.433896,-8660.409521,2298.286494,-0.000000
1488.434207,-9918.759623,0.000000,296.082377
1488.434519,-11251.130318,-1991.848295,1628.453072
1488.434830,-12139.377449,-3064.381992,1702.473667
1488.435141,-13323.706956,-2221.676944,1998.556043
1488.435453,-13323.706956,689.485948,1702.473667
1488.435764,-11843.295072,2528.115143,1924.535449
1488.436075,-10288.862594,4903.011187,1924.535449
1488.436387,-7179.997637,6281.983084,1554.432478
1488.436698,-5329.482782,5669.106685,962.267725
1488.437009,-5699.585753,3600.648841,-0.000000
1488.437321,-5921.647536,2987.772442,-814.226536
1488.437632,-8512.368333,3064.381992,-2590.720797
1488.437943,-10510.924376,3983.696590,-1924.535449
1488.438255,-11843.295072,3753.867940,-1998.556043
1488.438566,-12139.377449,2451.505594,-444.123565
1488.438877,-11769.274478,1532.190996,1258.350101
1488.439189,-11251.130318,689.485948,2220.617826
1488.439500,-11843.295072,1762.019645,2072.576638
1488.439811,-11695.253884,4519.963438,1702.473667
1488.440123,-9770.718434,7507.735880,-0.000000
1488.440434,-7402.059420,7201.297681,-0.000000
1488.440745,-6069.688724,4903.011187,-444.123565
1488.441057,-5625.565159,2681.334243,-518.144159
1488.441368,-7105.977043,1838.629195,-1184.329507
1488.441679,-8956.491898,2298.286494,-296.082377
1488.441991,-9400.615463,1991.848295,-0.000000
1488.442302,-8882.471304,153.219100,1036.288319
1488.442613,-8364.327145,-3600.648841,2146.597232
1488.442925,-7476.080014,-3907.087040,1702.473667
1488.443236,-8734.430116,766.095498,962.267725
1488.443547,-10881.027347,6205.373534,-518.144159
1488.443859,-10881.027347,9882.631924,-74.020594
1488.444170,-10436.903782,9959.241474,370.102971
1488.444481,-9992.780217,6281.983084,1036.288319
1488.444793,-8586.388927,3830.477490,1480.411884
1488.445104,-7254.018232,2681.334243,518.144159
1488.445415,-6513.812290,4443.353888,444.123565
1488.445727,-5551.544565,4290.134789,888.247130
1488.446038,-4959.379811,1455.581446,740.205942
1488.446349,-5403.503377,-1149.143247,814.226536
1488.446661,-7105.977043,-306.438199,148.041188
1488.446972,-8956.491898,2528.115143,-740.205942
1488.447283,-11621.233289,6052.154434,-1776.494261
1488.447595,-13175.665768,6971.469032,-0.000000
1488.447906,-13471.748144,5592.497135,1776.494261
1488.448217,-14434.015869,2374.896044,2886.803174
1488.448529,-12805.562797,2528.115143,3552.988522
1488.448841,-9030.512492,3830.477490,2738.761985
1488.449153,-5995.668130,2604.724693,1998.556043
1488.449464,-4219.173869,-612.876398,1258.350101
1488.449775,-3256.906145,-4366.744339,-148.041188
1488.450087,-4293.194464,-5056.230287,-814.226536
1488.450398,-5403.503377,0.000000,-888.247130
1488.450709,-8734.430116,4290.134789,-1258.350101
1488.451021,-12583.501014,5056.230287,-666.185348
1488.451332,-15988.448347,2604.724693,1776.494261
1488.451643,-17542.880825,3064.381992,2738.761985
1488.451954,-15840.407159,5515.887586,2812.782580
1488.452266,-11473.192101,7584.345430,2960.823768
1488.452577,-6735.874072,4903.011187,1036.288319
1488.452888,-3552.988522,306.438199,-592.164754
1488.453200,-888.247130,-1302.362347,-1554.432478
1488.453511,-148.041188,842.705048,-1628.453072
1488.453822,-3108.864956,3064.381992,-962.267725
1488.454133,-10288.862594,1991.848295,-444.123565
1488.454445,-15470.304188,1608.800546,296.082377
1488.454756,-16506.592507,2604.724693,296.082377
1488.455067,-14434.015869,5669.106685,592.164754
1488.455379,-12065.356855,5209.449386,-222.061783
1488.455690,-11473.192101,2681.334243,-1628.453072
1488.456001,-8808.450710,1532.190996,-1554.432478
1488.456313,-4441.235652,3217.601092,-222.061783
1488.456624,-4145.153275,2374.896044,962.267725
1488.456935,-7105.977043,536.266849,2442.679609
1488.457246,-8660.409521,-1915.238745,2812.782580
1488.457558,-9770.718434,-842.705048,2812.782580
1488.457869,-9548.656652,3983.696590,1406.391290
1488.458180,-10436.903782,8963.317327,-1184.329507
1488.458492,-10510.924376,8886.707777,-3256.906145
1488.458803,-9104.533087,6511.811733,-3775.050304
1488.459114,-7402.059420,5822.325785,-3404.947333
1488.459426,-9252.574275,9193.145976,-1776.494261
1488.459737,-13101.645173,7814.174080,-222.061783
1488.460048,-14063.912898,4443.353888,2812.782580
1488.460359,-11547.212695,-153.219100,4515.256246
1488.460671,-7402.059420,-1378.971896,4811.338623
1488.460982,-4737.318029,153.219100,2664.741391
1488.461293,-4145.153275,1149.143247,-962.267725
1488.461605,-2220.617826,2068.457845,-592.164754
1488.461916,-4515.256246,4213.525239,-1628.453072
1488.462227,-10066.800811,6435.202183,-0.000000
1488.462539,-14508.036463,7507.735880,592.164754
1488.462850,-15396.283594,6358.592633,2738.761985
1488.463161,-12583.501014,4826.401637,3627.009116
1488.463472,-9178.553681,3677.258390,1480.411884
1488.463784,-5699.585753,2374.896044,-0.000000
1488.464095,-3627.009116,1532.190996,-666.185348
1488.464406,-5625.565159,-2068.457845,296.082377
1488.464718,-6883.915261,-2374.896044,1924.535449
1488.465029,-8290.306550,-766.095498,2294.638420
1488.465340,-10140.821405,-2374.896044,2812.782580
1488.465651,-10732.986159,-3677.258390,3108.864956
1488.465963,-8808.450710,-1378.971896,1628.453072
1488.466274,-6735.874072,2451.505594,-1332.370696
1488.466585,-7105.977043,3677.258390,-814.226536
1488.466897,-10214.842000,2681.334243,-1332.370696
1488.467208,-11177.109724,4519.963438,-592.164754
1488.467519,-10436.903782,3600.648841,1998.556043
1488.467831,-11177.109724,612.876398,2812.782580
1488.468142,-10510.924376,1149.143247,2516.700203
1488.468453,-9252.574275,3753.867940,1110.308913
1488.468764,-8290.306550,3370.820191,370.102971
1488.469076,-6587.832884,3294.210641,-518.144159
1488.469387,-9400.615463,3217.601092,-2220.617826
1488.469698,-11695.253884,6128.763984,-2368.659014
1488.470010,-11621.233289,5745.716235,-3627.009116
1488.470321,-10362.883188,5056.230287,-3627.009116
1488.470632,-9548.656652,5056.230287,-1998.556043
1488.470944,-9696.697840,3677.258390,-148.041188
1488.471255,-10288.862594,612.876398,1702.473667
1488.471566,-9548.656652,-2451.505594,4885.359217
1488.471877,-10362.883188,-2604.724693,4515.256246
1488.472189,-9474.636058,-1685.410096,3108.864956
1488.472500,-8216.285956,0.000000,222.061783
1488.472811,-6069.688724,919.314598,-2072.576638
1488.473123,-5181.441594,2451.505594,-2886.803174
1488.473434,-7254.018232,3600.648841,-3330.926739
1488.473745,-9918.759623,3830.477490,-1998.556043
1488.474057,-10658.965565,2221.676944,-0.000000
1488.474368,-10362.883188,536.266849,1554.432478
1488.474679,-9104.533087,-1072.533697,2072.576638
1488.474990,-7254.018232,-1762.019645,1998.556043
1488.475302,-6439.791695,-2221.676944,1776.494261
1488.475613,-6217.729913,-1455.581446,1406.391290
1488.475924,-7105.977043,0.000000,1628.453072
1488.476236,-9104.533087,-306.438199,1702.473667
1488.476547,-8438.347739,-1302.362347,1702.473667
1488.476858,-5847.626942,-459.657299,1480.411884
1488.477170,-5921.647536,0.000000,-592.164754
1488.477481,-5181.441594,2221.676944,-1110.308913
1488.477792,-6957.935855,2451.505594,-2590.720797
1488.478103,-10955.047942,2068.457845,-814.226536
1488.478415,-11843.295072,1149.143247,1406.391290
1488.478726,-12879.583391,306.438199,2368.659014
1488.479037,-13841.851115,-1608.800546,2146.597232
1488.479349,-12213.398043,-2834.553343,3627.009116
1488.479660,-9474.636058,-3294.210641,2368.659014
1488.479971,-9104.533087,-2451.505594,1258.350101
1488.480282,-8364.327145,-2221.676944,592.164754
1488.480594,-6883.915261,-2068.457845,-370.102971
1488.480905,-7624.121203,153.219100,-2146.597232
1488.481216,-9844.739029,1991.848295,-1850.514855
1488.481528,-8808.450710,2604.724693,-1702.473667
1488.481839,-10510.924376,1685.410096,-740.205942
1488.482150,-12361.439231,383.047749,1776.494261
1488.482462,-10807.006753,-689.485948,2442.679609
1488.482773,-11991.336260,-1991.848295,1184.329507
1488.483084,-11621.233289,-1991.848295,3108.864956
1488.483395,-9474.636058,-2068.457845,2072.576638
1488.483707,-8956.491898,-1762.019645,1036.288319
1488.484018,-9104.533087,76.609550,518.144159
1488.484329,-8290.306550,1532.190996,-74.020594
1488.484641,-6883.915261,2451.505594,-1110.308913
1488.484952,-6217.729913,3907.087040,-592.164754
1488.485263,-5847.626942,3677.258390,-888.247130
1488.485575,-5921.647536,2451.505594,-1924.535449
1488.485886,-6069.688724,3064.381992,74.020594
1488.486197,-7031.956449,1838.629195,592.164754
1488.486508,-7624.121203,-1225.752797,444.123565
1488.486820,-8882.471304,-2757.943793,962.267725
1488.487131,-9252.574275,-3140.991542,1554.432478
1488.487442,-9252.574275,-2681.334243,1702.473667
1488.487754,-9548.656652,-1685.410096,1258.350101
1488.488065,-10214.842000,-1378.971896,592.164754
1488.488376,-9548.656652,-842.705048,148.041188
1488.488688,-5403.503377,-536.266849,370.102971
1488.488999,-4737.318029,1532.190996,-518.144159
1488.489310,-4737.318029,2451.505594,-592.164754
1488.489621,-5403.503377,1378.971896,-1332.370696
1488.489933,-8882.471304,0.000000,-740.205942
1488.490244,-11843.295072,-306.438199,370.102971
1488.490555,-12139.377449,-612.876398,962.267725
1488.490867,-12509.480420,-1762.019645,962.267725
1488.491178,-14508.036463,-3600.648841,962.267725
1488.491489,-14730.098246,-2451.505594,740.205942
1488.491800,-11177.109724,-153.219100,-0.000000
1488.492112,-10881.027347,995.924147,-370.102971
1488.492423,-9326.594869,2068.457845,370.102971
1488.492734,-4663.297435,2451.505594,-518.144159
1488.493046,-3404.947333,3524.039291,-1184.329507
1488.493357,-2886.803174,3677.258390,518.144159
1488.493668,-5995.668130,1762.019645,-962.267725
1488.493980,-10066.800811,459.657299,-0.000000
1488.494291,-13471.748144,0.000000,1480.411884
1488.494602,-15396.283594,-2757.943793,2072.576638
1488.494913,-14285.974681,-4060.306139,2220.617826
1488.495225,-14582.057057,-3294.210641,1332.370696
1488.495536,-11991.336260,-2221.676944,1924.535449
1488.495847,-8660.409521,-1991.848295,-296.082377
1488.496159,-9548.656652,-536.266849,-888.247130
1488.496470,-7328.038826,1762.019645,222.061783
1488.496781,-1998.556043,2221.676944,962.267725
1488.497093,222.061783,229.828649,740.205942
1488.497404,-740.205942,-1378.971896,2146.597232
1488.497715,-2886.803174,-2834.553343,1110.308913
1488.498026,-6069.688724,-4213.525239,1480.411884
1488.498338,-11473.192101,-4213.525239,1924.535449
1488.498649,-14137.933492,-2451.505594,2294.638420
1488.498960,-15174.221811,-1838.629195,1406.391290
1488.499272,-16580.613101,-1378.971896,888.247130
1488.499583,-13471.748144,76.609550,1628.453072
1488.499894,-9918.759623,2068.457845,-518.144159
1488.500206,-8512.368333,5056.230287,-222.061783
1488.500517,-4145.153275,5132.839837,-0.000000
1488.500828,0.000000,3524.039291,-2072.576638
1488.501139,1258.350101,3524.039291,-962.267725
1488.501451,370.102971,2757.943793,-962.267725
1488.501762,-3330.926739,229.828649,-1332.370696
1488.502073,-11251.130318,-1915.238745,-592.164754
1488.502385,-17468.860231,-1072.533697,1258.350101
1488.502696,-19319.375086,0.000000,1850.514855
1488.503007,-19023.292709,-689.485948,2220.617826
1488.503318,-18357.107362,-1915.238745,1998.556043
1488.503630,-13841.851115,-459.657299,740.205942
1488.503941,-9178.553681,1302.362347,-592.164754
1488.504252,-6143.709319,3370.820191,-222.061783
1488.504564,-2368.659014,3370.820191,-888.247130
1488.504875,148.041188,1762.019645,-1258.350101
1488.505186,0.000000,-612.876398,-1554.432478
1488.505498,-3034.844362,-2834.553343,-1258.350101
1488.505809,-6661.853478,-3753.867940,-0.000000
1488.506120,-13175.665768,-3830.477490,1184.329507
1488.506431,-18209.066173,-3753.867940,3775.050304
1488.506743,-18209.066173,-4443.353888,5477.523971
1488.507054,-17098.757260,-5286.058936,4293.194464
1488.507365,-15174.221811,-3140.991542,2442.679609
1488.507677,-9252.574275,1302.362347,814.226536
1488.507988,-5699.585753,3140.991542,-2220.617826
1488.508299,-2590.720797,5209.449386,-1776.494261
1488.508611,-1184.329507,3600.648841,-1924.535449
1488.508922,0.000000,1455.581446,-1998.556043
1488.509233,518.144159,76.609550,-296.082377
1488.509544,-2294.638420,-229.828649,370.102971
1488.509856,-6661.853478,-1225.752797,1184.329507
1488.510167,-13249.686362,-1455.581446,1702.473667
1488.510478,-18209.066173,-1685.410096,3701.029710
1488.510790,-18431.127956,-1838.629195,4071.132681
1488.511101,-17838.963202,-689.485948,2960.823768
1488.511412,-14804.118840,1149.143247,1184.329507
1488.511724,-10140.821405,1685.410096,-1480.411884
1488.512035,-6439.791695,1685.410096,-1776.494261
1488.512346,-2886.803174,2221.676944,-2368.659014
1488.512657,-2368.659014,1991.848295,-1332.370696
1488.512969,-1332.370696,459.657299,-518.144159
1488.513280,-4367.215058,-459.657299,-592.164754
1488.513591,-8734.430116,-919.314598,-0.000000
1488.513903,-11103.089130,-919.314598,1480.411884
1488.514214,-14285.974681,-1685.410096,2368.659014
1488.514525,-17098.757260,-2374.896044,4441.235652
1488.514837,-14878.139434,-2374.896044,3849.070898
1488.515148,-11843.295072,-1762.019645,1036.288319
1488.515459,-10288.862594,-766.095498,-0.000000
1488.515770,-6661.853478,842.705048,-1628.453072
1488.516082,-4589.276840,2604.724693,-3478.967927
1488.516393,-4663.297435,3217.601092,-3256.906145
1488.516704,-4441.235652,2681.334243,-2146.597232
1488.517016,-3182.885551,842.705048,-370.102971
1488.517327,-3627.009116,229.828649,1998.556043
1488.517638,-6587.832884,-1915.238745,2738.761985
1488.517949,-8808.450710,-3064.381992,3182.885551
1488.518261,-11029.068536,-2451.505594,2960.823768
1488.518572,-13619.789333,-1455.581446,3108.864956
1488.518883,-12657.521608,0.000000,444.123565
1488.519195,-12213.398043,1532.190996,-2368.659014
1488.519506,-12435.459826,3370.820191,-3849.070898
1488.519817,-9844.739029,3907.087040,-2590.720797
1488.520129,-8660.409521,2911.162892,-3108.864956
1488.520440,-7698.141797,1532.190996,-1184.329507
1488.520751,-6809.894666,76.609550,296.082377
1488.521062,-3701.029710,-306.438199,1480.411884
1488.521374,-3404.947333,-612.876398,1776.494261
1488.521685,-6365.771101,-1225.752797,2294.638420
1488.521996,-7179.997637,-3064.381992,2886.803174
1488.522308,-11177.109724,-3677.258390,2590.720797
1488.522619,-15914.427753,-2451.505594,1850.514855
1488.522930,-15766.386565,-1072.533697,1258.350101
1488.523242,-15692.365970,-612.876398,-666.185348
1488.523553,-13397.727550,229.828649,-296.082377
1488.523864,-9992.780217,766.095498,-296.082377
1488.524175,-7920.203579,153.219100,296.082377
1488.524487,-8216.285956,-306.438199,1702.473667
1488.524798,-5773.606348,153.219100,2738.761985
1488.525109,-4071.132681,0.000000,1998.556043
1488.525421,-2664.741391,-306.438199,1702.473667
1488.525732,-2664.741391,-1455.581446,1332.370696
1488.526043,-4145.153275,-3217.601092,370.102971
1488.526355,-7179.997637,-2987.772442,1480.411884
1488.526666,-11177.109724,-1838.629195,1480.411884
1488.526977,-13693.809927,-1072.533697,814.226536
1488.527288,-14359.995275,-536.266849,-0.000000
1488.527600,-13693.809927,1149.143247,-1776.494261
1488.527911,-12065.356855,2604.724693,-2146.597232
1488.528222,-9474.636058,4903.011187,-2590.720797
1488.528534,-8216.285956,4903.011187,-1184.329507
1488.528845,-5255.462188,2681.334243,1184.329507
1488.529156,-1332.370696,76.609550,3108.864956
1488.529467,148.041188,-2298.286494,3997.112087
1488.529779,-592.164754,-3370.820191,3478.967927
1488.530090,-6069.688724,-4366.744339,296.082377
1488.530401,-13323.706956,-2604.724693,-1628.453072
1488.530713,-17764.942608,1149.143247,-2664.741391
1488.531024,-19245.354492,2528.115143,-3256.906145
1488.531335,-19689.478057,2374.896044,-2812.782580
1488.531647,-17764.942608,1532.190996,-1258.350101
1488.531958,-13767.830521,1532.190996,-74.020594
1488.532269,-8364.327145,1225.752797,2072.576638
1488.532580,-3997.112087,1225.752797,3256.906145
1488.532892,-296.082377,2145.067394,3478.967927
1488.533203,-370.102971,1225.752797,1628.453072
1488.533514,-1406.391290,-459.657299,666.185348
1488.533826,-4293.194464,689.485948,-2294.638420
1488.534137,-8142.265362,2681.334243,-2738.761985
1488.534448,-11843.295072,2451.505594,-1480.411884
1488.534760,-17024.736666,-1225.752797,-518.144159
1488.535071,-15988.448347,-2451.505594,1332.370696
1488.535382,-13767.830521,-2604.724693,2368.659014
1488.535693,-11621.233289,-2604.724693,1850.514855
1488.536005,-8734.430116,229.828649,740.205942
1488.536316,-6217.729913,2681.334243,888.247130
1488.536627,-5107.421000,1685.410096,1480.411884
1488.536939,-2516.700203,995.924147,4367.215058
1488.537250,666.185348,-536.266849,3627.009116
1488.537561,-888.247130,-3600.648841,2442.679609
1488.537873,-1850.514855,-4673.182538,3330.926739
1488.538184,-4367.215058,-4213.525239,592.164754
1488.538495,-10807.006753,-3447.429741,-444.123565
1488.538806,-14878.139434,-1455.581446,-148.041188
1488.539118,-16284.530724,-766.095498,-1258.350101
1488.539429,-17246.798449,0.000000,-1110.308913
1488.539740,-15544.324782,76.609550,740.205942
1488.540052,-15174.221811,-842.705048,370.102971
1488.540363,-12213.398043,612.876398,2146.597232
1488.540674,-6291.750507,2145.067394,4589.276840
1488.540986,-3849.070898,383.047749,3552.988522
1488.541297,962.267725,229.828649,2738.761985
1488.541608,370.102971,1072.533697,-1036.288319
1488.541919,-2960.823768,842.705048,-2442.679609
1488.542231,-7105.977043,1378.971896,-3627.009116
1488.542542,-15988.448347,2451.505594,-4071.132681
1488.542853,-20947.828159,2451.505594,-1924.535449
1488.543165,-19467.416275,383.047749,444.123565
1488.543476,-18949.272115,-1838.629195,1258.350101
1488.543787,-16284.530724,-1149.143247,2072.576638
1488.544098,-10510.924376,766.095498,1850.514855
1488.544410,-5995.668130,0.000000,888.247130
1488.544721,-3404.947333,-229.828649,2146.597232
1488.545032,-814.226536,919.314598,1332.370696
1488.545344,-1776.494261,153.219100,-518.144159
1488.545655,-3404.947333,-1225.752797,-370.102971
1488.545966,-3997.112087,-1225.752797,-1776.494261
1488.546278,-6957.935855,306.438199,-1406.391290
1488.546589,-13027.624579,-1685.410096,-370.102971
1488.546900,-15692.365970,-2451.505594,1406.391290
1488.547211,-13841.851115,-2068.457845,814.226536
1488.547523,-12583.501014,-459.657299,370.102971
1488.547834,-10066.800811,1072.533697,888.247130
1488.548145,-6365.771101,1225.752797,-1332.370696
1488.548457,-4589.276840,1991.848295,-814.226536
1488.548768,-2812.782580,1302.362347,1480.411884
1488.549079,-2072.576638,0.000000,1628.453072
1488.549390,-2738.761985,-1532.190996,1702.473667
1488.549702,-4589.276840,-3140.991542,1776.494261
1488.550013,-7031.956449,-3447.429741,1184.329507
1488.550324,-9030.512492,-1608.800546,-0.000000
1488.550636,-13915.871710,-383.047749,-592.164754
1488.550947,-16876.695478,-459.657299,-666.185348
1488.551258,-16062.468941,-536.266849,-148.041188
1488.551569,-14434.015869,2604.724693,296.082377
1488.551881,-12805.562797,2604.724693,888.247130
1488.552192,-10140.821405,459.657299,1406.391290
1488.552503,-9770.718434,-306.438199,1554.432478
1488.552815,-7920.203579,1915.238745,1702.473667
1488.553126,-6143.709319,2757.943793,888.247130
1488.553437,-5625.565159,1378.971896,-222.061783
1488.553748,-5181.441594,536.266849,444.123565
1488.554060,-7328.038826,-459.657299,-888.247130
1488.554371,-8068.244768,-1762.019645,666.185348
1488.554682,-12065.356855,-1915.238745,1850.514855
1488.554993,-15174.221811,-2068.457845,2812.782580
1488.555305,-13619.789333,-919.314598,1480.411884
1488.555616,-12435.459826,612.876398,370.102971
1488.555927,-10214.842000,459.657299,-296.082377
1488.556239,-7328.038826,2068.457845,-518.144159
1488.556550,-6513.812290,1991.848295,-370.102971
1488.556861,-7105.977043,1225.752797,666.185348
1488.557172,-5625.565159,612.876398,1850.514855
1488.557484,-3330.926739,-1302.362347,2368.659014
1488.557795,-2812.782580,-1991.848295,1924.535449
1488.558106,-4145.153275,-3140.991542,2220.617826
1488.558418,-5625.565159,-4826.401637,1702.473667
1488.558729,-8882.471304,-3753.867940,1332.370696
1488.559040,-11399.171507,-919.314598,666.185348
1488.559351,-12139.377449,612.876398,-1184.329507
1488.559663,-13841.851115,1455.581446,-1924.535449
1488.559974,-12435.459826,2911.162892,-1036.288319
1488.560285,-9474.636058,2757.943793,-1184.329507
1488.560596,-9178.553681,1915.238745,-518.144159
1488.560908,-7624.121203,1838.629195,1998.556043
1488.561219,-5477.523971,1455.581446,2442.679609
1488.561530,-2590.720797,536.266849,1332.370696
1488.561842,-2368.659014,-689.485948,1258.350101
1488.562153,-6439.791695,-2451.505594,-222.061783
1488.562464,-8586.388927,-1532.190996,-1776.494261
1488.562775,-13397.727550,459.657299,-1998.556043
1488.563087,-17246.798449,766.095498,-1184.329507
1488.563398,-16580.613101,612.876398,-592.164754
1488.563709,-17690.922014,-383.047749,-1036.288319
1488.564021,-15988.448347,689.485948,-0.000000
1488.564332,-11473.192101,1225.752797,370.102971
1488.564643,-9326.594869,919.314598,296.082377
1488.564954,-5033.400406,1072.533697,2738.761985
1488.565266,-1554.432478,-766.095498,2294.638420
1488.565577,-444.123565,-2298.286494,962.267725
1488.565888,-2812.782580,-3370.820191,666.185348
1488.566199,-3552.988522,-1838.629195,-592.164754
1488.566511,-6217.729913,-1378.971896,-0.000000
1488.566822,-12953.603985,-3140.991542,-74.020594
1488.567133,-16136.489536,-4213.525239,1406.391290
1488.567445,-15766.386565,-3064.381992,740.205942
1488.567756,-15248.242405,-1455.581446,222.061783
1488.568067,-13249.686362,536.266849,1702.473667
1488.568378,-9178.553681,383.047749,962.267725
1488.568690,-7031.956449,612.876398,888.247130
1488.569001,-4071.132681,1455.581446,1776.494261
1488.569312,-370.102971,1378.971896,2886.803174
1488.569624,1850.514855,995.924147,2516.700203
1488.569935,962.267725,153.219100,1332.370696
1488.570246,-3256.906145,-306.438199,592.164754
1488.570557,-8808.450710,-536.266849,-888.247130
1488.570869,-15248.242405,2451.505594,-1554.432478
1488.571180,-18505.148550,2528.115143,-962.267725
1488.571491,-18431.127956,2221.676944,-888.247130
1488.571802,-17616.901420,919.314598,592.164754
1488.572114,-13397.727550,536.266849,1332.370696
1488.572425,-8808.450710,-306.438199,1850.514855
1488.572736,-4219.173869,-536.266849,2960.823768
1488.573048,-1480.411884,842.705048,3182.885551
1488.573359,-2738.761985,0.000000,1554.432478
1488.573670,-4071.132681,689.485948,-518.144159
1488.573981,-5699.585753,2068.457845,-2294.638420
1488.574293,-7772.162391,2528.115143,-1924.535449
1488.574604,-10214.842000,842.705048,-1406.391290
1488.574915,-17246.798449,-1378.971896,-888.247130
1488.575227,-17246.798449,-1225.752797,2146.597232
1488.575538,-14434.015869,-1302.362347,1924.535449
1488.575849,-12065.356855,-1455.581446,3108.864956
1488.576160,-9104.533087,-766.095498,1628.453072
1488.576472,-6143.709319,-383.047749,148.041188
1488.576783,-1850.514855,459.657299,518.144159
1488.577094,-2146.597232,1378.971896,444.123565
1488.577405,-3478.967927,766.095498,-222.061783
1488.577717,-3330.926739,306.438199,-1110.308913
1488.578028,-6809.894666,0.000000,-370.102971
1488.578339,-8512.368333,-1225.752797,592.164754
1488.578651,-10732.986159,-842.705048,444.123565
1488.578962,-14804.118840,-1072.533697,814.226536
1488.579273,-14730.098246,-1915.238745,1850.514855
1488.579584,-13915.871710,-2145.067394,1406.391290
1488.579896,-13323.706956,-536.266849,222.061783
1488.580207,-9918.759623,1608.800546,-0.000000
1488.580518,-7476.080014,766.095498,-1850.514855
1488.580830,-5699.585753,1149.143247,-0.000000
1488.581141,-5107.421000,1685.410096,814.226536
1488.581452,-3997.112087,689.485948,444.123565
1488.581763,-3775.050304,153.219100,148.041188
1488.582075,-8068.244768,-153.219100,-444.123565
1488.582386,-9992.780217,1762.019645,-0.000000
1488.582697,-12731.542202,612.876398,-1110.308913
1488.583008,-16210.510130,-459.657299,-0.000000
1488.583320,-16062.468941,-1378.971896,1480.411884
1488.583631,-13545.768739,-2068.457845,1702.473667
1488.583942,-11917.315666,-2451.505594,1998.556043
1488.584254,-9474.636058,-2681.334243,1480.411884
1488.584565,-7105.977043,-2451.505594,1036.288319
1488.584876,-7254.018232,-536.266849,-148.041188
1488.585187,-5921.647536,2298.286494,1110.308913
1488.585499,-5921.647536,2451.505594,-740.205942
1488.585810,-4737.318029,1302.362347,-888.247130
1488.586121,-5033.400406,919.314598,370.102971
1488.586433,-7031.956449,76.609550,296.082377
1488.586744,-7920.203579,-689.485948,1776.494261
1488.587055,-10288.862594,-1991.848295,2812.782580
1488.587366,-12065.356855,-2757.943793,2738.761985
1488.587678,-11251.130318,-2451.505594,2072.576638
1488.587989,-9252.574275,-1608.800546,-0.000000
1488.588300,-8660.409521,383.047749,-1480.411884
1488.588612,-6809.894666,1608.800546,-2442.679609
1488.588923,-7920.203579,2681.334243,-2368.659014
1488.589234,-7920.203579,1991.848295,-0.000000
1488.589545,-5329.482782,995.924147,888.247130
1488.589857,-3256.906145,229.828649,3182.885551
1488.590168,-2294.638420,-1685.410096,4515.256246
1488.590479,-4885.359217,-2451.505594,3923.091493
1488.590790,-9474.636058,-3370.820191,2294.638420
1488.591102,-14656.077652,-1455.581446,-370.102971
1488.591413,-15692.365970,2374.896044,-888.247130
1488.591724,-15322.262999,2834.553343,-3034.844362
1488.592036,-14952.160028,919.314598,-1776.494261
1488.592347,-13101.645173,76.609550,-1332.370696
1488.592658,-9770.718434,-689.485948,-0.000000
1488.592969,-8216.285956,-306.438199,1554.432478
1488.593281,-7031.956449,459.657299,2664.741391
1488.593592,-3849.070898,1685.410096,2072.576638
1488.593903,-4293.194464,2221.676944,296.082377
1488.594215,-5477.523971,1685.410096,-222.061783
1488.594526,-6365.771101,1838.629195,-1332.370696
1488.594837,-9844.739029,1455.581446,-1924.535449
1488.595148,-13545.768739,-229.828649,-222.061783
1488.595460,-14211.954086,-1762.019645,1628.453072
1488.595771,-14137.933492,-3677.258390,1702.473667
1488.596082,-12435.459826,-3524.039291,1776.494261
1488.596393,-11843.295072,-3140.991542,-222.061783
1488.596705,-9030.512492,-306.438199,-1258.350101
1488.597016,-7920.203579,2757.943793,-1332.370696
1488.597327,-7402.059420,2834.553343,-592.164754
1488.597639,-3034.844362,1762.019645,1480.411884
1488.597950,-1258.350101,-1378.971896,2220.617826
1488.598261,-1184.329507,-2374.896044,3478.967927
1488.598572,-2960.823768,-3753.867940,2886.803174
1488.598884,-5995.668130,-2911.162892,814.226536
1488.599195,-11621.233289,-1302.362347,-0.000000
1488.599506,-13989.892304,-1532.190996,-370.102971
1488.599818,-15174.221811,-1149.143247,-1110.308913
1488.600129,-15840.407159,919.314598,-1554.432478
1488.600440,-13841.851115,1685.410096,-444.123565
1488.600751,-10955.047942,689.485948,740.205942
1488.601063,-8734.430116,0.000000,2146.597232
1488.601374,-5181.441594,1149.143247,3182.885551
1488.601685,222.061783,1072.533697,2146.597232
1488.601996,814.226536,459.657299,148.041188
1488.602308,-2516.700203,536.266849,-1110.308913
1488.602619,-5625.565159,1302.362347,-2590.720797
1488.602930,-11399.171507,1149.143247,-3108.864956
1488.603242,-18357.107362,766.095498,-1480.411884
1488.603553,-20503.704593,76.609550,1258.350101
1488.603864,-19319.375086,-1302.362347,2294.638420
1488.604175,-16210.510130,-1532.190996,2886.803174
1488.604487,-12435.459826,-536.266849,2442.679609
1488.604798,-7476.080014,995.924147,1702.473667
1488.605109,-3108.864956,1149.143247,1702.473667
1488.605421,-666.185348,2451.505594,666.185348
1488.605732,-1036.288319,1072.533697,-370.102971
1488.606043,-1036.288319,76.609550,-1776.494261
1488.606354,-3923.091493,383.047749,-2516.700203
1488.606666,-6513.812290,-459.657299,-1110.308913
1488.606977,-10732.986159,-1532.190996,-148.041188
1488.607288,-17320.819043,-2834.553343,1998.556043
1488.607599,-17098.757260,-2757.943793,3923.091493
1488.607911,-16358.551318,-3753.867940,2664.741391
1488.608222,-14211.954086,-2068.457845,2368.659014
1488.608533,-9918.759623,2451.505594,148.041188
1488.608845,-5255.462188,3753.867940,-2220.617826
1488.609156,-1258.350101,3064.381992,-444.123565
1488.609467,-1184.329507,1455.581446,1850.514855
1488.609778,-592.164754,-1915.238745,888.247130
1488.610090,-1184.329507,-1302.362347,-296.082377
1488.610401,-4959.379811,-383.047749,296.082377
1488.610712,-8068.244768,-919.314598,-740.205942
1488.611024,-13175.665768,-1225.752797,-296.082377
1488.611335,-17987.004391,-1225.752797,-0.000000
1488.611646,-17987.004391,-306.438199,1258.350101
1488.611957,-16728.654289,1072.533697,1924.535449
1488.612269,-14359.995275,919.314598,2516.700203
1488.612580,-10881.027347,536.266849,2738.761985
1488.612891,-6069.688724,0.000000,1480.411884
1488.613202,-2812.782580,2068.457845,1258.350101
1488.613514,-2146.597232,3217.601092,-1406.391290
1488.613825,-3256.906145,3677.258390,-2590.720797
1488.614136,-5477.523971,2604.724693,-2516.700203
1488.614448,-7179.997637,919.314598,-2738.761985
1488.614759,-9474.636058,842.705048,-814.226536
1488.615070,-14137.933492,-1685.410096,1406.391290
1488.615381,-16432.571912,-4213.525239,3849.070898
1488.615693,-15322.262999,-4979.620737,5181.441594
1488.616004,-13027.624579,-3677.258390,4145.153275
1488.616315,-10510.924376,-1455.581446,2516.700203
1488.616627,-6735.874072,919.314598,-888.247130
1488.616938,-4293.194464,2604.724693,-1776.494261
1488.617249,-3478.967927,2451.505594,-2368.659014
1488.617560,-3849.070898,2681.334243,-1406.391290
1488.617872,-4441.235652,306.438199,370.102971
1488.618183,-5921.647536,-2068.457845,370.102971
1488.618494,-8956.491898,-3907.087040,2368.659014
1488.618805,-9622.677246,-3753.867940,2812.782580
1488.619117,-11843.295072,-2604.724693,2146.597232
1488.619428,-12879.583391,-3217.601092,2072.576638
1488.619739,-12139.377449,-1991.848295,814.226536
1488.620051,-10214.842000,-1149.143247,592.164754
1488.620362,-9548.656652,0.000000,-74.020594
1488.620673,-8882.471304,459.657299,-592.164754
1488.620984,-8882.471304,3064.381992,-1258.350101
1488.621296,-8660.409521,4136.915689,518.144159
1488.621607,-6217.729913,2374.896044,666.185348
1488.621918,-3256.906145,995.924147,-74.020594
1488.622230,-2886.803174,1915.238745,-222.061783
1488.622541,-5699.585753,536.266849,-296.082377
1488.622852,-9326.594869,-1149.143247,-296.082377
1488.623163,-13471.748144,-229.828649,-592.164754
1488.623475,-16506.592507,1225.752797,962.267725
1488.623786,-16432.571912,76.609550,888.247130
1488.624097,-14730.098246,-689.485948,962.267725
1488.624408,-13175.665768,689.485948,-592.164754
1488.624720,-10362.883188,1762.019645,-222.061783
1488.625031,-7179.997637,2221.676944,962.267725
1488.625342,-5773.606348,1608.800546,962.267725
1488.625654,-6217.729913,306.438199,1110.308913
1488.625965,-2960.823768,-1149.143247,1184.329507
1488.626276,-1776.494261,-919.314598,-74.020594
1488.626587,-4663.297435,153.219100,-666.185348
1488.626899,-7402.059420,-536.266849,-222.061783
1488.627210,-10732.986159,-2911.162892,518.144159
1488.627521,-12435.459826,-4826.401637,2220.617826
1488.627833,-13545.768739,-4443.353888,2368.659014
1488.628144,-13323.706956,-2451.505594,962.267725
1488.628455,-12287.418637,766.095498,-1036.288319
1488.628766,-10955.047942,4366.744339,-1850.514855
1488.629078,-7328.038826,3983.696590,-2368.659014
1488.629389,-6143.709319,3907.087040,-74.020594
1488.629700,-4515.256246,1302.362347,2368.659014
1488.630011,-814.226536,-1608.800546,3108.864956
1488.630323,-1554.432478,-2298.286494,3108.864956
1488.630634,-4293.194464,-2987.772442,2812.782580
1488.630945,-5477.523971,-1762.019645,-0.000000
1488.631257,-9548.656652,-766.095498,-1998.556043
1488.631568,-15248.242405,919.314598,-1628.453072
1488.631879,-16358.551318,1302.362347,-1924.535449
1488.632190,-16580.613101,1072.533697,-2442.679609
1488.632502,-15396.283594,1762.019645,-0.000000
1488.632813,-13249.686362,383.047749,1776.494261
1488.633124,-10436.903782,229.828649,1924.535449
1488.633436,-7772.162391,-153.219100,3997.112087
1488.633747,-3849.070898,995.924147,4441.235652
1488.634058,-1776.494261,689.485948,3182.885551
1488.634369,-3182.885551,-306.438199,1036.288319
1488.634681,-4071.132681,-459.657299,-1036.288319
1488.634992,-6661.853478,-995.924147,-2220.617826
1488.635303,-10584.944971,-1225.752797,-2072.576638
1488.635615,-15026.180623,153.219100,-666.185348
1488.635926,-15914.427753,-1991.848295,-0.000000
1488.636237,-15692.365970,-3830.477490,1184.329507
1488.636548,-14582.057057,-1991.848295,1998.556043
1488.636860,-11547.212695,842.705048,1110.308913
1488.637171,-8364.327145,2221.676944,1258.350101
1488.637482,-4737.318029,1915.238745,1850.514855
1488.637793,-3108.864956,1302.362347,2886.803174
1488.638105,-666.185348,-383.047749,2664.741391
1488.638416,444.123565,-1378.971896,814.226536
1488.638727,-1850.514855,-1991.848295,-0.000000
1488.639039,-4663.297435,-1532.190996,-1036.288319
1488.639350,-10066.800811,-459.657299,-1184.329507
1488.639661,-15322.262999,-612.876398,-888.247130
1488.639972,-16210.510130,-306.438199,-1480.411884
1488.640284,-16062.468941,1302.362347,-1480.411884
1488.640595,-15544.324782,3294.210641,-740.205942
1488.640906,-12953.603985,3140.991542,370.102971
1488.641218,-7994.224174,2145.067394,1776.494261
1488.641529,-5625.565159,1072.533697,3627.009116
1488.641840,-3034.844362,-153.219100,5033.400406
1488.642151,1406.391290,-689.485948,2664.741391
1488.642463,-2220.617826,-1225.752797,-1258.350101
1488.642774,-7254.018232,0.000000,-3330.926739
1488.643085,-9992.780217,1608.800546,-3627.009116
1488.643396,-14804.118840,1072.533697,-3701.029710
1488.643708,-17542.880825,689.485948,-444.123565
1488.644019,-16876.695478,-1608.800546,370.102971
1488.644330,-14656.077652,-1915.238745,1480.411884
1488.644642,-12805.562797,-766.095498,2960.823768
1488.644953,-8882.471304,-383.047749,2886.803174
1488.645264,-7105.977043,459.657299,2294.638420
1488.645575,-5477.523971,1991.848295,1332.370696
1488.645887,-3404.947333,1762.019645,2146.597232
1488.646198,-3478.967927,-153.219100,-1036.288319
1488.646509,-4293.194464,-919.314598,-1332.370696
1488.646821,-5699.585753,-229.828649,-1332.370696
1488.647132,-7698.141797,-1991.848295,-222.061783
1488.647443,-10584.944971,-3064.381992,1702.473667
1488.647754,-14211.954086,-4366.744339,2146.597232
1488.648066,-13471.748144,-4213.525239,1924.535449
1488.648377,-11547.212695,-2221.676944,962.267725
1488.648688,-10584.944971,1378.971896,-0.000000
1488.649000,-9326.594869,2987.772442,-740.205942
1488.649311,-6883.915261,2068.457845,-1480.411884
1488.649622,-7105.977043,1072.533697,666.185348
1488.649934,-5699.585753,76.609550,2960.823768
1488.650245,-1998.556043,0.000000,1850.514855
1488.650556,-4737.318029,-1762.019645,962.267725
1488.650868,-5625.565159,-2221.676944,1702.473667
1488.651179,-5625.565159,-1762.019645,518.144159
1488.651490,-10214.842000,-1685.410096,-1332.370696
1488.651802,-14730.098246,-383.047749,-518.144159
1488.652113,-17246.798449,612.876398,-1036.288319
1488.652425,-15100.201217,1838.629195,-1776.494261
1488.652736,-13619.789333,2987.772442,592.164754
1488.653047,-11769.274478,536.266849,1554.432478
1488.653359,-7994.224174,-766.095498,1554.432478
1488.653670,-7772.162391,-766.095498,2294.638420
1488.653981,-4737.318029,1225.752797,2220.617826
1488.654293,-4663.297435,2068.457845,370.102971
1488.654604,-7031.956449,1455.581446,-592.164754
1488.654915,-4959.379811,2145.067394,-296.082377
1488.655227,-7772.162391,0.000000,-1332.370696
1488.655538,-10436.903782,-229.828649,814.226536
1488.655849,-12953.603985,459.657299,888.247130
1488.656161,-13841.851115,-995.924147,1628.453072
1488.656472,-10807.006753,-766.095498,962.267725
1488.656783,-10510.924376,1302.362347,-1110.308913
1488.657095,-7624.121203,3217.601092,-1776.494261
1488.657406,-6291.750507,2604.724693,-1480.411884
1488.657717,-8142.265362,766.095498,-666.185348
1488.658029,-5329.482782,1685.410096,2590.720797
1488.658340,-3923.091493,306.438199,3627.009116
1488.658651,-5181.441594,-3907.087040,4071.132681
1488.658963,-6735.874072,-5362.668486,3552.988522
1488.659274,-6217.729913,-3983.696590,1924.535449
1488.659585,-6883.915261,-2068.457845,-222.061783
1488.659897,-10658.965565,-766.095498,-1110.308913
1488.660208,-11991.336260,153.219100,-1850.514855
1488.660519,-13175.665768,-229.828649,-2590.720797
1488.660831,-12361.439231,-459.657299,-0.000000
1488.661142,-11103.089130,76.609550,1406.391290
1488.661454,-11547.212695,1532.190996,-0.000000
1488.661765,-10066.800811,2604.724693,1554.432478
1488.662076,-7550.100608,2145.067394,2146.597232
1488.662388,-3256.906145,612.876398,2960.823768
1488.662699,-1036.288319,383.047749,1406.391290
1488.663010,-3627.009116,-229.828649,-0.000000
1488.663322,-6735.874072,-612.876398,-1184.329507
1488.663633,-12435.459826,-1072.533697,-1776.494261
1488.663944,-14952.160028,76.609550,-1554.432478
1488.664256,-15100.201217,0.000000,-518.144159
1488.664567,-16136.489536,-2834.553343,-222.061783
1488.664878,-16136.489536,-2298.286494,740.205942
1488.665190,-14434.015869,76.609550,-740.205942
1488.665501,-11769.274478,1532.190996,222.061783
1488.665812,-8290.306550,1532.190996,2960.823768
1488.666124,-5255.462188,689.485948,2738.761985
1488.666435,-2368.659014,459.657299,2442.679609
1488.666746,0.000000,-689.485948,2220.617826
1488.667058,-1184.329507,-919.314598,370.102971
1488.667369,-4293.194464,-1072.533697,-592.164754
1488.667680,-9252.574275,-383.047749,-1258.350101
1488.667992,-12879.583391,-766.095498,-148.041188
1488.668303,-13101.645173,-1915.238745,-296.082377
1488.668614,-14582.057057,-2221.676944,-1628.453072
1488.668926,-13693.809927,0.000000,-1258.350101
1488.669237,-10881.027347,1455.581446,-1258.350101
1488.669548,-9030.512492,1149.143247,222.061783
1488.669860,-7254.018232,1608.800546,1850.514855
1488.670171,-5921.647536,229.828649,3478.967927
1488.670483,-2442.679609,0.000000,4737.318029
1488.670794,-1332.370696,-1532.190996,3182.885551
1488.671105,-1258.350101,-1072.533697,1554.432478
1488.671417,-4071.132681,-536.266849,-740.205942
1488.671728,-9622.677246,-919.314598,-1332.370696
1488.672039,-13915.871710,-1225.752797,-2220.617826
1488.672351,-16432.571912,995.924147,-1480.411884
1488.672662,-17172.777854,1608.800546,-1850.514855
1488.672973,-16136.489536,1455.581446,-1332.370696
1488.673285,-14804.118840,1072.533697,222.061783
1488.673596,-12879.583391,1685.410096,740.205942
1488.673907,-10362.883188,2451.505594,2886.803174
1488.674219,-4663.297435,3753.867940,4589.276840
1488.674530,0.000000,2374.896044,2886.803174
1488.674841,-740.205942,1225.752797,-148.041188
1488.675153,-2812.782580,612.876398,-1924.535449
1488.675464,-5107.421000,383.047749,-2664.741391
1488.675775,-10807.006753,2068.457845,-2368.659014
1488.676087,-16136.489536,1378.971896,-0.000000
1488.676398,-18061.024985,-1762.019645,296.082377
1488.676709,-15988.448347,-3907.087040,1850.514855
1488.677021,-12657.521608,-3983.696590,3108.864956
1488.677332,-10436.903782,-2221.676944,2072.576638
1488.677643,-6661.853478,229.828649,148.041188
1488.677955,-5477.523971,2451.505594,-0.000000
1488.678266,-3330.926739,536.266849,1554.432478
1488.678577,-296.082377,-842.705048,1924.535449
1488.678889,-1110.308913,-1532.190996,2368.659014
1488.679200,-1036.288319,-1838.629195,2590.720797
1488.679512,-4885.359217,-5056.230287,1776.494261
1488.679823,-11177.109724,-4443.353888,2146.597232
1488.680134,-13471.748144,-1225.752797,2146.597232
1488.680446,-15026.180623,-1225.752797,814.226536
1488.680757,-14508.036463,-1532.190996,296.082377
1488.681068,-13915.871710,536.266849,-814.226536
1488.681380,-10807.006753,3600.648841,-1628.453072
1488.681691,-7772.162391,3370.820191,-1776.494261
1488.682002,-7994.224174,2298.286494,148.041188
1488.682314,-5699.585753,1608.800546,444.123565
1488.682625,-3034.844362,1608.800546,518.144159
1488.682936,-3330.926739,459.657299,962.267725
1488.683248,-3997.112087,-689.485948,592.164754
1488.683559,-5921.647536,306.438199,814.226536
1488.683870,-10214.842000,0.000000,-370.102971
1488.684182,-15396.283594,-1072.533697,296.082377
1488.684493,-17468.860231,-383.047749,518.144159
1488.684804,-16506.592507,766.095498,592.164754
1488.685116,-15914.427753,689.485948,-740.205942
1488.685427,-12435.459826,76.609550,-592.164754
1488.685738,-9252.574275,0.000000,-1036.288319
1488.686050,-8512.368333,153.219100,-222.061783
1488.686361,-5329.482782,459.657299,1924.535449
1488.686672,-3108.864956,-766.095498,296.082377
1488.686984,-4811.338623,-1225.752797,814.226536
1488.687295,-6365.771101,-2145.067394,1702.473667
1488.687606,-6883.915261,-1838.629195,592.164754
1488.687918,-9844.739029,-306.438199,1332.370696
1488.688229,-11029.068536,536.266849,1628.453072
1488.688541,-11177.109724,-766.095498,1998.556043
1488.688852,-10214.842000,-689.485948,1110.308913
1488.689163,-9104.533087,612.876398,-148.041188
1488.689475,-6217.729913,1302.362347,-2368.659014
1488.689786,-5107.421000,2604.724693,-3923.091493
1488.690097,-7179.997637,3753.867940,-2738.761985
1488.690409,-7772.162391,2757.943793,-2072.576638
1488.690720,-7402.059420,919.314598,-444.123565
1488.691031,-7254.018232,842.705048,2146.597232
1488.691343,-7328.038826,-612.876398,3256.906145
1488.691654,-7846.182985,-2528.115143,3330.926739
1488.691965,-9770.718434,-3217.601092,3330.926739
1488.692277,-10214.842000,-2451.505594,2368.659014
1488.692588,-9622.677246,-536.266849,-0.000000
1488.692899,-9696.697840,842.705048,-1406.391290
1488.693211,-12509.480420,1378.971896,-2516.700203
1488.693522,-12139.377449,1378.971896,-1776.494261
1488.693833,-10362.883188,612.876398,-814.226536
1488.694145,-10955.047942,1838.629195,666.185348
1488.694456,-9918.759623,-1378.971896,962.267725
1488.694767,-7698.141797,-2681.334243,1110.308913
1488.695079,-7846.182985,-1838.629195,2738.761985
1488.695390,-5551.544565,0.000000,2960.823768
1488.695701,-5847.626942,383.047749,666.185348
1488.696013,-10066.800811,-766.095498,-74.020594
1488.696324,-11769.274478,0.000000,296.082377
1488.696635,-11473.192101,-536.266849,-1036.288319
1488.696947,-11325.150913,229.828649,-1110.308913
1488.697258,-11917.315666,0.000000,-222.061783
1488.697570,-10066.800811,-2374.896044,296.082377
1488.697881,-9326.594869,-2911.162892,-0.000000
1488.698192,-9548.656652,-536.266849,1554.432478
1488.698504,-7402.059420,0.000000,1554.432478
1488.698815,-6883.915261,0.000000,370.102971
1488.699126,-4441.235652,995.924147,1480.411884
1488.699438,-2960.823768,842.705048,1184.329507
1488.699749,-3256.906145,-995.924147,1776.494261
1488.700060,-7031.956449,-1378.971896,2146.597232
1488.700372,-9474.636058,-1149.143247,2294.638420
1488.700683,-9622.677246,229.828649,814.226536
1488.700994,-11991.336260,689.485948,-74.020594
1488.701306,-12953.603985,1915.238745,-888.247130
1488.701617,-11695.253884,1685.410096,-1110.308913
1488.701928,-10658.965565,1455.581446,-592.164754
1488.702240,-8660.409521,1685.410096,740.205942
1488.702551,-5847.626942,1915.238745,1850.514855
1488.702862,-2960.823768,995.924147,1776.494261
1488.703174,-2812.782580,-1072.533697,2220.617826
1488.703485,-3034.844362,-1608.800546,1110.308913
1488.703796,-5477.523971,-842.705048,-1258.350101
1488.704108,-10066.800811,1072.533697,-2220.617826
1488.704419,-14730.098246,766.095498,-2738.761985
1488.704730,-16210.510130,689.485948,-1184.329507
1488.705042,-15914.427753,-153.219100,-148.041188
1488.705353,-15914.427753,-1302.362347,1702.473667
1488.705664,-13915.871710,-1838.629195,2960.823768
1488.705976,-10584.944971,0.000000,2664.741391
1488.706287,-7179.997637,919.314598,2442.679609
1488.706599,-4071.132681,306.438199,888.247130
1488.706910,-2664.741391,-536.266849,-1110.308913
1488.707221,-2590.720797,536.266849,-2220.617826
1488.707533,-3627.009116,1225.752797,-1850.514855
1488.707844,-6661.853478,-766.095498,-1110.308913
1488.708155,-9918.759623,-2451.505594,592.164754
1488.708467,-13471.748144,-5515.887586,2442.679609
1488.708778,-14211.954086,-6741.640382,3478.967927
1488.709089,-13471.748144,-7124.688131,2812.782580
1488.709401,-13989.892304,-4903.011187,814.226536
1488.709712,-10140.821405,-995.924147,962.267725
1488.710023,-7624.121203,-383.047749,-74.020594
1488.710335,-5551.544565,-1532.190996,888.247130
1488.710646,-3923.091493,-2834.553343,962.267725
1488.710957,-2294.638420,-2374.896044,370.102971
1488.711269,-444.123565,-2221.676944,-0.000000
1488.711580,-2886.803174,-1991.848295,-888.247130
1488.711891,-5699.585753,-3370.820191,-296.082377
1488.712203,-9326.594869,-3600.648841,-0.000000
1488.712514,-14359.995275,-4519.963438,1110.308913
1488.712825,-17394.839637,-4366.744339,2220.617826
1488.713137,-17764.942608,-2604.724693,1332.370696
1488.713448,-16802.674883,-536.266849,814.226536
1488.713759,-13545.768739,-2068.457845,1480.411884
1488.714071,-8808.450710,-1685.410096,518.144159
1488.714382,-6513.812290,-612.876398,-370.102971
1488.714693,-3849.070898,0.000000,-518.144159
1488.715005,-518.144159,-153.219100,296.082377
1488.715316,-2294.638420,-919.314598,-0.000000
1488.715628,-3478.967927,-2374.896044,-0.000000
1488.715939,-7402.059420,-3294.210641,-222.061783
1488.716250,-13101.645173,-5056.230287,222.061783
1488.716562,-15544.324782,-4366.744339,3404.947333
1488.716873,-16876.695478,-5669.106685,4219.173869
1488.717184,-16136.489536,-7967.393179,2146.597232
1488.717496,-12361.439231,-6665.030833,666.185348
1488.717807,-7105.977043,-3677.258390,-1258.350101
1488.718118,-5107.421000,-1532.190996,-3034.844362
1488.718430,-5329.482782,612.876398,-3182.885551
1488.718741,-4589.276840,689.485948,-2738.761985
1488.719052,-5477.523971,-919.314598,888.247130
1488.719364,-4885.359217,-3447.429741,2664.741391
1488.719675,-5033.400406,-5439.278036,1850.514855
1488.719986,-5995.668130,-6128.763984,1702.473667
1488.720298,-6661.853478,-6205.373534,1554.432478
1488.720609,-10214.842000,-5362.668486,444.123565
1488.720920,-15470.304188,-3830.477490,-222.061783
1488.721232,-15840.407159,-1608.800546,-0.000000
1488.721543,-14211.954086,-2528.115143,518.144159
1488.721854,-12731.542202,-3600.648841,666.185348
1488.722166,-7846.182985,-1532.190996,-222.061783
1488.722477,-2812.782580,536.266849,-2516.700203
1488.722788,-2442.679609,0.000000,-2220.617826
1488.723100,-3478.967927,-1149.143247,592.164754
1488.723411,-6809.894666,-995.924147,2146.597232
1488.723722,-9326.594869,-2298.286494,3478.967927
1488.724034,-10732.986159,-3600.648841,3478.967927
1488.724345,-12879.583391,-4136.915689,2368.659014
1488.724657,-12509.480420,-1838.629195,-0.000000
1488.724968,-9918.759623,459.657299,-1406.391290
1488.725279,-9474.636058,-1991.848295,-888.247130
1488.725591,-11251.130318,-2987.772442,740.205942
1488.725902,-12213.398043,-2451.505594,962.267725
1488.726213,-10140.821405,-2757.943793,1480.411884
1488.726525,-7402.059420,-4136.915689,1924.535449
1488.726836,-6365.771101,-5515.887586,1258.350101
1488.727147,-4737.318029,-4673.182538,-962.267725
1488.727459,-4071.132681,-3983.696590,-1776.494261
1488.727770,-6365.771101,-4519.963438,-296.082377
1488.728081,-10732.986159,-4673.182538,2146.597232
1488.728393,-14211.954086,-4673.182538,4367.215058
1488.728704,-14952.160028,-3907.087040,5329.482782
1488.729015,-13175.665768,-3600.648841,5181.441594
1488.729327,-7846.182985,-2374.896044,2960.823768
1488.729638,-3627.009116,229.828649,-814.226536
1488.729949,-1258.350101,536.266849,-3256.906145
1488.730261,-666.185348,0.000000,-4959.379811
1488.730572,-888.247130,612.876398,-3552.988522
1488.730883,-4441.235652,-1838.629195,-962.267725
1488.731195,-11029.068536,-6281.983084,1850.514855
1488.731506,-14730.098246,-9039.926876,3849.070898
1488.731817,-14730.098246,-6971.469032,4959.379811
1488.732129,-12583.501014,-4903.011187,3849.070898
1488.732440,-10955.047942,-5822.325785,1332.370696
1488.732751,-10436.903782,-7124.688131,-0.000000
1488.733063,-8142.265362,-4596.572988,-1184.329507
1488.733374,-4441.235652,-689.485948,-2442.679609
1488.733686,-4737.318029,0.000000,-1850.514855
1488.733997,-7476.080014,-1915.238745,-444.123565
1488.734308,-8586.388927,-4749.792088,1184.329507
1488.734620,-9400.615463,-5439.278036,2294.638420
1488.734931,-10807.006753,-3370.820191,2812.782580
1488.735242,-12139.377449,-1838.629195,740.205942
1488.735554,-12435.459826,-4060.306139,-592.164754
1488.735865,-10955.047942,-5056.230287,-1036.288319
1488.736176,-9178.553681,-3677.258390,-1406.391290
1488.736488,-10140.821405,-995.924147,-1776.494261
1488.736799,-11103.089130,76.609550,-148.041188
1488.737110,-10214.842000,-1455.581446,1258.350101
1488.737422,-10584.944971,-2757.943793,1628.453072
1488.737733,-10362.883188,-3064.381992,1702.473667
1488.738044,-8512.368333,-1149.143247,-592.164754
1488.738356,-7920.203579,0.000000,-888.247130
1488.738667,-6883.915261,-383.047749,-1258.350101
1488.738978,-5699.585753,-2298.286494,-2368.659014
1488.739290,-7031.956449,-2834.553343,-1628.453072
1488.739601,-8660.409521,-3370.820191,-148.041188
1488.739912,-9548.656652,-2757.943793,1184.329507
1488.740224,-11473.192101,-689.485948,2294.638420
1488.740535,-11251.130318,689.485948,2368.659014
1488.740846,-10732.986159,689.485948,2294.638420
1488.741158,-9104.533087,612.876398,592.164754
1488.741469,-6809.894666,919.314598,370.102971
1488.741780,-5181.441594,153.219100,-148.041188
1488.742092,-6217.729913,-1532.190996,-740.205942
1488.742403,-5255.462188,-2757.943793,1036.288319
1488.742715,-4219.173869,-5669.106685,740.205942
1488.743026,-4589.276840,-8350.440928,2368.659014
1488.743337,-5699.585753,-10265.679673,2738.761985
1488.743649,-8364.327145,-9576.193725,2442.679609
1488.743960,-11769.274478,-6358.592633,1998.556043
1488.744271,-13027.624579,-2987.772442,2590.720797
1488.744583,-12583.501014,-1915.238745,2368.659014
1488.744894,-11251.130318,-2681.334243,2738.761985
1488.745205,-9474.636058,-3983.696590,2886.803174
1488.745517,-7402.059420,-4213.525239,1776.494261
1488.745828,-4737.318029,-2911.162892,814.226536
1488.746139,-3775.050304,-3447.429741,-666.185348
1488.746451,-3627.009116,-4673.182538,-1332.370696
1488.746762,-5107.421000,-5286.058936,-1554.432478
1488.747073,-7254.018232,-5515.887586,-592.164754
1488.747385,-9326.594869,-5056.230287,-888.247130
1488.747696,-12509.480420,-4903.011187,-74.020594
1488.748007,-14804.118840,-2604.724693,1036.288319
1488.748319,-15544.324782,-1762.019645,1184.329507
1488.748630,-15396.283594,-1608.800546,1258.350101
1488.748941,-14359.995275,-995.924147,888.247130
1488.749253,-12213.398043,-306.438199,592.164754
1488.749564,-9178.553681,-1378.971896,-0.000000
1488.749875,-7031.956449,-3983.696590,-0.000000
1488.750187,-4589.276840,-6665.030833,-296.082377
1488.750498,-4071.132681,-7890.783629,-592.164754
1488.750810,-6365.771101,-7584.345430,-962.267725
1488.751121,-7772.162391,-5592.497135,-518.144159
1488.751432,-9918.759623,-3447.429741,-1406.391290
1488.751744,-12065.356855,-1838.629195,-370.102971
1488.752055,-13767.830521,-1302.362347,370.102971
1488.752367,-14285.974681,-536.266849,592.164754
1488.752678,-11621.233289,383.047749,296.082377
1488.752989,-9326.594869,0.000000,-0.000000
1488.753301,-6809.894666,-1532.190996,-592.164754
1488.753612,-4293.194464,-1762.019645,-1036.288319
1488.753924,-3256.906145,-1838.629195,-74.020594
1488.754235,-3775.050304,-2298.286494,1184.329507
1488.754547,-6143.709319,-3830.477490,2072.576638
1488.754858,-7772.162391,-1915.238745,1924.535449
1488.755169,-8956.491898,-1608.800546,444.123565
1488.755481,-8956.491898,-1302.362347,296.082377
1488.755792,-8068.244768,-766.095498,-370.102971
1488.756104,-9252.574275,-1225.752797,-370.102971
1488.756415,-10066.800811,-2528.115143,148.041188
1488.756726,-10214.842000,-2911.162892,962.267725
1488.757038,-9474.636058,-3064.381992,1406.391290
1488.757349,-9252.574275,-3907.087040,1998.556043
1488.757661,-7698.141797,-5286.058936,2146.597232
1488.757972,-6883.915261,-4979.620737,1776.494261
1488.758283,-6661.853478,-3753.867940,1036.288319
1488.758595,-6365.771101,-2451.505594,740.205942
1488.758906,-7105.977043,-1991.848295,222.061783
1488.759218,-7179.997637,-1072.533697,740.205942
1488.759529,-7920.203579,-1838.629195,666.185348
1488.759841,-9474.636058,-2221.676944,-148.041188
1488.760152,-10066.800811,-1915.238745,592.164754
1488.760463,-10807.006753,-2834.553343,296.082377
1488.760775,-11325.150913,-4443.353888,962.267725
1488.761086,-11769.274478,-5209.449386,1406.391290
1488.761398,-11177.109724,-5439.278036,2072.576638
1488.761709,-10955.047942,-5056.230287,1628.453072
1488.762020,-9548.656652,-4519.963438,1850.514855
1488.762332,-8586.388927,-3524.039291,1776.494261
1488.762643,-7994.224174,-2757.943793,1036.288319
1488.762955,-7105.977043,-2221.676944,888.247130
1488.763266,-7328.038826,-1915.238745,518.144159
1488.763578,-8364.327145,-1838.629195,-0.000000
1488.763889,-9326.594869,-1915.238745,-518.144159
1488.764200,-10288.862594,-2145.067394,-888.247130
1488.764512,-11029.068536,-2451.505594,-222.061783
1488.764823,-11103.089130,-3753.867940,518.144159
1488.765135,-10732.986159,-5286.058936,592.164754
1488.765446,-10807.006753,-5669.106685,1628.453072
1488.765757,-9400.615463,-5209.449386,1850.514855
1488.766069,-7846.182985,-4673.182538,2146.597232
1488.766380,-7179.997637,-3524.039291,740.205942
1488.766692,-5995.668130,-2221.676944,222.061783
1488.767003,-5477.523971,-1378.971896,-296.082377
1488.767315,-6661.853478,-306.438199,-1110.308913
1488.767626,-7105.977043,153.219100,-962.267725
1488.767937,-7550.100608,-612.876398,-740.205942
1488.768249,-8882.471304,-2298.286494,-148.041188
1488.768560,-8364.327145,-3217.601092,-0.000000
1488.768872,-9622.677246,-3370.820191,296.082377
1488.769183,-8142.265362,-2911.162892,1110.308913
1488.769494,-8586.388927,-3064.381992,518.144159
1488.769806,-9104.533087,-3600.648841,666.185348
1488.770117,-7105.977043,-2451.505594,962.267725
1488.770429,-7994.224174,-2451.505594,-666.185348
1488.770740,-8586.388927,-3140.991542,1258.350101
1488.771051,-10955.047942,-3830.477490,296.082377
1488.771363,-10881.027347,-1378.971896,740.205942
1488.771674,-10436.903782,0.000000,-0.000000
1488.771986,-10140.821405,-1225.752797,1110.308913
1488.772297,-9474.636058,-3370.820191,1258.350101
1488.772609,-8956.491898,-3983.696590,1406.391290
1488.772920,-8808.450710,-2834.553343,2294.638420
1488.773231,-10288.862594,-1991.848295,2146.597232
1488.773543,-12139.377449,-612.876398,2368.659014
1488.773854,-12213.398043,229.828649,2220.617826
1488.774166,-10881.027347,-919.314598,2294.638420
1488.774477,-9474.636058,-383.047749,1258.350101
1488.774788,-6957.935855,689.485948,1554.432478
1488.775100,-8290.306550,-1072.533697,518.144159
1488.775411,-7920.203579,-3370.820191,2664.741391
1488.775723,-9400.615463,-3677.258390,2738.761985
1488.776034,-8734.430116,-1608.800546,5477.523971
1488.776346,-10955.047942,-2145.067394,5403.503377
1488.776657,-12287.418637,-3294.210641,6217.729913
1488.776968,-9326.594869,-2451.505594,5847.626942
1488.777280,-7550.100608,-306.438199,4737.318029
1488.777591,-6735.874072,383.047749,4293.194464
1488.777903,-5773.606348,76.609550,3478.967927
1488.778214,-6957.935855,-689.485948,1998.556043
1488.778525,-5773.606348,1072.533697,3330.926739
1488.778837,-6957.935855,766.095498,2664.741391
1488.779148,-10362.883188,612.876398,3256.906145
1488.779460,-10140.821405,612.876398,5995.668130
1488.779771,-9622.677246,-1455.581446,5699.585753
1488.780082,-7698.141797,-1991.848295,7179.997637
1488.780394,-8586.388927,-995.924147,5847.626942
1488.780705,-7846.182985,153.219100,6513.812290
1488.781017,-6217.729913,919.314598,4737.318029
1488.781328,-5847.626942,153.219100,4589.276840
1488.781640,-6587.832884,1762.019645,3997.112087
1488.781951,-8512.368333,2145.067394,3923.091493
1488.782262,-8808.450710,1838.629195,4145.153275
1488.782574,-7772.162391,1072.533697,4071.132681
1488.782885,-7179.997637,0.000000,4071.132681
1488.783197,-7550.100608,-383.047749,4071.132681
1488.783508,-8142.265362,-1915.238745,4589.276840
1488.783819,-7994.224174,-1685.410096,4293.194464
1488.784131,-7994.224174,383.047749,5625.565159
1488.784442,-9770.718434,919.314598,4367.215058
1488.784754,-11473.192101,842.705048,4959.379811
1488.785065,-11695.253884,1302.362347,4293.194464
1488.785377,-9326.594869,2298.286494,4219.173869
1488.785688,-8734.430116,1762.019645,2516.700203
1488.785999,-7402.059420,0.000000,1702.473667
1488.786311,-7105.977043,536.266849,1258.350101
1488.786622,-6143.709319,76.609550,1480.411884
1488.786934,-6365.771101,-612.876398,2146.597232
1488.787245,-8364.327145,-1455.581446,2738.761985
1488.787556,-10066.800811,-1455.581446,3775.050304
1488.787868,-11103.089130,-536.266849,4441.235652
1488.788179,-11695.253884,-995.924147,4219.173869
1488.788491,-11547.212695,-383.047749,4219.173869
1488.788802,-11547.212695,-306.438199,3256.906145
1488.789114,-10732.986159,76.609550,2072.576638
1488.789425,-9252.574275,76.609550,1406.391290
1488.789736,-8734.430116,536.266849,1258.350101
1488.790048,-9252.574275,-536.266849,1702.473667
1488.790359,-9400.615463,-1838.629195,2516.700203
1488.790671,-8882.471304,-1838.629195,3256.906145
1488.790982,-8956.491898,-1915.238745,3627.009116
1488.791293,-7994.224174,-1225.752797,4145.153275
1488.791605,-8142.265362,-1608.800546,3330.926739
1488.791916,-7698.141797,0.000000,2886.803174
1488.792228,-6883.915261,1302.362347,1480.411884
1488.792539,-7402.059420,1532.190996,518.144159
1488.792850,-8586.388927,1762.019645,518.144159
1488.793162,-10140.821405,1915.238745,740.205942
1488.793473,-11029.068536,2451.505594,1998.556043
1488.793785,-11843.295072,1072.533697,2812.782580
1488.794096,-11917.315666,-383.047749,4071.132681
1488.794408,-10881.027347,-1762.019645,4663.297435
1488.794719,-7772.162391,-2068.457845,4219.173869
1488.795030,-4737.318029,-2451.505594,3108.864956
1488.795342,-2590.720797,-1685.410096,2442.679609
1488.795653,-3923.091493,-2374.896044,1480.411884
1488.795965,-6587.832884,-995.924147,2294.638420
1488.796276,-10066.800811,0.000000,3404.947333
1488.796587,-13545.768739,1608.800546,4811.338623
1488.796899,-15100.201217,1378.971896,6143.709319
1488.797210,-14063.912898,306.438199,6143.709319
1488.797522,-10510.924376,-229.828649,5033.400406
1488.797833,-5921.647536,153.219100,3701.029710
1488.798145,-3923.091493,383.047749,1702.473667
1488.798456,-3034.844362,0.000000,1184.329507
1488.798767,-3256.906145,612.876398,1258.350101
1488.799079,-5995.668130,459.657299,2072.576638
1488.799390,-9844.739029,995.924147,3552.988522
1488.799702,-13693.809927,1225.752797,4885.359217
1488.800013,-14952.160028,1225.752797,6217.729913
1488.800324,-12805.562797,153.219100,5773.606348
1488.800636,-9992.780217,-1072.533697,5033.400406
1488.800947,-7550.100608,-2298.286494,4219.173869
1488.801259,-5921.647536,-1532.190996,3478.967927
1488.801570,-5773.606348,-919.314598,3997.112087
1488.801882,-7105.977043,-306.438199,5477.523971
1488.802193,-10732.986159,-229.828649,6587.832884
1488.802504,-11991.336260,0.000000,8216.285956
1488.802816,-11547.212695,-229.828649,7105.977043
1488.803127,-8512.368333,459.657299,4959.379811
1488.803439,-5329.482782,2681.334243,2590.720797
1488.803750,-4145.153275,2757.943793,296.082377
1488.804061,-4293.194464,2451.505594,-296.082377
1488.804373,-6439.791695,2068.457845,666.185348
1488.804684,-9474.636058,1302.362347,3034.844362
1488.804996,-12139.377449,76.609550,5403.503377
1488.805307,-13841.851115,-2298.286494,7179.997637
1488.805618,-13249.686362,-2757.943793,8660.409521
1488.805930,-11251.130318,-2451.505594,8956.491898
1488.806241,-9326.594869,-1608.800546,8216.285956
1488.806553,-7105.977043,-766.095498,5699.585753
1488.806864,-4367.215058,76.609550,3108.864956
1488.807176,-1406.391290,1838.629195,592.164754
1488.807487,-962.267725,3294.210641,-148.041188
1488.807798,-2886.803174,3677.258390,740.205942
1488.808110,-7179.997637,1991.848295,2072.576638
1488.808421,-11325.150913,0.000000,3701.029710
1488.808733,-14508.036463,-1378.971896,6291.750507
1488.809044,-15914.427753,-2068.457845,7105.977043
1488.809355,-14952.160028,-2068.457845,6661.853478
1488.809667,-12287.418637,-1685.410096,5625.565159
1488.809978,-9178.553681,-1149.143247,4219.173869
1488.810290,-6957.935855,-306.438199,3552.988522
1488.810601,-6291.750507,459.657299,3256.906145
1488.810913,-5033.400406,459.657299,3552.988522
1488.811224,-4293.194464,76.609550,3034.844362
1488.811535,-3997.112087,0.000000,1924.535449
1488.811847,-4367.215058,306.438199,222.061783
1488.812158,-5107.421000,153.219100,-666.185348
1488.812470,-8586.388927,0.000000,-444.123565
1488.812781,-13915.871710,-459.657299,2220.617826
1488.813092,-18135.045579,-766.095498,5033.400406
1488.813404,-20799.786970,-1608.800546,6957.935855
1488.813715,-17912.983796,-1225.752797,7624.121203
1488.814027,-11917.315666,-1072.533697,5699.585753
1488.814338,-5033.400406,-536.266849,3849.070898
1488.814649,-740.205942,1149.143247,1924.535449
1488.814961,222.061783,2374.896044,-962.267725
1488.815272,74.020594,1455.581446,-2368.659014
1488.815584,-2886.803174,459.657299,-3478.967927
1488.815895,-6587.832884,306.438199,-1628.453072
1488.816207,-10510.924376,689.485948,666.185348
1488.816518,-16432.571912,-536.266849,3478.967927
1488.816829,-21021.848753,-1225.752797,6883.915261
1488.817141,-21169.889941,-2298.286494,9030.512492
1488.817452,-18283.086767,-2145.067394,9622.677246
1488.817764,-12657.521608,-1608.800546,8438.347739
1488.818075,-6291.750507,-689.485948,4737.318029
1488.818386,1036.288319,-306.438199,-0.000000
1488.818698,6587.832884,842.705048,-3849.070898
1488.819009,6957.935855,2604.724693,-4811.338623
1488.819321,370.102971,2911.162892,-2960.823768
1488.819632,-9474.636058,1762.019645,-0.000000
1488.819944,-18431.127956,1302.362347,4737.318029
1488.820255,-23612.569550,919.314598,7920.203579
1488.820566,-22650.301825,-766.095498,9548.656652
1488.820878,-16802.674883,-1991.848295,8586.388927
1488.821189,-9400.615463,-2834.553343,5329.482782
1488.821501,-2146.597232,-2221.676944,2072.576638
1488.821812,2516.700203,-612.876398,1036.288319
1488.822123,1850.514855,459.657299,-74.020594
1488.822435,-2812.782580,1302.362347,1628.453072
1488.822746,-8586.388927,1685.410096,3182.885551
1488.823058,-12435.459826,1378.971896,4367.215058
1488.823369,-12435.459826,2145.067394,4959.379811
1488.823681,-11621.233289,1685.410096,3552.988522
1488.823992,-10362.883188,-536.266849,2960.823768
1488.824303,-9474.636058,-2451.505594,2812.782580
1488.824615,-9474.636058,-1838.629195,3997.112087
1488.824926,-10658.965565,0.000000,5847.626942
1488.825238,-12213.398043,76.609550,7476.080014
1488.825549,-12435.459826,153.219100,8438.347739
1488.825860,-9918.759623,-306.438199,7772.162391
1488.826172,-5625.565159,459.657299,5625.565159
1488.826483,-2146.597232,1378.971896,1998.556043
1488.826795,-740.205942,3600.648841,-1110.308913
1488.827106,-1332.370696,2451.505594,-2368.659014
1488.827417,-5181.441594,842.705048,-1036.288319
1488.827729,-10140.821405,76.609550,2146.597232
1488.828040,-15544.324782,-229.828649,6735.874072
1488.828352,-18653.189738,-1991.848295,9992.780217
1488.828663,-16950.716072,-4519.963438,12361.439231
1488.828975,-12361.439231,-5975.544884,10732.986159
1488.829286,-8142.265362,-4519.963438,7624.121203
1488.829597,-4071.132681,0.000000,4219.173869
1488.829909,-1776.494261,3370.820191,-370.102971
1488.830220,0.000000,5132.839837,-1998.556043
1488.830532,-1850.514855,5362.668486,-2072.576638
1488.830843,-6365.771101,4979.620737,-0.000000
1488.831154,-9474.636058,2834.553343,2812.782580
1488.831466,-10658.965565,-766.095498,4071.132681
1488.831777,-10510.924376,-2681.334243,4367.215058
1488.832089,-10288.862594,-3600.648841,5403.503377
1488.832400,-12361.439231,-2681.334243,5921.647536
1488.832712,-14359.995275,-2145.067394,6143.709319
1488.833023,-14508.036463,-2451.505594,5995.668130
1488.833334,-10955.047942,-1762.019645,3034.844362
1488.833646,-6143.709319,76.609550,888.247130
1488.833957,-2738.761985,2681.334243,-0.000000
1488.834269,-3404.947333,2145.067394,-2072.576638
1488.834580,-4959.379811,1302.362347,-2368.659014
1488.834891,-7105.977043,612.876398,-740.205942
1488.835203,-10288.862594,229.828649,518.144159
1488.835514,-12435.459826,-306.438199,2146.597232
1488.835826,-13545.768739,-612.876398,2146.597232
1488.836137,-14211.954086,0.000000,2368.659014
1488.836448,-12435.459826,-842.705048,1998.556043
1488.836760,-11325.150913,-766.095498,2812.782580
1488.837071,-8882.471304,153.219100,2516.700203
1488.837383,-7179.997637,229.828649,1184.329507
1488.837694,-5995.668130,536.266849,-888.247130
1488.838006,-4811.338623,1378.971896,-2220.617826
1488.838317,-3849.070898,2145.067394,-2960.823768
1488.838628,-3627.009116,2145.067394,-3108.864956
1488.838940,-6365.771101,1302.362347,-2072.576638
1488.839251,-10066.800811,-1532.190996,666.185348
1488.839563,-13841.851115,-3524.039291,3701.029710
1488.839874,-14434.015869,-4903.011187,5773.606348
1488.840185,-13027.624579,-4290.134789,4885.359217
1488.840497,-11399.171507,-2757.943793,3627.009116
1488.840808,-9622.677246,-1455.581446,2220.617826
1488.841120,-8216.285956,153.219100,-370.102971
1488.841431,-5551.544565,1225.752797,-1998.556043
1488.841743,-4959.379811,2528.115143,-2886.803174
1488.842054,-6809.894666,1838.629195,-2146.597232
1488.842365,-8142.265362,1838.629195,-888.247130
1488.842677,-10658.965565,1072.533697,-0.000000
1488.842988,-10362.883188,612.876398,1702.473667
1488.843300,-9400.615463,-383.047749,2812.782580
1488.843611,-10214.842000,-1149.143247,2812.782580
1488.843922,-10510.924376,-1072.533697,3627.009116
1488.844234,-9770.718434,-1149.143247,2368.659014
1488.844545,-9474.636058,-612.876398,1924.535449
1488.844857,-10362.883188,919.314598,444.123565
1488.845168,-11029.068536,2451.505594,444.123565
1488.845480,-10214.842000,3064.381992,888.247130
1488.845791,-7772.162391,383.047749,888.247130
1488.846102,-7179.997637,-2528.115143,-888.247130
1488.846414,-5921.647536,-2145.067394,-518.144159
1488.846725,-6069.688724,76.609550,2220.617826
1488.847037,-8586.388927,-536.266849,3849.070898
1488.847348,-9844.739029,-1455.581446,4737.318029
1488.847659,-10955.047942,-1991.848295,3775.050304
1488.847971,-8512.368333,76.609550,3034.844362
1488.848282,-6439.791695,2374.896044,2516.700203
1488.848594,-7105.977043,2451.505594,74.020594
1488.848905,-8364.327145,2451.505594,-1332.370696
1488.849216,-8068.244768,1302.362347,-3034.844362
1488.849528,-5921.647536,1225.752797,-1776.494261
1488.849839,-7402.059420,383.047749,-1480.411884
1488.850151,-9474.636058,0.000000,-370.102971
1488.850462,-11325.150913,-1532.190996,1036.288319
1488.850773,-11325.150913,-1685.410096,2812.782580
1488.851085,-9474.636058,-766.095498,4959.379811
1488.851396,-8808.450710,-1838.629195,4885.359217
1488.851708,-7254.018232,-3370.820191,3182.885551
1488.852019,-6735.874072,-2757.943793,296.082377
1488.852330,-5625.565159,0.000000,-2294.638420
1488.852642,-5255.462188,3140.991542,-3256.906145
1488.852953,-7698.141797,2834.553343,-4589.276840
1488.853264,-10510.924376,1838.629195,-3182.885551
1488.853576,-13619.789333,0.000000,-1184.329507
1488.853887,-15174.221811,-536.266849,666.185348
1488.854199,-14137.933492,-459.657299,2664.741391
1488.854510,-12139.377449,-1532.190996,3108.864956
1488.854821,-9622.677246,-1532.190996,3404.947333
1488.855133,-7402.059420,-536.266849,2294.638420
1488.855444,-4737.318029,612.876398,1184.329507
1488.855755,-3478.967927,689.485948,-1480.411884
1488.856067,-3775.050304,459.657299,-2886.803174
1488.856378,-3701.029710,1378.971896,-3034.844362
1488.856689,-7920.203579,1378.971896,-3997.112087
1488.857001,-12287.418637,383.047749,-2886.803174
1488.857312,-13989.892304,-306.438199,-1036.288319
1488.857624,-15322.262999,-1455.581446,592.164754
1488.857935,-15174.221811,-1915.238745,2220.617826
1488.858246,-13397.727550,-1915.238745,3034.844362
1488.858558,-11029.068536,-2451.505594,2960.823768
1488.858869,-7476.080014,-612.876398,1998.556043
1488.859180,-4367.215058,0.000000,1110.308913
1488.859492,-2146.597232,-306.438199,-592.164754
1488.859803,-2072.576638,689.485948,-1332.370696
1488.860115,-4293.194464,1072.533697,-2738.761985
1488.860426,-8290.306550,919.314598,-2812.782580
1488.860737,-12953.603985,1072.533697,-1184.329507
1488.861049,-15840.407159,-229.828649,518.144159
1488.861360,-15544.324782,-2451.505594,962.267725
1488.861671,-11843.295072,-3370.820191,1850.514855
1488.861983,-8216.285956,-2451.505594,3701.029710
1488.862294,-8364.327145,-3524.039291,3552.988522
1488.862606,-7846.182985,-2681.334243,2368.659014
1488.862917,-7031.956449,229.828649,1776.494261
1488.863228,-6809.894666,3447.429741,1998.556043
1488.863540,-6587.832884,3217.601092,444.123565
1488.863851,-6365.771101,1838.629195,-2960.823768
1488.864162,-5699.585753,1762.019645,-5551.544565
1488.864474,-3478.967927,2145.067394,-4589.276840
1488.864785,-6365.771101,1225.752797,-2960.823768
1488.865096,-14211.954086,-459.657299,-962.267725
1488.865408,-18875.251521,-1608.800546,3404.947333
1488.865719,-18875.251521,-2451.505594,6069.688724
1488.866031,-14434.015869,-1455.581446,7476.080014
1488.866342,-10362.883188,-766.095498,4737.318029
1488.866653,-5477.523971,-536.266849,1554.432478
1488.866965,-148.041188,612.876398,-1776.494261
1488.867276,3182.885551,2681.334243,-3775.050304
1488.867587,1924.535449,4366.744339,-4737.318029
1488.867899,-2960.823768,3294.210641,-3775.050304
1488.868210,-8882.471304,383.047749,-1554.432478
1488.868522,-11917.315666,-842.705048,-0.000000
1488.868833,-15174.221811,-536.266849,2368.659014
1488.869144,-19097.313304,306.438199,5625.565159
1488.869456,-19393.395680,-995.924147,7698.141797
1488.869767,-15544.324782,-2604.724693,7328.038826
1488.870078,-9770.718434,-3064.381992,4959.379811
1488.870390,-4737.318029,-1532.190996,1554.432478
1488.870701,370.102971,919.314598,-1184.329507
1488.871013,2664.741391,2604.724693,-2516.700203
1488.871324,962.267725,995.924147,-3627.009116
1488.871635,-2960.823768,459.657299,-2368.659014
1488.871947,-8142.265362,383.047749,-1480.411884
1488.872258,-13101.645173,76.609550,2516.700203
1488.872569,-16358.551318,-842.705048,4441.235652
1488.872881,-17098.757260,-2681.334243,4515.256246
1488.873192,-17690.922014,-1608.800546,5403.503377
1488.873503,-15322.262999,-1532.190996,5847.626942
1488.873815,-10436.903782,-919.314598,4811.338623
1488.874126,-6957.935855,-1608.800546,1850.514855
1488.874438,-4441.235652,-612.876398,-0.000000
1488.874749,-4737.318029,459.657299,-814.226536
1488.875060,-4737.318029,2528.115143,-1628.453072
1488.875372,-4293.194464,2681.334243,-3404.947333
1488.875683,-3849.070898,842.705048,-4663.297435
1488.875994,-4293.194464,306.438199,-2368.659014
1488.876306,-8068.244768,-919.314598,-740.205942
1488.876617,-12065.356855,-612.876398,1110.308913
1488.876929,-16802.674883,-1378.971896,3182.885551
1488.877240,-19541.436869,-1302.362347,5995.668130
1488.877551,-17764.942608,-1225.752797,5403.503377
1488.877863,-12213.398043,0.000000,2220.617826
1488.878174,-5403.503377,612.876398,-1924.535449
1488.878485,1184.329507,1149.143247,-5995.668130
1488.878797,2886.803174,1838.629195,-7550.100608
1488.879108,0.000000,2681.334243,-7402.059420
1488.879420,-5329.482782,2987.772442,-5033.400406
1488.879731,-10807.006753,1455.581446,-1850.514855
1488.880042,-14211.954086,-1225.752797,1628.453072
1488.880354,-14434.015869,-2451.505594,2442.679609
1488.880665,-12879.583391,-1915.238745,1332.370696
1488.880976,-11843.295072,-1072.533697,1702.473667
1488.881288,-10214.842000,-1532.190996,1184.329507
1488.881599,-9770.718434,-1991.848295,370.102971
1488.881910,-9474.636058,-1378.971896,-148.041188
1488.882222,-9104.533087,0.000000,-814.226536
1488.882533,-6883.915261,1838.629195,-1480.411884
1488.882845,-4737.318029,995.924147,-2812.782580
1488.883156,-5181.441594,1378.971896,-3108.864956
1488.883467,-6291.750507,536.266849,-2368.659014
1488.883779,-7846.182985,1072.533697,-370.102971
1488.884090,-10436.903782,0.000000,1850.514855
1488.884401,-12065.356855,-1149.143247,2442.679609
1488.884713,-13693.809927,-2374.896044,3849.070898
1488.885024,-13249.686362,-1532.190996,4071.132681
1488.885336,-11843.295072,-995.924147,3923.091493
1488.885647,-11399.171507,76.609550,2886.803174
1488.885958,-10066.800811,842.705048,2442.679609
1488.886270,-8808.450710,76.609550,-0.000000
1488.886581,-7254.018232,153.219100,-592.164754
1488.886892,-5255.462188,1072.533697,-2886.803174
1488.887204,-4219.173869,1838.629195,-2368.659014
1488.887515,-4663.297435,1225.752797,-1184.329507
1488.887827,-6883.915261,995.924147,962.267725
1488.888138,-10066.800811,0.000000,3701.029710
1488.888449,-12065.356855,-2068.457845,5625.565159
1488.888761,-14359.995275,-1762.019645,6291.750507
1488.889072,-12583.501014,-1149.143247,5625.565159
1488.889383,-9400.615463,229.828649,2516.700203
1488.889695,-7105.977043,536.266849,-370.102971
1488.890006,-4515.256246,1608.800546,-1110.308913
1488.890317,-2664.741391,-306.438199,-2960.823768
1488.890629,-3923.091493,0.000000,-3849.070898
1488.890940,-7772.162391,2068.457845,-814.226536
1488.891252,-11621.233289,1455.581446,1554.432478
1488.891563,-11621.233289,-383.047749,3627.009116
1488.891874,-9992.780217,-2068.457845,3404.947333
1488.892186,-7994.224174,-3064.381992,3404.947333
1488.892497,-5847.626942,-1378.971896,1702.473667
1488.892808,-7031.956449,306.438199,814.226536
1488.893120,-9770.718434,919.314598,888.247130
1488.893431,-10658.965565,-153.219100,1036.288319
1488.893743,-11029.068536,-536.266849,-148.041188
1488.894054,-9770.718434,1915.238745,1184.329507
1488.894365,-9474.636058,1072.533697,740.205942
1488.894677,-8882.471304,-1378.971896,-740.205942
1488.894988,-8512.368333,-1532.190996,-1406.391290
1488.895299,-8216.285956,-689.485948,-222.061783
1488.895611,-6439.791695,-995.924147,1110.308913
1488.895922,-6365.771101,-1532.190996,-370.102971
1488.896234,-9104.533087,-995.924147,-1036.288319
1488.896545,-9104.533087,-842.705048,-592.164754
1488.896856,-9696.697840,306.438199,-148.041188
1488.897168,-11473.192101,2528.115143,1480.411884
1488.897479,-12879.583391,3140.991542,2516.700203
1488.897790,-14359.995275,995.924147,1036.288319
1488.898102,-11473.192101,459.657299,592.164754
1488.898413,-6957.935855,2374.896044,-888.247130
1488.898724,-4145.153275,1532.190996,-2590.720797
1488.899036,-2960.823768,0.000000,-2960.823768
1488.899347,-4293.194464,-1378.971896,-2812.782580
1488.899659,-6143.709319,-306.438199,-518.144159
1488.899970,-9992.780217,-1072.533697,1554.432478
1488.900281,-12657.521608,-1455.581446,4071.132681
1488.900593,-13841.851115,-1302.362347,2960.823768
1488.900904,-12731.542202,0.000000,2146.597232
1488.901215,-10658.965565,995.924147,814.226536
1488.901527,-7550.100608,2221.676944,-444.123565
1488.901838,-6217.729913,1149.143247,-1110.308913
1488.902150,-6957.935855,-153.219100,-1702.473667
1488.902461,-7994.224174,-1072.533697,-222.061783
1488.902772,-10214.842000,-1685.410096,2294.638420
1488.903084,-11917.315666,-2145.067394,2664.741391
1488.903395,-12805.562797,-3370.820191,3478.967927
1488.903706,-9326.594869,-3907.087040,2442.679609
1488.904018,-4663.297435,-2145.067394,-0.000000
1488.904329,-4219.173869,-995.924147,-1480.411884
1488.904641,-5699.585753,76.609550,-666.185348
1488.904952,-8956.491898,153.219100,-296.082377
1488.905263,-12287.418637,1302.362347,1110.308913
1488.905575,-13989.892304,2987.772442,2516.700203
1488.905886,-13989.892304,2068.457845,2516.700203
1488.906197,-11029.068536,-153.219100,1850.514855
1488.906509,-7476.080014,-1608.800546,-148.041188
1488.906820,-4737.318029,-2145.067394,-2664.741391
1488.907131,-4071.132681,-919.314598,-2812.782580
1488.907443,-6217.729913,689.485948,-2812.782580
1488.907754,-7105.977043,689.485948,-1110.308913
1488.908066,-7994.224174,153.219100,-592.164754
1488.908377,-10658.965565,842.705048,740.205942
1488.908688,-12509.480420,2911.162892,2590.720797
1488.909000,-13175.665768,2528.115143,4219.173869
1488.909311,-12065.356855,459.657299,2220.617826
1488.909622,-8290.306550,153.219100,-666.185348
1488.909934,-5921.647536,842.705048,-2590.720797
1488.910245,-4589.276840,919.314598,-1628.453072
1488.910557,-6661.853478,-842.705048,-1332.370696
1488.910868,-9548.656652,-2298.286494,-1776.494261
1488.911179,-11547.212695,-1532.190996,740.205942
1488.911491,-11769.274478,-1455.581446,4219.173869
1488.911802,-10140.821405,-766.095498,4219.173869
1488.912113,-7550.100608,-766.095498,2590.720797
1488.912425,-6513.812290,-1991.848295,888.247130
1488.912736,-4885.359217,-842.705048,-592.164754
1488.913048,-3701.029710,1532.190996,-518.144159
1488.913359,-6143.709319,2528.115143,-518.144159
1488.913670,-9622.677246,689.485948,2146.597232
1488.913982,-13175.665768,-2451.505594,2516.700203
1488.914293,-12731.542202,-2451.505594,3330.926739
1488.914604,-11103.089130,-1072.533697,3849.070898
1488.914916,-10436.903782,-2298.286494,4145.153275
1488.915227,-9326.594869,-3294.210641,2516.700203
1488.915538,-7624.121203,-2221.676944,296.082377
1488.915850,-4811.338623,1838.629195,-0.000000
1488.916161,-4515.256246,2834.553343,-370.102971
1488.916473,-6883.915261,2681.334243,-222.061783
1488.916784,-8290.306550,2221.676944,-74.020594
1488.917095,-9622.677246,766.095498,-0.000000
1488.917407,-10584.944971,1302.362347,2072.576638
1488.917718,-10584.944971,1762.019645,3034.844362
1488.918029,-10066.800811,-1149.143247,370.102971
1488.918341,-9844.739029,-2451.505594,222.061783
1488.918652,-10510.924376,-1991.848295,518.144159
1488.918964,-9622.677246,383.047749,370.102971
1488.919275,-9992.780217,1455.581446,-888.247130
1488.919586,-9844.739029,1225.752797,-592.164754
1488.919898,-7624.121203,536.266849,-592.164754
1488.920209,-4663.297435,995.924147,-814.226536
1488.920520,-6513.812290,612.876398,-1850.514855
1488.920832,-8364.327145,-536.266849,-1924.535449
1488.921143,-8438.347739,-842.705048,-1924.535449
1488.921454,-9030.512492,0.000000,-1332.370696
1488.921766,-11621.233289,383.047749,-962.267725
1488.922077,-13545.768739,-1455.581446,-0.000000
1488.922389,-13101.645173,-2604.724693,888.247130
1488.922700,-10955.047942,-1838.629195,1480.411884
1488.923011,-9844.739029,-1915.238745,1702.473667
1488.923323,-9918.759623,-1302.362347,444.123565
1488.923634,-10436.903782,153.219100,-222.061783
1488.923945,-7328.038826,1762.019645,-1480.411884
1488.924257,-6069.688724,2145.067394,-2146.597232
1488.924568,-7402.059420,1991.848295,-1998.556043
1488.924880,-7698.141797,1225.752797,-1702.473667
1488.925191,-6883.915261,-1378.971896,-2368.659014
1488.925502,-6439.791695,-2068.457845,-222.061783
1488.925814,-10214.842000,0.000000,2072.576638
1488.926125,-14730.098246,229.828649,3923.091493
1488.926436,-15692.365970,-3217.601092,5107.421000
1488.926748,-14137.933492,-3600.648841,4515.256246
1488.927059,-10732.986159,-1149.143247,2886.803174
1488.927371,-6661.853478,1915.238745,-74.020594
1488.927682,-2664.741391,3140.991542,-2294.638420
1488.927993,-444.123565,3064.381992,-2960.823768
1488.928305,-296.082377,1302.362347,-2220.617826
1488.928616,-3552.988522,-459.657299,-1480.411884
1488.928927,-7476.080014,383.047749,1184.329507
1488.929239,-10510.924376,306.438199,2368.659014
1488.929550,-11917.315666,689.485948,3404.947333
1488.929861,-12435.459826,536.266849,3701.029710
1488.930173,-12805.562797,-1225.752797,3256.906145
1488.930484,-11325.150913,-1225.752797,3552.988522
1488.930796,-9252.574275,612.876398,3627.009116
1488.931107,-7624.121203,1149.143247,888.247130
1488.931418,-7624.121203,919.314598,518.144159
1488.931730,-6587.832884,689.485948,-74.020594
1488.932041,-4293.194464,1302.362347,-148.041188
1488.932352,-2516.700203,842.705048,-1258.350101
1488.932664,-3108.864956,-919.314598,-1776.494261
1488.932975,-6809.894666,-2068.457845,-2146.597232
1488.933287,-10288.862594,-689.485948,888.247130
1488.933598,-14878.139434,1608.800546,3775.050304
1488.933909,-19689.478057,-536.266849,5551.544565
1488.934221,-20873.807564,-1915.238745,5847.626942
1488.934532,-16580.613101,-2068.457845,4885.359217
1488.934843,-8142.265362,-1608.800546,2146.597232
1488.935155,-2886.803174,-995.924147,-1110.308913
1488.935466,-1702.473667,-612.876398,-4145.153275
1488.935778,-2220.617826,76.609550,-5255.462188
1488.936089,-3923.091493,612.876398,-3701.029710
1488.936400,-7254.018232,842.705048,-1480.411884
1488.936712,-11843.295072,-612.876398,-0.000000
1488.937023,-13249.686362,-1915.238745,962.267725
1488.937334,-12657.521608,-612.876398,1628.453072
1488.937646,-11843.295072,229.828649,1554.432478
1488.937957,-13471.748144,0.000000,962.267725
1488.938268,-14359.995275,153.219100,740.205942
1488.938580,-13767.830521,1455.581446,2072.576638
1488.938891,-10140.821405,842.705048,1110.308913
1488.939203,-6069.688724,306.438199,-2516.700203
1488.939514,-1850.514855,1532.190996,-4219.173869
1488.939825,1480.411884,2757.943793,-4145.153275
1488.940137,-1110.308913,2757.943793,-2886.803174
1488.940448,-6661.853478,1608.800546,-666.185348
1488.940759,-11399.171507,612.876398,1406.391290
1488.941071,-13101.645173,-1072.533697,2738.761985
1488.941382,-11399.171507,-766.095498,2590.720797
1488.941694,-10732.986159,-842.705048,962.267725
1488.942005,-10066.800811,306.438199,518.144159
1488.942316,-10436.903782,-459.657299,1110.308913
1488.942628,-9326.594869,-1455.581446,1924.535449
1488.942939,-8734.430116,-1225.752797,2220.617826
1488.943250,-9474.636058,-1378.971896,1998.556043
1488.943562,-7698.141797,-1072.533697,888.247130
1488.943873,-4145.153275,153.219100,-444.123565
1488.944185,-1332.370696,1762.019645,-1036.288319
1488.944496,-2294.638420,842.705048,-1184.329507
1488.944807,-5403.503377,-1302.362347,-296.082377
1488.945119,-10066.800811,-2298.286494,2146.597232
1488.945430,-15396.283594,-1302.362347,3775.050304
1488.945741,-19615.457463,-229.828649,5033.400406
1488.946053,-20725.766376,-306.438199,4811.338623
1488.946364,-15692.365970,-766.095498,3923.091493
1488.946675,-9622.677246,-1608.800546,1776.494261
1488.946987,-3849.070898,-1762.019645,-1406.391290
1488.947298,444.123565,-766.095498,-3404.947333
1488.947610,814.226536,1225.752797,-5033.400406
1488.947921,-1850.514855,2911.162892,-2886.803174
1488.948232,-7624.121203,3370.820191,666.185348
1488.948544,-13693.809927,2145.067394,2960.823768
1488.948855,-17098.757260,153.219100,4515.256246
1488.949166,-15174.221811,-383.047749,3701.029710
1488.949478,-10807.006753,536.266849,1184.329507
1488.949789,-8142.265362,1149.143247,-888.247130
1488.950101,-7105.977043,-766.095498,-2664.741391
1488.950412,-7846.182985,-2528.115143,-4219.173869
1488.950723,-7772.162391,-536.266849,-1332.370696
1488.951034,-8882.471304,-536.266849,-148.041188
1488.951346,-9104.533087,0.000000,592.164754
1488.951657,-8882.471304,153.219100,666.185348
1488.951968,-7105.977043,153.219100,-74.020594
1488.952280,-5329.482782,306.438199,-222.061783
1488.952591,-5477.523971,689.485948,-1036.288319
1488.952902,-7476.080014,229.828649,-444.123565
1488.953214,-9548.656652,-1225.752797,-888.247130
1488.953525,-11695.253884,-153.219100,-296.082377
1488.953836,-14285.974681,76.609550,370.102971
1488.954148,-15840.407159,76.609550,2590.720797
1488.954459,-14804.118840,-1608.800546,3923.091493
1488.954770,-9992.780217,-3140.991542,2294.638420
1488.955082,-4737.318029,-3370.820191,-888.247130
1488.955393,-2442.679609,0.000000,-2368.659014
1488.955704,-2516.700203,1838.629195,-1480.411884
1488.956016,-5921.647536,2681.334243,-1258.350101
1488.956327,-9030.512492,2221.676944,592.164754
1488.956638,-10658.965565,229.828649,1850.514855
1488.956950,-10214.842000,-766.095498,3034.844362
1488.957261,-9030.512492,0.000000,2886.803174
1488.957572,-9474.636058,-612.876398,1628.453072
1488.957884,-10658.965565,-1532.190996,444.123565
1488.958195,-10658.965565,-612.876398,814.226536
1488.958506,-11103.089130,306.438199,814.226536
1488.958818,-9326.594869,919.314598,1480.411884
1488.959129,-8068.244768,459.657299,1406.391290
1488.959440,-7031.956449,153.219100,-0.000000
1488.959752,-5551.544565,1532.190996,-0.000000
1488.960063,-4811.338623,1915.238745,888.247130
1488.960374,-5329.482782,1608.800546,1258.350101
1488.960685,-7772.162391,229.828649,1036.288319
1488.960997,-9326.594869,-766.095498,1332.370696
1488.961308,-10510.924376,-689.485948,888.247130
1488.961619,-10066.800811,-536.266849,222.061783
1488.961931,-10362.883188,-306.438199,-0.000000
1488.962242,-11103.089130,-383.047749,666.185348
1488.962553,-11917.315666,-1762.019645,962.267725
1488.962865,-11917.315666,-2221.676944,2294.638420
1488.963176,-9918.759623,-1838.629195,1258.350101
1488.963487,-8882.471304,766.095498,1776.494261
1488.963799,-8734.430116,459.657299,888.247130
1488.964110,-7105.977043,-306.438199,222.061783
1488.964421,-5477.523971,-306.438199,-814.226536
1488.964733,-3701.029710,0.000000,-1628.453072
1488.965044,-4071.132681,-306.438199,-2368.659014
1488.965355,-8142.265362,-766.095498,-2072.576638
1488.965667,-13545.768739,-612.876398,370.102971
1488.965978,-17616.901420,-1225.752797,2368.659014
1488.966289,-18727.210333,-536.266849,3923.091493
1488.966601,-16654.633695,-229.828649,3627.009116
1488.966912,-11621.233289,-1302.362347,1258.350101
1488.967223,-6069.688724,-1149.143247,-1258.350101
1488.967535,-1702.473667,995.924147,-3404.947333
1488.967846,592.164754,1762.019645,-4367.215058
1488.968157,-1480.411884,689.485948,-3404.947333
1488.968469,-4959.379811,383.047749,-1480.411884
1488.968780,-8734.430116,76.609550,-0.000000
1488.969091,-11843.295072,153.219100,1998.556043
1488.969403,-13915.871710,689.485948,2886.803174
1488.969714,-15914.427753,1532.190996,3182.885551
1488.970025,-14211.954086,536.266849,2812.782580
1488.970337,-10436.903782,-1455.581446,222.061783
1488.970648,-6661.853478,76.609550,-1406.391290
1488.970959,-4293.194464,2528.115143,-518.144159
1488.971270,-4589.276840,1149.143247,-1480.411884
1488.971582,-4589.276840,-612.876398,-444.123565
1488.971893,-6143.709319,-1225.752797,1480.411884
1488.972204,-7105.977043,-536.266849,1628.453072
1488.972516,-6809.894666,766.095498,1628.453072
1488.972827,-7105.977043,0.000000,444.123565
1488.973138,-7624.121203,-766.095498,-0.000000
1488.973450,-9030.512492,-919.314598,592.164754
1488.973761,-11547.212695,-459.657299,2368.659014
1488.974072,-14582.057057,-306.438199,3034.844362
1488.974384,-16580.613101,-306.438199,4441.235652
1488.974695,-14434.015869,-1532.190996,4071.132681
1488.975006,-10066.800811,-1532.190996,1258.350101
1488.975318,-6365.771101,-1455.581446,-592.164754
1488.975629,-4663.297435,-766.095498,-1776.494261
1488.975940,-4515.256246,-306.438199,-2220.617826
1488.976252,-5477.523971,919.314598,-1850.514855
1488.976563,-7328.038826,1149.143247,-296.082377
1488.976874,-9992.780217,689.485948,2442.679609
1488.977186,-12213.398043,-536.266849,3627.009116
1488.977497,-12657.521608,229.828649,3552.988522
1488.977808,-13397.727550,-689.485948,3404.947333
1488.978120,-13693.809927,-306.438199,3256.906145
1488.978431,-11991.336260,306.438199,1406.391290
1488.978742,-8364.327145,0.000000,-444.123565
1488.979054,-5551.544565,-306.438199,-2294.638420
1488.979365,-5033.400406,153.219100,-3108.864956
1488.979676,-4219.173869,1149.143247,-2368.659014
1488.979988,-4737.318029,1225.752797,-2072.576638
1488.980299,-6661.853478,383.047749,444.123565
1488.980610,-8586.388927,229.828649,1776.494261
1488.980921,-10214.842000,536.266849,2146.597232
1488.981233,-10140.821405,689.485948,1850.514855
1488.981544,-10066.800811,76.609550,370.102971
1488.981855,-10362.883188,-1225.752797,-444.123565
1488.982167,-8808.450710,-1378.971896,-1110.308913
1488.982478,-7179.997637,-459.657299,-1184.329507
1488.982789,-7550.100608,-995.924147,-2146.597232
1488.983101,-9844.739029,-689.485948,-962.267725
1488.983412,-11917.315666,459.657299,1554.432478
1488.983723,-11547.212695,-612.876398,2220.617826
1488.984035,-9770.718434,-919.314598,444.123565
1488.984346,-5551.544565,76.609550,-74.020594
1488.984657,-3256.906145,3524.039291,-1036.288319
1488.984969,-4663.297435,1532.190996,-2220.617826
1488.985280,-6883.915261,-459.657299,-666.185348
1488.985591,-11695.253884,-2145.067394,-222.061783
1488.985903,-13767.830521,-919.314598,2146.597232
1488.986214,-14804.118840,0.000000,3256.906145
1488.986525,-15026.180623,-842.705048,3034.844362
1488.986837,-12435.459826,-1532.190996,1702.473667
1488.987148,-9030.512492,-2221.676944,-592.164754
1488.987459,-3997.112087,-995.924147,-666.185348
1488.987771,-2886.803174,383.047749,-888.247130
1488.988082,-5033.400406,1455.581446,-222.061783
1488.988393,-7994.224174,536.266849,444.123565
1488.988705,-8216.285956,383.047749,1332.370696
1488.989016,-9104.533087,153.219100,1776.494261
1488.989327,-9400.615463,-229.828649,2072.576638
1488.989639,-10066.800811,0.000000,962.267725
1488.989950,-10214.842000,-995.924147,-222.061783
1488.990261,-10658.965565,229.828649,1036.288319
1488.990572,-11473.192101,842.705048,740.205942
1488.990884,-10658.965565,842.705048,1776.494261
1488.991195,-9918.759623,-459.657299,888.247130
1488.991506,-9252.574275,-383.047749,1332.370696
1488.991818,-7772.162391,459.657299,1480.411884
1488.992129,-6439.791695,1608.800546,814.226536
1488.992440,-6143.709319,1072.533697,296.082377
1488.992752,-6291.750507,-306.438199,-0.000000
1488.993063,-6883.915261,-2221.676944,-0.000000
1488.993374,-7031.956449,-1991.848295,-888.247130
1488.993686,-7328.038826,0.000000,-666.185348
1488.993997,-9030.512492,612.876398,-0.000000
1488.994308,-10362.883188,-842.705048,2146.597232
1488.994620,-12953.603985,-1302.362347,3330.926739
1488.994931,-15470.304188,-1378.971896,3701.029710
1488.995242,-13397.727550,0.000000,3404.947333
1488.995554,-10362.883188,153.219100,962.267725
1488.995865,-7402.059420,919.314598,-1554.432478
1488.996176,-5255.462188,1072.533697,-3552.988522
1488.996488,-3034.844362,229.828649,-4515.256246
1488.996799,-2812.782580,536.266849,-3552.988522
1488.997110,-5181.441594,-306.438199,-1332.370696
1488.997422,-10288.862594,-1302.362347,296.082377
1488.997733,-13101.645173,-995.924147,1776.494261
1488.998044,-14582.057057,383.047749,3849.070898
1488.998356,-15026.180623,1685.410096,4589.276840
1488.998667,-12953.603985,76.609550,3404.947333
1488.998978,-10140.821405,-459.657299,-1110.308913
1488.999290,-4737.318029,536.266849,-2590.720797
1488.999601,-2442.679609,1838.629195,-2738.761985
1488.999912,-4811.338623,2145.067394,-1776.494261
1489.000224,-9252.574275,919.314598,-1776.494261
1489.000535,-11325.150913,-1302.362347,-222.061783
1489.000846,-8808.450710,-1225.752797,1850.514855
1489.001157,-6883.915261,-689.485948,1702.473667
1489.001469,-6365.771101,-842.705048,518.144159
1489.001780,-5255.462188,-2528.115143,-592.164754
1489.002091,-4959.379811,-2528.115143,-2294.638420
1489.002403,-7105.977043,1838.629195,-370.102971
1489.002714,-13693.809927,3677.258390,2146.597232
1489.003025,-20503.704593,1302.362347,4145.153275
1489.003337,-19689.478057,-1378.971896,5329.482782
1489.003648,-13397.727550,-2681.334243,2960.823768
1489.003959,-4663.297435,306.438199,-1036.288319
1489.004271,296.082377,1685.410096,-3108.864956
1489.004582,1480.411884,-689.485948,-4145.153275
1489.004893,-518.144159,-2681.334243,-3330.926739
1489.005205,-6439.791695,-2221.676944,-1258.350101
1489.005516,-13101.645173,-383.047749,2738.761985
1489.005827,-17468.860231,383.047749,5329.482782
1489.006139,-19023.292709,842.705048,5773.606348
1489.006450,-16358.551318,612.876398,4219.173869
1489.006761,-13027.624579,-1225.752797,2368.659014
1489.007073,-8438.347739,-459.657299,2368.659014
1489.007384,-4737.318029,-1225.752797,888.247130
1489.007695,-4071.132681,-1685.410096,-740.205942
1489.008007,-3923.091493,-2604.724693,-1480.411884
1489.008318,-5403.503377,-842.705048,-518.144159
1489.008629,-6217.729913,1532.190996,444.123565
1489.008941,-6735.874072,2221.676944,1776.494261
1489.009252,-8882.471304,-306.438199,962.267725
1489.009563,-11251.130318,-1302.362347,1332.370696
1489.009875,-11325.150913,919.314598,1036.288319
1489.010186,-10436.903782,2911.162892,-740.205942
1489.010497,-10140.821405,2681.334243,-296.082377
1489.010808,-9474.636058,995.924147,-888.247130
1489.011120,-8438.347739,0.000000,-148.041188
1489.011431,-7402.059420,459.657299,-148.041188
1489.011742,-7179.997637,229.828649,444.123565
1489.012054,-7698.141797,-1762.019645,-222.061783
1489.012365,-7402.059420,-1532.190996,-814.226536
1489.012676,-7476.080014,766.095498,-1480.411884
1489.012988,-7105.977043,2068.457845,-740.205942
1489.013299,-7105.977043,0.000000,-1554.432478
1489.013610,-6069.688724,-2681.334243,-3330.926739
1489.013922,-6809.894666,-306.438199,-2442.679609
1489.014233,-9474.636058,2068.457845,444.123565
1489.014544,-13989.892304,2604.724693,3256.906145
1489.014856,-18875.251521,-766.095498,4293.194464
1489.015167,-18135.045579,-3447.429741,4441.235652
1489.015478,-12361.439231,-3753.867940,3182.885551
1489.015790,-5995.668130,-1072.533697,-222.061783
1489.016101,-2294.638420,1072.533697,-3775.050304
1489.016412,-1554.432478,229.828649,-5329.482782
1489.016724,-2664.741391,-459.657299,-3404.947333
1489.017035,-6217.729913,919.314598,-0.000000
1489.017346,-12361.439231,1838.629195,3330.926739
1489.017658,-15766.386565,-536.266849,5477.523971
1489.017969,-15026.180623,-2374.896044,2960.823768
1489.018280,-10066.800811,-383.047749,592.164754
1489.018592,-6883.915261,3064.381992,518.144159
1489.018903,-9030.512492,1302.362347,-666.185348
1489.019214,-10807.006753,-1225.752797,296.082377
1489.019526,-10955.047942,-2834.553343,370.102971
1489.019837,-9696.697840,-1072.533697,-0.000000
1489.020148,-8660.409521,1991.848295,740.205942
1489.020459,-8290.306550,2451.505594,148.041188
1489.020771,-7105.977043,1455.581446,370.102971
1489.021082,-7698.141797,0.000000,1036.288319
1489.021393,-9918.759623,-919.314598,2368.659014
1489.021705,-8734.430116,1302.362347,2368.659014
1489.022016,-8512.368333,1532.190996,888.247130
1489.022327,-7254.018232,-229.828649,444.123565
1489.022639,-6069.688724,-1762.019645,592.164754
1489.022950,-6513.812290,-1915.238745,148.041188
1489.023261,-7476.080014,229.828649,2072.576638
1489.023573,-10362.883188,-1685.410096,2812.782580
1489.023884,-10732.986159,-1608.800546,3552.988522
1489.024195,-10732.986159,-1302.362347,2960.823768
1489.024507,-9474.636058,-153.219100,1258.350101
1489.024818,-5107.421000,1455.581446,-74.020594
1489.025129,-2368.659014,1915.238745,-2516.700203
1489.025441,-2294.638420,1685.410096,-2590.720797
1489.025752,-4811.338623,-995.924147,-1184.329507
1489.026063,-9548.656652,-919.314598,296.082377
1489.026375,-14952.160028,536.266849,2516.700203
1489.026686,-17616.901420,-536.266849,4811.338623
1489.026997,-15840.407159,-3677.258390,3108.864956
1489.027309,-12509.480420,-3677.258390,888.247130
1489.027620,-7920.203579,-612.876398,592.164754
1489.027931,-6217.729913,0.000000,-888.247130
1489.028243,-6661.853478,-383.047749,-1628.453072
1489.028554,-7994.224174,383.047749,-962.267725
1489.028865,-8808.450710,1072.533697,-740.205942
1489.029177,-7031.956449,1149.143247,370.102971
1489.029488,-7254.018232,1302.362347,-444.123565
1489.029799,-7920.203579,1302.362347,-2072.576638
1489.030111,-7550.100608,1455.581446,-1924.535449
1489.030422,-9770.718434,1072.533697,-592.164754
1489.030733,-13545.768739,2451.505594,518.144159
1489.031044,-16432.571912,1685.410096,2220.617826
1489.031356,-15248.242405,-536.266849,2294.638420
1489.031667,-9548.656652,-689.485948,1850.514855
1489.031978,-3701.029710,-536.266849,-222.061783
1489.032290,-592.164754,-459.657299,-2812.782580
1489.032601,-1776.494261,-229.828649,-3701.029710
1489.032912,-3552.988522,1149.143247,-1776.494261
1489.033224,-7179.997637,842.705048,296.082377
1489.033535,-11843.295072,0.000000,296.082377
1489.033846,-11843.295072,-153.219100,1332.370696
1489.034158,-10510.924376,0.000000,888.247130
1489.034469,-9474.636058,0.000000,296.082377
1489.034780,-10066.800811,459.657299,1480.411884
1489.035092,-11917.315666,-1149.143247,1406.391290
1489.035403,-13767.830521,-1915.238745,3330.926739
1489.035714,-12583.501014,-2374.896044,3775.050304
1489.036026,-10066.800811,-2374.896044,1776.494261
1489.036337,-7772.162391,-1072.533697,-0.000000
1489.036648,-4441.235652,-383.047749,-666.185348
1489.036960,-666.185348,0.000000,-1258.350101
1489.037271,-1258.350101,-383.047749,-1258.350101
1489.037582,-6143.709319,0.000000,888.247130
1489.037894,-11177.109724,-1915.238745,2442.679609
1489.038205,-14063.912898,-689.485948,4737.318029
1489.038516,-15766.386565,0.000000,4885.359217
1489.038828,-15396.283594,0.000000,3478.967927
1489.039139,-13323.706956,0.000000,1554.432478
1489.039450,-9992.780217,1149.143247,-0.000000
1489.039762,-8290.306550,1991.848295,-1184.329507
1489.040073,-8586.388927,1149.143247,-1480.411884
1489.040384,-6513.812290,1302.362347,-1850.514855
1489.040695,-4737.318029,-229.828649,-2220.617826
1489.041007,-2960.823768,842.705048,-962.267725
1489.041318,-4515.256246,1608.800546,-666.185348
1489.041629,-7920.203579,1225.752797,814.226536
1489.041941,-11843.295072,-383.047749,1110.308913
1489.042252,-13989.892304,-1532.190996,2516.700203
1489.042563,-14582.057057,0.000000,2516.700203
1489.042875,-13249.686362,995.924147,1406.391290
1489.043186,-10584.944971,0.000000,-0.000000
1489.043497,-7772.162391,-1991.848295,-1036.288319
1489.043809,-4959.379811,-2068.457845,-1258.350101
1489.044120,-2960.823768,-766.095498,-1702.473667
1489.044431,-3478.967927,459.657299,-296.082377
1489.044743,-7031.956449,0.000000,666.185348
1489.045054,-7476.080014,1685.410096,1258.350101
1489.045365,-6883.915261,2068.457845,740.205942
1489.045677,-6217.729913,1225.752797,1776.494261
1489.045988,-6661.853478,-536.266849,1850.514855
1489.046299,-7698.141797,-1838.629195,740.205942
1489.046611,-9548.656652,-842.705048,1110.308913
1489.046922,-12879.583391,-306.438199,2442.679609
1489.047233,-15692.365970,-1762.019645,4885.359217
1489.047545,-14878.139434,-2757.943793,2738.761985
1489.047856,-9622.677246,-2451.505594,518.144159
1489.048167,-3997.112087,-919.314598,-666.185348
1489.048479,-2590.720797,1225.752797,-1998.556043
1489.048790,-2960.823768,3370.820191,-1406.391290
1489.049101,-5847.626942,2757.943793,148.041188
1489.049413,-11399.171507,766.095498,2368.659014
1489.049724,-14359.995275,-766.095498,5847.626942
1489.050035,-14211.954086,-612.876398,3997.112087
1489.050347,-11325.150913,-766.095498,1480.411884
1489.050658,-10362.883188,-1225.752797,-888.247130
1489.050969,-8438.347739,-1991.848295,-1480.411884
1489.051280,-8808.450710,-2145.067394,-3182.885551
1489.051592,-10955.047942,-1455.581446,-1258.350101
1489.051903,-12583.501014,-1378.971896,888.247130
1489.052214,-12953.603985,-1532.190996,3034.844362
1489.052526,-10288.862594,-612.876398,2590.720797
1489.052837,-6069.688724,1378.971896,1184.329507
1489.053148,-3997.112087,2298.286494,-1332.370696
1489.053460,-1776.494261,4290.134789,-2220.617826
1489.053771,-3330.926739,2834.553343,-3108.864956
1489.054082,-7772.162391,1532.190996,-3034.844362
1489.054394,-11621.233289,919.314598,-0.000000
1489.054705,-14359.995275,459.657299,740.205942
1489.055016,-13545.768739,-1991.848295,1406.391290
1489.055328,-11251.130318,-3983.696590,148.041188
1489.055639,-9400.615463,-2298.286494,1110.308913
1489.055950,-9326.594869,-459.657299,-0.000000
1489.056262,-9992.780217,536.266849,-0.000000
1489.056573,-8882.471304,229.828649,148.041188
1489.056884,-6809.894666,1455.581446,-666.185348
1489.057196,-3552.988522,2451.505594,-74.020594
1489.057507,-2886.803174,2451.505594,-2516.700203
1489.057818,-3478.967927,306.438199,-370.102971
1489.058130,-6069.688724,-1838.629195,518.144159
1489.058441,-9918.759623,-2834.553343,1628.453072
1489.058752,-14063.912898,-2834.553343,2738.761985
1489.059064,-17024.736666,-2145.067394,2368.659014
1489.059375,-15470.304188,-919.314598,1702.473667
1489.059686,-11177.109724,-995.924147,1258.350101
1489.059998,-5551.544565,-153.219100,-0.000000
1489.060309,-3701.029710,-383.047749,-1258.350101
1489.060620,-4145.153275,1608.800546,148.041188
1489.060932,-6439.791695,2757.943793,1406.391290
1489.061243,-9474.636058,2528.115143,2590.720797
1489.061554,-9326.594869,1225.752797,2960.823768
1489.061866,-7402.059420,306.438199,1628.453072
1489.062177,-4885.359217,-689.485948,-148.041188
1489.062488,-4145.153275,-612.876398,-2442.679609
1489.062800,-7772.162391,-919.314598,-814.226536
1489.063111,-14285.974681,-612.876398,1184.329507
1489.063422,-17838.963202,-306.438199,3923.091493
1489.063734,-18283.086767,0.000000,6217.729913
1489.064045,-16284.530724,-842.705048,5995.668130
1489.064356,-11547.212695,-919.314598,2738.761985
1489.064668,-3330.926739,1225.752797,-148.041188
1489.064979,2368.659014,3524.039291,-2590.720797
1489.065290,2516.700203,2604.724693,-2738.761985
1489.065602,-666.185348,-919.314598,-1776.494261
1489.065913,-6069.688724,-2451.505594,-888.247130
1489.066224,-10732.986159,-1762.019645,2072.576638
1489.066536,-15174.221811,-2068.457845,3627.009116
1489.066847,-19171.333898,-842.705048,4737.318029
1489.067158,-17764.942608,-536.266849,3775.050304
1489.067470,-14137.933492,-1225.752797,2146.597232
1489.067781,-11473.192101,-1149.143247,814.226536
1489.068093,-8512.368333,919.314598,-370.102971
1489.068404,-5403.503377,2145.067394,-2146.597232
1489.068715,-2590.720797,689.485948,-2886.803174
1489.069027,-962.267725,0.000000,-3849.070898
1489.069338,-518.144159,229.828649,-3701.029710
1489.069649,-2664.741391,1149.143247,-1776.494261
1489.069961,-8660.409521,-383.047749,370.102971
1489.070272,-14656.077652,-1915.238745,1258.350101
1489.070583,-18949.272115,-1149.143247,2368.659014
1489.070895,-18949.272115,229.828649,2516.700203
1489.071206,-14878.139434,459.657299,1628.453072
1489.071517,-11399.171507,842.705048,-592.164754
1489.071829,-7772.162391,459.657299,-2294.638420
1489.072140,-3627.009116,0.000000,-2886.803174
1489.072451,-3108.864956,153.219100,-3256.906145
1489.072763,-2368.659014,383.047749,-2368.659014
1489.073074,-4071.132681,229.828649,-2442.679609
1489.073385,-4589.276840,-306.438199,-2368.659014
1489.073697,-4737.318029,0.000000,-2590.720797
1489.074008,-5773.606348,306.438199,-2812.782580
1489.074319,-7550.100608,2068.457845,-1628.453072
1489.074631,-13323.706956,2451.505594,148.041188
1489.074942,-17764.942608,995.924147,2738.761985
1489.075253,-19615.457463,689.485948,3627.009116
1489.075565,-17394.839637,1072.533697,2368.659014
1489.075876,-9104.533087,1762.019645,444.123565
1489.076187,-2072.576638,459.657299,-3849.070898
1489.076499,2146.597232,-1378.971896,-5995.668130
1489.076810,1480.411884,-2068.457845,-7254.018232
1489.077121,-1776.494261,-766.095498,-5477.523971
1489.077433,-6809.894666,0.000000,-2146.597232
1489.077744,-13397.727550,-766.095498,592.164754
1489.078055,-17172.777854,-1532.190996,4441.235652
1489.078367,-18431.127956,-2911.162892,3775.050304
1489.078678,-16950.716072,-2298.286494,2960.823768
1489.078989,-13767.830521,306.438199,1184.329507
1489.079301,-10140.821405,1225.752797,-296.082377
1489.079612,-7994.224174,-383.047749,-2442.679609
1489.079923,-7920.203579,-919.314598,-3775.050304
1489.080235,-6661.853478,-153.219100,-3701.029710
1489.080546,-6365.771101,383.047749,-4145.153275
1489.080857,-7105.977043,153.219100,-2072.576638
1489.081169,-8290.306550,-1378.971896,-2294.638420
1489.081480,-9548.656652,-2145.067394,-1554.432478
1489.081791,-9696.697840,0.000000,-518.144159
1489.082103,-11621.233289,1991.848295,-740.205942
1489.082414,-12509.480420,1685.410096,-74.020594
1489.082725,-11991.336260,459.657299,444.123565
1489.083037,-9770.718434,-919.314598,-888.247130
1489.083348,-5699.585753,-1225.752797,-2812.782580
1489.083659,-3404.947333,-459.657299,-4959.379811
1489.083971,-2590.720797,1072.533697,-4737.318029
1489.084282,-5033.400406,995.924147,-3997.112087
1489.084593,-9474.636058,-689.485948,-3182.885551
1489.084905,-11991.336260,-995.924147,-2294.638420
1489.085216,-11399.171507,76.609550,-2516.700203
1489.085527,-7624.121203,1685.410096,-3478.967927
1489.085839,-4663.297435,842.705048,-4293.194464
1489.086150,-4885.359217,383.047749,-5329.482782
1489.086461,-7105.977043,612.876398,-3627.009116
1489.086773,-8586.388927,1455.581446,-888.247130
1489.087084,-12213.398043,-383.047749,814.226536
1489.087395,-13841.851115,-995.924147,592.164754
1489.087707,-12139.377449,-842.705048,-2294.638420
1489.088018,-7105.977043,229.828649,-5329.482782
1489.088329,-2220.617826,383.047749,-7402.059420
1489.088641,-2220.617826,842.705048,-8882.471304
1489.088952,-5107.421000,689.485948,-7328.038826
1489.089263,-9252.574275,0.000000,-4737.318029
1489.089575,-13767.830521,-689.485948,-814.226536
1489.089886,-17246.798449,-612.876398,2368.659014
1489.090197,-17320.819043,-1072.533697,2442.679609
1489.090509,-14656.077652,-2221.676944,814.226536
1489.090820,-10658.965565,-2145.067394,-888.247130
1489.091131,-7698.141797,-612.876398,-2590.720797
1489.091443,-6143.709319,306.438199,-3256.906145
1489.091754,-5699.585753,0.000000,-4589.276840
1489.092065,-6957.935855,-1455.581446,-4885.359217
1489.092377,-8290.306550,-612.876398,-3552.988522
1489.092688,-9400.615463,459.657299,-2812.782580
1489.092999,-9918.759623,0.000000,-2886.803174
1489.093311,-10584.944971,0.000000,-1924.535449
1489.093622,-11843.295072,536.266849,-1332.370696
1489.093933,-12657.521608,1225.752797,-74.020594
1489.094245,-13841.851115,1378.971896,-222.061783
1489.094556,-13619.789333,459.657299,814.226536
1489.094867,-10732.986159,-919.314598,-370.102971
1489.095179,-5329.482782,-1991.848295,-444.123565
1489.095490,-2442.679609,-2451.505594,-3404.947333
1489.095801,-888.247130,-2757.943793,-3256.906145
1489.096113,-2368.659014,-3140.991542,-3997.112087
1489.096424,-5773.606348,-2145.067394,-3775.050304
1489.096735,-10140.821405,-306.438199,-2146.597232
1489.097047,-13101.645173,842.705048,-666.185348
1489.097358,-15174.221811,2068.457845,-0.000000
1489.097669,-13101.645173,2911.162892,296.082377
1489.097981,-9474.636058,2221.676944,-1480.411884
1489.098292,-6069.688724,1455.581446,-2368.659014
1489.098603,-3923.091493,1378.971896,-2960.823768
1489.098915,-3404.947333,1072.533697,-4885.359217
1489.099226,-3404.947333,-306.438199,-4737.318029
1489.099537,-6439.791695,0.000000,-5255.462188
1489.099849,-9622.677246,1072.533697,-4219.173869
1489.100160,-12065.356855,1149.143247,-2442.679609
1489.100471,-12731.542202,306.438199,-1628.453072
1489.100783,-12583.501014,-612.876398,-1480.411884
1489.101094,-11399.171507,-306.438199,-1258.350101
1489.101405,-9178.553681,76.609550,-2220.617826
1489.101717,-6513.812290,76.609550,-2960.823768
1489.102028,-4145.153275,-536.266849,-4737.318029
1489.102339,-3775.050304,-1532.190996,-4811.338623
1489.102651,-7031.956449,-1072.533697,-5255.462188
1489.102962,-10510.924376,1149.143247,-2368.659014
1489.103273,-14804.118840,1915.238745,-1110.308913
1489.103585,-17764.942608,306.438199,148.041188
1489.103896,-15988.448347,-229.828649,-222.061783
1489.104207,-11177.109724,-1149.143247,-2072.576638
1489.104519,-5181.441594,-1378.971896,-4071.132681
1489.104830,-592.164754,-995.924147,-6069.688724
1489.105141,-222.061783,0.000000,-7105.977043
1489.105453,-2960.823768,-536.266849,-5699.585753
1489.105764,-8734.430116,-1991.848295,-2590.720797
1489.106075,-14730.098246,-1532.190996,-0.000000
1489.106387,-19541.436869,-1302.362347,1702.473667
1489.106698,-20651.745782,-383.047749,2368.659014
1489.107009,-17172.777854,383.047749,814.226536
1489.107321,-10955.047942,766.095498,-1110.308913
1489.107632,-3701.029710,0.000000,-3404.947333
1489.107943,148.041188,-1149.143247,-5181.441594
1489.108255,740.205942,-995.924147,-6365.771101
1489.108566,-2590.720797,76.609550,-5551.544565
1489.108877,-6365.771101,1608.800546,-3552.988522
1489.109189,-10584.944971,689.485948,-1924.535449
1489.109500,-15248.242405,-689.485948,-1036.288319
1489.109811,-16876.695478,-1302.362347,-148.041188
1489.110123,-16580.613101,-1378.971896,-0.000000
1489.110434,-14137.933492,153.219100,-740.205942
1489.110745,-10140.821405,383.047749,-1554.432478
1489.111057,-6957.935855,-153.219100,-2368.659014
1489.111368,-3330.926739,-383.047749,-2368.659014
1489.111679,-1110.308913,76.609550,-3478.967927
1489.111991,-666.185348,995.924147,-4219.173869
1489.112302,-1924.535449,1302.362347,-4737.318029
1489.112613,-4293.194464,689.485948,-5329.482782
1489.112925,-7402.059420,0.000000,-4959.379811
1489.113236,-11769.274478,459.657299,-4663.297435
1489.113547,-14508.036463,0.000000,-4293.194464
1489.113859,-15396.283594,-1225.752797,-3404.947333
1489.114170,-15396.283594,-1762.019645,-2442.679609
1489.114481,-13471.748144,-1532.190996,-1776.494261
1489.114793,-10955.047942,-689.485948,-518.144159
1489.115104,-9030.512492,-229.828649,-888.247130
1489.115415,-7179.997637,0.000000,-666.185348
1489.115727,-6513.812290,76.609550,-2220.617826
1489.116038,-4293.194464,995.924147,-3701.029710
1489.116349,-2368.659014,1455.581446,-6217.729913
1489.116661,-3182.885551,1378.971896,-8660.409521
1489.116972,-4885.359217,1685.410096,-8364.327145
1489.117283,-8660.409521,1455.581446,-7402.059420
1489.117595,-13693.809927,0.000000,-3775.050304
1489.117906,-18431.127956,-842.705048,-740.205942
1489.118217,-21021.848753,-2298.286494,2368.659014
1489.118529,-19245.354492,-2604.724693,3627.009116
1489.118840,-13693.809927,-2145.067394,2442.679609
1489.119151,-7920.203579,-1608.800546,-0.000000
1489.119463,-2072.576638,-995.924147,-3256.906145
1489.119774,1184.329507,-306.438199,-5625.565159
1489.120085,1258.350101,229.828649,-6809.894666
1489.120397,-3034.844362,76.609550,-5255.462188
1489.120708,-8956.491898,229.828649,-3108.864956
1489.121019,-15322.262999,0.000000,-296.082377
1489.121331,-18283.086767,-689.485948,1850.514855
1489.121642,-18283.086767,-1225.752797,2812.782580
1489.121953,-14508.036463,-1302.362347,2590.720797
1489.122265,-9696.697840,0.000000,444.123565
1489.122576,-5033.400406,689.485948,-1480.411884
1489.122887,-1258.350101,1608.800546,-3997.112087
1489.123199,-592.164754,2221.676944,-4663.297435
1489.123510,-1776.494261,2987.772442,-4367.215058
1489.123821,-5329.482782,2451.505594,-3775.050304
1489.124133,-9178.553681,1149.143247,-2368.659014
1489.124444,-12435.459826,689.485948,-1998.556043
1489.124755,-13027.624579,229.828649,-1332.370696
1489.125067,-12509.480420,-1072.533697,-1702.473667
1489.125378,-11029.068536,-2145.067394,-1406.391290
1489.125689,-8882.471304,-3064.381992,-592.164754
1489.126001,-6365.771101,-2681.334243,-666.185348
1489.126312,-5477.523971,-2451.505594,-666.185348
1489.126623,-5033.400406,-1762.019645,-962.267725
1489.126935,-6365.771101,-306.438199,-2072.576638
1489.127246,-7476.080014,1378.971896,-2664.741391
1489.127557,-9400.615463,3753.867940,-4293.194464
1489.127869,-10362.883188,3753.867940,-4737.318029
1489.128180,-11103.089130,3677.258390,-5551.544565
1489.128491,-10955.047942,2298.286494,-5551.544565
1489.128803,-10362.883188,536.266849,-4293.194464
1489.129114,-10436.903782,-842.705048,-2442.679609
