#time,accel_x,accel_y,accel_z
1409.432562,-8956.491898,0.000000,592.164754
1409.432873,-9178.553681,-229.828649,296.082377
1409.433185,-8808.450710,0.000000,592.164754
1409.433496,-8882.471304,0.000000,444.123565
1409.433808,-9104.533087,0.000000,444.123565
1409.434119,-9104.533087,76.609550,296.082377
1409.434431,-9030.512492,0.000000,444.123565
1409.434742,-8956.491898,0.000000,444.123565
1409.435054,-8956.491898,0.000000,444.123565
1409.435365,-8734.430116,0.000000,666.185348
1409.435677,-8956.491898,0.000000,518.144159
1409.435988,-8808.450710,306.438199,370.102971
1409.436300,-9030.512492,-689.485948,444.123565
1409.436611,-8438.347739,-306.438199,518.144159
1409.436923,-8660.409521,0.000000,148.041188
1409.437234,-8956.491898,0.000000,518.144159
1409.437546,-8808.450710,-153.219100,592.164754
1409.437857,-8882.471304,0.000000,518.144159
1409.438169,-9104.533087,0.000000,592.164754
1409.438480,-9104.533087,-229.828649,444.123565
1409.438792,-8956.491898,0.000000,518.144159
1409.439103,-8882.471304,76.609550,296.082377
1409.439415,-8956.491898,153.219100,296.082377
1409.439726,-8808.450710,76.609550,444.123565
1409.440038,-8956.491898,229.828649,518.144159
1409.440349,-8882.471304,0.000000,518.144159
1409.440661,-8956.491898,0.000000,592.164754
1409.440972,-9104.533087,76.609550,518.144159
1409.441284,-8808.450710,-229.828649,592.164754
1409.441595,-8586.388927,0.000000,592.164754
1409.441907,-8808.450710,0.000000,518.144159
1409.442218,-9104.533087,0.000000,592.164754
1409.442530,-9030.512492,76.609550,592.164754
1409.442841,-9030.512492,0.000000,592.164754
1409.443153,-9178.553681,0.000000,518.144159
1409.443464,-9104.533087,229.828649,222.061783
1409.443776,-8882.471304,-536.266849,444.123565
1409.444087,-8956.491898,229.828649,592.164754
1409.444399,-8882.471304,76.609550,518.144159
1409.444710,-8956.491898,-153.219100,518.144159
1409.445022,-8734.430116,-383.047749,518.144159
1409.445333,-8808.450710,0.000000,592.164754
1409.445645,-9104.533087,-229.828649,666.185348
1409.445956,-8956.491898,306.438199,814.226536
1409.446268,-8660.409521,76.609550,370.102971
1409.446579,-8364.327145,0.000000,370.102971
1409.446891,-9030.512492,0.000000,518.144159
1409.447202,-9030.512492,0.000000,518.144159
1409.447514,-8956.491898,-229.828649,592.164754
1409.447825,-8956.491898,0.000000,592.164754
1409.448137,-8660.409521,-153.219100,444.123565
1409.448448,-8956.491898,0.000000,148.041188
1409.448760,-8734.430116,0.000000,296.082377
1409.449071,-8956.491898,229.828649,296.082377
1409.449383,-8956.491898,0.000000,592.164754
1409.449694,-9030.512492,153.219100,444.123565
1409.450006,-9030.512492,0.000000,518.144159
1409.450317,-8956.491898,0.000000,518.144159
1409.450629,-9400.615463,306.438199,444.123565
1409.450940,-8956.491898,0.000000,592.164754
1409.451252,-8734.430116,0.000000,888.247130
1409.451563,-9030.512492,-229.828649,666.185348
1409.451875,-8956.491898,0.000000,444.123565
1409.452186,-8882.471304,-229.828649,592.164754
1409.452498,-8956.491898,0.000000,592.164754
1409.452809,-8882.471304,229.828649,592.164754
1409.453121,-8956.491898,0.000000,814.226536
1409.453432,-8438.347739,0.000000,666.185348
1409.453744,-8808.450710,0.000000,370.102971
1409.454055,-8882.471304,153.219100,222.061783
1409.454367,-8882.471304,76.609550,518.144159
1409.454678,-8882.471304,0.000000,444.123565
1409.454990,-8956.491898,-229.828649,518.144159
1409.455301,-9030.512492,153.219100,592.164754
1409.455613,-8512.368333,0.000000,666.185348
1409.455924,-8364.327145,-306.438199,666.185348
1409.456236,-8364.327145,0.000000,370.102971
1409.456547,-8734.430116,0.000000,666.185348
1409.456859,-8956.491898,-383.047749,518.144159
1409.457170,-9104.533087,0.000000,296.082377
1409.457482,-8808.450710,0.000000,666.185348
1409.457793,-8882.471304,-153.219100,444.123565
1409.458105,-9030.512492,0.000000,518.144159
1409.458416,-9030.512492,229.828649,296.082377
1409.458728,-9178.553681,-536.266849,666.185348
1409.459039,-8882.471304,0.000000,592.164754
1409.459351,-8956.491898,0.000000,518.144159
1409.459662,-8956.491898,0.000000,444.123565
1409.459974,-9030.512492,76.609550,666.185348
1409.460285,-9030.512492,-153.219100,740.205942
1409.460597,-10807.006753,153.219100,222.061783
1409.460908,-11325.150913,2298.286494,444.123565
1409.461220,-8586.388927,4519.963438,1036.288319
1409.461531,-7698.141797,3600.648841,962.267725
1409.461843,-6439.791695,536.266849,1406.391290
1409.462154,-6883.915261,-1455.581446,-0.000000
1409.462466,-7550.100608,-1302.362347,-0.000000
1409.462777,-7846.182985,76.609550,-296.082377
1409.463089,-11991.336260,-919.314598,-1628.453072
1409.463400,-12731.542202,153.219100,-740.205942
1409.463712,-9918.759623,766.095498,814.226536
1409.464023,-8882.471304,0.000000,1702.473667
1409.464335,-9400.615463,-536.266849,3108.864956
1409.464646,-12065.356855,689.485948,1554.432478
1409.464958,-7920.203579,4903.011187,2442.679609
1409.465270,-5107.421000,5515.887586,2368.659014
1409.465581,-7550.100608,3217.601092,592.164754
1409.465893,-7254.018232,2911.162892,-666.185348
1409.466204,-7328.038826,3600.648841,-2146.597232
1409.466516,-8808.450710,3524.039291,-1036.288319
1409.466827,-9030.512492,3753.867940,-148.041188
1409.467139,-13175.665768,1762.019645,-1406.391290
1409.467450,-13397.727550,-536.266849,1036.288319
1409.467762,-7994.224174,-612.876398,2368.659014
1409.468073,-10436.903782,1149.143247,518.144159
1409.468385,-8512.368333,5362.668486,2442.679609
1409.468696,-7846.182985,5592.497135,1110.308913
1409.469008,-6883.915261,3140.991542,2368.659014
1409.469319,-6217.729913,4596.572988,2442.679609
1409.469631,-8068.244768,6511.811733,148.041188
1409.469942,-7994.224174,6818.249932,-814.226536
1409.470254,-8956.491898,5515.887586,-1554.432478
1409.470565,-9326.594869,5209.449386,-1702.473667
1409.470877,-11399.171507,4826.401637,-1036.288319
1409.471188,-12287.418637,4979.620737,-0.000000
1409.471500,-11103.089130,4366.744339,1702.473667
1409.471811,-10362.883188,3753.867940,1998.556043
1409.472123,-8882.471304,5592.497135,2738.761985
1409.472434,-6661.853478,5056.230287,1406.391290
1409.472746,-5477.523971,5439.278036,-0.000000
1409.473057,-5551.544565,4826.401637,962.267725
1409.473369,-5255.462188,5898.935335,-592.164754
1409.473680,-6365.771101,4903.011187,-1332.370696
1409.473992,-8068.244768,3907.087040,-1036.288319
1409.474303,-9400.615463,2757.943793,-518.144159
1409.474615,-10436.903782,1378.971896,1184.329507
1409.474926,-10955.047942,153.219100,1332.370696
1409.475238,-11547.212695,-383.047749,1924.535449
1409.475549,-10362.883188,612.876398,1776.494261
1409.475861,-9696.697840,2374.896044,2146.597232
1409.476172,-7994.224174,4136.915689,1554.432478
1409.476484,-6513.812290,3447.429741,148.041188
1409.476795,-6513.812290,3370.820191,-0.000000
1409.477107,-6957.935855,3677.258390,-666.185348
1409.477418,-6883.915261,4060.306139,-1184.329507
1409.477730,-7179.997637,2451.505594,-1480.411884
1409.478041,-9030.512492,-612.876398,-370.102971
1409.478353,-10584.944971,-2298.286494,222.061783
1409.478664,-12953.603985,-2451.505594,888.247130
1409.478976,-13841.851115,-689.485948,1702.473667
1409.479287,-13397.727550,-459.657299,1554.432478
1409.479599,-12361.439231,919.314598,1406.391290
1409.479910,-10584.944971,2987.772442,444.123565
1409.480222,-8216.285956,2911.162892,-148.041188
1409.480533,-5773.606348,4136.915689,-0.000000
1409.480845,-6143.709319,4903.011187,592.164754
1409.481156,-7031.956449,4519.963438,666.185348
1409.481468,-8512.368333,2834.553343,-0.000000
1409.481779,-10510.924376,995.924147,-0.000000
1409.482091,-11991.336260,0.000000,-74.020594
1409.482402,-12805.562797,689.485948,-370.102971
1409.482714,-13323.706956,383.047749,-222.061783
1409.483025,-13027.624579,1072.533697,-0.000000
1409.483337,-11695.253884,2298.286494,888.247130
1409.483648,-9770.718434,4213.525239,1554.432478
1409.483960,-7476.080014,4903.011187,2294.638420
1409.484271,-4589.276840,5822.325785,1554.432478
1409.484583,-2516.700203,6052.154434,-74.020594
1409.484894,-1184.329507,6205.373534,-888.247130
1409.485206,-2442.679609,4596.572988,-1702.473667
1409.485517,-6587.832884,2604.724693,-1554.432478
1409.485829,-10658.965565,2298.286494,-370.102971
1409.486140,-14434.015869,2528.115143,518.144159
1409.486452,-15840.407159,3294.210641,2442.679609
1409.486763,-14804.118840,2911.162892,3108.864956
1409.487075,-11029.068536,2987.772442,3627.009116
1409.487386,-6883.915261,2911.162892,2664.741391
1409.487698,-3182.885551,4366.744339,1554.432478
1409.488009,-1850.514855,5898.935335,-296.082377
1409.488321,-2960.823768,7354.516781,-1776.494261
1409.488632,-4885.359217,7124.688131,-1628.453072
1409.488944,-7179.997637,5209.449386,-2368.659014
1409.489255,-8364.327145,3140.991542,-518.144159
1409.489567,-10066.800811,1302.362347,-0.000000
1409.489878,-11325.150913,-2757.943793,1554.432478
1409.490190,-11991.336260,-4136.915689,1850.514855
1409.490501,-12879.583391,-2911.162892,1924.535449
1409.490813,-13397.727550,-536.266849,1998.556043
1409.491124,-12509.480420,2528.115143,1924.535449
1409.491436,-10807.006753,4903.011187,1850.514855
1409.491747,-8142.265362,5515.887586,1554.432478
1409.492059,-6143.709319,5975.544884,1702.473667
1409.492370,-5921.647536,3753.867940,-370.102971
1409.492682,-5773.606348,2911.162892,-740.205942
1409.492993,-6513.812290,2911.162892,-2072.576638
1409.493305,-10584.944971,2604.724693,-2442.679609
1409.493616,-11103.089130,4290.134789,-2146.597232
1409.493928,-11769.274478,4366.744339,-1924.535449
1409.494239,-12287.418637,1685.410096,370.102971
1409.494551,-11399.171507,229.828649,2368.659014
1409.494862,-13249.686362,919.314598,1776.494261
1409.495174,-12213.398043,3677.258390,2960.823768
1409.495485,-10214.842000,6741.640382,1628.453072
1409.495797,-8438.347739,6741.640382,-222.061783
1409.496108,-6661.853478,5439.278036,-592.164754
1409.496420,-4885.359217,3217.601092,-814.226536
1409.496731,-4737.318029,2145.067394,-1110.308913
1409.497043,-7846.182985,2221.676944,-1332.370696
1409.497354,-9104.533087,2604.724693,-148.041188
1409.497666,-9400.615463,-383.047749,444.123565
1409.497977,-8808.450710,-2604.724693,2146.597232
1409.498289,-8142.265362,-2451.505594,1850.514855
1409.498600,-8660.409521,612.876398,1036.288319
1409.498912,-9696.697840,5132.839837,-0.000000
1409.499223,-10436.903782,7814.174080,-370.102971
1409.499535,-9548.656652,9576.193725,148.041188
1409.499846,-9844.739029,8273.831378,592.164754
1409.500158,-9992.780217,5362.668486,592.164754
1409.500469,-8142.265362,3830.477490,888.247130
1409.500781,-6809.894666,4519.963438,-0.000000
1409.501092,-5181.441594,4673.182538,-0.000000
1409.501404,-3997.112087,2757.943793,962.267725
1409.501715,-6291.750507,-1608.800546,1332.370696
1409.502027,-6809.894666,-1991.848295,1110.308913
1409.502338,-7994.224174,1455.581446,-148.041188
1409.502650,-10807.006753,4903.011187,-740.205942
1409.502961,-12657.521608,6511.811733,-0.000000
1409.503273,-13767.830521,5209.449386,1924.535449
1409.503584,-14137.933492,2604.724693,2590.720797
1409.503896,-13841.851115,2298.286494,2886.803174
1409.504207,-10955.047942,3524.039291,2368.659014
1409.504519,-7772.162391,3217.601092,1406.391290
1409.504830,-4071.132681,0.000000,1998.556043
1409.505142,-1184.329507,-4519.963438,592.164754
1409.505453,-4071.132681,-6435.202183,-222.061783
1409.505765,-5403.503377,-2757.943793,-740.205942
1409.506076,-5699.585753,2757.943793,-1184.329507
1409.506387,-10510.924376,4596.572988,-370.102971
1409.506698,-14952.160028,2451.505594,962.267725
1409.507010,-17690.922014,1455.581446,2664.741391
1409.507321,-17394.839637,2911.162892,2516.700203
1409.507632,-12583.501014,5898.935335,2960.823768
1409.507943,-7328.038826,4290.134789,1998.556043
1409.508255,-3849.070898,-612.876398,666.185348
1409.508566,-1776.494261,-2834.553343,-444.123565
1409.508877,518.144159,-2451.505594,-888.247130
1409.509188,-962.267725,995.924147,-962.267725
1409.509500,-7254.018232,1455.581446,-0.000000
1409.509811,-12805.562797,-1149.143247,-0.000000
1409.510122,-16728.654289,-1915.238745,148.041188
1409.510434,-16284.530724,1149.143247,222.061783
1409.510745,-13693.809927,4060.306139,-148.041188
1409.511056,-11843.295072,2451.505594,-1332.370696
1409.511367,-10214.842000,-1149.143247,-1924.535449
1409.511679,-7698.141797,-3217.601092,-1850.514855
1409.511990,-4663.297435,-689.485948,-370.102971
1409.512301,-3997.112087,229.828649,1110.308913
1409.512612,-4959.379811,-2221.676944,3182.885551
1409.512924,-8660.409521,-5592.497135,3256.906145
1409.513235,-10881.027347,-3600.648841,2960.823768
1409.513546,-9252.574275,4366.744339,370.102971
1409.513858,-10288.862594,7354.516781,-1554.432478
1409.514169,-11399.171507,4673.182538,-4145.153275
1409.514480,-10955.047942,995.924147,-4441.235652
1409.514791,-9474.636058,2681.334243,-4737.318029
1409.515103,-9178.553681,5592.497135,-2442.679609
1409.515414,-11325.150913,4136.915689,666.185348
1409.515725,-13619.789333,-1915.238745,2368.659014
1409.516036,-11843.295072,-4826.401637,4441.235652
1409.516348,-8142.265362,-3524.039291,4589.276840
1409.516659,-4959.379811,383.047749,4071.132681
1409.516970,-3923.091493,-459.657299,1184.329507
1409.517281,-3701.029710,-3830.477490,-1776.494261
1409.517593,-3330.926739,-2374.896044,-3034.844362
1409.517904,-5255.462188,3064.381992,-3256.906145
1409.518215,-10658.965565,6358.592633,-1702.473667
1409.518527,-16654.633695,3370.820191,444.123565
1409.518838,-18727.210333,-995.924147,3256.906145
1409.519149,-15988.448347,-459.657299,4885.359217
1409.519460,-11103.089130,1455.581446,4589.276840
1409.519772,-6587.832884,842.705048,3034.844362
1409.520083,-3775.050304,-2604.724693,1628.453072
1409.520394,666.185348,-4213.525239,-148.041188
1409.520705,2368.659014,-459.657299,-1998.556043
1409.521017,-1628.453072,1685.410096,-1554.432478
1409.521328,-8734.430116,1149.143247,-74.020594
1409.521639,-14211.954086,-1762.019645,2442.679609
1409.521951,-16728.654289,-3830.477490,3849.070898
1409.522262,-15174.221811,-1991.848295,3701.029710
1409.522573,-11695.253884,-1915.238745,2664.741391
1409.522884,-8216.285956,-4749.792088,740.205942
1409.523196,-5551.544565,-7354.516781,-518.144159
1409.523507,-3182.885551,-4519.963438,-2146.597232
1409.523818,-4293.194464,76.609550,-518.144159
1409.524129,-8660.409521,2068.457845,740.205942
1409.524441,-11399.171507,76.609550,3108.864956
1409.524752,-11843.295072,-995.924147,3627.009116
1409.525063,-10732.986159,1302.362347,2812.782580
1409.525374,-9178.553681,4673.182538,148.041188
1409.525686,-8660.409521,3983.696590,-2812.782580
1409.525997,-8364.327145,1915.238745,-5255.462188
1409.526308,-7476.080014,1838.629195,-4589.276840
1409.526620,-8808.450710,2987.772442,-3775.050304
1409.526931,-12879.583391,2757.943793,-1110.308913
1409.527242,-15322.262999,-229.828649,2442.679609
1409.527553,-14730.098246,-3983.696590,4293.194464
1409.527865,-11769.274478,-2681.334243,4367.215058
1409.528176,-7846.182985,612.876398,2886.803174
1409.528487,-4737.318029,1378.971896,-0.000000
1409.528798,-4811.338623,-842.705048,-4145.153275
1409.529110,-4071.132681,-459.657299,-4515.256246
1409.529421,-4663.297435,3907.087040,-5255.462188
1409.529732,-9326.594869,5669.106685,-3108.864956
1409.530044,-13989.892304,919.314598,1110.308913
1409.530355,-16210.510130,-4903.011187,3997.112087
1409.530666,-15100.201217,-5669.106685,5033.400406
1409.530977,-11103.089130,-995.924147,5329.482782
1409.531289,-8956.491898,2068.457845,2294.638420
1409.531600,-6365.771101,1225.752797,-0.000000
1409.531911,-2368.659014,1225.752797,-2294.638420
1409.532222,0.000000,3064.381992,-3627.009116
1409.532534,-1628.453072,6205.373534,-3701.029710
1409.532845,-6291.750507,5669.106685,-1258.350101
1409.533156,-11325.150913,919.314598,-0.000000
1409.533468,-14359.995275,-2528.115143,3330.926739
1409.533779,-12953.603985,-2451.505594,4885.359217
1409.534090,-10436.903782,-842.705048,4737.318029
1409.534401,-10807.006753,-3753.867940,2442.679609
1409.534713,-7105.977043,-6818.249932,1776.494261
1409.535024,-3701.029710,-3907.087040,-1998.556043
1409.535335,-3627.009116,689.485948,-444.123565
1409.535646,-5255.462188,2987.772442,-148.041188
1409.535958,-8734.430116,-1685.410096,2442.679609
1409.536269,-10807.006753,-4136.915689,4293.194464
1409.536580,-10584.944971,-2528.115143,4811.338623
1409.536891,-9992.780217,-612.876398,2886.803174
1409.537203,-10362.883188,612.876398,-0.000000
1409.537514,-8660.409521,-2374.896044,-1776.494261
1409.537825,-5403.503377,-4213.525239,-3627.009116
1409.538137,-7179.997637,-1762.019645,-2442.679609
1409.538448,-10807.006753,689.485948,-666.185348
1409.538759,-12953.603985,-306.438199,2590.720797
1409.539070,-14582.057057,-3983.696590,6513.812290
1409.539382,-12287.418637,-4366.744339,6661.853478
1409.539693,-9696.697840,-1532.190996,4441.235652
1409.540004,-7846.182985,1608.800546,888.247130
1409.540315,-5699.585753,1378.971896,-3034.844362
1409.540627,-4885.359217,1685.410096,-6513.812290
1409.540938,-5181.441594,2987.772442,-5699.585753
1409.541249,-8068.244768,4213.525239,-3478.967927
1409.541561,-12657.521608,1225.752797,-370.102971
1409.541872,-16284.530724,-2451.505594,3552.988522
1409.542183,-16284.530724,-2834.553343,4737.318029
1409.542494,-12879.583391,76.609550,5181.441594
1409.542806,-9326.594869,2987.772442,2146.597232
1409.543117,-7105.977043,2604.724693,-962.267725
1409.543428,-4293.194464,2298.286494,-4515.256246
1409.543739,-1998.556043,3600.648841,-4145.153275
1409.544051,-3775.050304,6052.154434,-5551.544565
1409.544362,-7402.059420,5822.325785,-2516.700203
1409.544673,-11029.068536,1685.410096,-592.164754
1409.544984,-13545.768739,-3370.820191,2960.823768
1409.545296,-11695.253884,-3524.039291,4885.359217
1409.545607,-9696.697840,-459.657299,3552.988522
1409.545918,-10436.903782,-153.219100,1776.494261
1409.546230,-8290.306550,-2987.772442,666.185348
1409.546541,-3552.988522,-1225.752797,-2590.720797
1409.546852,-2072.576638,2911.162892,-2146.597232
1409.547163,-4071.132681,4749.792088,-1924.535449
1409.547475,-8364.327145,1149.143247,-0.000000
1409.547786,-11547.212695,-2834.553343,1998.556043
1409.548097,-11547.212695,-1455.581446,3775.050304
1409.548408,-10436.903782,0.000000,3330.926739
1409.548720,-9918.759623,306.438199,1776.494261
1409.549031,-8734.430116,-2374.896044,148.041188
1409.549342,-5551.544565,-4673.182538,-1628.453072
1409.549654,-4737.318029,-1762.019645,-814.226536
1409.549965,-6143.709319,1838.629195,518.144159
1409.550276,-9548.656652,1378.971896,1332.370696
1409.550587,-12361.439231,-2451.505594,4219.173869
1409.550899,-12731.542202,-3753.867940,4737.318029
1409.551210,-10955.047942,-1378.971896,3923.091493
1409.551521,-9474.636058,919.314598,1036.288319
1409.551832,-8438.347739,0.000000,-1332.370696
1409.552144,-6217.729913,-3064.381992,-2960.823768
1409.552455,-4737.318029,-3753.867940,-3552.988522
1409.552766,-6957.935855,-1838.629195,-1480.411884
1409.553078,-10658.965565,-919.314598,962.267725
1409.553389,-15396.283594,-2834.553343,3701.029710
1409.553700,-17098.757260,-4213.525239,5847.626942
1409.554011,-13989.892304,-689.485948,5699.585753
1409.554323,-10436.903782,2374.896044,3330.926739
1409.554634,-8734.430116,2451.505594,-74.020594
1409.554945,-5625.565159,1302.362347,-2738.761985
1409.555256,-2960.823768,1762.019645,-4589.276840
1409.555568,-2368.659014,4903.011187,-4737.318029
1409.555879,-6883.915261,4979.620737,-3627.009116
1409.556190,-11991.336260,1685.410096,-666.185348
1409.556501,-15174.221811,-2221.676944,3034.844362
1409.556813,-14730.098246,-2221.676944,4811.338623
1409.557124,-12361.439231,229.828649,4145.153275
1409.557435,-11029.068536,1225.752797,1776.494261
1409.557747,-7698.141797,306.438199,370.102971
1409.558058,-3997.112087,459.657299,-2664.741391
1409.558369,-2368.659014,3753.867940,-3182.885551
1409.558680,-3849.070898,6665.030833,-3701.029710
1409.558992,-7476.080014,4443.353888,-1702.473667
1409.559303,-10955.047942,612.876398,148.041188
1409.559614,-11251.130318,-306.438199,2590.720797
1409.559925,-8660.409521,1838.629195,2590.720797
1409.560237,-9178.553681,1762.019645,1332.370696
1409.560548,-9844.739029,-383.047749,-222.061783
1409.560859,-6661.853478,-1378.971896,-1258.350101
1409.561171,-3701.029710,459.657299,-1850.514855
1409.561482,-3997.112087,2987.772442,-370.102971
1409.561793,-8216.285956,2451.505594,-370.102971
1409.562104,-10881.027347,-153.219100,1998.556043
1409.562416,-11991.336260,-3294.210641,3256.906145
1409.562727,-9992.780217,-1378.971896,2960.823768
1409.563038,-9918.759623,0.000000,1110.308913
1409.563349,-9770.718434,-1225.752797,-814.226536
1409.563661,-6587.832884,-4826.401637,-2368.659014
1409.563972,-4219.173869,-5669.106685,-1924.535449
1409.564283,-5699.585753,-2987.772442,-1110.308913
1409.564594,-9474.636058,-1608.800546,740.205942
1409.564906,-13249.686362,-3677.258390,3330.926739
1409.565217,-15396.283594,-5132.839837,5477.523971
1409.565528,-13545.768739,-3294.210641,5995.668130
1409.565840,-11029.068536,-306.438199,3775.050304
1409.566151,-10066.800811,229.828649,1480.411884
1409.566462,-6957.935855,-1225.752797,-1776.494261
1409.566773,-4145.153275,-2528.115143,-3701.029710
1409.567085,-2738.761985,766.095498,-4367.215058
1409.567396,-6439.791695,1991.848295,-3108.864956
1409.567707,-11843.295072,0.000000,-444.123565
1409.568018,-15766.386565,-3064.381992,3108.864956
1409.568330,-16358.551318,-2757.943793,4737.318029
1409.568641,-15026.180623,229.828649,4441.235652
1409.568952,-13175.665768,2298.286494,2738.761985
1409.569264,-9918.759623,1225.752797,1554.432478
1409.569575,-4959.379811,-612.876398,-888.247130
1409.569886,-1480.411884,1149.143247,-2146.597232
1409.570197,-2294.638420,3677.258390,-2960.823768
1409.570509,-6217.729913,3677.258390,-1776.494261
1409.570820,-11547.212695,612.876398,148.041188
1409.571131,-14137.933492,-1072.533697,2664.741391
1409.571442,-12731.542202,766.095498,2960.823768
1409.571754,-10955.047942,3600.648841,2664.741391
1409.572065,-9474.636058,2604.724693,444.123565
1409.572376,-7105.977043,612.876398,-814.226536
1409.572687,-3997.112087,2298.286494,-1924.535449
1409.572999,-2812.782580,6052.154434,-2220.617826
1409.573310,-4663.297435,7354.516781,-1184.329507
1409.573621,-8734.430116,3983.696590,-0.000000
1409.573933,-11177.109724,306.438199,1036.288319
1409.574244,-8438.347739,536.266849,2294.638420
1409.574555,-8216.285956,2068.457845,962.267725
1409.574866,-7772.162391,1455.581446,-0.000000
1409.575178,-6957.935855,-1991.848295,-1406.391290
1409.575489,-4811.338623,-3830.477490,-1110.308913
1409.575800,-3330.926739,-536.266849,-740.205942
1409.576111,-6883.915261,2451.505594,518.144159
1409.576423,-11325.150913,612.876398,2220.617826
1409.576734,-13471.748144,-2451.505594,4145.153275
1409.577045,-12287.418637,-2221.676944,5107.421000
1409.577357,-9548.656652,0.000000,4071.132681
1409.577668,-8734.430116,842.705048,962.267725
1409.577979,-7254.018232,-1378.971896,-1480.411884
1409.578290,-4663.297435,-3753.867940,-3552.988522
1409.578602,-3701.029710,-2221.676944,-3404.947333
1409.578913,-6809.894666,0.000000,-1628.453072
1409.579224,-11769.274478,-1455.581446,1258.350101
1409.579535,-15840.407159,-5286.058936,3627.009116
1409.579847,-16580.613101,-6281.983084,5403.503377
1409.580158,-14211.954086,-2911.162892,5329.482782
1409.580469,-12065.356855,-919.314598,2886.803174
1409.580781,-9844.739029,-2221.676944,444.123565
1409.581092,-6365.771101,-3753.867940,-1480.411884
1409.581403,-3552.988522,-3140.991542,-3034.844362
1409.581714,-4885.359217,-842.705048,-2738.761985
1409.582026,-8956.491898,766.095498,-1628.453072
1409.582337,-12509.480420,-1149.143247,666.185348
1409.582648,-14582.057057,-3983.696590,3182.885551
1409.582959,-14063.912898,-2604.724693,4145.153275
1409.583271,-13101.645173,536.266849,3108.864956
1409.583582,-12065.356855,1762.019645,740.205942
1409.583893,-8956.491898,536.266849,-592.164754
1409.584204,-6143.709319,1608.800546,-2442.679609
1409.584516,-4367.215058,3830.477490,-2812.782580
1409.584827,-5107.421000,5669.106685,-1776.494261
1409.585138,-8364.327145,3753.867940,-296.082377
1409.585450,-10955.047942,842.705048,1184.329507
1409.585761,-10807.006753,-153.219100,2294.638420
1409.586072,-9252.574275,2528.115143,1480.411884
1409.586383,-9104.533087,2834.553343,222.061783
1409.586695,-7920.203579,766.095498,-1036.288319
1409.587006,-5551.544565,842.705048,-2368.659014
1409.587317,-3552.988522,3064.381992,-2220.617826
1409.587628,-5551.544565,4979.620737,-962.267725
1409.587940,-9622.677246,3907.087040,888.247130
1409.588251,-11769.274478,1072.533697,3404.947333
1409.588562,-10658.965565,-383.047749,3552.988522
1409.588874,-7476.080014,1991.848295,2812.782580
1409.589185,-7179.997637,3217.601092,-74.020594
1409.589496,-6883.915261,2068.457845,-1998.556043
1409.589807,-4737.318029,-766.095498,-3701.029710
1409.590119,-3256.906145,-536.266849,-2294.638420
1409.590430,-4811.338623,1762.019645,-1258.350101
1409.590741,-9918.759623,1915.238745,1702.473667
1409.591052,-13841.851115,-1915.238745,3923.091493
1409.591364,-14508.036463,-4826.401637,5699.585753
1409.591675,-11473.192101,-2221.676944,5551.544565
1409.591986,-8586.388927,383.047749,3330.926739
1409.592297,-8068.244768,-536.266849,1258.350101
1409.592609,-5773.606348,-4443.353888,-888.247130
1409.592920,-2812.782580,-5669.106685,-1480.411884
1409.593231,-3034.844362,-2451.505594,-1628.453072
1409.593543,-8068.244768,-229.828649,-296.082377
1409.593854,-12879.583391,-1915.238745,1110.308913
1409.594165,-15544.324782,-4903.011187,3404.947333
1409.594476,-14804.118840,-4749.792088,4663.297435
1409.594788,-12361.439231,-1991.848295,3701.029710
1409.595099,-11621.233289,-766.095498,1406.391290
1409.595410,-10362.883188,-1378.971896,-814.226536
1409.595721,-7624.121203,-2451.505594,-1776.494261
1409.596033,-5847.626942,-536.266849,-2886.803174
1409.596344,-6661.853478,919.314598,-1258.350101
1409.596655,-9326.594869,536.266849,-74.020594
1409.596967,-11991.336260,-2451.505594,1702.473667
1409.597278,-12065.356855,-3600.648841,2516.700203
1409.597589,-10658.965565,-919.314598,2516.700203
1409.597900,-10140.821405,689.485948,1480.411884
1409.598212,-9622.677246,0.000000,-518.144159
1409.598523,-8660.409521,-536.266849,-2220.617826
1409.598834,-7476.080014,995.924147,-1776.494261
1409.599145,-7772.162391,4596.572988,-740.205942
1409.599457,-10288.862594,4673.182538,444.123565
1409.599768,-12509.480420,1762.019645,2516.700203
1409.600079,-12287.418637,-1149.143247,3478.967927
1409.600391,-9474.636058,383.047749,2516.700203
1409.600702,-8586.388927,3140.991542,370.102971
1409.601013,-6143.709319,3600.648841,-2072.576638
1409.601324,-3552.988522,2451.505594,-4663.297435
1409.601636,-2368.659014,2374.896044,-4663.297435
1409.601947,-3404.947333,3753.867940,-3034.844362
1409.602258,-8068.244768,4673.182538,-666.185348
1409.602569,-11843.295072,2604.724693,2442.679609
1409.602881,-13027.624579,-459.657299,3997.112087
1409.603192,-10362.883188,-153.219100,3775.050304
1409.603503,-8364.327145,3524.039291,1406.391290
1409.603814,-7254.018232,1762.019645,-222.061783
1409.604126,-3701.029710,-459.657299,-2516.700203
1409.604437,-2072.576638,-1991.848295,-3182.885551
1409.604748,-2664.741391,-229.828649,-3330.926739
1409.605059,-7031.956449,383.047749,-518.144159
1409.605371,-12509.480420,-2145.067394,2960.823768
1409.605682,-14508.036463,-5209.449386,5773.606348
1409.605993,-13693.809927,-5286.058936,6069.688724
1409.606304,-11473.192101,-1455.581446,4959.379811
1409.606615,-10362.883188,1072.533697,1998.556043
1409.606926,-8290.306550,-229.828649,-666.185348
1409.607238,-4293.194464,-1991.848295,-1480.411884
1409.607549,-3034.844362,-1838.629195,-2220.617826
1409.607860,-4071.132681,229.828649,-1110.308913
1409.608171,-8586.388927,-153.219100,-148.041188
1409.608482,-12953.603985,-3447.429741,1628.453072
1409.608794,-13027.624579,-7124.688131,4515.256246
1409.609105,-12361.439231,-5898.935335,3997.112087
1409.609416,-11547.212695,-4673.182538,1998.556043
1409.609727,-11695.253884,-4443.353888,-888.247130
1409.610038,-10658.965565,-4290.134789,-1998.556043
1409.610349,-8364.327145,-3294.210641,-3108.864956
1409.610661,-9104.533087,0.000000,-2072.576638
1409.610972,-12361.439231,76.609550,-0.000000
1409.611283,-14211.954086,76.609550,2960.823768
1409.611594,-14285.974681,-2221.676944,4071.132681
1409.611905,-11843.295072,-1532.190996,4145.153275
1409.612216,-9252.574275,1915.238745,2590.720797
1409.612528,-6587.832884,3064.381992,-74.020594
1409.612839,-5181.441594,1915.238745,-3256.906145
1409.613150,-3478.967927,1685.410096,-3849.070898
1409.613461,-3923.091493,4136.915689,-3627.009116
1409.613772,-7105.977043,5286.058936,-1480.411884
1409.614083,-11917.315666,2604.724693,814.226536
1409.614395,-15692.365970,0.000000,3108.864956
1409.614706,-15396.283594,536.266849,3849.070898
1409.615017,-11621.233289,3294.210641,2960.823768
1409.615328,-7179.997637,3907.087040,-148.041188
1409.615639,-4515.256246,2298.286494,-1998.556043
1409.615950,-222.061783,1532.190996,-3701.029710
1409.616262,962.267725,2298.286494,-3923.091493
1409.616573,-2294.638420,4213.525239,-2072.576638
1409.616884,-7105.977043,3217.601092,1554.432478
1409.617195,-12213.398043,0.000000,3552.988522
1409.617506,-13767.830521,-1072.533697,4663.297435
1409.617818,-11621.233289,2374.896044,3256.906145
1409.618129,-10288.862594,4136.915689,1406.391290
1409.618440,-7105.977043,3524.039291,-1554.432478
1409.618751,-4367.215058,1225.752797,-3849.070898
1409.619062,-2886.803174,1149.143247,-3478.967927
1409.619373,-3108.864956,2987.772442,-1776.494261
1409.619685,-7920.203579,2068.457845,666.185348
1409.619996,-11769.274478,-1915.238745,3775.050304
1409.620307,-13175.665768,-5439.278036,5255.462188
1409.620618,-12583.501014,-4673.182538,4737.318029
1409.620929,-10288.862594,-1225.752797,2664.741391
1409.621240,-8660.409521,-1149.143247,592.164754
1409.621552,-8290.306550,-4903.011187,-1258.350101
1409.621863,-6291.750507,-5822.325785,-518.144159
1409.622174,-6143.709319,-2681.334243,-1036.288319
1409.622485,-9474.636058,-689.485948,740.205942
1409.622796,-13175.665768,-2911.162892,2738.761985
1409.623107,-15174.221811,-5975.544884,3775.050304
1409.623419,-13101.645173,-5975.544884,3997.112087
1409.623730,-10288.862594,-2604.724693,2812.782580
1409.624041,-8586.388927,-689.485948,518.144159
1409.624352,-7994.224174,-1685.410096,-3182.885551
1409.624663,-5921.647536,-1915.238745,-3627.009116
1409.624974,-5329.482782,-1302.362347,-4737.318029
1409.625286,-7624.121203,1608.800546,-2146.597232
1409.625597,-13249.686362,1225.752797,148.041188
1409.625908,-16284.530724,-2757.943793,2072.576638
1409.626219,-15544.324782,-3907.087040,3330.926739
1409.626530,-13545.768739,-995.924147,3404.947333
1409.626841,-10732.986159,1149.143247,1554.432478
1409.627153,-8290.306550,-919.314598,-1332.370696
1409.627464,-5551.544565,-2221.676944,-1480.411884
1409.627775,-3034.844362,-459.657299,-2072.576638
1409.628086,-3478.967927,2911.162892,-1332.370696
1409.628397,-7698.141797,4213.525239,888.247130
1409.628709,-11917.315666,1762.019645,2664.741391
1409.629020,-13471.748144,0.000000,3701.029710
1409.629331,-12657.521608,3294.210641,3627.009116
1409.629642,-10510.924376,7124.688131,1036.288319
1409.629953,-8364.327145,6665.030833,-2294.638420
1409.630264,-5107.421000,4213.525239,-3478.967927
1409.630576,-1332.370696,4060.306139,-4959.379811
1409.630887,-1184.329507,5898.935335,-3552.988522
1409.631198,-4885.359217,5898.935335,-814.226536
1409.631509,-8956.491898,2068.457845,1776.494261
1409.631820,-10658.965565,-995.924147,3330.926739
1409.632131,-9030.512492,-612.876398,4441.235652
1409.632443,-8660.409521,1072.533697,2294.638420
1409.632754,-7550.100608,1838.629195,1036.288319
1409.633065,-7254.018232,-1608.800546,-814.226536
1409.633376,-5329.482782,-1225.752797,-2294.638420
1409.633687,-4663.297435,1991.848295,-1998.556043
1409.633998,-7920.203579,3600.648841,-0.000000
1409.634310,-11991.336260,842.705048,2664.741391
1409.634621,-13915.871710,-3600.648841,4885.359217
1409.634932,-13175.665768,-4213.525239,5181.441594
1409.635243,-11029.068536,-383.047749,3923.091493
1409.635554,-9326.594869,1302.362347,1554.432478
1409.635865,-7402.059420,-306.438199,-370.102971
1409.636177,-4737.318029,-3983.696590,-1184.329507
1409.636488,-2590.720797,-3600.648841,-1258.350101
1409.636799,-5477.523971,-536.266849,-592.164754
1409.637110,-9918.759623,-383.047749,666.185348
1409.637421,-13175.665768,-3140.991542,2294.638420
1409.637733,-14582.057057,-5745.716235,3701.029710
1409.638044,-12435.459826,-3447.429741,4071.132681
1409.638355,-10066.800811,-1915.238745,1480.411884
1409.638666,-9622.677246,-2757.943793,-740.205942
1409.638977,-7698.141797,-5286.058936,-2072.576638
1409.639288,-5403.503377,-4903.011187,-2960.823768
1409.639600,-6365.771101,-1991.848295,-2516.700203
1409.639911,-9992.780217,-766.095498,-0.000000
1409.640222,-13841.851115,-3447.429741,2072.576638
1409.640533,-16802.674883,-5669.106685,3182.885551
1409.640844,-15914.427753,-2451.505594,3923.091493
1409.641155,-12583.501014,1378.971896,2516.700203
1409.641467,-11251.130318,1762.019645,592.164754
1409.641778,-8068.244768,995.924147,-1628.453072
1409.642089,-4737.318029,0.000000,-2812.782580
1409.642400,-3256.906145,3294.210641,-3701.029710
1409.642711,-5033.400406,6128.763984,-1776.494261
1409.643022,-9474.636058,4749.792088,-518.144159
1409.643334,-12879.583391,842.705048,1702.473667
1409.643645,-11621.233289,306.438199,2664.741391
1409.643956,-10362.883188,2298.286494,1850.514855
1409.644267,-9474.636058,4213.525239,-814.226536
1409.644578,-6883.915261,3294.210641,-3108.864956
1409.644889,-5033.400406,1838.629195,-4071.132681
1409.645201,-1258.350101,3447.429741,-3182.885551
1409.645512,-3478.967927,4903.011187,-1406.391290
1409.645823,-8290.306550,3983.696590,1258.350101
1409.646134,-11917.315666,1225.752797,3404.947333
1409.646445,-11769.274478,612.876398,4737.318029
1409.646757,-8808.450710,2987.772442,3182.885551
1409.647068,-7846.182985,4366.744339,962.267725
1409.647379,-7772.162391,2451.505594,-1998.556043
1409.647690,-5477.523971,-766.095498,-3256.906145
1409.648001,-2220.617826,766.095498,-2960.823768
1409.648312,-3775.050304,2911.162892,-2072.576638
1409.648624,-9178.553681,2145.067394,1258.350101
1409.648935,-13545.768739,-1762.019645,3034.844362
1409.649246,-13693.809927,-4443.353888,5551.544565
1409.649557,-11325.150913,-3294.210641,5403.503377
1409.649868,-9770.718434,-689.485948,4515.256246
1409.650179,-9252.574275,-1225.752797,2146.597232
1409.650491,-6143.709319,-4366.744339,-148.041188
1409.650802,-2368.659014,-5669.106685,-666.185348
1409.651113,-1332.370696,-3294.210641,-962.267725
1409.651424,-5921.647536,-766.095498,370.102971
1409.651735,-12213.398043,-4060.306139,1702.473667
1409.652046,-16432.571912,-6665.030833,3775.050304
1409.652358,-15396.283594,-4213.525239,5255.462188
1409.652669,-14063.912898,-689.485948,3478.967927
1409.652980,-13175.665768,-842.705048,1332.370696
1409.653291,-10362.883188,-2068.457845,-666.185348
1409.653602,-6217.729913,-1378.971896,-2738.761985
1409.653913,-3627.009116,-383.047749,-2812.782580
1409.654225,-5625.565159,1072.533697,-1776.494261
1409.654536,-10288.862594,-1378.971896,666.185348
1409.654847,-13619.789333,-3907.087040,2368.659014
1409.655158,-13693.809927,-4060.306139,3627.009116
1409.655469,-12731.542202,-459.657299,2368.659014
1409.655780,-11917.315666,2068.457845,518.144159
1409.656092,-10140.821405,536.266849,-2368.659014
1409.656403,-8290.306550,-689.485948,-4515.256246
1409.656714,-5995.668130,1149.143247,-3701.029710
1409.657025,-6587.832884,4519.963438,-2590.720797
1409.657336,-10362.883188,4366.744339,-0.000000
1409.657648,-13841.851115,1838.629195,2886.803174
1409.657959,-13175.665768,-536.266849,5107.421000
1409.658270,-8660.409521,229.828649,4663.297435
1409.658581,-6957.935855,2451.505594,2442.679609
1409.658892,-7031.956449,2298.286494,-222.061783
1409.659203,-3775.050304,1378.971896,-5699.585753
1409.659515,-2072.576638,3447.429741,-5625.565159
1409.659826,-2960.823768,6511.811733,-5033.400406
1409.660137,-7105.977043,6511.811733,-2220.617826
1409.660448,-11029.068536,3370.820191,1332.370696
1409.660759,-13101.645173,0.000000,3997.112087
1409.661070,-10658.965565,306.438199,5477.523971
1409.661382,-7624.121203,3677.258390,3108.864956
1409.661693,-6735.874072,3600.648841,666.185348
1409.662004,-3849.070898,0.000000,-2220.617826
1409.662315,-814.226536,-1455.581446,-2960.823768
1409.662626,-296.082377,153.219100,-3701.029710
1409.662937,-6143.709319,1991.848295,-1998.556043
1409.663249,-12361.439231,-1149.143247,2442.679609
1409.663560,-15766.386565,-5515.887586,4219.173869
1409.663871,-16432.571912,-6358.592633,6957.935855
1409.664182,-13841.851115,-2451.505594,6143.709319
1409.664493,-12139.377449,-459.657299,3108.864956
1409.664804,-9474.636058,-689.485948,222.061783
1409.665116,-4367.215058,-1991.848295,-1480.411884
1409.665427,-1258.350101,-1838.629195,-1850.514855
1409.665738,-2738.761985,612.876398,-1036.288319
1409.666049,-6883.915261,-766.095498,1480.411884
1409.666360,-12213.398043,-5286.058936,3997.112087
1409.666672,-14137.933492,-7737.564530,5403.503377
1409.666983,-12879.583391,-5822.325785,5107.421000
1409.667294,-11399.171507,-3294.210641,2442.679609
1409.667605,-11177.109724,-3217.601092,-1258.350101
1409.667916,-10436.903782,-4673.182538,-3256.906145
1409.668227,-7254.018232,-2681.334243,-3108.864956
1409.668539,-7846.182985,0.000000,-2442.679609
1409.668850,-10362.883188,1302.362347,1332.370696
1409.669161,-13693.809927,-995.924147,3701.029710
1409.669472,-15248.242405,-4136.915689,4811.338623
1409.669783,-12213.398043,-2221.676944,4663.297435
1409.670094,-8808.450710,3217.601092,2368.659014
1409.670406,-6291.750507,5056.230287,-370.102971
1409.670717,-5699.585753,1608.800546,-3997.112087
1409.671028,-4737.318029,229.828649,-5403.503377
1409.671339,-4589.276840,2604.724693,-4589.276840
1409.671650,-9252.574275,4903.011187,-2368.659014
1409.671961,-13545.768739,3753.867940,740.205942
1409.672273,-16950.716072,153.219100,2886.803174
1409.672584,-14211.954086,-689.485948,4367.215058
1409.672895,-8734.430116,1915.238745,3330.926739
1409.673206,-6143.709319,3447.429741,1184.329507
1409.673517,-4367.215058,1149.143247,-1480.411884
1409.673828,-814.226536,1455.581446,-4737.318029
1409.674140,888.247130,2987.772442,-5033.400406
1409.674451,-3108.864956,5286.058936,-3256.906145
1409.674762,-9178.553681,4519.963438,-296.082377
1409.675073,-12657.521608,766.095498,1924.535449
1409.675384,-13841.851115,-1302.362347,4071.132681
1409.675696,-11769.274478,842.705048,3923.091493
1409.676007,-9918.759623,3830.477490,888.247130
1409.676318,-8734.430116,2604.724693,-962.267725
1409.676629,-4663.297435,383.047749,-2368.659014
1409.676940,-1110.308913,995.924147,-2738.761985
1409.677251,-2368.659014,3370.820191,-2664.741391
1409.677563,-7624.121203,2834.553343,-740.205942
1409.677874,-12731.542202,-1455.581446,2960.823768
1409.678185,-14063.912898,-4749.792088,4885.359217
1409.678496,-12139.377449,-4290.134789,5847.626942
1409.678807,-10214.842000,-2681.334243,4071.132681
1409.679118,-9622.677246,-2834.553343,740.205942
1409.679430,-8438.347739,-4826.401637,-518.144159
1409.679741,-5329.482782,-5286.058936,-1702.473667
1409.680052,-5329.482782,-1685.410096,-1332.370696
1409.680363,-8882.471304,76.609550,-0.000000
1409.680674,-12953.603985,-2145.067394,2072.576638
1409.680985,-14211.954086,-5056.230287,4737.318029
1409.681297,-13027.624579,-5822.325785,5477.523971
1409.681608,-10584.944971,-3217.601092,3923.091493
1409.681919,-9104.533087,-1685.410096,1036.288319
1409.682230,-8068.244768,-2451.505594,-1406.391290
1409.682541,-6439.791695,-3447.429741,-3478.967927
1409.682852,-5477.523971,-1685.410096,-3404.947333
1409.683164,-7698.141797,1149.143247,-1850.514855
1409.683475,-11547.212695,0.000000,1480.411884
1409.683786,-15470.304188,-2757.943793,3108.864956
1409.684097,-15988.448347,-3830.477490,4737.318029
1409.684408,-13619.789333,-766.095498,3849.070898
1409.684719,-10436.903782,2451.505594,1850.514855
1409.685031,-8216.285956,1608.800546,-888.247130
1409.685342,-5181.441594,-306.438199,-3182.885551
1409.685653,-2886.803174,-459.657299,-3701.029710
1409.685964,-4293.194464,2451.505594,-2812.782580
1409.686275,-8586.388927,3447.429741,-444.123565
1409.686587,-13915.871710,2145.067394,1850.514855
1409.686898,-15766.386565,-306.438199,4145.153275
1409.687209,-12435.459826,612.876398,4071.132681
1409.687520,-8586.388927,4290.134789,2220.617826
1409.687831,-6291.750507,4673.182538,-814.226536
1409.688142,-4071.132681,4213.525239,-3775.050304
1409.688454,-2072.576638,5592.497135,-4885.359217
1409.688765,-2368.659014,8120.612279,-4737.318029
1409.689076,-5033.400406,9346.365076,-2886.803174
1409.689387,-8586.388927,4749.792088,-0.000000
1409.689698,-10807.006753,-536.266849,2368.659014
1409.690009,-10140.821405,-1302.362347,3404.947333
1409.690321,-9252.574275,536.266849,2368.659014
1409.690632,-9326.594869,1378.971896,666.185348
1409.690943,-8142.265362,-842.705048,-1258.350101
1409.691254,-4959.379811,-2604.724693,-1702.473667
1409.691565,-2368.659014,-1149.143247,-2072.576638
1409.691876,-4293.194464,689.485948,-0.000000
1409.692188,-9400.615463,-1225.752797,1776.494261
1409.692499,-13397.727550,-4826.401637,4367.215058
1409.692810,-13693.809927,-4903.011187,5699.585753
1409.693121,-11399.171507,-2757.943793,5477.523971
1409.693432,-11103.089130,-919.314598,3034.844362
1409.693743,-8956.491898,-2145.067394,1036.288319
1409.694055,-6439.791695,-4213.525239,-1406.391290
1409.694366,-3404.947333,-3907.087040,-2072.576638
1409.694677,-5255.462188,-766.095498,-1702.473667
1409.694988,-10362.883188,0.000000,-74.020594
1409.695299,-14137.933492,-3064.381992,2664.741391
1409.695611,-15248.242405,-5515.887586,4515.256246
1409.695922,-14211.954086,-4290.134789,4663.297435
1409.696233,-11325.150913,-1149.143247,3256.906145
1409.696544,-9844.739029,-1838.629195,370.102971
1409.696855,-7105.977043,-4213.525239,-1554.432478
1409.697166,-5033.400406,-4136.915689,-3552.988522
1409.697478,-5033.400406,-842.705048,-2368.659014
1409.697789,-8068.244768,1225.752797,-1184.329507
1409.698100,-12953.603985,0.000000,1184.329507
1409.698411,-15988.448347,-3447.429741,3182.885551
1409.698722,-15840.407159,-2604.724693,4293.194464
1409.699033,-13619.789333,1302.362347,3627.009116
1409.699345,-11251.130318,3753.867940,1554.432478
1409.699656,-8808.450710,2221.676944,-1554.432478
1409.699967,-5107.421000,1532.190996,-2886.803174
1409.700278,-3034.844362,3524.039291,-4219.173869
1409.700589,-4071.132681,6052.154434,-2886.803174
1409.700900,-7920.203579,5286.058936,-740.205942
1409.701212,-12657.521608,1072.533697,2072.576638
1409.701523,-12065.356855,-612.876398,3849.070898
1409.701834,-9696.697840,1838.629195,2368.659014
1409.702145,-8438.347739,4213.525239,814.226536
1409.702456,-6143.709319,3370.820191,-2220.617826
1409.702767,-4219.173869,2221.676944,-4663.297435
1409.703079,-1332.370696,4903.011187,-4515.256246
1409.703390,-2516.700203,6894.859482,-2886.803174
1409.703701,-6809.894666,5515.887586,-814.226536
1409.704012,-10510.924376,2451.505594,1924.535449
1409.704323,-11843.295072,0.000000,4293.194464
1409.704635,-9400.615463,536.266849,4071.132681
1409.704946,-8882.471304,2298.286494,1924.535449
1409.705257,-9104.533087,1915.238745,-518.144159
1409.705568,-7550.100608,-689.485948,-3701.029710
1409.705880,-4071.132681,-919.314598,-2738.761985
1409.706191,-3849.070898,1225.752797,-1850.514855
1409.706502,-7476.080014,689.485948,592.164754
1409.706814,-12879.583391,-2987.772442,2516.700203
1409.707125,-14804.118840,-6052.154434,5255.462188
1409.707436,-12435.459826,-3983.696590,5699.585753
1409.707747,-10140.821405,-2068.457845,3478.967927
1409.708059,-9770.718434,-2068.457845,1628.453072
1409.708370,-7698.141797,-4673.182538,-0.000000
1409.708681,-3997.112087,-6588.421283,-1628.453072
1409.708993,-3997.112087,-4443.353888,-1702.473667
1409.709304,-7254.018232,-1762.019645,74.020594
1409.709615,-12435.459826,-2834.553343,1850.514855
1409.709926,-16210.510130,-5745.716235,4219.173869
1409.710238,-15396.283594,-6205.373534,4959.379811
1409.710549,-12287.418637,-1608.800546,4293.194464
1409.710860,-11695.253884,0.000000,1628.453072
1409.711172,-11029.068536,-1149.143247,-518.144159
1409.711483,-7624.121203,-1762.019645,-2960.823768
1409.711794,-5699.585753,76.609550,-3627.009116
1409.712106,-5181.441594,2145.067394,-1850.514855
1409.712417,-8586.388927,1685.410096,296.082377
1409.712728,-12361.439231,-2757.943793,2738.761985
1409.713039,-13101.645173,-4903.011187,3849.070898
1409.713351,-12065.356855,-1762.019645,3701.029710
1409.713662,-11103.089130,1838.629195,2664.741391
1409.713973,-9770.718434,2221.676944,814.226536
1409.714285,-7254.018232,-306.438199,-1924.535449
1409.714596,-4293.194464,1302.362347,-3108.864956
1409.714907,-3701.029710,4596.572988,-2664.741391
1409.715218,-7402.059420,7584.345430,-1702.473667
1409.715530,-11843.295072,4903.011187,2220.617826
1409.715841,-13101.645173,1838.629195,2886.803174
1409.716152,-10584.944971,2298.286494,3701.029710
1409.716464,-7402.059420,5745.716235,1850.514855
1409.716775,-5921.647536,6818.249932,-444.123565
1409.717086,-4145.153275,2911.162892,-3627.009116
1409.717397,-1776.494261,2451.505594,-5625.565159
1409.717709,-1184.329507,4290.134789,-4885.359217
1409.718020,-4515.256246,6511.811733,-3256.906145
1409.718331,-10214.842000,3830.477490,740.205942
1409.718643,-13249.686362,-1225.752797,2368.659014
1409.718954,-12361.439231,-2451.505594,4663.297435
1409.719265,-9770.718434,383.047749,3849.070898
1409.719576,-9474.636058,1532.190996,1480.411884
1409.719888,-8216.285956,-153.219100,-888.247130
1409.720199,-4811.338623,-1608.800546,-2738.761985
1409.720510,-2886.803174,-306.438199,-2960.823768
1409.720822,-3849.070898,1455.581446,-1554.432478
1409.721133,-9770.718434,-689.485948,592.164754
1409.721444,-14434.015869,-4903.011187,3997.112087
1409.721755,-15026.180623,-7048.078582,5921.647536
1409.722067,-13693.809927,-4443.353888,4885.359217
1409.722378,-12139.377449,-766.095498,3552.988522
1409.722689,-10436.903782,-1302.362347,518.144159
1409.723001,-7254.018232,-4903.011187,-1850.514855
1409.723312,-4515.256246,-3600.648841,-2812.782580
1409.723623,-4145.153275,-153.219100,-1776.494261
1409.723934,-7624.121203,995.924147,-148.041188
1409.724246,-12065.356855,-3983.696590,2812.782580
1409.724557,-13989.892304,-6128.763984,4737.318029
1409.724868,-12879.583391,-5669.106685,4367.215058
1409.725180,-11177.109724,-2221.676944,2664.741391
1409.725491,-10140.821405,-766.095498,370.102971
1409.725802,-9992.780217,-2681.334243,-2590.720797
1409.726113,-8364.327145,-2681.334243,-2886.803174
1409.726425,-7476.080014,76.609550,-1776.494261
1409.726736,-9992.780217,1838.629195,-74.020594
1409.727047,-12731.542202,-306.438199,3404.947333
1409.727359,-14211.954086,-3370.820191,4663.297435
1409.727670,-11843.295072,-3447.429741,5625.565159
1409.727981,-8586.388927,153.219100,3923.091493
1409.728292,-7328.038826,2528.115143,1702.473667
1409.728604,-6957.935855,1532.190996,-1998.556043
1409.728915,-4515.256246,1685.410096,-4219.173869
1409.729226,-3627.009116,4903.011187,-4367.215058
1409.729538,-6735.874072,7201.297681,-3775.050304
1409.729849,-9992.780217,6205.373534,-444.123565
1409.730160,-12879.583391,2451.505594,1998.556043
1409.730471,-11917.315666,1072.533697,3552.988522
1409.730783,-8882.471304,3294.210641,3701.029710
1409.731094,-6365.771101,4903.011187,1184.329507
1409.731405,-5699.585753,3830.477490,-1628.453072
1409.731717,-2368.659014,2374.896044,-3404.947333
1409.732028,222.061783,2757.943793,-4811.338623
1409.732339,-1628.453072,5439.278036,-3775.050304
1409.732650,-6587.832884,4213.525239,-1184.329507
1409.732962,-11991.336260,0.000000,1702.473667
1409.733273,-14211.954086,-2451.505594,4145.153275
1409.733584,-12435.459826,-689.485948,4145.153275
1409.733896,-11843.295072,1225.752797,2442.679609
1409.734207,-10807.006753,1149.143247,-148.041188
1409.734518,-7994.224174,-459.657299,-2294.638420
1409.734829,-3108.864956,-689.485948,-3627.009116
1409.735141,-1998.556043,1378.971896,-2664.741391
1409.735452,-5995.668130,1991.848295,-592.164754
1409.735763,-11547.212695,-2221.676944,2516.700203
1409.736075,-14508.036463,-6894.859482,4589.276840
1409.736386,-13175.665768,-6205.373534,6217.729913
1409.736697,-12139.377449,-3064.381992,3701.029710
1409.737008,-11325.150913,-1838.629195,1406.391290
1409.737320,-9548.656652,-4290.134789,-1406.391290
1409.737631,-6883.915261,-5209.449386,-2516.700203
1409.737942,-5699.585753,-2757.943793,-1850.514855
1409.738254,-7920.203579,0.000000,-148.041188
1409.738565,-11843.295072,-1608.800546,2146.597232
1409.738876,-14211.954086,-6128.763984,4589.276840
1409.739187,-13397.727550,-7660.954980,5773.606348
1409.739499,-10955.047942,-4366.744339,4071.132681
1409.739810,-8586.388927,-536.266849,1554.432478
1409.740121,-8808.450710,-1685.410096,-1258.350101
1409.740433,-7550.100608,-3753.867940,-2960.823768
1409.740744,-6069.688724,-2145.067394,-2442.679609
1409.741055,-7476.080014,1225.752797,-2220.617826
1409.741366,-10214.842000,1302.362347,1258.350101
1409.741678,-14211.954086,-2145.067394,3034.844362
1409.741989,-14952.160028,-3677.258390,4737.318029
1409.742300,-11695.253884,-766.095498,4293.194464
1409.742612,-8512.368333,2604.724693,2368.659014
1409.742923,-6661.853478,3217.601092,370.102971
1409.743234,-4071.132681,1378.971896,-2516.700203
1409.743545,-1850.514855,995.924147,-4367.215058
1409.743857,-2516.700203,2757.943793,-3701.029710
1409.744168,-7328.038826,4903.011187,-962.267725
1409.744479,-12805.562797,3140.991542,888.247130
1409.744791,-15544.324782,76.609550,3849.070898
1409.745102,-13989.892304,383.047749,4219.173869
1409.745413,-10140.821405,3830.477490,2738.761985
1409.745724,-7772.162391,5592.497135,-222.061783
1409.746036,-3775.050304,4136.915689,-2812.782580
1409.746347,222.061783,4213.525239,-5107.421000
1409.746658,592.164754,5745.716235,-5329.482782
1409.746970,-3478.967927,7660.954980,-3627.009116
1409.747281,-9622.677246,4826.401637,-592.164754
1409.747592,-13915.871710,306.438199,2368.659014
1409.747903,-13397.727550,-1225.752797,3997.112087
1409.748215,-10807.006753,1072.533697,2590.720797
1409.748526,-10288.862594,1991.848295,814.226536
1409.748837,-8956.491898,-1225.752797,-1628.453072
1409.749149,-5477.523971,-3447.429741,-2812.782580
1409.749460,-3627.009116,-1225.752797,-2590.720797
1409.749771,-5477.523971,1991.848295,-814.226536
1409.750082,-11399.171507,842.705048,1406.391290
1409.750394,-15396.283594,-3600.648841,4663.297435
1409.750705,-13841.851115,-6435.202183,5995.668130
1409.751016,-10436.903782,-3447.429741,5847.626942
1409.751328,-9548.656652,-842.705048,2590.720797
1409.751639,-9252.574275,-1225.752797,-0.000000
1409.751950,-6661.853478,-4136.915689,-2886.803174
1409.752261,-3701.029710,-4136.915689,-2886.803174
1409.752573,-4811.338623,-1455.581446,-1776.494261
1409.752884,-9622.677246,-995.924147,148.041188
1409.753195,-14211.954086,-3140.991542,2442.679609
1409.753507,-16580.613101,-7201.297681,4663.297435
1409.753818,-13693.809927,-7431.126331,5329.482782
1409.754129,-10288.862594,-3907.087040,3627.009116
1409.754440,-9400.615463,-3140.991542,666.185348
1409.754752,-7550.100608,-4596.572988,-1332.370696
1409.755063,-5625.565159,-4519.963438,-3034.844362
1409.755374,-4293.194464,-842.705048,-2590.720797
1409.755686,-7476.080014,2451.505594,-518.144159
1409.755997,-12879.583391,153.219100,2220.617826
1409.756308,-15840.407159,-1225.752797,4145.153275
1409.756619,-14878.139434,-689.485948,4663.297435
1409.756931,-11621.233289,3064.381992,3552.988522
1409.757242,-9992.780217,5132.839837,1406.391290
1409.757553,-7254.018232,4443.353888,-1554.432478
1409.757865,-2368.659014,2834.553343,-3108.864956
1409.758176,-1036.288319,3983.696590,-3775.050304
1409.758487,-3478.967927,5439.278036,-2146.597232
1409.758798,-8956.491898,4213.525239,-814.226536
1409.759110,-13767.830521,1302.362347,888.247130
1409.759421,-13841.851115,0.000000,3552.988522
1409.759732,-11473.192101,1225.752797,2516.700203
1409.760044,-8882.471304,2911.162892,1110.308913
1409.760355,-7402.059420,1685.410096,-444.123565
1409.760666,-5107.421000,153.219100,-2812.782580
1409.760977,-592.164754,3524.039291,-3552.988522
1409.761289,-222.061783,6205.373534,-2294.638420
1409.761600,-6439.791695,3907.087040,-962.267725
1409.761911,-13619.789333,383.047749,1702.473667
1409.762223,-12805.562797,1608.800546,2516.700203
1409.762534,-12213.398043,2834.553343,2516.700203
1409.762845,-10214.842000,3830.477490,2812.782580
1409.763156,-8142.265362,1838.629195,-0.000000
1409.763468,-7698.141797,-2528.115143,-2664.741391
1409.763779,-2442.679609,-2604.724693,-2590.720797
1409.764090,-2294.638420,1072.533697,-2220.617826
1409.764402,-8142.265362,2451.505594,-1628.453072
1409.764713,-12065.356855,0.000000,2590.720797
1409.765024,-14063.912898,-6435.202183,4219.173869
1409.765336,-12731.542202,-6435.202183,5699.585753
1409.765647,-10140.821405,-842.705048,5181.441594
1409.765958,-9474.636058,-995.924147,1702.473667
1409.766269,-8512.368333,-4979.620737,-592.164754
1409.766581,-5033.400406,-6588.421283,-1924.535449
1409.766892,-2294.638420,-3677.258390,-2220.617826
1409.767203,-5477.523971,-1685.410096,-1036.288319
1409.767515,-11621.233289,-3600.648841,1998.556043
1409.767826,-16654.633695,-7890.783629,3923.091493
1409.768137,-16876.695478,-7048.078582,4737.318029
1409.768448,-13989.892304,-1302.362347,4959.379811
1409.768760,-11991.336260,229.828649,2072.576638
1409.769071,-10955.047942,-1532.190996,-592.164754
1409.769382,-7105.977043,-2451.505594,-3034.844362
1409.769694,-3404.947333,-766.095498,-4145.153275
1409.770005,-4071.132681,1838.629195,-3034.844362
1409.770316,-8216.285956,2451.505594,-222.061783
1409.770627,-12731.542202,-1915.238745,1628.453072
1409.770939,-14211.954086,-5515.887586,4441.235652
1409.771250,-12657.521608,-3830.477490,4811.338623
1409.771561,-11991.336260,0.000000,3849.070898
1409.771873,-9104.533087,1378.971896,-0.000000
1409.772184,-6291.750507,306.438199,-2368.659014
1409.772495,-4737.318029,306.438199,-3404.947333
1409.772806,-4145.153275,4290.134789,-3256.906145
1409.773118,-7476.080014,8120.612279,-1406.391290
1409.773429,-11769.274478,5975.544884,1110.308913
1409.773740,-14211.954086,2298.286494,3330.926739
1409.774052,-11547.212695,1762.019645,3404.947333
1409.774363,-7846.182985,5132.839837,1776.494261
1409.774674,-6143.709319,6511.811733,-814.226536
1409.774985,-4811.338623,4519.963438,-3627.009116
1409.775297,-2146.597232,3140.991542,-4811.338623
1409.775608,-962.267725,4826.401637,-4811.338623
1409.775919,-4737.318029,5898.935335,-2738.761985
1409.776231,-9548.656652,4673.182538,296.082377
1409.776542,-13693.809927,1225.752797,2442.679609
1409.776853,-13397.727550,-766.095498,4515.256246
1409.777164,-10288.862594,1608.800546,3775.050304
1409.777476,-8660.409521,3370.820191,1554.432478
1409.777787,-7772.162391,1455.581446,-666.185348
1409.778098,-5107.421000,-3217.601092,-2368.659014
1409.778410,-2664.741391,-2451.505594,-2442.679609
1409.778721,-3552.988522,1149.143247,-666.185348
1409.779032,-9030.512492,-306.438199,1628.453072
1409.779343,-13841.851115,-5592.497135,4145.153275
1409.779655,-15396.283594,-7124.688131,6291.750507
1409.779966,-12139.377449,-3447.429741,6365.771101
1409.780277,-10140.821405,-383.047749,3552.988522
1409.780589,-10362.883188,-842.705048,1702.473667
1409.780900,-6957.935855,-3600.648841,-740.205942
1409.781211,-2294.638420,-4443.353888,-2516.700203
1409.781522,-2516.700203,-2145.067394,-1332.370696
1409.781834,-7105.977043,229.828649,814.226536
1409.782145,-11695.253884,-3140.991542,2146.597232
1409.782456,-14211.954086,-6818.249932,4145.153275
1409.782768,-14359.995275,-6205.373534,4737.318029
1409.783079,-11325.150913,-2374.896044,3182.885551
1409.783390,-11103.089130,-1378.971896,-0.000000
1409.783701,-11177.109724,-4366.744339,-2516.700203
1409.784013,-7179.997637,-4290.134789,-3997.112087
1409.784324,-6587.832884,-383.047749,-4515.256246
1409.784635,-8808.450710,2451.505594,-1332.370696
1409.784947,-13249.686362,-612.876398,888.247130
1409.785258,-16062.468941,-3983.696590,3182.885551
1409.785569,-14434.015869,-3370.820191,4959.379811
1409.785880,-11103.089130,536.266849,4367.215058
1409.786192,-9178.553681,2145.067394,1998.556043
1409.786503,-7179.997637,1685.410096,-888.247130
1409.786814,-2442.679609,0.000000,-2294.638420
1409.787126,-370.102971,1915.238745,-3775.050304
1409.787437,-2146.597232,6281.983084,-2590.720797
1409.787748,-8808.450710,6358.592633,-370.102971
1409.788059,-15396.283594,1302.362347,1184.329507
1409.788371,-15840.407159,383.047749,2590.720797
1409.788682,-13323.706956,3983.696590,2590.720797
1409.788993,-9992.780217,6052.154434,1480.411884
1409.789305,-8068.244768,3907.087040,-222.061783
1409.789616,-4515.256246,-306.438199,-3108.864956
1409.789927,148.041188,1149.143247,-3923.091493
1409.790238,888.247130,4596.572988,-2664.741391
1409.790550,-4515.256246,5745.716235,-740.205942
1409.790861,-11251.130318,2298.286494,1036.288319
1409.791172,-14211.954086,-995.924147,3034.844362
1409.791484,-12287.418637,1149.143247,4219.173869
1409.791795,-10214.842000,5056.230287,1628.453072
1409.792106,-9326.594869,4979.620737,-444.123565
1409.792417,-8068.244768,689.485948,-2886.803174
1409.792729,-3923.091493,0.000000,-4441.235652
1409.793040,-1036.288319,3907.087040,-2442.679609
1409.793351,-5551.544565,4596.572988,-740.205942
1409.793663,-11473.192101,459.657299,2368.659014
1409.793974,-14285.974681,-4596.572988,4737.318029
1409.794285,-12879.583391,-5822.325785,7254.018232
1409.794596,-9400.615463,-3064.381992,5921.647536
1409.794908,-9474.636058,-1991.848295,4071.132681
1409.795219,-9326.594869,-5975.544884,814.226536
1409.795530,-4737.318029,-8733.488677,-1628.453072
1409.795842,-2146.597232,-5209.449386,-1924.535449
1409.796153,-5477.523971,-766.095498,-1258.350101
1409.796464,-12361.439231,-689.485948,888.247130
1409.796775,-16062.468941,-4903.011187,4293.194464
1409.797087,-15840.407159,-5975.544884,5403.503377
1409.797398,-12287.418637,-2604.724693,4811.338623
1409.797709,-9474.636058,0.000000,2738.761985
1409.798021,-9030.512492,-1532.190996,-222.061783
1409.798332,-5255.462188,-3600.648841,-2516.700203
1409.798643,-2146.597232,-2221.676944,-3701.029710
1409.798954,-4811.338623,1455.581446,-3775.050304
1409.799266,-9992.780217,1685.410096,-888.247130
1409.799577,-15026.180623,-1455.581446,1554.432478
1409.799888,-16876.695478,-4596.572988,3404.947333
1409.800200,-15248.242405,-2604.724693,3775.050304
1409.800511,-12213.398043,76.609550,2664.741391
1409.800822,-11325.150913,383.047749,-222.061783
1409.801133,-8808.450710,-1762.019645,-1628.453072
1409.801445,-3552.988522,-995.924147,-3256.906145
1409.801756,-2368.659014,2145.067394,-2886.803174
1409.802067,-4515.256246,5286.058936,-0.000000
1409.802379,-9548.656652,2528.115143,2368.659014
1409.802690,-12435.459826,-1608.800546,4145.153275
1409.803001,-11991.336260,-383.047749,5033.400406
1409.803312,-10732.986159,4596.572988,2368.659014
1409.803624,-9622.677246,7507.735880,-1258.350101
1409.803935,-8290.306550,6205.373534,-4367.215058
1409.804246,-4219.173869,5362.668486,-6883.915261
1409.804558,-1258.350101,6588.421283,-5551.544565
1409.804869,-3775.050304,7660.954980,-3256.906145
1409.805180,-8660.409521,5515.887586,-0.000000
1409.805491,-11769.274478,459.657299,2220.617826
1409.805803,-11103.089130,-1302.362347,4219.173869
1409.806114,-8438.347739,1302.362347,3478.967927
1409.806425,-6957.935855,2374.896044,518.144159
1409.806737,-7105.977043,0.000000,-2220.617826
1409.807048,-4811.338623,-2451.505594,-3404.947333
1409.807359,-2738.761985,-1378.971896,-2590.720797
1409.807671,-5181.441594,1072.533697,-1184.329507
1409.807982,-11325.150913,-536.266849,2664.741391
1409.808294,-16210.510130,-4060.306139,4811.338623
1409.808605,-15396.283594,-5286.058936,7031.956449
1409.808917,-13027.624579,-2374.896044,5699.585753
1409.809228,-9474.636058,1072.533697,3182.885551
1409.809539,-8290.306550,0.000000,740.205942
1409.809851,-5773.606348,-2834.553343,-1110.308913
1409.810162,-1702.473667,-4443.353888,-1332.370696
1409.810474,-2072.576638,-2145.067394,-1406.391290
1409.810785,-7920.203579,0.000000,444.123565
1409.811097,-13249.686362,-2604.724693,2664.741391
1409.811408,-15544.324782,-7048.078582,2960.823768
1409.811719,-14137.933492,-5056.230287,3404.947333
1409.812031,-11029.068536,-2145.067394,2368.659014
1409.812342,-10066.800811,-1838.629195,-0.000000
1409.812654,-9030.512492,-5362.668486,-1110.308913
1409.812965,-6587.832884,-6205.373534,-2368.659014
1409.813277,-5255.462188,-2987.772442,-1998.556043
1409.813588,-7476.080014,459.657299,-74.020594
1409.813899,-12361.439231,-766.095498,2072.576638
1409.814211,-16062.468941,-4366.744339,2738.761985
1409.814522,-15988.448347,-4443.353888,3256.906145
1409.814834,-12805.562797,76.609550,2812.782580
1409.815145,-11399.171507,2451.505594,962.267725
1409.815457,-10066.800811,1302.362347,-2072.576638
1409.815768,-6957.935855,536.266849,-3478.967927
1409.816080,-3923.091493,2911.162892,-3108.864956
1409.816391,-3923.091493,6205.373534,-1924.535449
1409.816702,-7550.100608,6435.202183,-444.123565
1409.817014,-11473.192101,2911.162892,1628.453072
1409.817325,-12361.439231,-995.924147,3330.926739
1409.817637,-8512.368333,1378.971896,1998.556043
1409.817948,-7476.080014,5209.449386,-0.000000
1409.818260,-8068.244768,3983.696590,-2960.823768
1409.818571,-5477.523971,1685.410096,-4071.132681
1409.818882,-2812.782580,1225.752797,-4589.276840
1409.819194,-2516.700203,3524.039291,-1998.556043
1409.819505,-6809.894666,3983.696590,370.102971
1409.819817,-11843.295072,995.924147,2516.700203
1409.820128,-13471.748144,-689.485948,3997.112087
1409.820440,-11547.212695,612.876398,3701.029710
1409.820751,-8068.244768,4979.620737,888.247130
1409.821063,-7920.203579,5286.058936,-1702.473667
1409.821374,-6809.894666,1302.362347,-2738.761985
1409.821685,-3701.029710,-1149.143247,-3034.844362
1409.821997,-2368.659014,1915.238745,-1776.494261
1409.822308,-6217.729913,2757.943793,888.247130
1409.822620,-12805.562797,-766.095498,3330.926739
1409.822931,-14878.139434,-4596.572988,4959.379811
1409.823243,-13175.665768,-2911.162892,5329.482782
1409.823554,-9918.759623,-306.438199,4293.194464
1409.823865,-8364.327145,229.828649,962.267725
1409.824177,-8808.450710,-2604.724693,-0.000000
1409.824488,-5329.482782,-5362.668486,-666.185348
1409.824800,-2590.720797,-4213.525239,-592.164754
1409.825111,-5403.503377,-1149.143247,370.102971
1409.825423,-11547.212695,-1608.800546,2442.679609
1409.825734,-14359.995275,-5209.449386,3775.050304
1409.826045,-14211.954086,-6741.640382,3404.947333
1409.826357,-11917.315666,-1685.410096,3701.029710
1409.826668,-9178.553681,842.705048,1702.473667
1409.826980,-10732.986159,-1915.238745,-1110.308913
1409.827291,-8956.491898,-4290.134789,-1332.370696
1409.827603,-4737.318029,-3140.991542,-2368.659014
1409.827914,-5699.585753,306.438199,-1628.453072
1409.828226,-9992.780217,1302.362347,814.226536
1409.828537,-13693.809927,-2528.115143,2590.720797
1409.828848,-14063.912898,-5515.887586,3627.009116
1409.829160,-12361.439231,-3140.991542,3034.844362
1409.829471,-10658.965565,919.314598,2072.576638
1409.829783,-9696.697840,1455.581446,-1332.370696
1409.830094,-8068.244768,-1378.971896,-2738.761985
1409.830406,-4663.297435,-919.314598,-3404.947333
1409.830717,-4071.132681,1072.533697,-2960.823768
1409.831028,-7179.997637,4060.306139,-814.226536
1409.831340,-12139.377449,2681.334243,1184.329507
1409.831651,-13989.892304,-1225.752797,3404.947333
1409.831963,-10510.924376,-383.047749,3701.029710
1409.832274,-7476.080014,4366.744339,2146.597232
1409.832586,-6809.894666,4903.011187,-296.082377
1409.832897,-7105.977043,1762.019645,-2590.720797
1409.833209,-4219.173869,1455.581446,-4515.256246
1409.833520,-2590.720797,5056.230287,-4811.338623
1409.833831,-5773.606348,7277.907231,-3108.864956
1409.834143,-10955.047942,5515.887586,-296.082377
1409.834454,-13545.768739,689.485948,1776.494261
1409.834766,-12435.459826,-1378.971896,2516.700203
1409.835077,-9030.512492,1608.800546,2664.741391
1409.835389,-7698.141797,4213.525239,222.061783
1409.835700,-7994.224174,1608.800546,-1332.370696
1409.836011,-6439.791695,-1455.581446,-2368.659014
1409.836323,-3256.906145,-229.828649,-2664.741391
1409.836634,-3701.029710,3064.381992,-1036.288319
1409.836946,-8586.388927,3217.601092,740.205942
1409.837257,-13249.686362,-1455.581446,3108.864956
1409.837569,-13397.727550,-4826.401637,4441.235652
1409.837880,-11399.171507,-2911.162892,5107.421000
1409.838191,-9992.780217,689.485948,3330.926739
1409.838503,-10510.924376,842.705048,962.267725
1409.838814,-8586.388927,-2451.505594,-0.000000
1409.839126,-4737.318029,-3983.696590,-518.144159
1409.839437,-3627.009116,-842.705048,-740.205942
1409.839749,-6291.750507,2298.286494,1480.411884
1409.840060,-12213.398043,-1149.143247,2220.617826
1409.840372,-12953.603985,-5286.058936,3775.050304
1409.840683,-11399.171507,-4903.011187,4441.235652
1409.840994,-9104.533087,-1838.629195,3849.070898
1409.841306,-9474.636058,-1378.971896,1110.308913
1409.841617,-9770.718434,-4060.306139,-222.061783
1409.841929,-5625.565159,-5592.497135,-1480.411884
1409.842240,-3256.906145,-3294.210641,-2368.659014
1409.842552,-6439.791695,229.828649,-962.267725
1409.842863,-11843.295072,-919.314598,592.164754
1409.843174,-15396.283594,-4136.915689,2368.659014
1409.843486,-14285.974681,-3600.648841,3552.988522
1409.843797,-12287.418637,383.047749,3923.091493
1409.844109,-11547.212695,2451.505594,1480.411884
1409.844420,-11473.192101,1378.971896,-592.164754
1409.844732,-7550.100608,612.876398,-2664.741391
1409.845043,-3478.967927,1608.800546,-3775.050304
1409.845355,-2220.617826,5056.230287,-2368.659014
1409.845666,-6365.771101,3524.039291,-518.144159
1409.845977,-11029.068536,-766.095498,1776.494261
1409.846289,-14285.974681,-2987.772442,4219.173869
1409.846600,-13101.645173,0.000000,3256.906145
1409.846912,-11917.315666,4060.306139,1554.432478
1409.847223,-11103.089130,3830.477490,-1036.288319
1409.847535,-7550.100608,766.095498,-3330.926739
1409.847846,-1776.494261,1915.238745,-5551.544565
1409.848157,-444.123565,4673.182538,-3478.967927
1409.848469,-4515.256246,4979.620737,-1184.329507
1409.848780,-10066.800811,1532.190996,1258.350101
1409.849092,-12583.501014,-459.657299,3034.844362
1409.849403,-11621.233289,1072.533697,3478.967927
1409.849715,-9030.512492,3983.696590,740.205942
1409.850026,-9030.512492,4749.792088,-1406.391290
1409.850337,-7179.997637,1762.019645,-3627.009116
1409.850649,-4737.318029,-995.924147,-4293.194464
1409.850960,-4515.256246,1532.190996,-2812.782580
1409.851272,-7179.997637,4290.134789,-444.123565
1409.851583,-12065.356855,1991.848295,1776.494261
1409.851895,-14137.933492,-2911.162892,3849.070898
1409.852206,-11769.274478,-3064.381992,4145.153275
1409.852518,-8364.327145,-306.438199,4071.132681
1409.852829,-7624.121203,-383.047749,1850.514855
1409.853140,-8586.388927,-3600.648841,1628.453072
1409.853452,-5995.668130,-6511.811733,666.185348
1409.853763,-3627.009116,-4903.011187,-222.061783
1409.854075,-6143.709319,-1685.410096,592.164754
1409.854386,-10066.800811,-1762.019645,1406.391290
1409.854698,-13619.789333,-3753.867940,2886.803174
1409.855009,-12953.603985,-5515.887586,3997.112087
1409.855320,-10362.883188,-1685.410096,4589.276840
1409.855632,-10584.944971,153.219100,3182.885551
1409.855943,-11991.336260,-1225.752797,1480.411884
1409.856255,-7920.203579,-2604.724693,-814.226536
1409.856566,-3552.988522,-1225.752797,-2442.679609
1409.856878,-2812.782580,1378.971896,-2146.597232
1409.857189,-6439.791695,1685.410096,-666.185348
1409.857500,-11251.130318,-2068.457845,518.144159
1409.857812,-13989.892304,-5515.887586,3182.885551
1409.858123,-13915.871710,-3524.039291,4959.379811
1409.858435,-13989.892304,153.219100,3256.906145
1409.858746,-13619.789333,1455.581446,740.205942
1409.859058,-10955.047942,-1378.971896,-1184.329507
1409.859369,-6143.709319,-2298.286494,-3627.009116
1409.859681,-3552.988522,2298.286494,-2812.782580
1409.859992,-4589.276840,4673.182538,-1406.391290
1409.860303,-9918.759623,2145.067394,1332.370696
1409.860615,-14137.933492,-1685.410096,4071.132681
1409.860926,-11991.336260,-459.657299,3997.112087
1409.861238,-10288.862594,4596.572988,2072.576638
1409.861549,-8956.491898,5975.544884,-444.123565
1409.861861,-7179.997637,4979.620737,-3256.906145
1409.862172,-3701.029710,2451.505594,-5181.441594
1409.862483,-1924.535449,4673.182538,-5107.421000
1409.862795,-4737.318029,5975.544884,-2590.720797
1409.863106,-8364.327145,4826.401637,-148.041188
1409.863418,-12361.439231,1302.362347,1702.473667
1409.863729,-11843.295072,-689.485948,3182.885551
1409.864041,-9178.553681,995.924147,2294.638420
1409.864352,-7846.182985,3217.601092,1332.370696
1409.864664,-6587.832884,1532.190996,-666.185348
1409.864975,-5477.523971,-1608.800546,-3552.988522
1409.865286,-3849.070898,-919.314598,-2368.659014
1409.865598,-4589.276840,2145.067394,-1554.432478
1409.865909,-9178.553681,1685.410096,740.205942
1409.866221,-13471.748144,-2451.505594,3849.070898
1409.866532,-14434.015869,-5132.839837,5699.585753
1409.866844,-12065.356855,-3753.867940,4663.297435
1409.867155,-10214.842000,-919.314598,3627.009116
1409.867466,-10066.800811,0.000000,1554.432478
1409.867778,-6809.894666,-2374.896044,-888.247130
1409.868089,-3034.844362,-3830.477490,-2072.576638
1409.868401,-2664.741391,-2221.676944,-1998.556043
1409.868712,-6883.915261,0.000000,-518.144159
1409.869024,-11399.171507,-2604.724693,2146.597232
1409.869335,-14137.933492,-6128.763984,3404.947333
1409.869646,-13841.851115,-4826.401637,4515.256246
1409.869958,-11843.295072,-1991.848295,3849.070898
1409.870269,-12139.377449,-1378.971896,1184.329507
1409.870581,-9770.718434,-3600.648841,-74.020594
1409.870892,-6587.832884,-4443.353888,-1924.535449
1409.871204,-5107.421000,-2681.334243,-1924.535449
1409.871515,-6661.853478,383.047749,-1406.391290
1409.871827,-10436.903782,-459.657299,1036.288319
1409.872138,-13989.892304,-4443.353888,2812.782580
1409.872449,-13841.851115,-4443.353888,4219.173869
1409.872761,-12139.377449,-1149.143247,3034.844362
1409.873072,-11029.068536,1378.971896,1036.288319
1409.873384,-10214.842000,1838.629195,-1036.288319
1409.873695,-6735.874072,0.000000,-2590.720797
1409.874007,-4737.318029,1225.752797,-3404.947333
1409.874318,-5773.606348,4903.011187,-2368.659014
1409.874629,-7846.182985,5132.839837,-296.082377
1409.874941,-12065.356855,2221.676944,1406.391290
1409.875252,-12361.439231,0.000000,4145.153275
1409.875564,-9548.656652,1072.533697,3034.844362
1409.875875,-7772.162391,2681.334243,1554.432478
1409.876187,-6883.915261,2757.943793,-592.164754
1409.876498,-5107.421000,1455.581446,-3404.947333
1409.876810,-3552.988522,1532.190996,-4959.379811
1409.877121,-3997.112087,4979.620737,-2664.741391
1409.877432,-7105.977043,5286.058936,-222.061783
1409.877744,-11917.315666,1762.019645,2146.597232
1409.878055,-14063.912898,-995.924147,4737.318029
1409.878367,-11251.130318,229.828649,3627.009116
1409.878678,-7550.100608,3753.867940,1776.494261
1409.878990,-5921.647536,4749.792088,-962.267725
1409.879301,-4663.297435,2681.334243,-3849.070898
1409.879612,-3627.009116,-536.266849,-4663.297435
1409.879924,-3182.885551,1532.190996,-3404.947333
1409.880235,-6661.853478,2681.334243,-0.000000
1409.880547,-12213.398043,153.219100,2294.638420
1409.880858,-15692.365970,-3830.477490,5107.421000
1409.881170,-14137.933492,-5209.449386,5255.462188
1409.881481,-10436.903782,-2834.553343,4441.235652
1409.881792,-8586.388927,-766.095498,2072.576638
1409.882104,-7105.977043,-2451.505594,370.102971
1409.882415,-5033.400406,-5592.497135,-1480.411884
1409.882727,-3182.885551,-4136.915689,-1702.473667
1409.883038,-5625.565159,-612.876398,-888.247130
1409.883350,-10658.965565,-995.924147,1702.473667
1409.883661,-14804.118840,-4519.963438,3034.844362
1409.883973,-15100.201217,-5822.325785,3997.112087
1409.884284,-12657.521608,-3447.429741,3404.947333
1409.884595,-11399.171507,-919.314598,2368.659014
1409.884907,-11843.295072,-1915.238745,-296.082377
1409.885218,-9918.759623,-2604.724693,-1554.432478
1409.885530,-5847.626942,-1149.143247,-2812.782580
1409.885841,-5625.565159,995.924147,-1480.411884
1409.886153,-7846.182985,1685.410096,-444.123565
1409.886464,-10658.965565,-306.438199,1406.391290
1409.886775,-12583.501014,-4519.963438,4071.132681
1409.887087,-11695.253884,-3753.867940,3775.050304
1409.887398,-10066.800811,612.876398,1776.494261
1409.887710,-9918.759623,1991.848295,-888.247130
1409.888021,-9474.636058,-306.438199,-1776.494261
1409.888333,-7105.977043,-1378.971896,-3182.885551
1409.888644,-6809.894666,2145.067394,-2516.700203
1409.888956,-9252.574275,5362.668486,-444.123565
1409.889267,-11547.212695,2987.772442,2146.597232
1409.889578,-12657.521608,-229.828649,4663.297435
1409.889890,-10807.006753,153.219100,4515.256246
1409.890201,-7624.121203,2681.334243,1998.556043
1409.890513,-5773.606348,5132.839837,-962.267725
1409.890824,-4293.194464,5132.839837,-3182.885551
1409.891136,-3849.070898,3753.867940,-5699.585753
1409.891447,-2294.638420,4136.915689,-4589.276840
1409.891758,-4145.153275,5132.839837,-2368.659014
1409.892070,-9622.677246,3677.258390,740.205942
1409.892381,-13841.851115,383.047749,3108.864956
1409.892693,-13027.624579,-459.657299,3478.967927
1409.893004,-9252.574275,1838.629195,3552.988522
1409.893316,-6587.832884,3217.601092,1628.453072
1409.893627,-6143.709319,306.438199,-296.082377
1409.893938,-3997.112087,-1149.143247,-2960.823768
1409.894250,-2220.617826,-1532.190996,-3701.029710
1409.894561,-3701.029710,153.219100,-1702.473667
1409.894873,-8586.388927,153.219100,1036.288319
1409.895184,-14508.036463,-3983.696590,3627.009116
1409.895496,-15248.242405,-8886.707777,6587.832884
1409.895807,-12509.480420,-9193.145976,6291.750507
1409.896119,-10510.924376,-5592.497135,4663.297435
1409.896430,-8660.409521,-3447.429741,1776.494261
1409.896741,-6587.832884,-5515.887586,-1554.432478
1409.897053,-4219.173869,-5822.325785,-2738.761985
1409.897364,-3997.112087,-3064.381992,-1776.494261
1409.897676,-6957.935855,-1149.143247,-814.226536
1409.897987,-11695.253884,-3677.258390,2664.741391
1409.898299,-14211.954086,-8503.660028,4663.297435
1409.898610,-12509.480420,-9959.241474,4737.318029
1409.898921,-11177.109724,-5898.935335,1924.535449
1409.899233,-9844.739029,-4366.744339,370.102971
1409.899544,-9474.636058,-5592.497135,-3034.844362
1409.899856,-8808.450710,-6818.249932,-3849.070898
1409.900167,-8956.491898,-4673.182538,-3478.967927
1409.900479,-10658.965565,-1302.362347,-740.205942
1409.900790,-12657.521608,-1225.752797,2590.720797
1409.901102,-14285.974681,-4290.134789,4885.359217
1409.901413,-14063.912898,-7201.297681,4367.215058
1409.901724,-12213.398043,-3753.867940,2146.597232
1409.902036,-9622.677246,1302.362347,-0.000000
1409.902347,-7105.977043,2528.115143,-1924.535449
1409.902659,-4663.297435,-229.828649,-2442.679609
1409.902970,-4145.153275,-4136.915689,-2664.741391
1409.903282,-4959.379811,-3830.477490,-2146.597232
1409.903593,-7031.956449,0.000000,-592.164754
1409.903904,-9992.780217,1149.143247,1332.370696
1409.904216,-11547.212695,-842.705048,2220.617826
1409.904527,-11251.130318,-3600.648841,2664.741391
1409.904839,-11621.233289,-2221.676944,2072.576638
1409.905150,-9474.636058,1685.410096,888.247130
1409.905462,-5921.647536,3600.648841,-888.247130
1409.905773,-2516.700203,2528.115143,-1776.494261
1409.906084,-1998.556043,-459.657299,-2072.576638
1409.906396,-2146.597232,-2604.724693,-2368.659014
1409.906707,-3330.926739,-2987.772442,-1554.432478
1409.907019,-6587.832884,-2757.943793,-296.082377
1409.907330,-10436.903782,-1762.019645,740.205942
1409.907642,-13471.748144,-229.828649,814.226536
1409.907953,-14211.954086,995.924147,1406.391290
1409.908265,-13471.748144,-842.705048,1850.514855
1409.908576,-11843.295072,-229.828649,2072.576638
1409.908888,-9030.512492,1225.752797,1628.453072
1409.909199,-7105.977043,1838.629195,-0.000000
1409.909511,-4515.256246,383.047749,-0.000000
1409.909822,-1850.514855,-2298.286494,-148.041188
1409.910134,-1258.350101,-5669.106685,-296.082377
1409.910445,-4145.153275,-7507.735880,-518.144159
1409.910757,-8512.368333,-7507.735880,-592.164754
1409.911068,-12805.562797,-5132.839837,-0.000000
1409.911380,-16136.489536,-4749.792088,1628.453072
1409.911691,-17246.798449,-6281.983084,3627.009116
1409.912003,-17246.798449,-7507.735880,5107.421000
1409.912314,-15766.386565,-7354.516781,5921.647536
1409.912626,-11843.295072,-6052.154434,4367.215058
1409.912937,-7179.997637,-6205.373534,1332.370696
1409.913249,-3478.967927,-5132.839837,-74.020594
1409.913560,-1332.370696,-4596.572988,-1998.556043
1409.913872,-1036.288319,-5592.497135,-2442.679609
1409.914183,-3478.967927,-6052.154434,-2072.576638
1409.914495,-6883.915261,-6052.154434,-814.226536
1409.914806,-11177.109724,-5745.716235,-0.000000
1409.915118,-14582.057057,-4826.401637,2294.638420
1409.915429,-17838.963202,-4519.963438,2738.761985
1409.915741,-19171.333898,-4519.963438,3108.864956
1409.916052,-16580.613101,-3294.210641,3849.070898
1409.916364,-12879.583391,-1608.800546,2590.720797
1409.916675,-8364.327145,-1302.362347,1702.473667
1409.916987,-3923.091493,-2987.772442,-0.000000
1409.917298,-444.123565,-4749.792088,-0.000000
1409.917610,-814.226536,-5592.497135,-1628.453072
1409.917921,-1258.350101,-4213.525239,-2368.659014
1409.918233,-3923.091493,-1991.848295,-3034.844362
1409.918544,-8290.306550,-1072.533697,-1554.432478
1409.918856,-11917.315666,-1149.143247,-0.000000
1409.919167,-14804.118840,-995.924147,1184.329507
1409.919479,-15766.386565,0.000000,2220.617826
1409.919790,-14285.974681,459.657299,2072.576638
1409.920102,-10214.842000,0.000000,370.102971
1409.920413,-5773.606348,842.705048,-666.185348
1409.920725,-3552.988522,612.876398,-1702.473667
1409.921036,-2220.617826,-1072.533697,-1850.514855
1409.921348,-2442.679609,-536.266849,-666.185348
1409.921659,-4885.359217,0.000000,-740.205942
1409.921971,-8216.285956,-1302.362347,-592.164754
1409.922282,-10140.821405,-1302.362347,-666.185348
1409.922594,-10732.986159,-1685.410096,-1480.411884
1409.922905,-11251.130318,-2528.115143,-592.164754
1409.923217,-11991.336260,-4443.353888,222.061783
1409.923528,-12731.542202,-4826.401637,1184.329507
1409.923840,-12361.439231,-4749.792088,2294.638420
1409.924151,-11621.233289,-5132.839837,2368.659014
1409.924463,-9992.780217,-4903.011187,2294.638420
1409.924774,-7772.162391,-2681.334243,1110.308913
1409.925086,-6587.832884,-2604.724693,-222.061783
1409.925397,-5921.647536,-2374.896044,-1036.288319
1409.925709,-5551.544565,-766.095498,-1110.308913
1409.926020,-5995.668130,-766.095498,-1036.288319
1409.926332,-6587.832884,-2451.505594,-370.102971
1409.926643,-8216.285956,-2987.772442,666.185348
1409.926955,-10658.965565,-3217.601092,1776.494261
1409.927266,-11177.109724,-3907.087040,2664.741391
1409.927578,-11547.212695,-5669.106685,2960.823768
1409.927889,-11991.336260,-6128.763984,2590.720797
1409.928201,-11769.274478,-5592.497135,1924.535449
1409.928512,-11251.130318,-5209.449386,1184.329507
1409.928824,-9696.697840,-4519.963438,518.144159
1409.929135,-7698.141797,-3524.039291,518.144159
1409.929447,-6291.750507,-3600.648841,888.247130
1409.929758,-6439.791695,-3447.429741,740.205942
1409.930070,-5773.606348,-3907.087040,2368.659014
1409.930381,-7179.997637,-4596.572988,2368.659014
1409.930693,-8512.368333,-4519.963438,2590.720797
1409.931004,-9770.718434,-3983.696590,2072.576638
1409.931316,-10732.986159,-3524.039291,1924.535449
1409.931627,-10881.027347,-3370.820191,1258.350101
1409.931939,-10510.924376,-3294.210641,962.267725
1409.932250,-9474.636058,-3983.696590,1480.411884
1409.932562,-9030.512492,-3140.991542,1036.288319
1409.932873,-7254.018232,-3370.820191,888.247130
1409.933185,-6291.750507,-2374.896044,592.164754
1409.933496,-6587.832884,-1915.238745,-0.000000
1409.933808,-6513.812290,-1072.533697,-148.041188
1409.934119,-6513.812290,-842.705048,-296.082377
1409.934431,-6513.812290,0.000000,-0.000000
1409.934742,-7476.080014,0.000000,370.102971
1409.935054,-8438.347739,-1838.629195,888.247130
1409.935365,-10066.800811,-2834.553343,814.226536
1409.935677,-9548.656652,-2451.505594,666.185348
1409.935988,-10510.924376,-1532.190996,-814.226536
1409.936300,-8956.491898,-536.266849,-1332.370696
1409.936611,-8660.409521,-995.924147,-2294.638420
1409.936923,-9400.615463,-2451.505594,-2442.679609
1409.937234,-7105.977043,-1608.800546,-962.267725
1409.937545,-7476.080014,-2911.162892,-1332.370696
1409.937857,-8956.491898,-4136.915689,666.185348
1409.938168,-12435.459826,-5209.449386,888.247130
1409.938480,-12583.501014,-3524.039291,1850.514855
1409.938791,-11843.295072,-1532.190996,1332.370696
1409.939103,-11399.171507,-2374.896044,1924.535449
1409.939414,-10288.862594,-3753.867940,370.102971
1409.939726,-9030.512492,-3600.648841,592.164754
1409.940037,-8364.327145,-2528.115143,814.226536
1409.940349,-8142.265362,-1685.410096,740.205942
1409.940660,-10955.047942,-842.705048,740.205942
1409.940972,-10881.027347,-536.266849,1258.350101
1409.941283,-9696.697840,-1455.581446,2368.659014
1409.941595,-8956.491898,-1915.238745,2072.576638
1409.941906,-7402.059420,-1455.581446,2368.659014
1409.942218,-9030.512492,-2757.943793,1924.535449
1409.942529,-7994.224174,-3753.867940,3701.029710
1409.942841,-9326.594869,-4366.744339,3775.050304
1409.943152,-8364.327145,-2451.505594,5329.482782
1409.943464,-10288.862594,-2068.457845,4811.338623
1409.943775,-11325.150913,-2451.505594,5773.606348
1409.944087,-8216.285956,-1838.629195,4737.318029
1409.944398,-6661.853478,76.609550,3701.029710
1409.944710,-5329.482782,612.876398,3627.009116
1409.945021,-5773.606348,0.000000,2886.803174
1409.945333,-7476.080014,-1225.752797,2442.679609
1409.945644,-6365.771101,76.609550,4515.256246
1409.945956,-7698.141797,-536.266849,4219.173869
1409.946267,-11325.150913,-612.876398,5033.400406
1409.946579,-10881.027347,0.000000,7105.977043
1409.946890,-9918.759623,-919.314598,5625.565159
1409.947202,-7624.121203,-919.314598,6365.771101
1409.947513,-7846.182985,229.828649,4589.276840
1409.947825,-7624.121203,995.924147,4885.359217
1409.948136,-5995.668130,919.314598,3923.091493
1409.948448,-5625.565159,689.485948,4071.132681
1409.948759,-6809.894666,1838.629195,4441.235652
1409.949071,-9178.553681,1838.629195,4589.276840
1409.949382,-9918.759623,919.314598,4959.379811
1409.949694,-8660.409521,229.828649,5477.523971
1409.950005,-8290.306550,76.609550,5551.544565
1409.950317,-8364.327145,0.000000,4663.297435
1409.950628,-8660.409521,-842.705048,4811.338623
1409.950940,-7920.203579,0.000000,4441.235652
1409.951251,-7476.080014,2068.457845,5107.421000
1409.951563,-8586.388927,2451.505594,4071.132681
1409.951874,-10362.883188,2298.286494,4663.297435
1409.952186,-9770.718434,1915.238745,4737.318029
1409.952497,-8142.265362,2068.457845,4515.256246
1409.952809,-7624.121203,766.095498,3849.070898
1409.953120,-6291.750507,-1149.143247,3775.050304
1409.953432,-7031.956449,-1915.238745,2886.803174
1409.953743,-6365.771101,-1608.800546,2960.823768
1409.954055,-6883.915261,-1608.800546,3478.967927
1409.954366,-8660.409521,-2374.896044,3627.009116
1409.954678,-9696.697840,-2298.286494,4145.153275
1409.954989,-11177.109724,-1915.238745,4071.132681
1409.955301,-10066.800811,-1838.629195,3997.112087
1409.955612,-9474.636058,-919.314598,3701.029710
1409.955924,-9474.636058,-689.485948,1850.514855
1409.956235,-9104.533087,0.000000,888.247130
1409.956547,-8956.491898,383.047749,296.082377
1409.956858,-9104.533087,2145.067394,1110.308913
1409.957170,-10214.842000,689.485948,1628.453072
1409.957481,-10881.027347,-919.314598,2590.720797
1409.957793,-10436.903782,-1455.581446,2960.823768
1409.958104,-9474.636058,-1225.752797,2886.803174
1409.958416,-8438.347739,76.609550,2442.679609
1409.958727,-8216.285956,0.000000,1184.329507
1409.959039,-7550.100608,1072.533697,740.205942
1409.959350,-6883.915261,1838.629195,-592.164754
1409.959662,-7846.182985,1378.971896,-370.102971
1409.959973,-9696.697840,1378.971896,592.164754
1409.960285,-11991.336260,1149.143247,1258.350101
1409.960596,-13249.686362,383.047749,2960.823768
1409.960908,-13693.809927,-689.485948,3775.050304
1409.961219,-12731.542202,-1532.190996,4367.215058
1409.961531,-11325.150913,-2451.505594,3997.112087
1409.961842,-7994.224174,-1532.190996,3182.885551
1409.962154,-5403.503377,-2451.505594,1776.494261
1409.962465,-3627.009116,-2451.505594,1554.432478
1409.962777,-5033.400406,-2145.067394,1628.453072
1409.963088,-7772.162391,-1608.800546,2368.659014
1409.963400,-10362.883188,0.000000,4071.132681
1409.963711,-13027.624579,1915.238745,5107.421000
1409.964023,-14211.954086,1762.019645,5699.585753
1409.964334,-12287.418637,766.095498,5477.523971
1409.964646,-9252.574275,-153.219100,5625.565159
1409.964957,-5551.544565,0.000000,4145.153275
1409.965269,-3552.988522,306.438199,2220.617826
1409.965580,-2368.659014,766.095498,1184.329507
1409.965892,-2590.720797,1302.362347,1628.453072
1409.966203,-6069.688724,1225.752797,2368.659014
1409.966515,-9400.615463,995.924147,4367.215058
1409.966826,-12657.521608,1991.848295,5181.441594
1409.967138,-13841.851115,1838.629195,5773.606348
1409.967449,-11177.109724,995.924147,5625.565159
1409.967761,-7772.162391,-459.657299,4811.338623
1409.968072,-6069.688724,-995.924147,4293.194464
1409.968384,-5477.523971,-612.876398,4293.194464
1409.968695,-7179.997637,-383.047749,4885.359217
1409.969007,-9326.594869,0.000000,6439.791695
1409.969318,-11325.150913,-383.047749,7920.203579
1409.969630,-11843.295072,-306.438199,8216.285956
1409.969941,-10510.924376,-383.047749,6735.874072
1409.970253,-7550.100608,306.438199,4589.276840
1409.970564,-4959.379811,1608.800546,2368.659014
1409.970876,-4811.338623,2221.676944,814.226536
1409.971187,-6291.750507,2145.067394,1332.370696
1409.971499,-8808.450710,1455.581446,2294.638420
1409.971810,-11251.130318,153.219100,4145.153275
1409.972122,-13767.830521,-536.266849,6587.832884
1409.972433,-14359.995275,-1915.238745,7846.182985
1409.972745,-13101.645173,-2604.724693,8512.368333
1409.973056,-10732.986159,-2451.505594,8364.327145
1409.973368,-8586.388927,-1302.362347,7476.080014
1409.973679,-6735.874072,-842.705048,5255.462188
1409.973991,-5181.441594,1225.752797,3478.967927
1409.974302,-3552.988522,2757.943793,1702.473667
1409.974614,-2368.659014,3983.696590,740.205942
1409.974925,-3997.112087,3447.429741,888.247130
1409.975237,-5921.647536,2451.505594,2146.597232
1409.975548,-8364.327145,1072.533697,2738.761985
1409.975860,-10584.944971,-153.219100,4367.215058
1409.976171,-13175.665768,-919.314598,5329.482782
1409.976483,-14063.912898,-919.314598,5995.668130
1409.976794,-13915.871710,-919.314598,5847.626942
1409.977106,-11399.171507,-612.876398,5329.482782
1409.977417,-8734.430116,-612.876398,4145.153275
1409.977729,-6069.688724,-459.657299,3552.988522
1409.978040,-2886.803174,0.000000,2442.679609
1409.978352,-1480.411884,-919.314598,1554.432478
1409.978663,-2146.597232,229.828649,444.123565
1409.978975,-3849.070898,689.485948,-370.102971
1409.979286,-5921.647536,0.000000,-148.041188
1409.979598,-9844.739029,-612.876398,740.205942
1409.979909,-14359.995275,-766.095498,2516.700203
1409.980221,-17320.819043,-919.314598,4885.359217
1409.980532,-19541.436869,-1302.362347,5847.626942
1409.980844,-17912.983796,76.609550,7031.956449
1409.981155,-13323.706956,-612.876398,5995.668130
1409.981467,-7994.224174,-612.876398,3997.112087
1409.981778,-2812.782580,-536.266849,1776.494261
1409.982089,592.164754,536.266849,-1628.453072
1409.982401,2072.576638,1455.581446,-4663.297435
1409.982712,296.082377,1838.629195,-4589.276840
1409.983024,-5107.421000,995.924147,-3034.844362
1409.983335,-13323.706956,-306.438199,-0.000000
1409.983647,-19985.560434,76.609550,4663.297435
1409.983958,-25241.022622,383.047749,7994.224174
1409.984270,-24278.754898,0.000000,10140.821405
1409.984581,-17764.942608,-2221.676944,8142.265362
1409.984893,-8808.450710,-3524.039291,4737.318029
1409.985204,1406.391290,-1915.238745,-444.123565
1409.985516,7550.100608,153.219100,-3997.112087
1409.985827,5699.585753,1302.362347,-5403.503377
1409.986139,-148.041188,1685.410096,-3701.029710
1409.986450,-7476.080014,-306.438199,-1554.432478
1409.986762,-13841.851115,-612.876398,1184.329507
1409.987073,-17616.901420,919.314598,4145.153275
1409.987385,-19541.436869,1378.971896,4515.256246
1409.987696,-17542.880825,-306.438199,4293.194464
1409.988008,-12139.377449,-1532.190996,3330.926739
1409.988319,-7105.977043,-383.047749,2516.700203
1409.988631,-2886.803174,-1225.752797,-0.000000
1409.988942,-888.247130,459.657299,-2294.638420
1409.989254,-148.041188,1455.581446,-3478.967927
1409.989565,-2368.659014,2374.896044,-3034.844362
1409.989877,-7179.997637,2221.676944,-1554.432478
1409.990188,-13175.665768,1762.019645,296.082377
1409.990500,-17320.819043,1685.410096,1850.514855
1409.990811,-16950.716072,2451.505594,2368.659014
1409.991123,-13175.665768,1225.752797,2220.617826
1409.991434,-9474.636058,-1455.581446,888.247130
1409.991746,-6069.688724,-1991.848295,518.144159
1409.992057,-3775.050304,-1915.238745,666.185348
1409.992369,-4959.379811,-1455.581446,1924.535449
1409.992680,-9918.759623,-919.314598,3627.009116
1409.992992,-14656.077652,-612.876398,4885.359217
1409.993303,-14730.098246,-153.219100,4515.256246
1409.993615,-10436.903782,995.924147,2368.659014
1409.993926,-6365.771101,1838.629195,-666.185348
1409.994238,-3701.029710,766.095498,-3404.947333
1409.994549,-1998.556043,-766.095498,-3701.029710
1409.994861,-2812.782580,-2298.286494,-1554.432478
1409.995172,-7402.059420,-2221.676944,2368.659014
1409.995484,-13693.809927,-2911.162892,6661.853478
1409.995795,-18801.230927,-3064.381992,9030.512492
1409.996107,-19911.539840,-2681.334243,9770.718434
1409.996418,-15544.324782,-1072.533697,8734.430116
1409.996730,-8956.491898,1149.143247,4811.338623
1409.997041,-2220.617826,1608.800546,-296.082377
1409.997353,3108.864956,1685.410096,-4737.318029
1409.997664,5107.421000,1838.629195,-7105.977043
1409.997976,2886.803174,1838.629195,-7328.038826
1409.998287,-2738.761985,2681.334243,-3256.906145
1409.998599,-11769.274478,842.705048,1406.391290
1409.998910,-18801.230927,0.000000,6883.915261
1409.999222,-21614.013506,-995.924147,9400.615463
1409.999533,-19245.354492,-1378.971896,9030.512492
1409.999845,-13101.645173,-1149.143247,5699.585753
1410.000156,-5699.585753,0.000000,-518.144159
1410.000468,1110.308913,1072.533697,-5921.647536
1410.000779,4589.276840,2068.457845,-9104.533087
1410.001091,2220.617826,2221.676944,-8068.244768
1410.001402,-3552.988522,2451.505594,-5181.441594
1410.001714,-11843.295072,459.657299,-1184.329507
1410.002025,-18653.189738,-1455.581446,1998.556043
1410.002337,-20429.683999,-995.924147,4515.256246
1410.002648,-18357.107362,-383.047749,3849.070898
1410.002960,-13545.768739,-1455.581446,962.267725
1410.003271,-8142.265362,-2987.772442,-1776.494261
1410.003583,-3330.926739,-2451.505594,-5255.462188
1410.003894,-2738.761985,153.219100,-5181.441594
1410.004206,-6143.709319,1762.019645,-3849.070898
1410.004517,-13175.665768,1225.752797,-296.082377
1410.004829,-17764.942608,-383.047749,1998.556043
1410.005140,-16580.613101,-1991.848295,2146.597232
1410.005452,-11473.192101,-1915.238745,-1110.308913
1410.005763,-5033.400406,-919.314598,-4071.132681
1410.006075,-2146.597232,229.828649,-5625.565159
1410.006386,-2220.617826,-2451.505594,-6143.709319
1410.006698,-7624.121203,-2834.553343,-3478.967927
1410.007009,-12139.377449,-2834.553343,1332.370696
1410.007321,-16432.571912,-1532.190996,5477.523971
1410.007632,-18431.127956,-1532.190996,6883.915261
1410.007944,-15988.448347,-2068.457845,4219.173869
1410.008255,-9770.718434,-1302.362347,1628.453072
1410.008566,-3627.009116,1378.971896,-3256.906145
1410.008878,-666.185348,2757.943793,-6143.709319
1410.009189,296.082377,1915.238745,-8734.430116
1410.009501,-1924.535449,1685.410096,-6735.874072
1410.009812,-5773.606348,1532.190996,-3997.112087
1410.010124,-10510.924376,1915.238745,-0.000000
1410.010435,-15692.365970,306.438199,3923.091493
1410.010747,-16506.592507,-766.095498,6217.729913
1410.011058,-16654.633695,-383.047749,6883.915261
1410.011370,-13989.892304,766.095498,5033.400406
1410.011681,-7846.182985,1225.752797,1850.514855
1410.011992,-2516.700203,76.609550,-2738.761985
1410.012304,1998.556043,1762.019645,-6809.894666
1410.012615,2664.741391,2528.115143,-5699.585753
1410.012927,-2368.659014,995.924147,-3478.967927
1410.013238,-11103.089130,-1455.581446,2220.617826
1410.013550,-17616.901420,-2987.772442,5699.585753
1410.013861,-19171.333898,-3140.991542,8512.368333
1410.014173,-16876.695478,-2374.896044,8216.285956
1410.014484,-11843.295072,-1838.629195,5921.647536
1410.014796,-6143.709319,-1378.971896,1924.535449
1410.015107,-1332.370696,-1378.971896,-1702.473667
1410.015418,1110.308913,1302.362347,-1924.535449
1410.015730,-3627.009116,2451.505594,-740.205942
1410.016041,-10436.903782,2911.162892,1850.514855
1410.016353,-14656.077652,1685.410096,3404.947333
1410.016664,-15470.304188,229.828649,4663.297435
1410.016976,-11917.315666,76.609550,3478.967927
1410.017287,-7624.121203,383.047749,-0.000000
1410.017599,-4219.173869,-229.828649,-1554.432478
1410.017910,-2664.741391,-1762.019645,-3627.009116
1410.018222,-2812.782580,-919.314598,-1998.556043
1410.018533,-7179.997637,-536.266849,296.082377
1410.018845,-13249.686362,-229.828649,3552.988522
1410.019156,-17838.963202,-1072.533697,5477.523971
1410.019467,-17690.922014,-842.705048,5477.523971
1410.019779,-12879.583391,-229.828649,4145.153275
1410.020090,-7254.018232,459.657299,962.267725
1410.020402,-2886.803174,-306.438199,-3182.885551
1410.020713,-222.061783,-1225.752797,-6513.812290
1410.021025,296.082377,-919.314598,-6661.853478
1410.021336,-2960.823768,612.876398,-4515.256246
1410.021648,-9992.780217,1302.362347,-148.041188
1410.021959,-16950.716072,-306.438199,4219.173869
1410.022271,-20133.601622,-2451.505594,7105.977043
1410.022582,-17468.860231,-306.438199,7031.956449
1410.022893,-12657.521608,1302.362347,3923.091493
1410.023205,-6883.915261,1991.848295,-592.164754
1410.023516,-1406.391290,1149.143247,-5033.400406
1410.023828,2146.597232,995.924147,-8512.368333
1410.024139,2664.741391,842.705048,-7920.203579
1410.024451,-3923.091493,995.924147,-5107.421000
1410.024762,-11621.233289,-1072.533697,-888.247130
1410.025074,-17172.777854,-2681.334243,4145.153275
1410.025385,-19911.539840,-4060.306139,6587.832884
1410.025697,-18875.251521,-3140.991542,7179.997637
1410.026008,-15470.304188,-1915.238745,5033.400406
1410.026320,-10807.006753,-1608.800546,1258.350101
1410.026631,-3330.926739,-1915.238745,-2368.659014
1410.026942,1628.453072,-1302.362347,-5699.585753
1410.027254,1406.391290,2374.896044,-6661.853478
1410.027565,-3627.009116,3524.039291,-3108.864956
1410.027877,-11029.068536,1838.629195,296.082377
1410.028188,-17246.798449,-536.266849,3923.091493
1410.028500,-19023.292709,-1072.533697,5551.544565
1410.028811,-14508.036463,-306.438199,3775.050304
1410.029123,-7624.121203,0.000000,-740.205942
1410.029434,-1850.514855,-306.438199,-4811.338623
1410.029746,1628.453072,306.438199,-7994.224174
1410.030057,-814.226536,1378.971896,-6291.750507
1410.030368,-8438.347739,2528.115143,-1628.453072
1410.030680,-16062.468941,1378.971896,2886.803174
1410.030991,-20281.642811,0.000000,5773.606348
1410.031303,-18653.189738,-689.485948,5995.668130
1410.031614,-11473.192101,-536.266849,2220.617826
1410.031926,-4737.318029,76.609550,-1850.514855
1410.032237,74.020594,-229.828649,-6513.812290
1410.032549,2220.617826,-1685.410096,-7550.100608
1410.032860,-1332.370696,-842.705048,-5329.482782
1410.033172,-9400.615463,306.438199,-1110.308913
1410.033483,-17542.880825,0.000000,3849.070898
1410.033794,-21984.116477,-306.438199,7846.182985
1410.034106,-20133.601622,-229.828649,7624.121203
1410.034417,-14211.954086,-306.438199,4885.359217
1410.034729,-7254.018232,1149.143247,1628.453072
1410.035040,-1628.453072,1149.143247,-2812.782580
1410.035352,2220.617826,76.609550,-5477.523971
1410.035663,1776.494261,229.828649,-5625.565159
1410.035975,-3923.091493,306.438199,-2368.659014
1410.036286,-11843.295072,76.609550,1850.514855
1410.036598,-16506.592507,-1991.848295,6883.915261
1410.036909,-18949.272115,-3064.381992,9178.553681
1410.037221,-16284.530724,-3064.381992,9030.512492
1410.037532,-11843.295072,-1915.238745,6957.935855
1410.037843,-7402.059420,-1915.238745,2960.823768
1410.038155,-2516.700203,-459.657299,-592.164754
1410.038466,666.185348,842.705048,-1332.370696
1410.038778,-740.205942,2528.115143,-2368.659014
1410.039089,-5329.482782,2681.334243,-0.000000
1410.039401,-10584.944971,2604.724693,2664.741391
1410.039712,-13175.665768,919.314598,5921.647536
1410.040024,-13915.871710,306.438199,6587.832884
1410.040335,-11399.171507,306.438199,5847.626942
1410.040647,-8660.409521,-306.438199,2812.782580
1410.040958,-5773.606348,-995.924147,592.164754
1410.041269,-2220.617826,76.609550,-1480.411884
1410.041581,-2738.761985,1762.019645,-1554.432478
1410.041892,-6439.791695,2451.505594,222.061783
1410.042204,-10584.944971,766.095498,2738.761985
1410.042515,-13545.768739,-842.705048,4885.359217
1410.042827,-12731.542202,-612.876398,6513.812290
1410.043138,-10288.862594,0.000000,5921.647536
1410.043450,-7994.224174,-383.047749,3404.947333
1410.043761,-5329.482782,-1685.410096,-0.000000
1410.044073,-2664.741391,-1302.362347,-2886.803174
1410.044384,-740.205942,-459.657299,-3627.009116
1410.044696,-4071.132681,2374.896044,-3552.988522
1410.045007,-9548.656652,2374.896044,-962.267725
1410.045318,-15470.304188,153.219100,2072.576638
1410.045630,-18949.272115,-689.485948,4959.379811
1410.045941,-17024.736666,919.314598,6291.750507
1410.046253,-14582.057057,1762.019645,3701.029710
1410.046564,-9770.718434,1685.410096,-74.020594
1410.046876,-3330.926739,1378.971896,-3849.070898
1410.047187,962.267725,-689.485948,-6809.894666
1410.047499,2442.679609,-612.876398,-7179.997637
1410.047810,-3701.029710,0.000000,-4885.359217
1410.048122,-11843.295072,-1149.143247,-222.061783
1410.048433,-18875.251521,-3370.820191,3849.070898
1410.048744,-22206.178260,-4060.306139,6513.812290
1410.049056,-20059.581028,-2757.943793,5625.565159
1410.049367,-14434.015869,-2757.943793,1628.453072
1410.049679,-6513.812290,-2604.724693,-2220.617826
1410.049990,-592.164754,-459.657299,-7179.997637
1410.050302,444.123565,1762.019645,-7920.203579
1410.050613,-3404.947333,3447.429741,-5403.503377
1410.050925,-9770.718434,2911.162892,-1628.453072
1410.051236,-14508.036463,-306.438199,1628.453072
1410.051548,-15914.427753,-459.657299,3775.050304
1410.051859,-13323.706956,306.438199,2294.638420
1410.052171,-9104.533087,1532.190996,-148.041188
1410.052482,-5625.565159,1072.533697,-3923.091493
1410.052793,-2738.761985,229.828649,-5995.668130
1410.053105,-2812.782580,1302.362347,-5477.523971
1410.053416,-6587.832884,3294.210641,-3330.926739
1410.053728,-11991.336260,2681.334243,444.123565
1410.054039,-15248.242405,612.876398,3404.947333
1410.054351,-14434.015869,-919.314598,5107.421000
1410.054662,-11177.109724,-2068.457845,4811.338623
1410.054974,-7846.182985,-2451.505594,2368.659014
1410.055285,-5995.668130,-2221.676944,-222.061783
1410.055597,-3552.988522,-2298.286494,-3701.029710
1410.055908,-2220.617826,-1685.410096,-4145.153275
1410.056219,-5255.462188,536.266849,-2294.638420
1410.056531,-10955.047942,306.438199,1110.308913
1410.056842,-15988.448347,-306.438199,5033.400406
1410.057154,-17394.839637,-766.095498,7846.182985
1410.057465,-14730.098246,-229.828649,8364.327145
1410.057777,-11399.171507,1378.971896,6217.729913
1410.058088,-6957.935855,1685.410096,2812.782580
1410.058400,-2368.659014,1685.410096,-1036.288319
1410.058711,1184.329507,1149.143247,-3552.988522
1410.059023,1480.411884,2451.505594,-4071.132681
1410.059334,-4589.276840,2068.457845,-1554.432478
1410.059645,-11843.295072,612.876398,2442.679609
1410.059957,-17098.757260,-1685.410096,6809.894666
1410.060268,-18431.127956,-2834.553343,8882.471304
1410.060580,-15988.448347,-2298.286494,8956.491898
1410.060891,-11917.315666,-1915.238745,6587.832884
1410.061203,-7031.956449,-2374.896044,2812.782580
1410.061514,-1332.370696,-689.485948,-962.267725
1410.061826,1036.288319,306.438199,-1776.494261
1410.062137,-1924.535449,1762.019645,-2294.638420
1410.062449,-7179.997637,1991.848295,592.164754
1410.062760,-12287.418637,1608.800546,3182.885551
1410.063072,-14878.139434,1302.362347,6291.750507
1410.063383,-14063.912898,-306.438199,6143.709319
1410.063694,-9992.780217,153.219100,4737.318029
1410.064006,-6217.729913,-153.219100,518.144159
1410.064317,-2442.679609,153.219100,-2368.659014
1410.064629,-1110.308913,2221.676944,-3997.112087
1410.064940,-3256.906145,2834.553343,-3256.906145
1410.065252,-8142.265362,2374.896044,-1702.473667
1410.065563,-12065.356855,1072.533697,1924.535449
1410.065875,-14952.160028,612.876398,3701.029710
1410.066186,-14508.036463,-766.095498,5255.462188
1410.066498,-11177.109724,-1762.019645,3552.988522
1410.066809,-7105.977043,-2834.553343,-0.000000
1410.067120,-2960.823768,-2911.162892,-3627.009116
1410.067432,-444.123565,-2911.162892,-5995.668130
1410.067743,-2516.700203,-1378.971896,-5403.503377
1410.068055,-9030.512492,459.657299,-3404.947333
1410.068366,-16062.468941,-229.828649,1110.308913
1410.068678,-20429.683999,-1072.533697,4811.338623
1410.068989,-20355.663405,-689.485948,6143.709319
1410.069301,-15248.242405,229.828649,3997.112087
1410.069612,-8882.471304,0.000000,-518.144159
1410.069924,-2442.679609,0.000000,-6143.709319
1410.070235,2516.700203,1072.533697,-8734.430116
1410.070547,666.185348,2451.505594,-9178.553681
1410.070858,-4959.379811,2374.896044,-6587.832884
1410.071169,-13175.665768,229.828649,-2664.741391
1410.071481,-18579.169144,-1608.800546,2220.617826
1410.071792,-19837.519246,-2068.457845,4441.235652
1410.072104,-17542.880825,-1302.362347,4293.194464
1410.072415,-11843.295072,-1149.143247,666.185348
1410.072727,-7402.059420,-1991.848295,-3182.885551
1410.073038,-2442.679609,-919.314598,-6735.874072
1410.073350,962.267725,766.095498,-7698.141797
1410.073661,-1258.350101,2604.724693,-6957.935855
1410.073973,-6735.874072,1838.629195,-3256.906145
1410.074284,-13471.748144,229.828649,296.082377
1410.074595,-17394.839637,-1455.581446,3330.926739
1410.074907,-17320.819043,-766.095498,4589.276840
1410.075218,-14211.954086,0.000000,2960.823768
1410.075530,-9030.512492,0.000000,-1776.494261
1410.075841,-4219.173869,689.485948,-5181.441594
1410.076153,-740.205942,1455.581446,-7254.018232
1410.076464,-1036.288319,1149.143247,-6069.688724
1410.076776,-6291.750507,1991.848295,-2220.617826
1410.077087,-13027.624579,689.485948,2516.700203
1410.077399,-17542.880825,-1149.143247,5403.503377
1410.077710,-17764.942608,-2451.505594,8290.306550
1410.078021,-13175.665768,-1915.238745,6439.791695
1410.078333,-7698.141797,-1838.629195,1628.453072
1410.078644,-2960.823768,-2451.505594,-1628.453072
1410.078956,370.102971,-1915.238745,-4293.194464
1410.079267,-592.164754,-995.924147,-3849.070898
1410.079579,-5773.606348,0.000000,-0.000000
1410.079890,-13027.624579,-689.485948,3997.112087
1410.080202,-18949.272115,-1762.019645,7476.080014
1410.080513,-19911.539840,-842.705048,9992.780217
1410.080825,-15026.180623,229.828649,7698.141797
1410.081136,-8364.327145,612.876398,4959.379811
1410.081448,-2812.782580,0.000000,962.267725
1410.081759,1776.494261,0.000000,-2886.803174
1410.082070,2664.741391,1378.971896,-3997.112087
1410.082382,-740.205942,2911.162892,-1628.453072
1410.082693,-8586.388927,2451.505594,1258.350101
1410.083005,-14211.954086,766.095498,5107.421000
1410.083316,-17320.819043,-689.485948,8512.368333
1410.083628,-15470.304188,-1072.533697,9252.574275
1410.083939,-11325.150913,-842.705048,7105.977043
1410.084251,-7328.038826,-919.314598,3552.988522
1410.084562,-2516.700203,-1225.752797,-0.000000
1410.084874,1554.432478,0.000000,-3034.844362
1410.085185,148.041188,1532.190996,-3923.091493
1410.085496,-3923.091493,2757.943793,-2072.576638
1410.085808,-9918.759623,1608.800546,-0.000000
1410.086119,-14285.974681,76.609550,3997.112087
1410.086431,-15840.407159,-766.095498,6143.709319
1410.086742,-14730.098246,-153.219100,5847.626942
1410.087054,-11177.109724,-1149.143247,3182.885551
1410.087365,-6587.832884,-1149.143247,-1998.556043
1410.087677,-2368.659014,919.314598,-4885.359217
1410.087988,-444.123565,1838.629195,-5995.668130
1410.088300,-4219.173869,2451.505594,-4737.318029
1410.088611,-10436.903782,919.314598,-814.226536
1410.088923,-16136.489536,-612.876398,2590.720797
1410.089234,-18949.272115,-995.924147,5625.565159
1410.089545,-17172.777854,-1378.971896,5329.482782
1410.089857,-11399.171507,-1991.848295,962.267725
1410.090168,-5847.626942,-2221.676944,-4071.132681
1410.090480,370.102971,-1378.971896,-7846.182985
1410.090791,1036.288319,-766.095498,-8290.306550
1410.091103,-5107.421000,-306.438199,-7179.997637
1410.091414,-13027.624579,-766.095498,-2220.617826
1410.091726,-19763.498651,-2145.067394,2220.617826
1410.092037,-21539.992912,-2757.943793,4885.359217
1410.092349,-18209.066173,-995.924147,3775.050304
1410.092660,-12361.439231,-536.266849,888.247130
1410.092971,-5699.585753,-1149.143247,-4293.194464
1410.093283,370.102971,-459.657299,-8142.265362
1410.093594,1998.556043,612.876398,-9400.615463
1410.093906,-1480.411884,2451.505594,-8290.306550
1410.094217,-8290.306550,2681.334243,-4515.256246
1410.094529,-14359.995275,842.705048,-74.020594
1410.094840,-19245.354492,-612.876398,3404.947333
1410.095152,-18653.189738,-1455.581446,3997.112087
1410.095463,-13989.892304,-689.485948,2294.638420
1410.095775,-9474.636058,612.876398,-1850.514855
1410.096086,-4367.215058,-229.828649,-4589.276840
1410.096398,-518.144159,153.219100,-6661.853478
1410.096709,-1036.288319,1072.533697,-5773.606348
1410.097020,-5625.565159,2451.505594,-2442.679609
1410.097332,-12805.562797,459.657299,1628.453072
1410.097643,-16284.530724,-459.657299,5625.565159
1410.097955,-16136.489536,-995.924147,7254.018232
1410.098266,-12583.501014,-1532.190996,5921.647536
1410.098578,-8808.450710,-2068.457845,3330.926739
1410.098889,-5995.668130,-1762.019645,-0.000000
1410.099201,-3627.009116,-1302.362347,-2072.576638
1410.099512,-2664.741391,689.485948,-1406.391290
1410.099824,-6439.791695,383.047749,888.247130
1410.100135,-10658.965565,459.657299,4071.132681
1410.100446,-14656.077652,-1149.143247,6513.812290
1410.100758,-14730.098246,-1378.971896,8882.471304
1410.101069,-11843.295072,-612.876398,8808.450710
1410.101381,-7328.038826,-536.266849,6735.874072
1410.101692,-4589.276840,-1302.362347,3404.947333
1410.102004,-1702.473667,-1685.410096,370.102971
1410.102315,-74.020594,-306.438199,-444.123565
1410.102627,-3330.926739,2374.896044,-74.020594
1410.102938,-8882.471304,2298.286494,2072.576638
1410.103250,-13323.706956,612.876398,4663.297435
1410.103561,-15396.283594,-459.657299,7920.203579
1410.103872,-13397.727550,153.219100,8734.430116
1410.104184,-9918.759623,-383.047749,7105.977043
1410.104495,-6513.812290,0.000000,3849.070898
1410.104807,-1924.535449,459.657299,444.123565
1410.105118,1036.288319,1838.629195,-2590.720797
1410.105430,592.164754,3447.429741,-2812.782580
1410.105741,-4589.276840,3753.867940,-2294.638420
1410.106053,-10732.986159,2451.505594,740.205942
1410.106364,-15100.201217,612.876398,3701.029710
1410.106676,-16432.571912,-383.047749,5551.544565
1410.106987,-14508.036463,-689.485948,5033.400406
1410.107299,-11325.150913,-766.095498,2886.803174
1410.107610,-5995.668130,-1762.019645,-814.226536
1410.107921,-1850.514855,-1225.752797,-3478.967927
1410.108233,-1332.370696,689.485948,-5181.441594
1410.108544,-4293.194464,1225.752797,-3923.091493
1410.108856,-8882.471304,995.924147,-2146.597232
1410.109167,-14804.118840,-459.657299,1258.350101
1410.109479,-18135.045579,-612.876398,3997.112087
1410.109790,-17912.983796,-1378.971896,3775.050304
1410.110102,-14804.118840,-1838.629195,1998.556043
1410.110413,-9326.594869,-1378.971896,-1184.329507
1410.110724,-4811.338623,-995.924147,-5033.400406
1410.111036,-2442.679609,-306.438199,-6143.709319
1410.111347,-4293.194464,842.705048,-5033.400406
1410.111659,-9992.780217,1532.190996,-1924.535449
1410.111970,-15026.180623,153.219100,1998.556043
1410.112282,-18061.024985,0.000000,4367.215058
1410.112593,-16432.571912,-459.657299,4663.297435
1410.112905,-11399.171507,0.000000,2738.761985
1410.113216,-4663.297435,-1838.629195,-1924.535449
1410.113527,888.247130,-1991.848295,-7105.977043
1410.113839,3701.029710,-612.876398,-8290.306550
1410.114150,-592.164754,1225.752797,-6217.729913
1410.114462,-9030.512492,995.924147,-2516.700203
1410.114773,-16876.695478,-536.266849,2072.576638
1410.115085,-21317.931130,-1532.190996,6513.812290
1410.115396,-19393.395680,-1378.971896,7179.997637
1410.115707,-13175.665768,229.828649,4071.132681
1410.116019,-6217.729913,842.705048,-1998.556043
1410.116330,222.061783,383.047749,-7105.977043
1410.116642,3997.112087,766.095498,-8512.368333
1410.116953,1406.391290,2987.772442,-8290.306550
1410.117265,-6661.853478,3983.696590,-3997.112087
1410.117576,-14878.139434,1608.800546,444.123565
1410.117888,-18727.210333,-766.095498,4885.359217
1410.118199,-18357.107362,-1072.533697,6883.915261
1410.118510,-14285.974681,-1072.533697,5773.606348
1410.118822,-9770.718434,-1072.533697,3552.988522
1410.119133,-6143.709319,-1762.019645,-1036.288319
1410.119445,-2072.576638,-995.924147,-3775.050304
1410.119756,-1628.453072,-459.657299,-3997.112087
1410.120068,-5477.523971,1915.238745,-2294.638420
1410.120379,-10807.006753,1455.581446,1702.473667
1410.120690,-15100.201217,-1149.143247,3775.050304
1410.121002,-16654.633695,-2451.505594,6735.874072
1410.121313,-14211.954086,-1608.800546,7105.977043
1410.121625,-10807.006753,-1302.362347,5995.668130
1410.121936,-7920.203579,-2681.334243,2960.823768
1410.122248,-6291.750507,-2987.772442,222.061783
1410.122559,-2886.803174,0.000000,-1554.432478
1410.122871,-1850.514855,1455.581446,-1258.350101
1410.123182,-5477.523971,1991.848295,-0.000000
1410.123493,-11103.089130,766.095498,3775.050304
1410.123805,-15100.201217,-153.219100,5477.523971
1410.124116,-14582.057057,536.266849,7698.141797
1410.124428,-11399.171507,919.314598,6735.874072
1410.124739,-7105.977043,842.705048,3330.926739
1410.125051,-2812.782580,383.047749,-592.164754
1410.125362,1480.411884,229.828649,-2886.803174
1410.125673,1110.308913,1762.019645,-2960.823768
1410.125985,-4515.256246,2604.724693,-1554.432478
1410.126296,-11029.068536,2374.896044,2072.576638
1410.126608,-16432.571912,153.219100,5403.503377
1410.126919,-17542.880825,-842.705048,8438.347739
1410.127231,-14656.077652,0.000000,7698.141797
1410.127542,-9622.677246,536.266849,4589.276840
1410.127854,-3627.009116,0.000000,-74.020594
1410.128165,2072.576638,-306.438199,-3997.112087
1410.128476,4367.215058,1455.581446,-5255.462188
1410.128788,370.102971,2451.505594,-5107.421000
1410.129099,-7624.121203,2068.457845,-2220.617826
1410.129411,-15396.283594,0.000000,3256.906145
1410.129722,-20873.807564,-536.266849,6291.750507
1410.130034,-20873.807564,-306.438199,6365.771101
1410.130345,-16136.489536,0.000000,4737.318029
1410.130656,-9992.780217,-536.266849,-148.041188
1410.130968,-2886.803174,-919.314598,-4293.194464
1410.131279,2072.576638,-383.047749,-6883.915261
1410.131591,-1036.288319,766.095498,-7105.977043
1410.131902,-8512.368333,1915.238745,-3478.967927
1410.132214,-14359.995275,229.828649,222.061783
1410.132525,-18579.169144,-1608.800546,4145.153275
1410.132837,-18949.272115,-2757.943793,5181.441594
1410.133148,-15396.283594,-2145.067394,3404.947333
1410.133459,-10955.047942,-1762.019645,-444.123565
1410.133771,-5995.668130,-2221.676944,-3330.926739
1410.134082,-1184.329507,-1685.410096,-6735.874072
1410.134394,-296.082377,-842.705048,-7105.977043
1410.134705,-4589.276840,766.095498,-4367.215058
1410.135017,-11251.130318,842.705048,-148.041188
1410.135328,-17024.736666,-536.266849,3108.864956
1410.135639,-18653.189738,0.000000,5033.400406
1410.135951,-15100.201217,459.657299,4663.297435
1410.136262,-9474.636058,-459.657299,-444.123565
1410.136574,-3701.029710,153.219100,-3997.112087
1410.136885,1628.453072,536.266849,-9104.533087
1410.137197,3627.009116,1762.019645,-9474.636058
1410.137508,-1850.514855,2681.334243,-6439.791695
1410.137819,-10732.986159,1762.019645,-1036.288319
1410.138131,-18135.045579,-383.047749,3849.070898
1410.138442,-20059.581028,-2145.067394,7698.141797
1410.138754,-17246.798449,-1532.190996,6587.832884
1410.139065,-11769.274478,-1225.752797,2590.720797
1410.139377,-5995.668130,-766.095498,-1924.535449
1410.139688,518.144159,-459.657299,-6069.688724
1410.140000,2664.741391,-612.876398,-6661.853478
1410.140311,-1776.494261,229.828649,-5107.421000
1410.140622,-9918.759623,76.609550,-814.226536
1410.140934,-16654.633695,-306.438199,4293.194464
1410.141245,-19541.436869,-1991.848295,7772.162391
1410.141557,-18357.107362,-2681.334243,8808.450710
1410.141868,-13619.789333,-2221.676944,6957.935855
1410.142180,-8882.471304,-1608.800546,3404.947333
1410.142491,-3404.947333,-1915.238745,-444.123565
1410.142802,740.205942,612.876398,-2886.803174
1410.143114,0.000000,2145.067394,-3552.988522
1410.143425,-4737.318029,2374.896044,-2146.597232
1410.143737,-11029.068536,1608.800546,2072.576638
1410.144048,-14359.995275,0.000000,5255.462188
1410.144360,-14582.057057,-383.047749,6883.915261
1410.144671,-12287.418637,-689.485948,5995.668130
1410.144983,-8364.327145,-1225.752797,3478.967927
1410.145294,-5551.544565,-1455.581446,-370.102971
1410.145605,-2960.823768,612.876398,-2664.741391
1410.145917,-2442.679609,1225.752797,-3034.844362
1410.146228,-5921.647536,2374.896044,-1406.391290
1410.146540,-10881.027347,2374.896044,1184.329507
1410.146851,-15100.201217,689.485948,3849.070898
1410.147163,-15914.427753,-536.266849,5773.606348
1410.147474,-11991.336260,-306.438199,6143.709319
1410.147785,-8068.244768,0.000000,2664.741391
1410.148097,-3849.070898,-153.219100,-888.247130
1410.148408,0.000000,-995.924147,-4071.132681
1410.148720,740.205942,-229.828649,-5847.626942
1410.149031,-3034.844362,1608.800546,-3997.112087
1410.149343,-10214.842000,2604.724693,-888.247130
1410.149654,-17912.983796,766.095498,2738.761985
1410.149966,-21243.910535,0.000000,6291.750507
1410.150277,-18801.230927,-1225.752797,6809.894666
1410.150588,-12213.398043,-689.485948,3775.050304
1410.150900,-6069.688724,-306.438199,-1184.329507
1410.151211,0.000000,-612.876398,-5847.626942
1410.151523,3182.885551,-766.095498,-6957.935855
1410.151834,-740.205942,76.609550,-5847.626942
1410.152146,-8956.491898,76.609550,-1628.453072
1410.152457,-16136.489536,-1532.190996,2664.741391
1410.152768,-19837.519246,-3064.381992,5847.626942
1410.153080,-18357.107362,-3370.820191,6439.791695
1410.153391,-11991.336260,-2681.334243,4293.194464
1410.153703,-7550.100608,-2068.457845,370.102971
1410.154014,-3256.906145,-2221.676944,-3182.885551
1410.154326,-740.205942,-689.485948,-4959.379811
1410.154637,-2590.720797,919.314598,-5329.482782
1410.154949,-7550.100608,2221.676944,-2664.741391
1410.155260,-12731.542202,2374.896044,370.102971
1410.155571,-16062.468941,1149.143247,3034.844362
1410.155883,-15988.448347,536.266849,4959.379811
1410.156194,-12361.439231,0.000000,4071.132681
1410.156506,-7994.224174,-612.876398,444.123565
1410.156817,-3256.906145,-689.485948,-3330.926739
1410.157129,-814.226536,306.438199,-6069.688724
1410.157440,-666.185348,1838.629195,-4737.318029
1410.157751,-5551.544565,1991.848295,-2590.720797
1410.158063,-12805.562797,612.876398,1480.411884
1410.158374,-17987.004391,-2145.067394,4589.276840
1410.158686,-17616.901420,-1762.019645,7031.956449
1410.158997,-13175.665768,-1149.143247,4737.318029
1410.159309,-7698.141797,-842.705048,1258.350101
1410.159620,-3775.050304,-1072.533697,-2812.782580
1410.159932,0.000000,-995.924147,-6069.688724
1410.160243,222.061783,-919.314598,-6217.729913
1410.160554,-4367.215058,1378.971896,-4219.173869
1410.160866,-11843.295072,2221.676944,-0.000000
1410.161177,-18653.189738,995.924147,4367.215058
1410.161489,-21095.869347,-689.485948,7179.997637
1410.161800,-17764.942608,-1302.362347,7105.977043
1410.162112,-12435.459826,0.000000,5033.400406
1410.162423,-7031.956449,-459.657299,814.226536
1410.162734,-1258.350101,-1225.752797,-4293.194464
1410.163046,2072.576638,-1378.971896,-5625.565159
1410.163357,1258.350101,0.000000,-4737.318029
1410.163669,-4737.318029,383.047749,-1702.473667
1410.163980,-12731.542202,-689.485948,1776.494261
1410.164292,-17912.983796,-2298.286494,5995.668130
1410.164603,-19097.313304,-2528.115143,7476.080014
1410.164915,-15396.283594,-1072.533697,6957.935855
1410.165226,-10807.006753,-689.485948,3256.906145
1410.165537,-5995.668130,-1762.019645,-444.123565
1410.165849,-740.205942,-536.266849,-4441.235652
1410.166160,814.226536,1225.752797,-4885.359217
1410.166472,-2368.659014,2911.162892,-3775.050304
1410.166783,-8808.450710,2451.505594,296.082377
1410.167095,-14434.015869,1378.971896,3923.091493
1410.167406,-16654.633695,-153.219100,6069.688724
1410.167717,-14582.057057,153.219100,5699.585753
1410.168029,-9918.759623,536.266849,3034.844362
1410.168340,-5181.441594,383.047749,-592.164754
1410.168652,-1480.411884,229.828649,-3330.926739
1410.168963,0.000000,1455.581446,-4663.297435
1410.169275,-3478.967927,1685.410096,-2590.720797
1410.169586,-9918.759623,1532.190996,740.205942
1410.169898,-15544.324782,-383.047749,4071.132681
1410.170209,-16580.613101,-1149.143247,6069.688724
1410.170520,-14434.015869,-1378.971896,6661.853478
1410.170832,-10362.883188,-1225.752797,4367.215058
1410.171143,-5921.647536,-1838.629195,1184.329507
1410.171455,-1998.556043,-1991.848295,-2368.659014
1410.171766,148.041188,-919.314598,-4293.194464
1410.172078,-2516.700203,766.095498,-3923.091493
1410.172389,-7254.018232,2298.286494,-1924.535449
1410.172700,-14211.954086,1532.190996,1554.432478
1410.173012,-19171.333898,0.000000,5107.421000
1410.173323,-19023.292709,-766.095498,6957.935855
1410.173635,-14804.118840,383.047749,4885.359217
1410.173946,-9178.553681,229.828649,1258.350101
1410.174258,-3034.844362,0.000000,-2738.761985
1410.174569,1480.411884,-383.047749,-6587.832884
1410.174881,2368.659014,995.924147,-6587.832884
1410.175192,-3552.988522,1532.190996,-3701.029710
1410.175503,-12065.356855,383.047749,222.061783
1410.175815,-17987.004391,-919.314598,4515.256246
1410.176126,-19763.498651,-2757.943793,6069.688724
1410.176438,-16062.468941,-2145.067394,5921.647536
1410.176749,-11177.109724,-1378.971896,2738.761985
1410.177061,-7328.038826,-1225.752797,-1110.308913
1410.177372,-3034.844362,306.438199,-4737.318029
1410.177683,-1924.535449,612.876398,-4071.132681
1410.177995,-4589.276840,919.314598,-2886.803174
1410.178306,-7994.224174,842.705048,-740.205942
1410.178618,-11621.233289,153.219100,1036.288319
1410.178929,-13693.809927,459.657299,3552.988522
1410.179241,-13175.665768,1378.971896,3997.112087
1410.179552,-11399.171507,459.657299,1776.494261
1410.179864,-9400.615463,842.705048,-74.020594
1410.180175,-6883.915261,-1302.362347,-2220.617826
1410.180486,-3552.988522,76.609550,-3478.967927
1410.180798,-3256.906145,1225.752797,-3627.009116
1410.181109,-7105.977043,919.314598,-1702.473667
1410.181421,-11843.295072,-383.047749,1924.535449
1410.181732,-14359.995275,-919.314598,4293.194464
1410.182044,-14359.995275,-1991.848295,5995.668130
1410.182355,-12731.542202,-1378.971896,5033.400406
1410.182666,-9770.718434,-1915.238745,2664.741391
1410.182978,-5921.647536,-1532.190996,-740.205942
1410.183289,-1702.473667,-306.438199,-2960.823768
1410.183601,-1850.514855,306.438199,-2516.700203
1410.183912,-6809.894666,1532.190996,-518.144159
1410.184224,-11769.274478,1225.752797,2072.576638
1410.184535,-15322.262999,229.828649,4811.338623
1410.184847,-15988.448347,-919.314598,7328.038826
1410.185158,-12657.521608,-536.266849,6365.771101
1410.185469,-8216.285956,306.438199,3478.967927
1410.185781,-4219.173869,0.000000,-0.000000
1410.186092,-1184.329507,0.000000,-3034.844362
1410.186404,148.041188,1838.629195,-3552.988522
1410.186715,-2664.741391,4060.306139,-3182.885551
1410.187027,-9030.512492,2374.896044,-740.205942
