#time,accel_x,accel_y,accel_z
6092.666040,-740.205942,-8512.368333,306.438199
6092.666352,-666.185348,-8882.471304,0.000000
6092.666663,-518.144159,-8734.430116,-153.219100
6092.666975,-370.102971,-8882.471304,0.000000
6092.667286,-592.164754,-8956.491898,0.000000
6092.667598,-666.185348,-8882.471304,-229.828649
6092.667909,-888.247130,-8956.491898,0.000000
6092.668221,-370.102971,-9252.574275,-76.609550
6092.668532,-296.082377,-8882.471304,459.657299
6092.668843,0.000000,-8882.471304,0.000000
6092.669155,-444.123565,-8956.491898,153.219100
6092.669466,-740.205942,-8882.471304,153.219100
6092.669778,-592.164754,-9030.512492,0.000000
6092.670089,-666.185348,-8734.430116,-229.828649
6092.670401,-518.144159,-8882.471304,229.828649
6092.670712,0.000000,-8956.491898,76.609550
6092.671024,-370.102971,-8438.347739,0.000000
6092.671335,-444.123565,-8660.409521,0.000000
6092.671647,-444.123565,-8956.491898,0.000000
6092.671958,-592.164754,-9178.553681,-153.219100
6092.672270,-740.205942,-8956.491898,-153.219100
6092.672581,-592.164754,-8956.491898,-153.219100
6092.672893,-814.226536,-8734.430116,0.000000
6092.673204,-296.082377,-8364.327145,76.609550
6092.673516,0.000000,-8808.450710,0.000000
6092.673827,-592.164754,-9104.533087,153.219100
6092.674139,-592.164754,-9104.533087,-153.219100
6092.674450,-740.205942,-9104.533087,-153.219100
6092.674761,-666.185348,-9104.533087,0.000000
6092.675073,-370.102971,-8512.368333,153.219100
6092.675384,-370.102971,-8512.368333,0.000000
6092.675696,-592.164754,-8364.327145,-153.219100
6092.676007,-444.123565,-8882.471304,-229.828649
6092.676319,-444.123565,-9252.574275,-229.828649
6092.676630,-666.185348,-9104.533087,0.000000
6092.676942,-666.185348,-8808.450710,-229.828649
6092.677253,-444.123565,-8660.409521,-229.828649
6092.677565,-592.164754,-8512.368333,383.047749
6092.677876,-370.102971,-8956.491898,0.000000
6092.678188,-592.164754,-8586.388927,0.000000
6092.678499,-518.144159,-9252.574275,76.609550
6092.678811,-592.164754,-9252.574275,0.000000
6092.679122,-592.164754,-8956.491898,0.000000
6092.679434,-370.102971,-8882.471304,0.000000
6092.679745,-296.082377,-8586.388927,-153.219100
6092.680056,-296.082377,-8734.430116,0.000000
6092.680368,-666.185348,-9030.512492,76.609550
6092.680679,-444.123565,-9252.574275,76.609550
6092.680991,-592.164754,-9030.512492,0.000000
6092.681302,-592.164754,-8956.491898,0.000000
6092.681614,-592.164754,-8808.450710,0.000000
6092.681925,-296.082377,-8808.450710,-306.438199
6092.682237,-592.164754,-9030.512492,153.219100
6092.682548,-296.082377,-9030.512492,-153.219100
6092.682860,-666.185348,-8734.430116,-229.828649
6092.683171,-444.123565,-8882.471304,0.000000
6092.683483,-444.123565,-8956.491898,0.000000
6092.683794,-518.144159,-8808.450710,0.000000
6092.684106,-370.102971,-8882.471304,0.000000
6092.684417,-296.082377,-8956.491898,0.000000
6092.684729,-370.102971,-8734.430116,0.000000
6092.685040,-518.144159,-9104.533087,153.219100
6092.685352,-666.185348,-9104.533087,-459.657299
6092.685663,-370.102971,-9030.512492,-229.828649
6092.685974,-370.102971,-8808.450710,-153.219100
6092.686286,-592.164754,-8586.388927,0.000000
6092.686597,-666.185348,-8734.430116,-459.657299
6092.686909,-592.164754,-8808.450710,0.000000
6092.687220,-518.144159,-8956.491898,-153.219100
6092.687532,-740.205942,-8660.409521,-306.438199
6092.687843,-666.185348,-9030.512492,76.609550
6092.688155,-296.082377,-9252.574275,229.828649
6092.688466,-518.144159,-8808.450710,0.000000
6092.688778,-296.082377,-8956.491898,0.000000
6092.689089,-592.164754,-8956.491898,0.000000
6092.689401,-666.185348,-9030.512492,612.876398
6092.689712,-518.144159,-9178.553681,153.219100
6092.690024,-518.144159,-8586.388927,0.000000
6092.690335,0.000000,-8808.450710,536.266849
6092.690647,-296.082377,-8660.409521,153.219100
6092.690958,-518.144159,-8882.471304,0.000000
6092.691269,-666.185348,-8956.491898,0.000000
6092.691581,-592.164754,-9104.533087,0.000000
6092.691892,-518.144159,-8956.491898,76.609550
6092.692204,-444.123565,-8512.368333,-153.219100
6092.692515,-296.082377,-8882.471304,0.000000
6092.692827,-222.061783,-8734.430116,0.000000
6092.693138,-518.144159,-8956.491898,0.000000
6092.693450,-518.144159,-9178.553681,76.609550
6092.693761,-518.144159,-9104.533087,0.000000
6092.694073,-518.144159,-8956.491898,0.000000
6092.694384,0.000000,-9030.512492,229.828649
6092.694696,-666.185348,-8364.327145,-153.219100
6092.695007,-444.123565,-8956.491898,0.000000
6092.695319,-814.226536,-8808.450710,536.266849
6092.695630,-666.185348,-9104.533087,-153.219100
6092.695942,-592.164754,-8882.471304,-306.438199
6092.696253,-666.185348,-8734.430116,0.000000
6092.696565,-518.144159,-8586.388927,0.000000
6092.696876,-222.061783,-8808.450710,306.438199
6092.697187,-370.102971,-8956.491898,0.000000
6092.697499,-518.144159,-9178.553681,-229.828649
6092.697810,-444.123565,-9178.553681,0.000000
6092.698122,-666.185348,-8956.491898,0.000000
6092.698433,-592.164754,-8734.430116,-229.828649
6092.698745,-518.144159,-8808.450710,-229.828649
6092.699056,-296.082377,-8882.471304,0.000000
6092.699368,-370.102971,-8956.491898,229.828649
6092.699679,-444.123565,-8956.491898,229.828649
6092.699991,-444.123565,-9030.512492,0.000000
6092.700302,-592.164754,-9030.512492,0.000000
6092.700614,-296.082377,-8956.491898,0.000000
6092.700925,-444.123565,-8808.450710,0.000000
6092.701237,-222.061783,-8734.430116,-229.828649
6092.701548,-518.144159,-8734.430116,0.000000
6092.701860,-666.185348,-9030.512492,536.266849
6092.702171,-444.123565,-9326.594869,229.828649
6092.702483,-888.247130,-9030.512492,459.657299
6092.702794,-740.205942,-8734.430116,-229.828649
6092.703105,-296.082377,-8734.430116,0.000000
6092.703417,-518.144159,-8956.491898,0.000000
6092.703728,-666.185348,-8808.450710,0.000000
6092.704040,-666.185348,-9252.574275,-306.438199
6092.704351,-296.082377,-9622.677246,0.000000
6092.704663,-370.102971,-8882.471304,-229.828649
6092.704974,0.000000,-8956.491898,306.438199
6092.705286,-370.102971,-8734.430116,0.000000
6092.705597,-444.123565,-8808.450710,0.000000
6092.705909,-444.123565,-9030.512492,-153.219100
6092.706220,-592.164754,-9030.512492,0.000000
6092.706532,-370.102971,-9252.574275,-229.828649
6092.706843,-296.082377,-8882.471304,153.219100
6092.707155,0.000000,-8586.388927,76.609550
6092.707466,-444.123565,-8216.285956,0.000000
6092.707778,-666.185348,-8586.388927,0.000000
6092.708089,-592.164754,-8956.491898,-153.219100
6092.708401,-740.205942,-9104.533087,-153.219100
6092.708712,-740.205942,-9104.533087,0.000000
6092.709024,-444.123565,-8808.450710,-76.609550
6092.709335,-444.123565,-8438.347739,536.266849
6092.709647,-222.061783,-8438.347739,229.828649
6092.709958,-296.082377,-8512.368333,-306.438199
6092.710270,-592.164754,-9178.553681,0.000000
6092.710581,-518.144159,-9178.553681,0.000000
6092.710893,-740.205942,-9178.553681,0.000000
6092.711204,-518.144159,-8882.471304,0.000000
6092.711516,-222.061783,-8882.471304,0.000000
6092.711827,-444.123565,-8438.347739,0.000000
6092.712139,0.000000,-8956.491898,0.000000
6092.712450,-444.123565,-9178.553681,0.000000
6092.712762,-518.144159,-9030.512492,-153.219100
6092.713073,-740.205942,-8808.450710,-229.828649
6092.713385,-370.102971,-8956.491898,0.000000
6092.713696,-370.102971,-9178.553681,0.000000
6092.714007,-962.267725,-8660.409521,383.047749
6092.714319,-592.164754,-8734.430116,0.000000
6092.714630,-592.164754,-8734.430116,-459.657299
6092.714942,-592.164754,-9104.533087,-153.219100
6092.715253,-592.164754,-8660.409521,-229.828649
6092.715565,-370.102971,-9030.512492,0.000000
6092.715876,-592.164754,-8586.388927,0.000000
6092.716188,-444.123565,-8512.368333,-229.828649
6092.716499,-370.102971,-8660.409521,-536.266849
6092.716811,-444.123565,-8882.471304,-229.828649
6092.717122,-370.102971,-8956.491898,-229.828649
6092.717434,-370.102971,-8956.491898,-153.219100
6092.717745,-666.185348,-8586.388927,-153.219100
6092.718057,-370.102971,-8734.430116,0.000000
6092.718368,-518.144159,-9030.512492,0.000000
6092.718680,-296.082377,-9104.533087,0.000000
6092.718991,-370.102971,-9178.553681,0.000000
6092.719303,-296.082377,-8956.491898,76.609550
6092.719614,-370.102971,-8586.388927,-306.438199
6092.719926,-444.123565,-8734.430116,-153.219100
6092.720237,-370.102971,-8956.491898,0.000000
6092.720549,-518.144159,-8882.471304,0.000000
6092.720860,-518.144159,-9104.533087,0.000000
6092.721172,-444.123565,-9104.533087,0.000000
6092.721483,-296.082377,-8956.491898,766.095498
6092.721795,-518.144159,-8882.471304,-306.438199
6092.722106,-518.144159,-8734.430116,0.000000
6092.722418,-444.123565,-8956.491898,76.609550
6092.722729,-666.185348,-8882.471304,-229.828649
6092.723041,-592.164754,-9178.553681,-153.219100
6092.723352,-370.102971,-9252.574275,76.609550
6092.723664,-592.164754,-8438.347739,-383.047749
6092.723975,-370.102971,-8734.430116,-229.828649
6092.724287,0.000000,-8882.471304,459.657299
6092.724598,-518.144159,-8956.491898,229.828649
6092.724909,-592.164754,-9252.574275,-229.828649
6092.725221,-592.164754,-9326.594869,-229.828649
6092.725532,-444.123565,-8956.491898,0.000000
6092.725844,-444.123565,-8438.347739,0.000000
6092.726155,-370.102971,-8512.368333,0.000000
6092.726467,-296.082377,-8734.430116,0.000000
6092.726778,0.000000,-8882.471304,0.000000
6092.727090,-518.144159,-8882.471304,0.000000
6092.727401,-592.164754,-9104.533087,-153.219100
6092.727713,-740.205942,-9030.512492,0.000000
6092.728024,-666.185348,-9030.512492,-306.438199
6092.728336,-370.102971,-8586.388927,76.609550
6092.728647,-666.185348,-8660.409521,0.000000
6092.728959,-296.082377,-8808.450710,0.000000
6092.729270,-444.123565,-8808.450710,0.000000
6092.729582,-592.164754,-9030.512492,0.000000
6092.729893,-666.185348,-8956.491898,0.000000
6092.730205,-518.144159,-8882.471304,0.000000
6092.730516,-518.144159,-8734.430116,0.000000
6092.730828,-222.061783,-8882.471304,76.609550
6092.731139,-370.102971,-8512.368333,0.000000
6092.731451,-518.144159,-9252.574275,0.000000
6092.731762,-444.123565,-9252.574275,0.000000
6092.732074,-592.164754,-8956.491898,0.000000
6092.732385,-518.144159,-8808.450710,0.000000
6092.732697,-222.061783,-8882.471304,0.000000
6092.733008,-148.041188,-9178.553681,-229.828649
6092.733320,-888.247130,-8808.450710,153.219100
6092.733631,-592.164754,-8734.430116,153.219100
6092.733943,-518.144159,-8734.430116,-153.219100
6092.734254,-444.123565,-8882.471304,76.609550
6092.734566,-518.144159,-8808.450710,-153.219100
6092.734877,-666.185348,-8882.471304,-153.219100
6092.735189,-518.144159,-8882.471304,0.000000
6092.735500,-740.205942,-9178.553681,459.657299
6092.735811,-814.226536,-9030.512492,-229.828649
6092.736123,-592.164754,-8882.471304,-76.609550
6092.736434,-592.164754,-8660.409521,-306.438199
6092.736746,-518.144159,-8660.409521,-229.828649
6092.737057,-592.164754,-8660.409521,-229.828649
6092.737369,-444.123565,-9030.512492,0.000000
6092.737680,-666.185348,-8956.491898,-229.828649
6092.737992,-518.144159,-9178.553681,-229.828649
6092.738303,-740.205942,-8586.388927,153.219100
6092.738615,-518.144159,-8586.388927,-229.828649
6092.738926,-444.123565,-8660.409521,-153.219100
6092.739238,-592.164754,-8808.450710,0.000000
6092.739549,-518.144159,-8956.491898,0.000000
6092.739861,-740.205942,-9178.553681,0.000000
6092.740172,-518.144159,-9400.615463,229.828649
6092.740484,-444.123565,-8660.409521,153.219100
6092.740795,0.000000,-8956.491898,-383.047749
6092.741107,-296.082377,-8364.327145,76.609550
6092.741418,-592.164754,-8734.430116,153.219100
6092.741730,-592.164754,-9104.533087,0.000000
6092.742041,-666.185348,-9252.574275,0.000000
6092.742353,-666.185348,-9030.512492,76.609550
6092.742664,-518.144159,-8808.450710,0.000000
6092.742976,-148.041188,-8882.471304,153.219100
6092.743287,-296.082377,-8808.450710,459.657299
6092.743599,-296.082377,-8808.450710,-383.047749
6092.743910,-518.144159,-8956.491898,-153.219100
6092.744222,-666.185348,-9104.533087,0.000000
6092.744533,-518.144159,-9400.615463,-229.828649
6092.744845,-444.123565,-9252.574275,-153.219100
6092.745156,-370.102971,-8660.409521,-689.485948
6092.745468,0.000000,-8586.388927,-153.219100
6092.745779,-444.123565,-8808.450710,229.828649
6092.746091,-592.164754,-9104.533087,-383.047749
6092.746402,-814.226536,-9178.553681,-306.438199
6092.746713,-518.144159,-9252.574275,-306.438199
6092.747025,-518.144159,-9104.533087,-306.438199
6092.747336,-518.144159,-8956.491898,0.000000
6092.747648,-296.082377,-8808.450710,229.828649
6092.747959,-296.082377,-8734.430116,-153.219100
6092.748271,-740.205942,-9104.533087,-229.828649
6092.748582,-518.144159,-9252.574275,0.000000
6092.748894,-592.164754,-9030.512492,-229.828649
6092.749205,-666.185348,-8956.491898,-383.047749
6092.749517,-592.164754,-8734.430116,0.000000
6092.749828,-444.123565,-8808.450710,383.047749
6092.750140,-518.144159,-8660.409521,383.047749
6092.750451,-148.041188,-9326.594869,0.000000
6092.750763,-592.164754,-8808.450710,153.219100
6092.751074,-370.102971,-8512.368333,0.000000
6092.751386,-370.102971,-9030.512492,-153.219100
6092.751697,-518.144159,-8882.471304,76.609550
6092.752009,-444.123565,-8956.491898,0.000000
6092.752320,-222.061783,-9178.553681,229.828649
6092.752632,-444.123565,-9400.615463,306.438199
6092.752943,-518.144159,-8660.409521,0.000000
6092.753255,-740.205942,-8660.409521,-383.047749
6092.753566,-370.102971,-8882.471304,0.000000
6092.753878,-370.102971,-8808.450710,0.000000
6092.754189,-518.144159,-8882.471304,0.000000
6092.754501,-518.144159,-9104.533087,-153.219100
6092.754812,-444.123565,-8882.471304,0.000000
6092.755124,-296.082377,-8586.388927,0.000000
6092.755435,0.000000,-9178.553681,0.000000
6092.755747,-518.144159,-8882.471304,76.609550
6092.756058,-740.205942,-8956.491898,0.000000
6092.756370,-592.164754,-9030.512492,-153.219100
6092.756681,-518.144159,-8956.491898,0.000000
6092.756992,-888.247130,-8956.491898,0.000000
6092.757304,-518.144159,-8586.388927,-459.657299
6092.757615,-444.123565,-8512.368333,-229.828649
6092.757927,-296.082377,-8512.368333,459.657299
6092.758238,-666.185348,-8512.368333,-229.828649
6092.758550,-518.144159,-9030.512492,0.000000
6092.758861,-592.164754,-8956.491898,-229.828649
6092.759173,-518.144159,-9030.512492,0.000000
6092.759484,-370.102971,-9178.553681,76.609550
6092.759796,-592.164754,-8734.430116,-383.047749
6092.760107,-296.082377,-9030.512492,-153.219100
6092.760419,-518.144159,-8956.491898,306.438199
6092.760730,-740.205942,-8660.409521,-153.219100
6092.761042,-518.144159,-9030.512492,0.000000
6092.761353,-370.102971,-9104.533087,0.000000
6092.761665,-518.144159,-9104.533087,0.000000
6092.761976,-444.123565,-9252.574275,76.609550
6092.762288,-444.123565,-9030.512492,306.438199
6092.762599,-518.144159,-8734.430116,-383.047749
6092.762911,-592.164754,-8808.450710,153.219100
6092.763222,-518.144159,-8956.491898,-153.219100
6092.763534,-518.144159,-9030.512492,76.609550
6092.763845,-592.164754,-9104.533087,-153.219100
6092.764157,-518.144159,-8956.491898,-153.219100
6092.764468,-444.123565,-9030.512492,0.000000
6092.764780,-74.020594,-8586.388927,-536.266849
6092.765091,74.020594,-9326.594869,153.219100
6092.765403,-296.082377,-8882.471304,229.828649
6092.765714,-666.185348,-9030.512492,0.000000
6092.766026,-592.164754,-8956.491898,-306.438199
6092.766337,-592.164754,-9252.574275,-229.828649
6092.766649,-518.144159,-8956.491898,0.000000
6092.766960,0.000000,-9104.533087,76.609550
6092.767272,-592.164754,-8660.409521,76.609550
6092.767583,-444.123565,-8290.306550,-229.828649
6092.767894,-296.082377,-8956.491898,-153.219100
6092.768206,-666.185348,-8882.471304,-306.438199
6092.768517,-666.185348,-9030.512492,-153.219100
6092.768829,-740.205942,-8882.471304,-153.219100
6092.769140,-518.144159,-9030.512492,-306.438199
6092.769452,0.000000,-8882.471304,0.000000
6092.769763,-740.205942,-8660.409521,306.438199
6092.770075,-370.102971,-8734.430116,0.000000
6092.770386,-814.226536,-8734.430116,-229.828649
6092.770698,-666.185348,-8882.471304,0.000000
6092.771009,-592.164754,-9030.512492,0.000000
6092.771321,-444.123565,-8956.491898,0.000000
6092.771632,-296.082377,-8956.491898,306.438199
6092.771944,-296.082377,-8660.409521,-153.219100
6092.772255,-592.164754,-8882.471304,-766.095498
6092.772567,-740.205942,-8660.409521,459.657299
6092.772878,-444.123565,-9178.553681,0.000000
6092.773190,-592.164754,-9030.512492,-153.219100
6092.773501,-592.164754,-9030.512492,0.000000
6092.773813,-518.144159,-8882.471304,0.000000
6092.774124,0.000000,-9326.594869,0.000000
6092.774436,-740.205942,-8808.450710,536.266849
6092.774747,-296.082377,-8956.491898,0.000000
6092.775059,-222.061783,-9178.553681,612.876398
6092.775370,-592.164754,-9030.512492,0.000000
6092.775682,-666.185348,-9104.533087,0.000000
6092.775993,-592.164754,-8882.471304,0.000000
6092.776305,-444.123565,-9030.512492,0.000000
6092.776616,-444.123565,-8808.450710,536.266849
6092.776928,0.000000,-9030.512492,153.219100
6092.777239,-740.205942,-8660.409521,0.000000
6092.777551,-444.123565,-8882.471304,0.000000
6092.777862,-592.164754,-8956.491898,0.000000
6092.778174,-666.185348,-9030.512492,0.000000
6092.778485,-296.082377,-8956.491898,0.000000
6092.778796,-592.164754,-8734.430116,0.000000
6092.779108,-444.123565,-8512.368333,0.000000
6092.779419,-666.185348,-9030.512492,0.000000
6092.779731,-962.267725,-8808.450710,-689.485948
6092.780042,-444.123565,-8808.450710,0.000000
6092.780354,-592.164754,-8882.471304,0.000000
6092.780665,-370.102971,-8882.471304,76.609550
6092.780977,-444.123565,-8882.471304,0.000000
6092.781288,-592.164754,-9178.553681,0.000000
6092.781600,-518.144159,-9178.553681,153.219100
6092.781911,-296.082377,-9030.512492,76.609550
6092.782223,-592.164754,-8734.430116,-153.219100
6092.782534,-222.061783,-8734.430116,0.000000
6092.782846,-370.102971,-8808.450710,0.000000
6092.783157,-370.102971,-9030.512492,0.000000
6092.783469,-592.164754,-9030.512492,76.609550
6092.783780,-518.144159,-8882.471304,-306.438199
6092.784092,-518.144159,-9030.512492,0.000000
6092.784403,-666.185348,-8882.471304,383.047749
6092.784715,-296.082377,-8808.450710,-153.219100
6092.785026,-518.144159,-8808.450710,-229.828649
6092.785338,-444.123565,-9104.533087,0.000000
6092.785649,-444.123565,-9178.553681,-229.828649
6092.785961,-666.185348,-9252.574275,-153.219100
6092.786272,-740.205942,-8808.450710,0.000000
6092.786584,-370.102971,-8364.327145,0.000000
6092.786895,-296.082377,-8364.327145,0.000000
6092.787207,-296.082377,-8438.347739,153.219100
6092.787518,-296.082377,-9104.533087,-153.219100
6092.787830,-518.144159,-9326.594869,0.000000
6092.788141,-592.164754,-9178.553681,0.000000
6092.788453,-666.185348,-8882.471304,0.000000
6092.788764,0.000000,-8512.368333,-383.047749
6092.789076,-74.020594,-8512.368333,0.000000
6092.789387,-592.164754,-8660.409521,229.828649
6092.789698,-592.164754,-8808.450710,76.609550
6092.790010,-814.226536,-9178.553681,0.000000
6092.790321,-666.185348,-9178.553681,-306.438199
6092.790633,-518.144159,-8882.471304,0.000000
6092.790944,-444.123565,-8734.430116,229.828649
6092.791256,-370.102971,-8142.265362,153.219100
6092.791567,0.000000,-8882.471304,0.000000
6092.791879,-518.144159,-8808.450710,-153.219100
6092.792190,-518.144159,-9326.594869,0.000000
6092.792502,-666.185348,-9252.574275,0.000000
6092.792813,-444.123565,-9030.512492,0.000000
6092.793125,-444.123565,-8660.409521,-153.219100
6092.793436,-370.102971,-8586.388927,0.000000
6092.793748,-444.123565,-8808.450710,76.609550
6092.794059,-518.144159,-8956.491898,153.219100
6092.794371,-370.102971,-9104.533087,-153.219100
6092.794682,-370.102971,-9104.533087,-383.047749
6092.794994,-518.144159,-9104.533087,-153.219100
6092.795305,-518.144159,-8956.491898,-306.438199
6092.795617,-296.082377,-8808.450710,0.000000
6092.795928,-444.123565,-8882.471304,0.000000
6092.796240,-740.205942,-8734.430116,153.219100
6092.796551,-592.164754,-8882.471304,0.000000
6092.796863,-666.185348,-8882.471304,306.438199
6092.797174,-518.144159,-9178.553681,0.000000
6092.797486,-444.123565,-8808.450710,0.000000
6092.797797,-296.082377,-8660.409521,0.000000
6092.798109,-444.123565,-8660.409521,0.000000
6092.798420,-666.185348,-9030.512492,153.219100
6092.798732,-518.144159,-9104.533087,-229.828649
6092.799043,-740.205942,-9030.512492,0.000000
6092.799355,-518.144159,-8808.450710,76.609550
6092.799666,-518.144159,-8660.409521,76.609550
6092.799978,-296.082377,-8586.388927,0.000000
6092.800289,-444.123565,-8808.450710,0.000000
6092.800600,-592.164754,-9104.533087,-153.219100
6092.800912,-740.205942,-8734.430116,0.000000
6092.801223,-740.205942,-8734.430116,-153.219100
6092.801535,-518.144159,-8956.491898,536.266849
6092.801846,-222.061783,-8882.471304,-306.438199
6092.802158,-148.041188,-8882.471304,153.219100
6092.802469,-444.123565,-8882.471304,153.219100
6092.802781,-444.123565,-9030.512492,0.000000
6092.803092,-296.082377,-9178.553681,-153.219100
6092.803404,-740.205942,-9252.574275,-383.047749
6092.803715,-518.144159,-8586.388927,-459.657299
6092.804027,-592.164754,-8512.368333,-153.219100
6092.804338,-444.123565,-8586.388927,0.000000
6092.804650,-444.123565,-9030.512492,0.000000
6092.804961,-666.185348,-8956.491898,-153.219100
6092.805273,-518.144159,-9326.594869,-306.438199
6092.805584,-444.123565,-9104.533087,-383.047749
6092.805896,-518.144159,-8808.450710,0.000000
6092.806207,-444.123565,-8512.368333,76.609550
6092.806519,-296.082377,-8438.347739,76.609550
6092.806830,-370.102971,-9104.533087,0.000000
6092.807142,-740.205942,-9326.594869,0.000000
6092.807453,-740.205942,-9104.533087,-306.438199
6092.807765,-592.164754,-8956.491898,0.000000
6092.808076,-222.061783,-9030.512492,76.609550
6092.808388,-666.185348,-8586.388927,0.000000
6092.808699,-370.102971,-8660.409521,-76.609550
6092.809011,-296.082377,-8956.491898,-229.828649
6092.809322,-592.164754,-8956.491898,76.609550
6092.809633,-666.185348,-9104.533087,0.000000
6092.809945,-666.185348,-8882.471304,0.000000
6092.810256,-666.185348,-8956.491898,0.000000
6092.810568,-592.164754,-8438.347739,-306.438199
6092.810879,-296.082377,-9178.553681,-919.314598
6092.811191,-666.185348,-8586.388927,76.609550
6092.811502,-370.102971,-9252.574275,-229.828649
6092.811814,-518.144159,-9104.533087,-153.219100
6092.812125,-518.144159,-8808.450710,-306.438199
6092.812437,-518.144159,-8956.491898,0.000000
6092.812748,-592.164754,-8734.430116,-383.047749
6092.813060,-296.082377,-8808.450710,-76.609550
6092.813371,-296.082377,-8882.471304,-536.266849
6092.813683,-296.082377,-8882.471304,-229.828649
6092.813994,-370.102971,-8882.471304,0.000000
6092.814306,-592.164754,-8956.491898,0.000000
6092.814617,-592.164754,-8882.471304,0.000000
6092.814929,-370.102971,-9030.512492,0.000000
6092.815240,-444.123565,-8734.430116,76.609550
6092.815552,-740.205942,-8660.409521,383.047749
6092.815863,-518.144159,-8586.388927,0.000000
6092.816175,-296.082377,-8808.450710,-229.828649
6092.816486,-592.164754,-9030.512492,0.000000
6092.816798,-518.144159,-9030.512492,0.000000
6092.817109,-518.144159,-8660.409521,-153.219100
6092.817420,-444.123565,-8956.491898,-153.219100
6092.817732,-518.144159,-8734.430116,229.828649
6092.818043,-814.226536,-8882.471304,0.000000
6092.818355,-666.185348,-8660.409521,-612.876398
6092.818666,-740.205942,-8734.430116,76.609550
6092.818978,-370.102971,-8956.491898,0.000000
6092.819289,-666.185348,-8734.430116,-153.219100
6092.819601,-444.123565,-8956.491898,-153.219100
6092.819912,-666.185348,-8882.471304,-153.219100
6092.820224,-740.205942,-8660.409521,-153.219100
6092.820535,-592.164754,-8956.491898,153.219100
6092.820847,-666.185348,-8512.368333,-229.828649
6092.821158,-296.082377,-8808.450710,153.219100
6092.821470,-296.082377,-9030.512492,0.000000
6092.821781,-666.185348,-8808.450710,76.609550
6092.822093,-666.185348,-8956.491898,0.000000
6092.822404,-592.164754,-8956.491898,-229.828649
6092.822716,-370.102971,-9030.512492,0.000000
6092.823027,-666.185348,-8808.450710,306.438199
6092.823339,0.000000,-8808.450710,689.485948
6092.823650,-518.144159,-8882.471304,0.000000
6092.823962,-444.123565,-9030.512492,0.000000
6092.824273,-518.144159,-9104.533087,0.000000
6092.824585,-666.185348,-9030.512492,0.000000
6092.824896,-592.164754,-8956.491898,-306.438199
6092.825208,-518.144159,-8586.388927,0.000000
6092.825519,0.000000,-9548.656652,153.219100
6092.825830,-666.185348,-9030.512492,0.000000
6092.826142,-592.164754,-8956.491898,-153.219100
6092.826453,-592.164754,-8882.471304,-306.438199
6092.826765,-592.164754,-9030.512492,0.000000
6092.827076,-518.144159,-8882.471304,-153.219100
6092.827388,-370.102971,-8808.450710,153.219100
6092.827699,-444.123565,-8734.430116,0.000000
6092.828011,-222.061783,-9252.574275,0.000000
6092.828322,-592.164754,-8882.471304,383.047749
6092.828634,-592.164754,-8956.491898,0.000000
6092.828945,-444.123565,-8882.471304,0.000000
6092.829257,-444.123565,-8660.409521,0.000000
6092.829568,-518.144159,-8734.430116,0.000000
6092.829880,-592.164754,-9104.533087,0.000000
6092.830191,-444.123565,-9104.533087,-766.095498
6092.830503,-814.226536,-8512.368333,-229.828649
6092.830814,-888.247130,-8882.471304,0.000000
6092.831126,-444.123565,-8956.491898,-153.219100
6092.831437,-592.164754,-8586.388927,0.000000
6092.831749,-518.144159,-8660.409521,-153.219100
6092.832060,-518.144159,-8882.471304,153.219100
6092.832372,-518.144159,-9178.553681,-153.219100
6092.832683,-370.102971,-9104.533087,-153.219100
6092.832995,-666.185348,-8660.409521,-306.438199
6092.833306,-370.102971,-8660.409521,-153.219100
6092.833618,-518.144159,-8660.409521,-229.828649
6092.833929,-444.123565,-8734.430116,0.000000
6092.834240,-518.144159,-8882.471304,-229.828649
6092.834552,-740.205942,-8586.388927,153.219100
6092.834863,-592.164754,-9030.512492,-306.438199
6092.835175,-1036.288319,-8586.388927,383.047749
6092.835486,-444.123565,-8956.491898,229.828649
6092.835798,-370.102971,-8512.368333,-229.828649
6092.836109,-518.144159,-8808.450710,-153.219100
6092.836421,-518.144159,-9030.512492,0.000000
6092.836732,-592.164754,-9030.512492,-153.219100
6092.837044,-518.144159,-8586.388927,0.000000
6092.837355,-222.061783,-9474.636058,0.000000
6092.837667,0.000000,-8956.491898,306.438199
6092.837978,-370.102971,-8290.306550,306.438199
6092.838290,-592.164754,-8734.430116,0.000000
6092.838601,-518.144159,-8808.450710,0.000000
6092.838913,-740.205942,-9104.533087,-229.828649
6092.839224,-592.164754,-9104.533087,-229.828649
6092.839536,-370.102971,-8734.430116,0.000000
6092.839847,-370.102971,-8956.491898,229.828649
6092.840159,-444.123565,-9030.512492,-306.438199
6092.840470,-666.185348,-8512.368333,0.000000
6092.840782,-444.123565,-8734.430116,0.000000
6092.841093,-592.164754,-9030.512492,0.000000
6092.841405,-740.205942,-8882.471304,0.000000
6092.841716,-592.164754,-9030.512492,0.000000
6092.842027,-444.123565,-8734.430116,-229.828649
6092.842339,-296.082377,-8734.430116,0.000000
6092.842650,-296.082377,-8364.327145,536.266849
6092.842962,-370.102971,-8882.471304,-229.828649
6092.843273,-592.164754,-9030.512492,0.000000
6092.843585,-592.164754,-9178.553681,153.219100
6092.843896,-518.144159,-8956.491898,-153.219100
6092.844208,-592.164754,-9178.553681,153.219100
6092.844519,-592.164754,-8586.388927,-229.828649
6092.844831,-296.082377,-8660.409521,-536.266849
6092.845142,-222.061783,-8512.368333,-383.047749
6092.845454,-444.123565,-9474.636058,0.000000
6092.845765,-740.205942,-9104.533087,-229.828649
6092.846077,-518.144159,-8882.471304,0.000000
6092.846388,-444.123565,-8882.471304,-229.828649
6092.846700,0.000000,-8660.409521,-153.219100
6092.847011,-666.185348,-8586.388927,0.000000
6092.847323,-666.185348,-8364.327145,0.000000
6092.847634,-518.144159,-9178.553681,-153.219100
6092.847946,-814.226536,-9030.512492,0.000000
6092.848257,-666.185348,-9252.574275,0.000000
6092.848569,-666.185348,-8808.450710,0.000000
6092.848880,-296.082377,-8808.450710,0.000000
6092.849192,-444.123565,-8438.347739,153.219100
6092.849503,-222.061783,-8882.471304,-229.828649
6092.849815,-296.082377,-8882.471304,-229.828649
6092.850126,-444.123565,-9252.574275,76.609550
6092.850437,-814.226536,-8882.471304,0.000000
6092.850749,-592.164754,-8734.430116,0.000000
6092.851060,-222.061783,-8882.471304,153.219100
6092.851372,-370.102971,-8808.450710,76.609550
6092.851683,-518.144159,-8808.450710,306.438199
6092.851995,-592.164754,-8956.491898,0.000000
6092.852306,-518.144159,-8586.388927,76.609550
6092.852618,-592.164754,-8956.491898,0.000000
6092.852929,-592.164754,-8882.471304,-229.828649
6092.853241,-296.082377,-9030.512492,0.000000
6092.853552,-444.123565,-8808.450710,0.000000
6092.853864,-518.144159,-8808.450710,76.609550
6092.854175,-370.102971,-9474.636058,0.000000
6092.854487,-962.267725,-9030.512492,0.000000
6092.854798,-592.164754,-8956.491898,0.000000
6092.855110,-518.144159,-8956.491898,0.000000
6092.855421,-518.144159,-8956.491898,0.000000
6092.855733,-592.164754,-8882.471304,0.000000
6092.856044,-518.144159,-8882.471304,76.609550
6092.856356,-444.123565,-8882.471304,0.000000
6092.856667,-592.164754,-8512.368333,-536.266849
6092.856979,-518.144159,-8290.306550,-383.047749
6092.857290,-296.082377,-8808.450710,-459.657299
6092.857602,-518.144159,-8660.409521,0.000000
6092.857913,-444.123565,-8808.450710,153.219100
6092.858225,-740.205942,-9178.553681,-153.219100
6092.858536,-518.144159,-9178.553681,76.609550
6092.858847,-740.205942,-8734.430116,0.000000
6092.859159,-592.164754,-8734.430116,-153.219100
6092.859470,-444.123565,-8438.347739,0.000000
6092.859782,-592.164754,-8660.409521,0.000000
6092.860093,-518.144159,-8808.450710,0.000000
6092.860405,-518.144159,-8808.450710,0.000000
6092.860716,-666.185348,-8956.491898,229.828649
6092.861028,-666.185348,-8956.491898,-229.828649
6092.861339,-592.164754,-8660.409521,-153.219100
6092.861651,-296.082377,-8660.409521,0.000000
6092.861962,-296.082377,-8512.368333,0.000000
6092.862274,-444.123565,-8734.430116,153.219100
6092.862585,-740.205942,-8882.471304,0.000000
6092.862897,-666.185348,-9178.553681,0.000000
6092.863208,-740.205942,-9104.533087,-153.219100
6092.863520,-592.164754,-8956.491898,0.000000
6092.863831,-222.061783,-8808.450710,-153.219100
6092.864143,-296.082377,-8586.388927,0.000000
6092.864454,-148.041188,-8586.388927,-229.828649
6092.864766,-740.205942,-8956.491898,76.609550
6092.865077,-740.205942,-9104.533087,-306.438199
6092.865389,-592.164754,-9104.533087,-153.219100
6092.865700,-740.205942,-8882.471304,0.000000
6092.866012,-444.123565,-8586.388927,229.828649
6092.866323,-444.123565,-8734.430116,0.000000
6092.866635,-296.082377,-8586.388927,-306.438199
6092.866946,-592.164754,-8882.471304,0.000000
6092.867257,-518.144159,-9104.533087,0.000000
6092.867569,-592.164754,-9104.533087,-306.438199
6092.867880,-592.164754,-8882.471304,-153.219100
6092.868192,-666.185348,-8882.471304,-153.219100
6092.868503,-444.123565,-8660.409521,-459.657299
6092.868815,-370.102971,-8660.409521,-229.828649
6092.869126,-666.185348,-8882.471304,-612.876398
6092.869438,-592.164754,-8808.450710,0.000000
6092.869749,-666.185348,-8882.471304,-153.219100
6092.870061,-666.185348,-8660.409521,0.000000
6092.870372,-592.164754,-8808.450710,0.000000
6092.870684,-666.185348,-8882.471304,229.828649
6092.870995,-370.102971,-8882.471304,-229.828649
6092.871307,-518.144159,-8808.450710,-153.219100
6092.871618,-148.041188,-8956.491898,0.000000
6092.871930,-370.102971,-8734.430116,0.000000
6092.872241,-518.144159,-8808.450710,0.000000
6092.872553,-370.102971,-8882.471304,153.219100
6092.872864,-370.102971,-8882.471304,0.000000
6092.873176,-518.144159,-8882.471304,153.219100
6092.873487,-296.082377,-9252.574275,-306.438199
6092.873799,-1184.329507,-8734.430116,383.047749
6092.874110,-592.164754,-8586.388927,-229.828649
6092.874422,-666.185348,-8956.491898,-459.657299
6092.874733,-444.123565,-9178.553681,-229.828649
6092.875044,-444.123565,-9104.533087,76.609550
6092.875356,-592.164754,-8956.491898,0.000000
6092.875667,-666.185348,-8808.450710,0.000000
6092.875979,-518.144159,-8364.327145,-612.876398
6092.876290,74.020594,-9104.533087,0.000000
6092.876602,-592.164754,-9030.512492,229.828649
6092.876913,-370.102971,-8882.471304,0.000000
6092.877225,-592.164754,-8808.450710,0.000000
6092.877536,-592.164754,-9030.512492,-153.219100
6092.877848,-740.205942,-9104.533087,-306.438199
6092.878159,-518.144159,-8808.450710,-536.266849
6092.878471,-592.164754,-8808.450710,0.000000
6092.878782,-296.082377,-8586.388927,-306.438199
6092.879094,-148.041188,-9030.512492,-153.219100
6092.879405,-444.123565,-8956.491898,0.000000
6092.879717,-592.164754,-8956.491898,-153.219100
6092.880028,-814.226536,-8808.450710,0.000000
6092.880340,-592.164754,-8882.471304,0.000000
6092.880651,-370.102971,-8956.491898,0.000000
6092.880963,-370.102971,-8808.450710,-153.219100
6092.881274,-296.082377,-9030.512492,0.000000
6092.881586,-518.144159,-8734.430116,76.609550
6092.881897,-444.123565,-8882.471304,0.000000
6092.882209,-666.185348,-8956.491898,0.000000
6092.882520,-518.144159,-9178.553681,-153.219100
6092.882832,-518.144159,-8808.450710,0.000000
6092.883143,-222.061783,-8364.327145,0.000000
6092.883454,-222.061783,-8660.409521,306.438199
6092.883766,-444.123565,-9178.553681,76.609550
6092.884077,-666.185348,-9178.553681,76.609550
6092.884389,-592.164754,-9252.574275,0.000000
6092.884700,-592.164754,-9178.553681,0.000000
6092.885012,-518.144159,-8586.388927,0.000000
6092.885323,-518.144159,-8660.409521,0.000000
6092.885635,-222.061783,-8808.450710,-612.876398
6092.885946,-370.102971,-8512.368333,0.000000
6092.886258,0.000000,-9104.533087,0.000000
6092.886569,-592.164754,-9104.533087,153.219100
6092.886881,-666.185348,-8882.471304,0.000000
6092.887192,-370.102971,-8956.491898,-229.828649
6092.887504,-444.123565,-8808.450710,-153.219100
6092.887815,-222.061783,-8660.409521,0.000000
6092.888127,-592.164754,-8882.471304,0.000000
6092.888438,-296.082377,-8882.471304,-306.438199
6092.888750,-444.123565,-8956.491898,0.000000
6092.889061,-740.205942,-9104.533087,-153.219100
6092.889373,-518.144159,-8956.491898,0.000000
6092.889684,-444.123565,-8660.409521,-153.219100
6092.889996,-296.082377,-8734.430116,0.000000
6092.890307,-296.082377,-9030.512492,229.828649
6092.890619,-518.144159,-8808.450710,76.609550
6092.890930,0.000000,-9104.533087,-229.828649
6092.891242,-740.205942,-8882.471304,0.000000
6092.891553,-370.102971,-8956.491898,-229.828649
6092.891864,-296.082377,-8808.450710,0.000000
6092.892176,-370.102971,-8734.430116,-153.219100
6092.892487,-370.102971,-8882.471304,76.609550
6092.892799,-592.164754,-9104.533087,-306.438199
6092.893110,-740.205942,-9178.553681,0.000000
6092.893422,-296.082377,-9622.677246,-306.438199
6092.893733,0.000000,-9252.574275,-153.219100
6092.894045,-296.082377,-8586.388927,-229.828649
6092.894356,-518.144159,-8660.409521,76.609550
6092.894668,-296.082377,-8808.450710,0.000000
6092.894979,-518.144159,-9622.677246,-383.047749
6092.895291,-888.247130,-8956.491898,0.000000
6092.895602,-1110.308913,-9030.512492,229.828649
6092.895914,-148.041188,-9104.533087,153.219100
6092.896225,-444.123565,-8512.368333,0.000000
6092.896537,-518.144159,-8660.409521,0.000000
6092.896848,-370.102971,-9030.512492,0.000000
6092.897160,-592.164754,-9104.533087,0.000000
6092.897471,-740.205942,-9104.533087,-306.438199
6092.897783,-666.185348,-8808.450710,-306.438199
6092.898094,-296.082377,-8956.491898,0.000000
6092.898406,-444.123565,-8956.491898,-689.485948
6092.898717,-296.082377,-8882.471304,-153.219100
6092.899029,-370.102971,-9104.533087,76.609550
6092.899340,-666.185348,-9030.512492,0.000000
6092.899651,-592.164754,-9326.594869,0.000000
6092.899963,-888.247130,-8956.491898,-306.438199
6092.900274,-370.102971,-8882.471304,-612.876398
6092.900586,-592.164754,-8808.450710,-383.047749
6092.900897,0.000000,-8438.347739,0.000000
6092.901209,-370.102971,-8660.409521,76.609550
6092.901520,-666.185348,-8882.471304,0.000000
6092.901832,-666.185348,-9252.574275,0.000000
6092.902143,-592.164754,-9252.574275,-153.219100
6092.902455,-666.185348,-8586.388927,-383.047749
6092.902766,-444.123565,-8660.409521,0.000000
6092.903078,-148.041188,-8808.450710,76.609550
6092.903389,-518.144159,-8734.430116,-153.219100
6092.903701,-518.144159,-9104.533087,0.000000
6092.904012,-666.185348,-9252.574275,0.000000
6092.904324,-814.226536,-9178.553681,-153.219100
6092.904635,-592.164754,-9030.512492,0.000000
6092.904947,-666.185348,-9030.512492,-306.438199
6092.905258,-222.061783,-8512.368333,0.000000
6092.905570,-518.144159,-8660.409521,76.609550
6092.905881,-370.102971,-8734.430116,0.000000
6092.906193,-666.185348,-9178.553681,0.000000
6092.906504,-592.164754,-9104.533087,0.000000
6092.906816,-444.123565,-8882.471304,0.000000
6092.907127,-370.102971,-8586.388927,76.609550
6092.907439,-518.144159,-8586.388927,0.000000
6092.907750,-518.144159,-8734.430116,0.000000
6092.908062,-444.123565,-9104.533087,153.219100
6092.908373,-518.144159,-9104.533087,-229.828649
6092.908684,-666.185348,-8956.491898,-229.828649
6092.908996,-444.123565,-8808.450710,0.000000
6092.909307,-518.144159,-8512.368333,-459.657299
6092.909619,-518.144159,-8882.471304,-76.609550
6092.909930,-370.102971,-8956.491898,306.438199
6092.910242,-666.185348,-9178.553681,0.000000
6092.910553,-444.123565,-8586.388927,-229.828649
6092.910865,-592.164754,-8956.491898,-306.438199
6092.911176,-518.144159,-8882.471304,0.000000
6092.911488,-444.123565,-8660.409521,0.000000
6092.911799,-370.102971,-8660.409521,0.000000
6092.912111,-370.102971,-8734.430116,0.000000
6092.912422,-444.123565,-8808.450710,76.609550
6092.912734,-444.123565,-9252.574275,153.219100
6092.913045,-370.102971,-8734.430116,0.000000
6092.913357,-592.164754,-8956.491898,76.609550
6092.913668,-444.123565,-8808.450710,0.000000
6092.913980,-444.123565,-8882.471304,0.000000
6092.914291,-518.144159,-8956.491898,0.000000
6092.914603,-444.123565,-9030.512492,-306.438199
6092.914914,-518.144159,-8882.471304,0.000000
6092.915226,0.000000,-9252.574275,0.000000
6092.915537,-740.205942,-8808.450710,153.219100
6092.915849,-370.102971,-8734.430116,-306.438199
6092.916160,-296.082377,-8956.491898,-229.828649
6092.916472,-444.123565,-9104.533087,0.000000
6092.916783,-592.164754,-9104.533087,0.000000
6092.917095,-592.164754,-9030.512492,153.219100
6092.917406,-888.247130,-8956.491898,-842.705048
6092.917718,-666.185348,-8216.285956,-229.828649
6092.918029,-444.123565,-8586.388927,-536.266849
6092.918340,-518.144159,-8808.450710,0.000000
6092.918652,-370.102971,-9030.512492,153.219100
6092.918963,-592.164754,-9030.512492,76.609550
6092.919275,-666.185348,-9178.553681,0.000000
6092.919586,-370.102971,-9104.533087,0.000000
6092.919898,0.000000,-8808.450710,766.095498
6092.920209,-296.082377,-8734.430116,-229.828649
6092.920521,-518.144159,-8808.450710,229.828649
6092.920832,-518.144159,-9104.533087,0.000000
6092.921144,-518.144159,-9252.574275,0.000000
6092.921455,-518.144159,-9178.553681,0.000000
6092.921767,-518.144159,-8364.327145,76.609550
6092.922078,-518.144159,-8068.244768,0.000000
6092.922390,-592.164754,-8734.430116,229.828649
6092.922701,-148.041188,-8956.491898,-229.828649
6092.923013,-518.144159,-8882.471304,0.000000
6092.923324,-814.226536,-8956.491898,0.000000
6092.923636,-592.164754,-9030.512492,-229.828649
6092.923947,-370.102971,-8734.430116,-153.219100
6092.924259,-296.082377,-8660.409521,0.000000
6092.924570,-296.082377,-8586.388927,0.000000
6092.924882,-592.164754,-8882.471304,-536.266849
6092.925193,-370.102971,-8882.471304,0.000000
6092.925505,-592.164754,-9104.533087,0.000000
6092.925816,-666.185348,-8882.471304,0.000000
6092.926128,-592.164754,-8808.450710,-229.828649
6092.926439,-518.144159,-8660.409521,0.000000
6092.926751,-518.144159,-8956.491898,0.000000
6092.927062,-222.061783,-9178.553681,306.438199
6092.927373,-814.226536,-9252.574275,-229.828649
6092.927685,-666.185348,-9030.512492,-229.828649
6092.927996,-666.185348,-8882.471304,0.000000
6092.928308,-444.123565,-8734.430116,0.000000
6092.928619,-592.164754,-8882.471304,0.000000
6092.928931,-518.144159,-8956.491898,0.000000
6092.929242,-592.164754,-8956.491898,0.000000
6092.929554,-444.123565,-8660.409521,0.000000
6092.929865,-222.061783,-9030.512492,383.047749
6092.930177,-592.164754,-8956.491898,0.000000
6092.930488,-444.123565,-8882.471304,-229.828649
6092.930800,-592.164754,-8808.450710,-229.828649
6092.931111,-518.144159,-8808.450710,0.000000
6092.931423,-518.144159,-8956.491898,-536.266849
6092.931734,-444.123565,-9030.512492,0.000000
6092.932046,-666.185348,-9104.533087,0.000000
6092.932357,-666.185348,-8808.450710,0.000000
6092.932669,-370.102971,-8734.430116,0.000000
6092.932980,-518.144159,-8734.430116,0.000000
6092.933292,-592.164754,-8734.430116,0.000000
6092.933603,-518.144159,-8956.491898,-153.219100
6092.933915,-592.164754,-8956.491898,-536.266849
6092.934226,-518.144159,-8882.471304,0.000000
6092.934538,-296.082377,-8512.368333,-306.438199
6092.934849,-370.102971,-8808.450710,76.609550
6092.935161,-370.102971,-8808.450710,0.000000
6092.935472,-518.144159,-8956.491898,0.000000
6092.935784,-592.164754,-9030.512492,0.000000
6092.936095,-592.164754,-9326.594869,-229.828649
6092.936407,-740.205942,-8956.491898,153.219100
6092.936718,-444.123565,-8660.409521,536.266849
6092.937029,-296.082377,-8882.471304,229.828649
6092.937341,-518.144159,-8660.409521,0.000000
6092.937652,-444.123565,-8882.471304,-153.219100
6092.937964,-518.144159,-9104.533087,0.000000
6092.938275,-666.185348,-9030.512492,-229.828649
6092.938587,-592.164754,-8808.450710,0.000000
6092.938898,-740.205942,-8586.388927,306.438199
6092.939210,-296.082377,-8364.327145,459.657299
6092.939521,-444.123565,-8734.430116,-306.438199
6092.939833,-370.102971,-8882.471304,0.000000
6092.940144,-518.144159,-9252.574275,-229.828649
6092.940456,-592.164754,-8956.491898,0.000000
6092.940767,-592.164754,-8882.471304,0.000000
6092.941079,-444.123565,-8364.327145,-383.047749
6092.941390,0.000000,-9104.533087,0.000000
6092.941702,-888.247130,-8882.471304,0.000000
6092.942013,-444.123565,-9030.512492,306.438199
6092.942325,-666.185348,-9030.512492,0.000000
6092.942636,-666.185348,-9104.533087,-306.438199
6092.942948,-592.164754,-9030.512492,0.000000
6092.943259,-518.144159,-9030.512492,-153.219100
6092.943571,-518.144159,-8660.409521,76.609550
6092.943882,-444.123565,-8586.388927,-459.657299
6092.944194,-592.164754,-8808.450710,0.000000
6092.944505,-370.102971,-9104.533087,-995.924147
6092.944817,-444.123565,-8734.430116,-306.438199
6092.945128,-666.185348,-8660.409521,0.000000
6092.945440,-444.123565,-8660.409521,0.000000
6092.945751,-444.123565,-8808.450710,229.828649
6092.946062,-666.185348,-9030.512492,-229.828649
6092.946374,-370.102971,-9178.553681,0.000000
6092.946685,-222.061783,-9030.512492,229.828649
6092.946997,-518.144159,-8808.450710,0.000000
6092.947308,-444.123565,-8660.409521,0.000000
6092.947620,-444.123565,-8956.491898,0.000000
6092.947931,-444.123565,-9030.512492,0.000000
6092.948243,-518.144159,-8956.491898,612.876398
6092.948554,-444.123565,-8956.491898,-612.876398
6092.948866,-444.123565,-8956.491898,306.438199
6092.949177,-444.123565,-8808.450710,229.828649
6092.949489,-296.082377,-8956.491898,0.000000
6092.949800,-370.102971,-8882.471304,-229.828649
6092.950112,-444.123565,-9104.533087,153.219100
6092.950423,-592.164754,-8956.491898,0.000000
6092.950735,-444.123565,-9252.574275,459.657299
6092.951046,-740.205942,-8438.347739,0.000000
6092.951358,-148.041188,-9030.512492,0.000000
6092.951669,-296.082377,-8808.450710,689.485948
6092.951981,-296.082377,-9178.553681,-153.219100
6092.952292,-592.164754,-8808.450710,0.000000
6092.952604,-518.144159,-8956.491898,0.000000
6092.952915,-370.102971,-9326.594869,-229.828649
6092.953227,-296.082377,-8956.491898,-153.219100
6092.953538,0.000000,-9030.512492,306.438199
6092.953850,-814.226536,-9104.533087,-383.047749
6092.954161,-814.226536,-8586.388927,-153.219100
6092.954473,-444.123565,-9104.533087,0.000000
6092.954784,-592.164754,-8956.491898,-153.219100
6092.955095,-518.144159,-8956.491898,-153.219100
6092.955407,-666.185348,-8956.491898,-766.095498
6092.955718,-740.205942,-8438.347739,-306.438199
6092.956030,-592.164754,-8586.388927,-383.047749
6092.956341,-444.123565,-8956.491898,-536.266849
6092.956653,-814.226536,-8660.409521,0.000000
6092.956964,-666.185348,-8956.491898,0.000000
6092.957276,-592.164754,-8808.450710,0.000000
6092.957587,-518.144159,-8808.450710,-306.438199
6092.957899,-740.205942,-8808.450710,-153.219100
6092.958210,-518.144159,-8956.491898,0.000000
6092.958522,-592.164754,-9178.553681,-153.219100
6092.958833,-444.123565,-8882.471304,229.828649
6092.959145,-518.144159,-8882.471304,-153.219100
6092.959456,-592.164754,-8660.409521,-306.438199
6092.959768,-370.102971,-8734.430116,0.000000
6092.960079,-444.123565,-8882.471304,0.000000
6092.960391,-666.185348,-8808.450710,0.000000
6092.960702,0.000000,-8808.450710,0.000000
6092.961014,-666.185348,-8734.430116,0.000000
6092.961325,-222.061783,-9030.512492,0.000000
6092.961637,-592.164754,-8956.491898,-153.219100
6092.961948,-296.082377,-8882.471304,-76.609550
6092.962260,-370.102971,-8956.491898,0.000000
6092.962571,-518.144159,-8956.491898,0.000000
6092.962883,-518.144159,-9400.615463,153.219100
6092.963194,-592.164754,-9030.512492,-153.219100
6092.963506,-592.164754,-8734.430116,-153.219100
6092.963817,0.000000,-8808.450710,0.000000
6092.964129,-444.123565,-8734.430116,0.000000
6092.964440,-518.144159,-8808.450710,0.000000
6092.964751,-666.185348,-8956.491898,0.000000
6092.965063,-740.205942,-8882.471304,-229.828649
6092.965374,-370.102971,-9400.615463,0.000000
6092.965686,-592.164754,-8956.491898,229.828649
6092.965997,-370.102971,-8660.409521,76.609550
6092.966309,-444.123565,-8512.368333,0.000000
6092.966620,-370.102971,-8882.471304,-229.828649
6092.966932,-666.185348,-9030.512492,0.000000
6092.967243,-666.185348,-9030.512492,0.000000
6092.967555,-814.226536,-8808.450710,0.000000
6092.967866,-592.164754,-8660.409521,459.657299
6092.968178,-740.205942,-8956.491898,229.828649
6092.968489,-518.144159,-9104.533087,0.000000
6092.968801,-518.144159,-8512.368333,-383.047749
6092.969112,-518.144159,-8808.450710,0.000000
6092.969424,-666.185348,-8882.471304,0.000000
6092.969735,-740.205942,-8956.491898,-153.219100
6092.970047,-592.164754,-8808.450710,0.000000
6092.970358,-296.082377,-8956.491898,76.609550
6092.970670,-444.123565,-8734.430116,459.657299
6092.970981,0.000000,-8882.471304,0.000000
6092.971293,-444.123565,-8734.430116,-153.219100
6092.971604,-518.144159,-8882.471304,-229.828649
6092.971916,-740.205942,-9252.574275,0.000000
6092.972227,-592.164754,-9252.574275,0.000000
6092.972539,-222.061783,-9252.574275,0.000000
6092.972850,-148.041188,-8956.491898,306.438199
6092.973162,-592.164754,-9104.533087,-306.438199
6092.973473,-592.164754,-8734.430116,-229.828649
6092.973784,-592.164754,-8956.491898,-153.219100
6092.974096,-518.144159,-9178.553681,0.000000
6092.974407,-444.123565,-9030.512492,-229.828649
6092.974719,-518.144159,-9178.553681,-689.485948
6092.975030,-222.061783,-8660.409521,-153.219100
6092.975342,-148.041188,-8660.409521,0.000000
6092.975653,-814.226536,-9104.533087,-459.657299
6092.975965,-592.164754,-8660.409521,-536.266849
6092.976276,-592.164754,-8734.430116,0.000000
6092.976588,-592.164754,-8956.491898,0.000000
6092.976899,-518.144159,-8956.491898,-153.219100
6092.977211,-518.144159,-9030.512492,76.609550
6092.977522,-444.123565,-9104.533087,229.828649
6092.977834,-370.102971,-9400.615463,0.000000
6092.978145,-1036.288319,-8586.388927,0.000000
6092.978457,-888.247130,-8808.450710,-229.828649
6092.978768,-518.144159,-9178.553681,-383.047749
6092.979080,-518.144159,-9030.512492,-153.219100
6092.979391,-444.123565,-8882.471304,0.000000
6092.979703,-666.185348,-8956.491898,229.828649
6092.980014,-444.123565,-8882.471304,0.000000
6092.980326,-370.102971,-9030.512492,0.000000
6092.980637,-518.144159,-8808.450710,383.047749
6092.980949,-592.164754,-8956.491898,-153.219100
6092.981260,-666.185348,-8882.471304,0.000000
6092.981572,-518.144159,-9030.512492,0.000000
6092.981883,-592.164754,-8956.491898,0.000000
6092.982195,-444.123565,-9178.553681,0.000000
6092.982506,-814.226536,-8956.491898,383.047749
6092.982817,-592.164754,-8808.450710,0.000000
6092.983129,-518.144159,-8956.491898,-612.876398
6092.983440,-444.123565,-9104.533087,0.000000
6092.983752,-370.102971,-9252.574275,0.000000
6092.984063,-444.123565,-9178.553681,0.000000
6092.984375,-592.164754,-9326.594869,0.000000
6092.984686,-296.082377,-8734.430116,-383.047749
6092.984998,-518.144159,-8660.409521,0.000000
6092.985309,-296.082377,-9104.533087,-459.657299
6092.985621,-814.226536,-8660.409521,-229.828649
6092.985932,-592.164754,-8734.430116,0.000000
6092.986244,-592.164754,-9030.512492,-306.438199
6092.986555,-592.164754,-9030.512492,-153.219100
6092.986867,-740.205942,-8808.450710,-459.657299
6092.987178,-518.144159,-8586.388927,0.000000
6092.987490,-444.123565,-8808.450710,-153.219100
6092.987801,-296.082377,-8734.430116,0.000000
6092.988113,-222.061783,-8882.471304,0.000000
6092.988424,-370.102971,-8956.491898,-153.219100
6092.988736,-814.226536,-8808.450710,0.000000
6092.989047,-592.164754,-9104.533087,0.000000
6092.989359,-592.164754,-9178.553681,0.000000
6092.989670,-222.061783,-9030.512492,229.828649
6092.989982,-296.082377,-8882.471304,-612.876398
6092.990293,-518.144159,-8438.347739,-153.219100
6092.990605,-592.164754,-8882.471304,0.000000
6092.990916,-444.123565,-8882.471304,-76.609550
6092.991228,-592.164754,-9252.574275,0.000000
6092.991539,-592.164754,-9104.533087,0.000000
6092.991851,-962.267725,-9030.512492,229.828649
6092.992162,-814.226536,-8734.430116,536.266849
6092.992473,-444.123565,-8512.368333,76.609550
6092.992785,-370.102971,-9030.512492,612.876398
6092.993096,-518.144159,-9474.636058,-383.047749
6092.993408,-592.164754,-9104.533087,0.000000
6092.993719,-518.144159,-9030.512492,0.000000
6092.994031,-370.102971,-8882.471304,-153.219100
6092.994342,-148.041188,-8734.430116,153.219100
6092.994654,-222.061783,-8808.450710,153.219100
6092.994965,-814.226536,-8956.491898,-153.219100
6092.995277,-592.164754,-8734.430116,-229.828649
6092.995588,-814.226536,-8882.471304,-229.828649
6092.995900,-666.185348,-8882.471304,0.000000
6092.996211,-518.144159,-8808.450710,0.000000
6092.996523,-222.061783,-8586.388927,153.219100
6092.996834,-592.164754,-8438.347739,0.000000
6092.997146,-444.123565,-8586.388927,-383.047749
6092.997457,-592.164754,-8956.491898,153.219100
6092.997769,-740.205942,-8956.491898,-153.219100
6092.998080,-740.205942,-8734.430116,-153.219100
6092.998392,-666.185348,-8660.409521,0.000000
6092.998703,-370.102971,-8586.388927,0.000000
6092.999015,-592.164754,-8956.491898,0.000000
6092.999326,-592.164754,-8956.491898,0.000000
6092.999638,-370.102971,-9030.512492,0.000000
6092.999949,-370.102971,-8882.471304,0.000000
6093.000261,-444.123565,-8734.430116,0.000000
6093.000572,-592.164754,-8660.409521,-229.828649
6093.000884,-518.144159,-8882.471304,-306.438199
6093.001195,-518.144159,-9030.512492,0.000000
6093.001506,-370.102971,-8882.471304,76.609550
6093.001818,-370.102971,-9474.636058,0.000000
6093.002129,-1258.350101,-8808.450710,229.828649
6093.002441,-222.061783,-8734.430116,153.219100
6093.002752,-592.164754,-8808.450710,0.000000
6093.003064,-444.123565,-8808.450710,0.000000
6093.003375,-592.164754,-9030.512492,0.000000
6093.003687,-592.164754,-9030.512492,0.000000
6093.003998,-740.205942,-9252.574275,229.828649
6093.004311,-444.123565,-9252.574275,-306.438199
6093.004622,0.000000,-9178.553681,76.609550
6093.004934,-222.061783,-8512.368333,-229.828649
6093.005245,-444.123565,-8660.409521,0.000000
6093.005557,-370.102971,-8808.450710,0.000000
6093.005868,-666.185348,-8956.491898,-153.219100
6093.006180,-814.226536,-9104.533087,-459.657299
6093.006491,-666.185348,-8808.450710,-229.828649
6093.006802,-518.144159,-8586.388927,0.000000
6093.007114,-370.102971,-8660.409521,0.000000
6093.007425,-370.102971,-8290.306550,-229.828649
6093.007737,-518.144159,-8808.450710,0.000000
6093.008048,-592.164754,-8956.491898,0.000000
6093.008359,-666.185348,-9030.512492,0.000000
6093.008671,-814.226536,-8808.450710,0.000000
6093.008982,-666.185348,-8734.430116,153.219100
6093.009294,-296.082377,-9030.512492,-919.314598
6093.009605,-296.082377,-8660.409521,0.000000
6093.009917,-666.185348,-8586.388927,153.219100
6093.010228,-370.102971,-8808.450710,0.000000
6093.010539,-814.226536,-9030.512492,0.000000
6093.010851,-740.205942,-9252.574275,-153.219100
6093.011162,-518.144159,-9252.574275,-153.219100
6093.011474,-666.185348,-8734.430116,612.876398
6093.011785,-222.061783,-8660.409521,-536.266849
6093.012097,-370.102971,-8142.265362,-153.219100
6093.012408,-592.164754,-8808.450710,76.609550
6093.012719,-592.164754,-9178.553681,0.000000
6093.013031,-666.185348,-9326.594869,-383.047749
6093.013342,-592.164754,-9030.512492,-229.828649
6093.013654,-888.247130,-8956.491898,229.828649
6093.013965,0.000000,-8586.388927,-383.047749
6093.014277,-222.061783,-8660.409521,0.000000
6093.014588,-518.144159,-8882.471304,-153.219100
6093.014899,-592.164754,-9474.636058,-153.219100
6093.015211,-740.205942,-9104.533087,0.000000
6093.015522,-518.144159,-8882.471304,0.000000
6093.015834,-444.123565,-8882.471304,-153.219100
6093.016145,-296.082377,-8586.388927,-229.828649
6093.016456,0.000000,-8660.409521,-383.047749
6093.016768,-370.102971,-8512.368333,-383.047749
6093.017079,-444.123565,-9104.533087,-383.047749
6093.017391,-888.247130,-8956.491898,-229.828649
6093.017702,-518.144159,-8956.491898,0.000000
6093.018014,-518.144159,-8586.388927,-153.219100
6093.018325,-518.144159,-8882.471304,0.000000
6093.018636,74.020594,-8808.450710,-229.828649
6093.018948,-518.144159,-8586.388927,153.219100
6093.019259,-666.185348,-9030.512492,-306.438199
6093.019571,-296.082377,-9030.512492,0.000000
6093.019882,-592.164754,-9030.512492,-153.219100
6093.020194,-444.123565,-8956.491898,0.000000
6093.020505,-296.082377,-8956.491898,0.000000
6093.020816,-296.082377,-8808.450710,153.219100
6093.021128,-296.082377,-9474.636058,-229.828649
6093.021439,-444.123565,-9474.636058,1225.752797
6093.021751,-740.205942,-9104.533087,76.609550
6093.022062,-222.061783,-9104.533087,-229.828649
6093.022373,-444.123565,-8660.409521,-306.438199
6093.022685,-592.164754,-8734.430116,0.000000
6093.022996,-370.102971,-8734.430116,0.000000
6093.023308,-444.123565,-9474.636058,-306.438199
6093.023619,-962.267725,-9326.594869,306.438199
6093.023931,-444.123565,-9030.512492,76.609550
6093.024242,-444.123565,-8660.409521,-536.266849
6093.024553,-444.123565,-8808.450710,-383.047749
6093.024865,-518.144159,-8734.430116,0.000000
6093.025176,-518.144159,-9104.533087,-153.219100
6093.025488,-666.185348,-9178.553681,-153.219100
6093.025799,-666.185348,-9104.533087,0.000000
6093.026111,-518.144159,-8808.450710,-306.438199
6093.026422,0.000000,-9104.533087,153.219100
6093.026733,-518.144159,-8586.388927,-229.828649
6093.027045,-518.144159,-8660.409521,-229.828649
6093.027356,-518.144159,-8808.450710,0.000000
6093.027668,-592.164754,-9030.512492,0.000000
6093.027979,-740.205942,-9178.553681,-153.219100
6093.028291,-666.185348,-8808.450710,0.000000
6093.028602,-666.185348,-8586.388927,0.000000
6093.028913,-814.226536,-8364.327145,-153.219100
6093.029225,-592.164754,-8290.306550,0.000000
6093.029536,-370.102971,-8956.491898,-153.219100
6093.029848,-518.144159,-9178.553681,0.000000
6093.030159,-592.164754,-9252.574275,76.609550
6093.030470,-592.164754,-8512.368333,76.609550
6093.030782,-666.185348,-8586.388927,0.000000
6093.031093,-370.102971,-8364.327145,0.000000
6093.031405,-296.082377,-8808.450710,0.000000
6093.031716,-592.164754,-8808.450710,-153.219100
6093.032028,-518.144159,-9030.512492,76.609550
6093.032339,-592.164754,-9178.553681,0.000000
6093.032650,-592.164754,-8956.491898,-153.219100
6093.032962,-370.102971,-9030.512492,229.828649
6093.033273,-370.102971,-8586.388927,-383.047749
6093.033585,-444.123565,-8882.471304,-153.219100
6093.033896,-592.164754,-8734.430116,0.000000
6093.034208,-592.164754,-9104.533087,-229.828649
6093.034519,-592.164754,-9178.553681,0.000000
6093.034830,-518.144159,-9030.512492,0.000000
6093.035142,-518.144159,-8956.491898,0.000000
6093.035453,-222.061783,-8660.409521,-459.657299
6093.035765,-148.041188,-8512.368333,459.657299
6093.036076,0.000000,-9400.615463,153.219100
6093.036388,-370.102971,-8882.471304,0.000000
6093.036699,-592.164754,-8734.430116,0.000000
6093.037010,-518.144159,-8734.430116,0.000000
6093.037322,-370.102971,-8734.430116,0.000000
6093.037633,-370.102971,-8956.491898,-153.219100
6093.037945,-370.102971,-8882.471304,229.828649
6093.038256,-666.185348,-8808.450710,-229.828649
6093.038567,-592.164754,-8364.327145,-229.828649
6093.038879,-370.102971,-9104.533087,0.000000
6093.039190,-666.185348,-8808.450710,0.000000
6093.039502,-518.144159,-9030.512492,0.000000
6093.039813,-444.123565,-8734.430116,0.000000
6093.040125,-444.123565,-8882.471304,0.000000
6093.040436,-592.164754,-8734.430116,383.047749
6093.040747,-148.041188,-9104.533087,-459.657299
6093.041059,-666.185348,-8586.388927,0.000000
6093.041370,-444.123565,-8956.491898,-153.219100
6093.041682,-518.144159,-8956.491898,0.000000
6093.041993,-518.144159,-8808.450710,-153.219100
6093.042305,-518.144159,-8882.471304,-153.219100
6093.042616,-666.185348,-8882.471304,-229.828649
6093.042927,-592.164754,-8586.388927,153.219100
6093.043239,-592.164754,-8956.491898,383.047749
6093.043550,-296.082377,-8660.409521,-229.828649
6093.043862,-444.123565,-8734.430116,0.000000
6093.044173,-296.082377,-8956.491898,0.000000
6093.044484,-666.185348,-8882.471304,-153.219100
6093.044796,-370.102971,-9030.512492,0.000000
6093.045107,-518.144159,-8882.471304,459.657299
6093.045419,-592.164754,-9030.512492,0.000000
6093.045730,-592.164754,-8808.450710,-229.828649
6093.046042,-666.185348,-8512.368333,0.000000
6093.046353,-518.144159,-8808.450710,0.000000
6093.046664,-518.144159,-8882.471304,153.219100
6093.046976,-370.102971,-8734.430116,-306.438199
6093.047287,-518.144159,-8956.491898,-153.219100
6093.047599,-592.164754,-8586.388927,229.828649
6093.047910,0.000000,-9252.574275,-153.219100
6093.048222,-592.164754,-8586.388927,229.828649
6093.048533,-740.205942,-8734.430116,-306.438199
6093.048844,-518.144159,-8660.409521,0.000000
6093.049156,-592.164754,-8882.471304,0.000000
6093.049467,-666.185348,-8808.450710,0.000000
6093.049779,-592.164754,-8956.491898,0.000000
6093.050090,0.000000,-9030.512492,0.000000
6093.050402,-666.185348,-9030.512492,766.095498
6093.050713,-518.144159,-8512.368333,383.047749
6093.051024,-370.102971,-8882.471304,0.000000
6093.051336,-296.082377,-8586.388927,0.000000
6093.051647,-592.164754,-8882.471304,0.000000
6093.051959,-592.164754,-9178.553681,0.000000
6093.052270,-518.144159,-9104.533087,229.828649
6093.052581,-518.144159,-9030.512492,-383.047749
6093.052893,-888.247130,-8808.450710,153.219100
6093.053204,-222.061783,-8586.388927,0.000000
6093.053516,-444.123565,-8882.471304,0.000000
6093.053827,-518.144159,-9030.512492,-153.219100
6093.054139,-592.164754,-9178.553681,-153.219100
6093.054450,-444.123565,-9030.512492,0.000000
6093.054761,-518.144159,-8808.450710,-153.219100
6093.055073,0.000000,-8956.491898,0.000000
6093.055384,-740.205942,-9030.512492,0.000000
6093.055696,-296.082377,-8956.491898,76.609550
6093.056007,-296.082377,-9030.512492,0.000000
6093.056319,-592.164754,-9030.512492,-153.219100
6093.056630,-518.144159,-9178.553681,-76.609550
6093.056941,-666.185348,-8882.471304,-383.047749
6093.057253,-222.061783,-8660.409521,0.000000
6093.057564,-444.123565,-8956.491898,383.047749
6093.057876,-518.144159,-8660.409521,-306.438199
6093.058187,-222.061783,-8882.471304,-153.219100
6093.058499,-518.144159,-8882.471304,-306.438199
6093.058810,-666.185348,-8808.450710,-153.219100
6093.059121,-518.144159,-8956.491898,0.000000
6093.059433,-666.185348,-9030.512492,0.000000
6093.059744,-444.123565,-8956.491898,-153.219100
6093.060056,0.000000,-8882.471304,-76.609550
6093.060367,-296.082377,-8734.430116,459.657299
6093.060678,-296.082377,-8734.430116,0.000000
6093.060990,-444.123565,-9104.533087,0.000000
6093.061301,-518.144159,-9178.553681,-153.219100
6093.061613,-740.205942,-9104.533087,-306.438199
6093.061924,-444.123565,-8882.471304,229.828649
6093.062236,-592.164754,-8734.430116,229.828649
6093.062547,-444.123565,-8216.285956,153.219100
6093.062858,-888.247130,-8734.430116,0.000000
6093.063170,-370.102971,-9252.574275,-229.828649
6093.063481,-592.164754,-9104.533087,-229.828649
6093.063793,-444.123565,-9104.533087,0.000000
6093.064104,-296.082377,-8956.491898,-229.828649
6093.064416,-296.082377,-8586.388927,153.219100
6093.064727,-592.164754,-8438.347739,383.047749
6093.065038,-666.185348,-8956.491898,459.657299
6093.065350,-444.123565,-9030.512492,76.609550
6093.065661,-444.123565,-9252.574275,-229.828649
6093.065973,-592.164754,-9104.533087,0.000000
6093.066284,-518.144159,-8660.409521,0.000000
6093.066595,-296.082377,-8956.491898,-306.438199
6093.066907,-296.082377,-8734.430116,229.828649
6093.067218,-592.164754,-8956.491898,0.000000
6093.067530,-962.267725,-9104.533087,76.609550
6093.067841,-592.164754,-8734.430116,-459.657299
6093.068153,-666.185348,-8734.430116,-229.828649
6093.068464,-444.123565,-8512.368333,-229.828649
6093.068775,-444.123565,-8512.368333,-153.219100
6093.069087,-444.123565,-8808.450710,76.609550
6093.069398,-592.164754,-9030.512492,0.000000
6093.069710,-222.061783,-9252.574275,-153.219100
6093.070021,-444.123565,-9178.553681,76.609550
6093.070333,-814.226536,-8586.388927,-153.219100
6093.070644,-444.123565,-8586.388927,0.000000
6093.070955,-222.061783,-8808.450710,76.609550
6093.071267,-444.123565,-8882.471304,229.828649
6093.071578,-444.123565,-9178.553681,306.438199
6093.071890,-370.102971,-9252.574275,0.000000
6093.072201,-666.185348,-9030.512492,612.876398
6093.072513,-370.102971,-8512.368333,-612.876398
6093.072824,-296.082377,-8586.388927,0.000000
6093.073135,-370.102971,-8734.430116,-153.219100
6093.073447,-444.123565,-8956.491898,0.000000
6093.073758,-592.164754,-9178.553681,0.000000
6093.074070,-518.144159,-9030.512492,536.266849
6093.074381,-666.185348,-8956.491898,0.000000
6093.074692,-888.247130,-8586.388927,0.000000
6093.075004,-444.123565,-8216.285956,-153.219100
6093.075315,-444.123565,-8882.471304,-306.438199
6093.075627,-370.102971,-9252.574275,-229.828649
6093.075938,-666.185348,-9252.574275,0.000000
6093.076250,-592.164754,-9252.574275,-153.219100
6093.076561,-592.164754,-8660.409521,0.000000
6093.076872,-444.123565,-8364.327145,0.000000
6093.077184,-296.082377,-8586.388927,-383.047749
6093.077495,-222.061783,-8734.430116,0.000000
6093.077807,-370.102971,-8956.491898,0.000000
6093.078118,-592.164754,-8956.491898,0.000000
6093.078430,-592.164754,-9178.553681,0.000000
6093.078741,-740.205942,-8956.491898,-153.219100
6093.079052,-518.144159,-8660.409521,0.000000
6093.079364,-444.123565,-8438.347739,0.000000
6093.079675,0.000000,-8808.450710,229.828649
6093.079987,-814.226536,-8808.450710,-153.219100
6093.080298,-592.164754,-8808.450710,-153.219100
6093.080610,-518.144159,-9030.512492,0.000000
6093.080921,-740.205942,-9104.533087,0.000000
6093.081232,-518.144159,-9030.512492,-153.219100
6093.081544,0.000000,-9030.512492,-459.657299
6093.081855,-444.123565,-8216.285956,0.000000
6093.082167,0.000000,-9400.615463,153.219100
6093.082478,-592.164754,-8734.430116,0.000000
6093.082789,-666.185348,-9030.512492,0.000000
6093.083101,-666.185348,-9178.553681,153.219100
6093.083412,-518.144159,-9104.533087,-76.609550
6093.083724,-444.123565,-8956.491898,76.609550
6093.084035,-296.082377,-8808.450710,153.219100
6093.084347,-296.082377,-8586.388927,0.000000
6093.084658,-444.123565,-8956.491898,-383.047749
6093.084969,-222.061783,-8956.491898,0.000000
6093.085281,-592.164754,-9104.533087,0.000000
6093.085592,-592.164754,-9252.574275,0.000000
6093.085904,-370.102971,-9030.512492,-306.438199
6093.086215,-592.164754,-8734.430116,0.000000
6093.086527,-222.061783,-8734.430116,229.828649
6093.086838,74.020594,-9474.636058,0.000000
6093.087149,-444.123565,-8882.471304,0.000000
6093.087461,-666.185348,-8956.491898,-612.876398
6093.087772,-740.205942,-9030.512492,-229.828649
6093.088084,-518.144159,-9030.512492,-229.828649
6093.088395,-518.144159,-8808.450710,0.000000
6093.088706,-518.144159,-8734.430116,0.000000
6093.089018,-592.164754,-8808.450710,0.000000
6093.089329,-592.164754,-8438.347739,-306.438199
6093.089641,-370.102971,-8956.491898,0.000000
6093.089952,-592.164754,-9104.533087,0.000000
6093.090264,-518.144159,-9030.512492,0.000000
6093.090575,-370.102971,-8882.471304,0.000000
6093.090886,-444.123565,-8808.450710,0.000000
6093.091198,0.000000,-9030.512492,536.266849
6093.091509,-518.144159,-9252.574275,306.438199
6093.091821,-666.185348,-8808.450710,-383.047749
6093.092132,-444.123565,-8956.491898,0.000000
6093.092444,-592.164754,-8956.491898,0.000000
6093.092755,-518.144159,-8808.450710,0.000000
6093.093066,-370.102971,-8808.450710,76.609550
6093.093378,-370.102971,-8882.471304,0.000000
6093.093689,-592.164754,-8586.388927,229.828649
6093.094001,-444.123565,-9252.574275,76.609550
6093.094312,-740.205942,-8660.409521,0.000000
6093.094624,-444.123565,-9030.512492,-306.438199
6093.094935,-518.144159,-8808.450710,-383.047749
6093.095246,-370.102971,-8808.450710,0.000000
6093.095558,-518.144159,-8660.409521,0.000000
6093.095869,-444.123565,-8734.430116,-153.219100
6093.096181,-444.123565,-9252.574275,-153.219100
6093.096492,-1184.329507,-8956.491898,459.657299
6093.096803,-518.144159,-8882.471304,76.609550
6093.097115,-370.102971,-8808.450710,0.000000
6093.097426,-370.102971,-8734.430116,0.000000
6093.097738,-666.185348,-8734.430116,76.609550
6093.098049,-740.205942,-8808.450710,0.000000
6093.098361,-814.226536,-8808.450710,0.000000
6093.098672,-740.205942,-8734.430116,-383.047749
6093.098983,-518.144159,-8808.450710,-153.219100
6093.099295,0.000000,-8734.430116,153.219100
6093.099606,-296.082377,-8808.450710,0.000000
6093.099918,-518.144159,-8882.471304,0.000000
6093.100229,-592.164754,-8956.491898,0.000000
6093.100541,-740.205942,-9030.512492,0.000000
6093.100852,-370.102971,-8660.409521,0.000000
6093.101163,-370.102971,-8660.409521,229.828649
6093.101475,-370.102971,-8438.347739,229.828649
6093.101786,-222.061783,-8808.450710,0.000000
6093.102098,-296.082377,-8808.450710,0.000000
6093.102409,-740.205942,-9104.533087,0.000000
6093.102721,-666.185348,-9030.512492,-306.438199
6093.103032,-518.144159,-9104.533087,-229.828649
6093.103343,-370.102971,-8364.327145,153.219100
6093.103655,-296.082377,-8586.388927,383.047749
6093.103966,-444.123565,-8956.491898,-383.047749
6093.104278,-296.082377,-8956.491898,0.000000
6093.104589,-666.185348,-9252.574275,-229.828649
6093.104900,-592.164754,-9104.533087,-306.438199
6093.105212,-666.185348,-8882.471304,0.000000
6093.105523,-296.082377,-8438.347739,-153.219100
6093.105835,0.000000,-8956.491898,0.000000
6093.106146,74.020594,-9252.574275,0.000000
6093.106458,-370.102971,-9252.574275,-536.266849
6093.106769,-444.123565,-8956.491898,-153.219100
6093.107080,-888.247130,-9178.553681,-383.047749
6093.107392,-592.164754,-9104.533087,-383.047749
6093.107703,-518.144159,-8808.450710,-306.438199
6093.108015,-370.102971,-8734.430116,0.000000
6093.108326,-296.082377,-9326.594869,-229.828649
6093.108637,-296.082377,-8808.450710,459.657299
6093.108949,-592.164754,-9030.512492,76.609550
6093.109260,-888.247130,-8956.491898,-536.266849
6093.109572,-518.144159,-9030.512492,0.000000
6093.109883,-444.123565,-8882.471304,0.000000
6093.110194,-444.123565,-8660.409521,0.000000
6093.110506,-296.082377,-8734.430116,76.609550
6093.110817,-296.082377,-8660.409521,76.609550
6093.111129,-740.205942,-8808.450710,0.000000
6093.111440,-666.185348,-9178.553681,0.000000
6093.111752,-888.247130,-8882.471304,-229.828649
6093.112063,-518.144159,-8956.491898,-306.438199
6093.112374,-296.082377,-8734.430116,76.609550
6093.112686,-444.123565,-8808.450710,0.000000
6093.112997,-518.144159,-8734.430116,153.219100
6093.113309,-148.041188,-9326.594869,229.828649
6093.113620,-814.226536,-9104.533087,459.657299
6093.113931,-740.205942,-8808.450710,0.000000
6093.114243,-592.164754,-8734.430116,0.000000
6093.114554,-444.123565,-8734.430116,0.000000
6093.114866,-444.123565,-9030.512492,0.000000
6093.115177,-592.164754,-9030.512492,0.000000
6093.115489,0.000000,-8956.491898,0.000000
6093.115800,-296.082377,-9030.512492,0.000000
6093.116111,-592.164754,-8882.471304,-459.657299
6093.116423,-592.164754,-8512.368333,153.219100
6093.116734,-444.123565,-8808.450710,0.000000
6093.117046,-444.123565,-9030.512492,0.000000
6093.117357,-444.123565,-9252.574275,0.000000
6093.117668,-740.205942,-8660.409521,-459.657299
6093.117980,-666.185348,-9030.512492,-383.047749
6093.118291,-370.102971,-8660.409521,0.000000
6093.118603,-666.185348,-8216.285956,0.000000
6093.118914,0.000000,-9030.512492,76.609550
6093.119226,-444.123565,-9178.553681,0.000000
6093.119537,-666.185348,-9326.594869,153.219100
6093.119848,-666.185348,-9030.512492,0.000000
6093.120160,-518.144159,-8734.430116,0.000000
6093.120471,-444.123565,-8364.327145,-153.219100
6093.120783,-444.123565,-8734.430116,0.000000
6093.121094,-592.164754,-9030.512492,-383.047749
6093.121405,-148.041188,-8882.471304,229.828649
6093.121717,-444.123565,-9178.553681,0.000000
6093.122028,-666.185348,-8956.491898,76.609550
6093.122340,-740.205942,-9030.512492,0.000000
6093.122651,-592.164754,-8586.388927,0.000000
6093.122963,-222.061783,-9104.533087,0.000000
6093.123274,0.000000,-8882.471304,306.438199
6093.123585,-740.205942,-8808.450710,383.047749
6093.123897,-296.082377,-9178.553681,153.219100
6093.124208,-444.123565,-9326.594869,0.000000
6093.124520,-444.123565,-9104.533087,-229.828649
6093.124831,-592.164754,-8882.471304,-229.828649
6093.125142,-444.123565,-8660.409521,0.000000
6093.125454,-148.041188,-8586.388927,-153.219100
6093.125765,0.000000,-8512.368333,-229.828649
6093.126077,-370.102971,-8956.491898,0.000000
6093.126388,-666.185348,-9104.533087,0.000000
6093.126700,-518.144159,-8956.491898,-383.047749
6093.127011,-592.164754,-8734.430116,-229.828649
6093.127322,-296.082377,-8882.471304,0.000000
6093.127634,-666.185348,-8882.471304,0.000000
6093.127945,-222.061783,-9104.533087,-689.485948
6093.128257,-518.144159,-8808.450710,229.828649
6093.128568,-740.205942,-8956.491898,-459.657299
6093.128879,-518.144159,-9030.512492,-306.438199
6093.129191,-518.144159,-8882.471304,-229.828649
6093.129502,-370.102971,-8956.491898,-153.219100
6093.129814,-518.144159,-9104.533087,-306.438199
6093.130125,-296.082377,-9178.553681,153.219100
6093.130437,-518.144159,-8660.409521,-229.828649
6093.130748,-296.082377,-8956.491898,0.000000
6093.131059,-740.205942,-9030.512492,76.609550
6093.131371,-592.164754,-8808.450710,-229.828649
6093.131682,-666.185348,-8882.471304,0.000000
6093.131994,-444.123565,-8734.430116,0.000000
6093.132305,-518.144159,-8882.471304,612.876398
6093.132616,-370.102971,-8734.430116,-306.438199
6093.132928,-222.061783,-8882.471304,306.438199
6093.133239,-296.082377,-8734.430116,0.000000
6093.133551,-296.082377,-8734.430116,0.000000
6093.133862,-740.205942,-8882.471304,0.000000
6093.134174,-666.185348,-9178.553681,0.000000
6093.134485,-518.144159,-9030.512492,0.000000
6093.134796,-740.205942,-8512.368333,76.609550
6093.135108,-592.164754,-8438.347739,76.609550
6093.135419,-296.082377,-8142.265362,0.000000
6093.135731,-148.041188,-9104.533087,0.000000
6093.136042,-518.144159,-9178.553681,-229.828649
6093.136353,-592.164754,-9104.533087,0.000000
6093.136665,-740.205942,-9030.512492,0.000000
6093.136976,-518.144159,-8956.491898,-229.828649
6093.137288,-444.123565,-8438.347739,-383.047749
6093.137599,-222.061783,-8882.471304,-536.266849
6093.137910,-296.082377,-8438.347739,-153.219100
6093.138222,-518.144159,-9104.533087,0.000000
6093.138533,-592.164754,-9178.553681,0.000000
6093.138845,-518.144159,-9178.553681,-153.219100
6093.139156,-518.144159,-9030.512492,0.000000
6093.139468,-444.123565,-8808.450710,0.000000
6093.139779,-666.185348,-8734.430116,-459.657299
6093.140090,-370.102971,-8734.430116,0.000000
6093.140402,-222.061783,-8808.450710,0.000000
6093.140713,-444.123565,-9104.533087,76.609550
6093.141025,-592.164754,-9104.533087,0.000000
6093.141336,-592.164754,-9104.533087,0.000000
6093.141647,-370.102971,-8956.491898,-306.438199
6093.141959,-444.123565,-8364.327145,-153.219100
6093.142270,-296.082377,-8660.409521,229.828649
6093.142582,-740.205942,-8808.450710,306.438199
6093.142893,-740.205942,-8956.491898,76.609550
6093.143205,-592.164754,-9178.553681,-229.828649
6093.143516,-592.164754,-9252.574275,0.000000
6093.143827,-518.144159,-9030.512492,-229.828649
6093.144139,-518.144159,-8660.409521,0.000000
6093.144450,-666.185348,-8512.368333,76.609550
6093.144762,-296.082377,-8882.471304,-153.219100
6093.145073,-592.164754,-8586.388927,-306.438199
6093.145384,-222.061783,-9104.533087,-306.438199
6093.145696,-814.226536,-8808.450710,0.000000
6093.146007,-666.185348,-8734.430116,0.000000
6093.146319,-592.164754,-8734.430116,76.609550
6093.146630,-370.102971,-8808.450710,0.000000
6093.146942,-296.082377,-9104.533087,76.609550
6093.147253,-592.164754,-9178.553681,-919.314598
6093.147564,-666.185348,-8808.450710,0.000000
6093.147876,-518.144159,-8882.471304,0.000000
6093.148187,-444.123565,-9030.512492,-229.828649
6093.148499,-592.164754,-8882.471304,-153.219100
6093.148810,-518.144159,-8882.471304,0.000000
6093.149121,-666.185348,-8808.450710,0.000000
6093.149433,-296.082377,-9030.512492,0.000000
6093.149744,-296.082377,-8956.491898,-306.438199
6093.150056,-222.061783,-8734.430116,0.000000
6093.150367,-370.102971,-8660.409521,0.000000
6093.150679,-592.164754,-8808.450710,0.000000
6093.150990,-444.123565,-9178.553681,-229.828649
6093.151301,-296.082377,-9104.533087,-153.219100
6093.151613,-296.082377,-8808.450710,153.219100
6093.151924,-444.123565,-8956.491898,229.828649
6093.152236,-370.102971,-8586.388927,306.438199
6093.152547,-370.102971,-8808.450710,0.000000
6093.152858,-518.144159,-8808.450710,-383.047749
6093.153170,-444.123565,-9104.533087,0.000000
6093.153481,-740.205942,-9104.533087,0.000000
6093.153793,-592.164754,-9104.533087,0.000000
6093.154104,-518.144159,-8808.450710,76.609550
6093.154416,0.000000,-8734.430116,0.000000
6093.154727,-370.102971,-8512.368333,0.000000
6093.155038,-518.144159,-9030.512492,0.000000
6093.155350,-666.185348,-9030.512492,0.000000
6093.155661,-592.164754,-9104.533087,0.000000
6093.155973,-592.164754,-8956.491898,0.000000
6093.156284,-518.144159,-8956.491898,-229.828649
6093.156595,-370.102971,-8586.388927,0.000000
6093.156907,-148.041188,-8660.409521,0.000000
6093.157218,-814.226536,-8734.430116,-383.047749
6093.157530,-518.144159,-8734.430116,-383.047749
6093.157841,-666.185348,-9104.533087,-153.219100
6093.158153,-592.164754,-9400.615463,-229.828649
6093.158464,-592.164754,-9030.512492,0.000000
6093.158775,-296.082377,-8734.430116,0.000000
6093.159087,0.000000,-8734.430116,-306.438199
6093.159398,-296.082377,-8660.409521,0.000000
6093.159710,-518.144159,-8956.491898,306.438199
6093.160021,-592.164754,-9104.533087,0.000000
6093.160332,-592.164754,-9400.615463,-153.219100
6093.160644,-518.144159,-9104.533087,76.609550
6093.160955,-518.144159,-8808.450710,0.000000
6093.161267,-518.144159,-8512.368333,153.219100
6093.161578,-296.082377,-8290.306550,0.000000
6093.161889,0.000000,-9252.574275,0.000000
6093.162201,-592.164754,-9030.512492,-612.876398
6093.162512,-666.185348,-9104.533087,0.000000
6093.162824,-666.185348,-9252.574275,0.000000
6093.163135,-444.123565,-8734.430116,-229.828649
6093.163447,-444.123565,-8438.347739,153.219100
6093.163758,-370.102971,-8586.388927,0.000000
6093.164069,-592.164754,-8438.347739,0.000000
6093.164381,-74.020594,-9622.677246,0.000000
6093.164692,-814.226536,-8956.491898,-229.828649
6093.165004,-518.144159,-9104.533087,0.000000
6093.165315,-296.082377,-9030.512492,0.000000
6093.165626,-370.102971,-8808.450710,0.000000
6093.165938,-518.144159,-8882.471304,-229.828649
6093.166249,-444.123565,-8660.409521,0.000000
6093.166561,-518.144159,-9030.512492,-459.657299
6093.166872,-592.164754,-8956.491898,-306.438199
6093.167184,-592.164754,-8808.450710,-229.828649
6093.167495,-370.102971,-8956.491898,0.000000
6093.167806,-370.102971,-8660.409521,0.000000
6093.168118,-370.102971,-9030.512492,-306.438199
6093.168429,-592.164754,-9104.533087,0.000000
6093.168741,-296.082377,-8882.471304,0.000000
6093.169052,-518.144159,-8660.409521,-153.219100
6093.169363,-370.102971,-8808.450710,76.609550
6093.169675,-370.102971,-8808.450710,0.000000
6093.169986,-444.123565,-8882.471304,-153.219100
6093.170298,-370.102971,-9104.533087,0.000000
6093.170609,-592.164754,-8956.491898,0.000000
6093.170921,-666.185348,-8660.409521,-153.219100
6093.171232,-666.185348,-8734.430116,153.219100
6093.171543,-888.247130,-8512.368333,0.000000
6093.171855,0.000000,-9104.533087,0.000000
6093.172166,0.000000,-9030.512492,0.000000
6093.172478,-296.082377,-8956.491898,0.000000
6093.172789,-592.164754,-8956.491898,-229.828649
6093.173100,-666.185348,-8956.491898,0.000000
6093.173412,-592.164754,-8956.491898,459.657299
6093.173723,-592.164754,-8586.388927,-536.266849
6093.174035,-444.123565,-8290.306550,-229.828649
6093.174346,-444.123565,-8882.471304,536.266849
6093.174658,-370.102971,-9030.512492,0.000000
6093.174969,-592.164754,-9252.574275,0.000000
6093.175280,-444.123565,-9178.553681,-153.219100
6093.175592,-444.123565,-9030.512492,-153.219100
6093.175903,-444.123565,-8512.368333,229.828649
6093.176215,-370.102971,-8512.368333,-306.438199
6093.176526,-222.061783,-8512.368333,0.000000
6093.176837,-666.185348,-8216.285956,0.000000
6093.177149,-592.164754,-8734.430116,0.000000
6093.177460,-740.205942,-8956.491898,-229.828649
6093.177772,-666.185348,-8882.471304,0.000000
6093.178083,-518.144159,-8882.471304,0.000000
6093.178395,-592.164754,-8290.306550,-306.438199
6093.178706,-518.144159,-8734.430116,306.438199
6093.179017,-296.082377,-8882.471304,-383.047749
6093.179329,-592.164754,-9104.533087,229.828649
6093.179640,-740.205942,-9030.512492,0.000000
6093.179952,-444.123565,-8956.491898,-153.219100
6093.180263,-592.164754,-8808.450710,0.000000
6093.180574,-370.102971,-8512.368333,76.609550
6093.180886,-518.144159,-9104.533087,306.438199
6093.181197,-296.082377,-9030.512492,-919.314598
6093.181509,-592.164754,-8734.430116,76.609550
6093.181820,-518.144159,-9252.574275,0.000000
6093.182132,-592.164754,-8808.450710,0.000000
6093.182443,-518.144159,-8882.471304,0.000000
6093.182754,-444.123565,-8734.430116,0.000000
6093.183066,-444.123565,-8882.471304,153.219100
6093.183377,-666.185348,-9178.553681,-153.219100
6093.183689,-222.061783,-9178.553681,459.657299
6093.184000,-592.164754,-8956.491898,-229.828649
6093.184311,-296.082377,-9252.574275,-383.047749
6093.184623,-518.144159,-8586.388927,-306.438199
6093.184934,-444.123565,-8882.471304,-229.828649
6093.185246,-444.123565,-8956.491898,-153.219100
6093.185557,-592.164754,-8956.491898,0.000000
6093.185869,-518.144159,-8956.491898,0.000000
6093.186180,-592.164754,-8956.491898,459.657299
6093.186491,-444.123565,-8882.471304,-306.438199
6093.186803,-370.102971,-8734.430116,0.000000
6093.187114,-592.164754,-8512.368333,-76.609550
6093.187426,-370.102971,-8956.491898,-306.438199
6093.187737,-518.144159,-8956.491898,0.000000
6093.188048,-740.205942,-8956.491898,-536.266849
6093.188360,-370.102971,-9030.512492,-306.438199
6093.188671,-222.061783,-8956.491898,-229.828649
6093.188983,-296.082377,-8438.347739,0.000000
6093.189294,-296.082377,-8734.430116,0.000000
6093.189605,-444.123565,-8660.409521,153.219100
6093.189917,-518.144159,-9030.512492,0.000000
6093.190228,-814.226536,-9104.533087,0.000000
6093.190540,-444.123565,-8956.491898,-229.828649
6093.190851,-370.102971,-9400.615463,-229.828649
6093.191163,-888.247130,-8586.388927,0.000000
6093.191474,0.000000,-8734.430116,0.000000
6093.191785,-444.123565,-8882.471304,0.000000
6093.192097,-444.123565,-9104.533087,0.000000
6093.192408,-666.185348,-9178.553681,0.000000
6093.192720,-962.267725,-8734.430116,76.609550
6093.193031,-592.164754,-8882.471304,-536.266849
6093.193342,-666.185348,-8734.430116,-306.438199
6093.193654,-444.123565,-8364.327145,459.657299
6093.193965,-592.164754,-8512.368333,0.000000
6093.194277,-666.185348,-9030.512492,0.000000
6093.194588,-740.205942,-9252.574275,-229.828649
6093.194900,-888.247130,-9178.553681,0.000000
6093.195211,-666.185348,-8882.471304,0.000000
6093.195522,-370.102971,-8290.306550,-229.828649
6093.195834,-518.144159,-8364.327145,-383.047749
6093.196145,0.000000,-8660.409521,0.000000
6093.196457,-370.102971,-8956.491898,0.000000
6093.196768,-592.164754,-9030.512492,0.000000
6093.197079,-814.226536,-9104.533087,-229.828649
6093.197391,-592.164754,-8956.491898,-153.219100
6093.197702,-666.185348,-8068.244768,-229.828649
6093.198014,0.000000,-8660.409521,0.000000
6093.198325,-962.267725,-8808.450710,-306.438199
6093.198637,-518.144159,-8808.450710,0.000000
6093.198948,-666.185348,-9104.533087,0.000000
6093.199259,-740.205942,-9252.574275,0.000000
6093.199571,-518.144159,-9252.574275,0.000000
6093.199882,-444.123565,-8882.471304,0.000000
6093.200194,0.000000,-8586.388927,-459.657299
6093.200505,-222.061783,-8586.388927,0.000000
6093.200816,-444.123565,-8956.491898,0.000000
6093.201128,-962.267725,-9178.553681,76.609550
6093.201439,-592.164754,-9400.615463,76.609550
6093.201751,-740.205942,-9030.512492,0.000000
6093.202062,-370.102971,-8808.450710,0.000000
6093.202374,-296.082377,-8586.388927,76.609550
6093.202685,-518.144159,-8438.347739,0.000000
6093.202996,-370.102971,-8808.450710,0.000000
6093.203308,-592.164754,-9030.512492,0.000000
6093.203619,-592.164754,-9104.533087,0.000000
6093.203931,-592.164754,-9178.553681,-229.828649
6093.204242,-592.164754,-8956.491898,76.609550
6093.204554,-296.082377,-8882.471304,0.000000
6093.204865,0.000000,-8586.388927,0.000000
6093.205176,-814.226536,-8956.491898,0.000000
6093.205488,-592.164754,-8956.491898,76.609550
6093.205799,-370.102971,-9326.594869,76.609550
6093.206111,-666.185348,-9030.512492,0.000000
6093.206422,-444.123565,-8660.409521,-229.828649
6093.206734,-222.061783,-8660.409521,0.000000
6093.207045,-222.061783,-8882.471304,0.000000
6093.207357,0.000000,-9252.574275,229.828649
6093.207668,-740.205942,-8808.450710,-229.828649
6093.207980,-888.247130,-8956.491898,-229.828649
6093.208291,-518.144159,-8882.471304,0.000000
6093.208602,-518.144159,-8734.430116,0.000000
6093.208914,-370.102971,-8882.471304,-153.219100
6093.209225,-370.102971,-8882.471304,76.609550
6093.209537,-666.185348,-9030.512492,0.000000
6093.209848,-518.144159,-9178.553681,76.609550
6093.210160,-370.102971,-9548.656652,0.000000
6093.210471,-666.185348,-8956.491898,153.219100
6093.210783,0.000000,-8660.409521,-229.828649
6093.211094,-296.082377,-8660.409521,-229.828649
6093.211405,-370.102971,-8956.491898,0.000000
6093.211717,-518.144159,-8882.471304,0.000000
6093.212028,-814.226536,-8956.491898,0.000000
6093.212340,-740.205942,-8808.450710,0.000000
6093.212651,-518.144159,-9104.533087,-536.266849
6093.212963,-370.102971,-8512.368333,0.000000
6093.213274,-148.041188,-8660.409521,0.000000
6093.213586,-444.123565,-8882.471304,76.609550
6093.213897,-740.205942,-9030.512492,-153.219100
6093.214209,-592.164754,-9326.594869,-153.219100
6093.214520,-518.144159,-9326.594869,-536.266849
6093.214831,-1110.308913,-8660.409521,383.047749
6093.215143,-740.205942,-8290.306550,-153.219100
6093.215454,0.000000,-8660.409521,0.000000
6093.215766,-444.123565,-8734.430116,76.609550
6093.216077,-592.164754,-9104.533087,0.000000
6093.216389,-666.185348,-9178.553681,0.000000
6093.216700,-814.226536,-9104.533087,0.000000
6093.217012,-444.123565,-9030.512492,-153.219100
6093.217323,-296.082377,-8586.388927,-306.438199
6093.217634,-370.102971,-7846.182985,0.000000
6093.217946,-666.185348,-8660.409521,153.219100
6093.218257,-592.164754,-8956.491898,-153.219100
6093.218569,-814.226536,-9030.512492,0.000000
6093.218880,-740.205942,-9104.533087,-153.219100
6093.219192,-370.102971,-8956.491898,-459.657299
6093.219503,-222.061783,-8734.430116,229.828649
6093.219815,0.000000,-8734.430116,153.219100
6093.220126,-296.082377,-8882.471304,-229.828649
6093.220438,-518.144159,-8734.430116,229.828649
6093.220749,-592.164754,-9030.512492,0.000000
6093.221060,-518.144159,-9252.574275,0.000000
6093.221372,-370.102971,-8882.471304,0.000000
6093.221683,-592.164754,-8808.450710,0.000000
6093.221995,-444.123565,-8808.450710,153.219100
6093.222306,-518.144159,-8956.491898,-612.876398
6093.222618,-222.061783,-9030.512492,-153.219100
6093.222929,-814.226536,-9030.512492,0.000000
6093.223241,-592.164754,-8956.491898,0.000000
6093.223552,-444.123565,-8882.471304,-153.219100
6093.223863,-444.123565,-8882.471304,0.000000
6093.224175,-296.082377,-9178.553681,0.000000
6093.224486,-740.205942,-8956.491898,229.828649
6093.224798,-666.185348,-9252.574275,-229.828649
6093.225109,-888.247130,-9104.533087,0.000000
6093.225421,-592.164754,-8956.491898,-229.828649
6093.225732,-592.164754,-8956.491898,-229.828649
6093.226044,-296.082377,-8956.491898,0.000000
6093.226355,-370.102971,-8956.491898,0.000000
6093.226667,-592.164754,-8734.430116,612.876398
6093.226978,-592.164754,-8808.450710,383.047749
6093.227289,-370.102971,-9030.512492,-229.828649
6093.227601,-592.164754,-8808.450710,306.438199
6093.227912,-592.164754,-8882.471304,0.000000
6093.228224,-370.102971,-8956.491898,0.000000
6093.228535,-296.082377,-8808.450710,0.000000
6093.228847,-592.164754,-8882.471304,0.000000
6093.229158,-962.267725,-8882.471304,-153.219100
6093.229470,-740.205942,-8734.430116,-612.876398
6093.229781,-444.123565,-8808.450710,-229.828649
6093.230092,-444.123565,-8808.450710,-383.047749
6093.230404,-444.123565,-8660.409521,0.000000
6093.230715,-296.082377,-8734.430116,-229.828649
6093.231027,-444.123565,-8882.471304,0.000000
6093.231338,-740.205942,-8956.491898,0.000000
6093.231650,-592.164754,-9178.553681,0.000000
6093.231961,-296.082377,-9104.533087,459.657299
6093.232273,-740.205942,-8882.471304,0.000000
6093.232584,-592.164754,-8512.368333,0.000000
6093.232896,-222.061783,-8882.471304,0.000000
6093.233207,-370.102971,-8734.430116,0.000000
6093.233518,-444.123565,-9178.553681,-229.828649
6093.233830,-592.164754,-9178.553681,0.000000
6093.234141,-814.226536,-8734.430116,0.000000
6093.234453,-592.164754,-9030.512492,-229.828649
6093.234764,-222.061783,-8660.409521,0.000000
6093.235076,-222.061783,-8734.430116,0.000000
6093.235387,-370.102971,-8734.430116,0.000000
6093.235699,-518.144159,-9030.512492,0.000000
6093.236010,-666.185348,-9252.574275,-306.438199
6093.236321,-592.164754,-9030.512492,-383.047749
6093.236633,-518.144159,-9030.512492,0.000000
6093.236944,-666.185348,-8660.409521,459.657299
6093.237256,-370.102971,-8586.388927,0.000000
6093.237567,-518.144159,-8660.409521,0.000000
6093.237879,-518.144159,-8956.491898,0.000000
6093.238190,-962.267725,-9104.533087,0.000000
6093.238502,-592.164754,-9178.553681,0.000000
6093.238813,-740.205942,-9400.615463,0.000000
6093.239125,-444.123565,-8660.409521,-536.266849
6093.239436,0.000000,-8512.368333,0.000000
6093.239747,-518.144159,-8882.471304,383.047749
6093.240059,-518.144159,-9252.574275,0.000000
6093.240370,-666.185348,-9104.533087,-153.219100
6093.240682,-666.185348,-9326.594869,-229.828649
6093.240993,-518.144159,-9030.512492,-76.609550
6093.241305,-148.041188,-8734.430116,-612.876398
6093.241616,-518.144159,-8216.285956,0.000000
6093.241928,0.000000,-8956.491898,0.000000
6093.242239,-370.102971,-9030.512492,0.000000
6093.242550,-740.205942,-9252.574275,0.000000
6093.242862,-592.164754,-9252.574275,-76.609550
6093.243173,-370.102971,-9252.574275,0.000000
6093.243485,-444.123565,-8808.450710,0.000000
6093.243796,-148.041188,-8660.409521,536.266849
6093.244108,-296.082377,-8808.450710,-612.876398
6093.244419,-444.123565,-8586.388927,0.000000
6093.244731,-666.185348,-9030.512492,0.000000
6093.245042,-666.185348,-9030.512492,-229.828649
6093.245354,-518.144159,-9030.512492,0.000000
6093.245665,-592.164754,-9030.512492,-306.438199
6093.245976,-222.061783,-8660.409521,-459.657299
6093.246288,-370.102971,-8808.450710,0.000000
6093.246599,-962.267725,-8956.491898,-306.438199
6093.246911,-740.205942,-9030.512492,229.828649
6093.247222,-814.226536,-8882.471304,0.000000
6093.247534,-518.144159,-8956.491898,0.000000
6093.247845,-518.144159,-8660.409521,76.609550
6093.248157,-370.102971,-8808.450710,0.000000
6093.248468,-740.205942,-8882.471304,383.047749
6093.248779,0.000000,-9178.553681,0.000000
6093.249091,-370.102971,-9104.533087,0.000000
6093.249402,-296.082377,-8956.491898,-842.705048
6093.249714,-740.205942,-8660.409521,-306.438199
6093.250025,-370.102971,-8808.450710,0.000000
6093.250337,-370.102971,-8808.450710,76.609550
6093.250648,-370.102971,-8882.471304,76.609550
6093.250960,-296.082377,-8882.471304,0.000000
6093.251271,-666.185348,-9252.574275,76.609550
6093.251583,-740.205942,-9030.512492,76.609550
6093.251894,-666.185348,-8808.450710,-76.609550
6093.252205,-296.082377,-8734.430116,-306.438199
6093.252517,-370.102971,-8586.388927,0.000000
6093.252828,-296.082377,-8808.450710,0.000000
6093.253140,-444.123565,-9252.574275,76.609550
6093.253451,-740.205942,-8956.491898,306.438199
6093.253763,-518.144159,-8956.491898,-229.828649
6093.254074,-222.061783,-8882.471304,76.609550
6093.254386,-592.164754,-8586.388927,76.609550
6093.254697,-444.123565,-8808.450710,0.000000
6093.255008,-444.123565,-8882.471304,0.000000
6093.255320,-592.164754,-8956.491898,0.000000
6093.255631,-1110.308913,-9326.594869,0.000000
6093.255943,-592.164754,-8882.471304,0.000000
6093.256254,-296.082377,-8586.388927,-153.219100
6093.256566,-444.123565,-8512.368333,-383.047749
6093.256877,-518.144159,-8586.388927,0.000000
6093.257189,-666.185348,-8734.430116,0.000000
6093.257500,-666.185348,-8956.491898,0.000000
6093.257812,-740.205942,-9030.512492,0.000000
6093.258123,-592.164754,-8808.450710,0.000000
6093.258434,-666.185348,-8882.471304,536.266849
6093.258746,-518.144159,-8290.306550,-153.219100
6093.259057,-518.144159,-8512.368333,-536.266849
6093.259369,-518.144159,-8956.491898,0.000000
6093.259680,-592.164754,-9178.553681,0.000000
6093.259992,-666.185348,-9252.574275,0.000000
6093.260303,-814.226536,-8956.491898,-306.438199
6093.260615,0.000000,-8364.327145,229.828649
6093.260926,-666.185348,-8512.368333,-306.438199
6093.261237,-518.144159,-8808.450710,229.828649
6093.261549,-296.082377,-9252.574275,0.000000
6093.261860,-592.164754,-9178.553681,-229.828649
6093.262172,-666.185348,-9252.574275,0.000000
6093.262483,-518.144159,-8956.491898,-229.828649
6093.262795,-444.123565,-8734.430116,-153.219100
6093.263106,-666.185348,-8956.491898,-306.438199
6093.263418,-518.144159,-8512.368333,0.000000
6093.263729,-592.164754,-8660.409521,153.219100
6093.264041,-370.102971,-9104.533087,0.000000
6093.264352,-518.144159,-8956.491898,0.000000
6093.264663,-740.205942,-8808.450710,-229.828649
6093.264975,-592.164754,-8808.450710,-229.828649
6093.265286,-666.185348,-8364.327145,-153.219100
6093.265598,-518.144159,-8734.430116,153.219100
6093.265909,-592.164754,-9030.512492,-459.657299
6093.266221,-814.226536,-8586.388927,-459.657299
6093.266532,-740.205942,-8882.471304,0.000000
6093.266844,-518.144159,-8882.471304,-229.828649
6093.267155,-444.123565,-8734.430116,0.000000
6093.267466,-370.102971,-8882.471304,0.000000
6093.267778,-518.144159,-8808.450710,0.000000
6093.268089,-296.082377,-9104.533087,0.000000
6093.268401,-518.144159,-8956.491898,0.000000
6093.268712,-222.061783,-8512.368333,76.609550
6093.269024,-370.102971,-8586.388927,-153.219100
6093.269335,-444.123565,-8808.450710,-153.219100
6093.269647,-518.144159,-8956.491898,0.000000
6093.269958,-518.144159,-9104.533087,153.219100
6093.270270,-370.102971,-9178.553681,76.609550
6093.270581,-370.102971,-8586.388927,0.000000
6093.270892,-444.123565,-8586.388927,229.828649
6093.271204,0.000000,-9104.533087,-76.609550
6093.271515,-444.123565,-8734.430116,0.000000
6093.271827,-370.102971,-8882.471304,-153.219100
6093.272138,-370.102971,-9178.553681,0.000000
6093.272450,-518.144159,-9400.615463,153.219100
6093.272761,-444.123565,-9104.533087,229.828649
6093.273073,-444.123565,-8882.471304,-995.924147
6093.273384,-518.144159,-8734.430116,-229.828649
6093.273695,-296.082377,-8734.430116,153.219100
6093.274007,-518.144159,-8734.430116,229.828649
6093.274318,-592.164754,-9104.533087,0.000000
6093.274630,-592.164754,-9178.553681,0.000000
6093.274941,-740.205942,-9030.512492,0.000000
6093.275253,-518.144159,-8512.368333,-383.047749
6093.275564,-148.041188,-8512.368333,0.000000
6093.275876,-296.082377,-8808.450710,229.828649
6093.276187,-444.123565,-8808.450710,0.000000
6093.276499,-740.205942,-8882.471304,-306.438199
6093.276810,-740.205942,-9030.512492,0.000000
6093.277121,-740.205942,-8808.450710,0.000000
6093.277433,-592.164754,-9030.512492,229.828649
6093.277744,-370.102971,-8586.388927,-306.438199
6093.278056,-222.061783,-8438.347739,0.000000
6093.278367,0.000000,-8734.430116,0.000000
6093.278679,-592.164754,-9178.553681,0.000000
6093.278990,-666.185348,-9030.512492,0.000000
6093.279302,-592.164754,-8956.491898,0.000000
6093.279613,-592.164754,-8734.430116,0.000000
6093.279924,-444.123565,-8808.450710,459.657299
6093.280236,-370.102971,-8734.430116,-536.266849
6093.280547,-296.082377,-8660.409521,0.000000
6093.280859,-444.123565,-8586.388927,0.000000
6093.281170,-740.205942,-9030.512492,-153.219100
6093.281482,-740.205942,-8882.471304,0.000000
6093.281793,-444.123565,-8956.491898,0.000000
6093.282105,-370.102971,-8734.430116,0.000000
6093.282416,-518.144159,-9252.574275,-383.047749
6093.282728,-296.082377,-8956.491898,536.266849
6093.283039,-370.102971,-9104.533087,76.609550
6093.283350,-962.267725,-8882.471304,-306.438199
6093.283662,-814.226536,-8808.450710,-153.219100
6093.283973,-444.123565,-8882.471304,-306.438199
6093.284285,-592.164754,-8734.430116,0.000000
6093.284596,-444.123565,-8956.491898,-306.438199
6093.284908,-370.102971,-9030.512492,0.000000
6093.285219,-666.185348,-8586.388927,-153.219100
6093.285531,-370.102971,-9252.574275,-153.219100
6093.285842,-444.123565,-8808.450710,-383.047749
6093.286153,-444.123565,-8586.388927,-153.219100
6093.286465,-444.123565,-8660.409521,0.000000
6093.286776,-592.164754,-9030.512492,0.000000
6093.287088,-518.144159,-9178.553681,-536.266849
6093.287399,-370.102971,-8956.491898,76.609550
6093.287711,-222.061783,-8586.388927,0.000000
6093.288022,-740.205942,-8660.409521,0.000000
6093.288334,-592.164754,-8660.409521,-153.219100
6093.288645,-370.102971,-8808.450710,-229.828649
6093.288957,-518.144159,-9030.512492,0.000000
6093.289268,-666.185348,-9104.533087,0.000000
6093.289579,-518.144159,-8956.491898,0.000000
6093.289891,-148.041188,-8956.491898,0.000000
6093.290202,-666.185348,-8512.368333,-306.438199
6093.290514,-444.123565,-8290.306550,-383.047749
6093.290825,-592.164754,-8660.409521,76.609550
6093.291137,-666.185348,-8882.471304,153.219100
6093.291448,-592.164754,-9104.533087,-153.219100
6093.291760,-740.205942,-9178.553681,-153.219100
6093.292071,-518.144159,-8882.471304,306.438199
6093.292382,-370.102971,-8586.388927,0.000000
6093.292694,-592.164754,-8068.244768,306.438199
6093.293005,-370.102971,-8882.471304,76.609550
6093.293317,-666.185348,-8956.491898,0.000000
6093.293628,-592.164754,-9178.553681,-229.828649
6093.293940,-592.164754,-9178.553681,0.000000
6093.294251,-740.205942,-9030.512492,-229.828649
6093.294563,-444.123565,-8956.491898,-383.047749
6093.294874,-370.102971,-8734.430116,0.000000
6093.295186,-592.164754,-8586.388927,0.000000
6093.295497,-666.185348,-8660.409521,76.609550
6093.295808,-666.185348,-9030.512492,0.000000
6093.296120,-740.205942,-9104.533087,-153.219100
6093.296431,-666.185348,-9178.553681,-306.438199
6093.296743,-666.185348,-8660.409521,-536.266849
6093.297054,0.000000,-8660.409521,-153.219100
6093.297366,-444.123565,-8660.409521,306.438199
6093.297677,-370.102971,-8882.471304,-153.219100
6093.297989,-592.164754,-9252.574275,0.000000
6093.298300,-666.185348,-9252.574275,153.219100
6093.298611,-740.205942,-8956.491898,0.000000
6093.298923,-592.164754,-8808.450710,76.609550
6093.299234,-444.123565,-8290.306550,0.000000
6093.299546,0.000000,-8660.409521,0.000000
6093.299857,-296.082377,-8808.450710,536.266849
6093.300169,-666.185348,-8956.491898,-153.219100
6093.300480,-814.226536,-9030.512492,0.000000
6093.300792,-592.164754,-8956.491898,0.000000
6093.301103,-518.144159,-8882.471304,0.000000
6093.301415,-370.102971,-8808.450710,76.609550
6093.301726,-222.061783,-8734.430116,-153.219100
6093.302037,-370.102971,-8734.430116,0.000000
6093.302349,-592.164754,-8956.491898,-229.828649
6093.302660,-1036.288319,-8956.491898,-306.438199
6093.302972,-592.164754,-9178.553681,-153.219100
6093.303283,-444.123565,-8956.491898,0.000000
6093.303595,-296.082377,-8734.430116,-153.219100
6093.303906,-370.102971,-8882.471304,0.000000
6093.304218,-222.061783,-9252.574275,383.047749
6093.304529,-666.185348,-8956.491898,-612.876398
6093.304840,-740.205942,-9030.512492,0.000000
6093.305152,-666.185348,-9178.553681,-153.219100
6093.305463,-518.144159,-8734.430116,-153.219100
6093.305775,-444.123565,-8586.388927,0.000000
6093.306086,-148.041188,-8734.430116,0.000000
6093.306398,0.000000,-9326.594869,0.000000
6093.306709,-592.164754,-8734.430116,-153.219100
6093.307021,0.000000,-9400.615463,0.000000
6093.307332,-518.144159,-9030.512492,76.609550
6093.307644,-444.123565,-8586.388927,-229.828649
6093.307955,-518.144159,-8734.430116,-306.438199
6093.308267,-518.144159,-8808.450710,0.000000
6093.308578,-518.144159,-8882.471304,0.000000
6093.308889,-370.102971,-8808.450710,0.000000
6093.309201,-444.123565,-9030.512492,-459.657299
6093.309512,-592.164754,-8660.409521,-612.876398
6093.309824,-296.082377,-8882.471304,0.000000
6093.310135,-518.144159,-8956.491898,0.000000
6093.310447,-370.102971,-8808.450710,0.000000
6093.310758,-370.102971,-8956.491898,-153.219100
6093.311070,-592.164754,-8882.471304,-229.828649
6093.311381,-444.123565,-8660.409521,0.000000
6093.311693,-666.185348,-8956.491898,0.000000
6093.312004,-222.061783,-8956.491898,0.000000
6093.312316,0.000000,-9030.512492,0.000000
6093.312627,-370.102971,-8808.450710,0.000000
6093.312938,-518.144159,-8734.430116,0.000000
6093.313250,-592.164754,-9104.533087,0.000000
6093.313561,-592.164754,-8956.491898,0.000000
6093.313873,-444.123565,-9252.574275,-306.438199
6093.314184,-592.164754,-8956.491898,-459.657299
6093.314496,-592.164754,-8660.409521,0.000000
6093.314807,-444.123565,-8660.409521,0.000000
6093.315119,-592.164754,-8808.450710,0.000000
6093.315430,-592.164754,-8956.491898,-306.438199
6093.315742,-814.226536,-9030.512492,-229.828649
6093.316053,-518.144159,-9326.594869,0.000000
6093.316365,-814.226536,-8734.430116,766.095498
6093.316676,-518.144159,-8882.471304,306.438199
6093.316988,-296.082377,-8512.368333,229.828649
6093.317299,-370.102971,-8734.430116,76.609550
6093.317610,-444.123565,-8882.471304,-153.219100
6093.317922,-592.164754,-8882.471304,-306.438199
6093.318233,-740.205942,-8956.491898,-153.219100
6093.318545,-296.082377,-8882.471304,229.828649
6093.318856,0.000000,-8734.430116,0.000000
6093.319168,-518.144159,-8586.388927,153.219100
6093.319479,-518.144159,-8586.388927,383.047749
6093.319791,-740.205942,-8956.491898,229.828649
6093.320102,-444.123565,-9178.553681,0.000000
6093.320414,-592.164754,-9178.553681,0.000000
6093.320725,-444.123565,-8956.491898,0.000000
6093.321037,-296.082377,-8882.471304,153.219100
6093.321348,0.000000,-9104.533087,-689.485948
6093.321660,-592.164754,-8364.327145,0.000000
6093.321971,-444.123565,-8956.491898,0.000000
6093.322282,-666.185348,-9178.553681,0.000000
6093.322594,-518.144159,-9030.512492,0.000000
6093.322905,-592.164754,-8956.491898,0.000000
6093.323217,-370.102971,-8808.450710,0.000000
6093.323528,-296.082377,-8882.471304,-306.438199
6093.323840,-518.144159,-8808.450710,383.047749
6093.324151,-296.082377,-9104.533087,153.219100
6093.324463,-444.123565,-9178.553681,0.000000
6093.324774,-666.185348,-9252.574275,0.000000
6093.325086,-518.144159,-9104.533087,-383.047749
6093.325397,-592.164754,-8882.471304,0.000000
6093.325709,-518.144159,-8512.368333,76.609550
6093.326020,-222.061783,-8734.430116,0.000000
6093.326332,-666.185348,-8734.430116,459.657299
6093.326643,-962.267725,-8734.430116,-842.705048
6093.326954,-740.205942,-8956.491898,-306.438199
6093.327266,-592.164754,-8956.491898,0.000000
6093.327577,-666.185348,-8956.491898,-153.219100
6093.327889,-518.144159,-8734.430116,0.000000
6093.328200,-518.144159,-8808.450710,76.609550
6093.328512,-740.205942,-8882.471304,-153.219100
6093.328823,-740.205942,-8586.388927,-689.485948
6093.329135,-740.205942,-8808.450710,153.219100
6093.329446,-370.102971,-8956.491898,76.609550
6093.329758,-370.102971,-8882.471304,0.000000
6093.330069,-444.123565,-9030.512492,76.609550
6093.330381,-444.123565,-9104.533087,0.000000
6093.330692,-444.123565,-8586.388927,0.000000
6093.331004,-592.164754,-8660.409521,-229.828649
6093.331315,-148.041188,-8956.491898,229.828649
6093.331626,-592.164754,-8734.430116,0.000000
6093.331938,-370.102971,-8734.430116,0.000000
6093.332249,-592.164754,-8734.430116,0.000000
6093.332561,-740.205942,-9104.533087,0.000000
6093.332872,-518.144159,-9104.533087,-153.219100
6093.333184,-518.144159,-8956.491898,-383.047749
6093.333495,-962.267725,-8586.388927,-229.828649
6093.333807,-296.082377,-8734.430116,306.438199
6093.334118,-592.164754,-8734.430116,153.219100
6093.334430,-296.082377,-8882.471304,0.000000
6093.334741,-666.185348,-9030.512492,-306.438199
6093.335053,-666.185348,-9178.553681,0.000000
6093.335364,-592.164754,-9104.533087,0.000000
6093.335676,-518.144159,-8586.388927,-306.438199
6093.335987,-296.082377,-8660.409521,-153.219100
6093.336298,-370.102971,-8660.409521,-383.047749
6093.336610,-148.041188,-8882.471304,0.000000
6093.336921,-518.144159,-9030.512492,-153.219100
6093.337233,-666.185348,-8956.491898,-306.438199
6093.337544,-740.205942,-8882.471304,0.000000
6093.337856,-444.123565,-8808.450710,-306.438199
6093.338167,-222.061783,-8882.471304,0.000000
6093.338479,-740.205942,-8882.471304,153.219100
6093.338790,-592.164754,-8660.409521,-306.438199
6093.339102,-370.102971,-8882.471304,-229.828649
6093.339413,-740.205942,-9030.512492,0.000000
6093.339725,-666.185348,-9030.512492,-153.219100
6093.340036,-444.123565,-9030.512492,0.000000
6093.340347,-370.102971,-8956.491898,76.609550
6093.340659,-888.247130,-8956.491898,536.266849
6093.340970,-222.061783,-8364.327145,76.609550
6093.341282,-592.164754,-8660.409521,0.000000
6093.341593,-444.123565,-8882.471304,0.000000
6093.341905,-444.123565,-8956.491898,0.000000
6093.342216,-444.123565,-9030.512492,0.000000
6093.342528,-518.144159,-8956.491898,-229.828649
6093.342839,-370.102971,-8956.491898,-153.219100
6093.343151,-296.082377,-8734.430116,-306.438199
6093.343462,-296.082377,-8956.491898,0.000000
6093.343774,-444.123565,-9252.574275,0.000000
6093.344085,-444.123565,-9178.553681,0.000000
6093.344397,-370.102971,-9030.512492,0.000000
6093.344708,-444.123565,-9104.533087,0.000000
6093.345019,-370.102971,-8808.450710,383.047749
6093.345331,-518.144159,-9030.512492,-153.219100
6093.345642,-370.102971,-8956.491898,153.219100
6093.345954,-370.102971,-9104.533087,306.438199
6093.346265,-518.144159,-8956.491898,76.609550
6093.346577,-592.164754,-9030.512492,0.000000
6093.346888,-666.185348,-8956.491898,0.000000
6093.347200,-370.102971,-9030.512492,-229.828649
6093.347511,-444.123565,-8586.388927,536.266849
6093.347823,-666.185348,-8660.409521,-306.438199
6093.348134,-814.226536,-8808.450710,229.828649
6093.348446,-518.144159,-8586.388927,-383.047749
6093.348757,-518.144159,-8734.430116,0.000000
6093.349069,-518.144159,-8882.471304,0.000000
6093.349380,-444.123565,-9030.512492,0.000000
6093.349691,-666.185348,-8956.491898,-383.047749
6093.350003,-370.102971,-9178.553681,-229.828649
6093.350314,-740.205942,-8956.491898,459.657299
6093.350626,-592.164754,-8956.491898,0.000000
6093.350937,-592.164754,-8882.471304,459.657299
6093.351249,-592.164754,-8808.450710,76.609550
6093.351560,-518.144159,-9030.512492,0.000000
6093.351872,-444.123565,-8956.491898,-306.438199
6093.352183,-592.164754,-8882.471304,0.000000
6093.352495,-518.144159,-8734.430116,76.609550
6093.352806,-518.144159,-8956.491898,0.000000
6093.353118,-370.102971,-8808.450710,-153.219100
6093.353429,-518.144159,-8882.471304,-229.828649
6093.353741,-592.164754,-8882.471304,-153.219100
6093.354052,-444.123565,-9104.533087,0.000000
6093.354363,-518.144159,-9030.512492,0.000000
6093.354675,-666.185348,-8438.347739,-306.438199
6093.354986,-296.082377,-8882.471304,-229.828649
6093.355298,-370.102971,-9178.553681,-612.876398
6093.355609,-814.226536,-8364.327145,0.000000
6093.355921,-666.185348,-8734.430116,-153.219100
6093.356232,-592.164754,-8882.471304,-383.047749
6093.356544,-592.164754,-8956.491898,0.000000
6093.356855,-518.144159,-9104.533087,0.000000
6093.357167,-592.164754,-8808.450710,-153.219100
6093.357478,-740.205942,-8808.450710,153.219100
6093.357790,-888.247130,-8882.471304,229.828649
6093.358101,-518.144159,-8734.430116,0.000000
6093.358413,-518.144159,-8660.409521,-306.438199
6093.358724,-592.164754,-8734.430116,-229.828649
6093.359035,-518.144159,-8808.450710,0.000000
6093.359347,-370.102971,-9030.512492,0.000000
6093.359658,-370.102971,-8956.491898,229.828649
6093.359970,-370.102971,-8956.491898,153.219100
6093.360281,-518.144159,-9030.512492,153.219100
6093.360593,-370.102971,-8808.450710,-229.828649
6093.360904,-592.164754,-8808.450710,229.828649
6093.361216,-592.164754,-8956.491898,0.000000
6093.361527,-370.102971,-9030.512492,0.000000
6093.361839,-518.144159,-8734.430116,76.609550
6093.362150,-666.185348,-8734.430116,76.609550
6093.362462,-296.082377,-8808.450710,-383.047749
6093.362773,-740.205942,-8660.409521,-306.438199
6093.363085,-592.164754,-8512.368333,0.000000
6093.363396,-518.144159,-9030.512492,0.000000
6093.363707,-592.164754,-8882.471304,0.000000
6093.364019,-592.164754,-8956.491898,0.000000
6093.364330,-518.144159,-9178.553681,-153.219100
6093.364642,-518.144159,-8808.450710,-153.219100
6093.364953,-592.164754,-9030.512492,-229.828649
6093.365265,-370.102971,-8808.450710,536.266849
6093.365576,-296.082377,-8734.430116,-153.219100
6093.365888,-518.144159,-8956.491898,0.000000
6093.366199,-592.164754,-9326.594869,0.000000
6093.366511,-666.185348,-9030.512492,-229.828649
6093.366822,-740.205942,-8734.430116,0.000000
6093.367134,-444.123565,-8956.491898,-306.438199
6093.367445,-296.082377,-8660.409521,-76.609550
6093.367756,-370.102971,-8956.491898,0.000000
6093.368068,-370.102971,-8808.450710,-153.219100
6093.368379,-444.123565,-8808.450710,76.609550
6093.368691,-666.185348,-8882.471304,76.609550
6093.369002,-518.144159,-8808.450710,-153.219100
6093.369314,-740.205942,-8512.368333,-153.219100
6093.369625,-592.164754,-8586.388927,153.219100
6093.369937,-592.164754,-8956.491898,0.000000
6093.370248,-444.123565,-9178.553681,0.000000
6093.370560,-444.123565,-9104.533087,0.000000
6093.370871,-518.144159,-9030.512492,0.000000
6093.371183,-666.185348,-8882.471304,0.000000
6093.371494,-370.102971,-8734.430116,-153.219100
6093.371806,-518.144159,-8586.388927,0.000000
6093.372117,-370.102971,-8660.409521,229.828649
6093.372428,-148.041188,-9252.574275,76.609550
6093.372740,-444.123565,-9104.533087,-229.828649
6093.373051,-518.144159,-8882.471304,0.000000
6093.373363,-518.144159,-8808.450710,-306.438199
6093.373674,-370.102971,-8586.388927,-229.828649
6093.373986,-518.144159,-8882.471304,0.000000
6093.374297,0.000000,-8956.491898,-383.047749
6093.374609,-518.144159,-9326.594869,306.438199
6093.374920,-296.082377,-9474.636058,306.438199
6093.375232,-518.144159,-9104.533087,-153.219100
6093.375543,-370.102971,-8734.430116,-153.219100
6093.375855,-444.123565,-8660.409521,0.000000
6093.376166,-518.144159,-8660.409521,0.000000
6093.376478,-592.164754,-9030.512492,76.609550
6093.376789,-740.205942,-9400.615463,0.000000
6093.377100,-1036.288319,-9030.512492,229.828649
6093.377412,-518.144159,-8660.409521,0.000000
6093.377723,-666.185348,-8660.409521,0.000000
6093.378035,-444.123565,-8808.450710,-229.828649
6093.378346,-518.144159,-8586.388927,-229.828649
6093.378658,-518.144159,-8882.471304,-229.828649
6093.378969,-1036.288319,-8882.471304,0.000000
6093.379281,-296.082377,-9178.553681,76.609550
6093.379592,-370.102971,-8734.430116,-306.438199
6093.379904,-592.164754,-8660.409521,306.438199
6093.380215,-148.041188,-8734.430116,76.609550
6093.380527,-518.144159,-9030.512492,0.000000
6093.380838,-518.144159,-9104.533087,-153.219100
6093.381150,-740.205942,-8882.471304,-229.828649
6093.381461,-740.205942,-9104.533087,229.828649
6093.381772,-740.205942,-8882.471304,-306.438199
6093.382084,-370.102971,-8438.347739,0.000000
6093.382395,74.020594,-8956.491898,0.000000
6093.382707,-296.082377,-9104.533087,76.609550
6093.383018,-666.185348,-8956.491898,0.000000
6093.383330,-666.185348,-9178.553681,0.000000
6093.383641,-666.185348,-9030.512492,0.000000
6093.383953,-148.041188,-9030.512492,-306.438199
6093.384264,-370.102971,-8808.450710,306.438199
6093.384576,-370.102971,-8956.491898,-229.828649
6093.384887,-814.226536,-9104.533087,153.219100
6093.385199,-518.144159,-9178.553681,0.000000
6093.385510,-740.205942,-9104.533087,-306.438199
6093.385822,-666.185348,-9104.533087,-306.438199
6093.386133,-666.185348,-8956.491898,-76.609550
6093.386444,-148.041188,-8956.491898,0.000000
6093.386756,-592.164754,-8142.265362,0.000000
6093.387067,-222.061783,-9178.553681,0.000000
6093.387379,-444.123565,-9030.512492,-153.219100
6093.387690,-740.205942,-9030.512492,-153.219100
6093.388002,-592.164754,-8734.430116,0.000000
6093.388313,-592.164754,-8734.430116,0.000000
6093.388625,-370.102971,-8808.450710,229.828649
6093.388936,-518.144159,-9104.533087,229.828649
6093.389248,-148.041188,-8956.491898,76.609550
6093.389559,-444.123565,-8438.347739,229.828649
6093.389871,-666.185348,-8660.409521,0.000000
6093.390182,-666.185348,-8956.491898,-229.828649
6093.390494,-592.164754,-8808.450710,-306.438199
6093.390805,-444.123565,-8882.471304,-229.828649
6093.391116,-592.164754,-8290.306550,229.828649
6093.391428,0.000000,-8956.491898,0.000000
6093.391739,-148.041188,-9030.512492,0.000000
6093.392051,-888.247130,-8956.491898,383.047749
6093.392362,-592.164754,-8956.491898,0.000000
6093.392674,-444.123565,-8808.450710,0.000000
6093.392985,-444.123565,-9030.512492,0.000000
6093.393297,-518.144159,-9030.512492,0.000000
6093.393608,-222.061783,-9030.512492,-612.876398
6093.393920,-222.061783,-8734.430116,383.047749
6093.394231,-518.144159,-9178.553681,-229.828649
6093.394543,-592.164754,-8734.430116,-383.047749
6093.394854,-370.102971,-8734.430116,0.000000
6093.395165,-444.123565,-9252.574275,0.000000
6093.395477,-592.164754,-9178.553681,0.000000
6093.395788,-518.144159,-9178.553681,0.000000
6093.396100,-518.144159,-8808.450710,-306.438199
6093.396411,-518.144159,-8808.450710,-229.828649
6093.396723,-444.123565,-9178.553681,-153.219100
6093.397034,-296.082377,-9030.512492,0.000000
6093.397346,-592.164754,-8882.471304,0.000000
6093.397657,-592.164754,-8882.471304,0.000000
6093.397969,-592.164754,-9178.553681,-153.219100
6093.398280,-666.185348,-8882.471304,-306.438199
6093.398592,-444.123565,-9104.533087,-306.438199
6093.398903,-444.123565,-8586.388927,229.828649
6093.399215,-370.102971,-9030.512492,0.000000
6093.399526,-296.082377,-8808.450710,0.000000
6093.399837,-518.144159,-8882.471304,0.000000
6093.400149,-592.164754,-8808.450710,0.000000
6093.400460,-370.102971,-9030.512492,0.000000
6093.400772,-592.164754,-8808.450710,76.609550
6093.401083,-296.082377,-8882.471304,0.000000
6093.401395,-296.082377,-8586.388927,612.876398
6093.401706,-592.164754,-8586.388927,153.219100
6093.402018,-222.061783,-9104.533087,0.000000
6093.402329,-518.144159,-9104.533087,0.000000
6093.402641,-666.185348,-8882.471304,0.000000
6093.402952,-592.164754,-8808.450710,0.000000
6093.403264,-148.041188,-9104.533087,76.609550
6093.403575,-666.185348,-8808.450710,0.000000
6093.403887,-222.061783,-8734.430116,-383.047749
6093.404198,-222.061783,-8956.491898,153.219100
6093.404509,-592.164754,-9030.512492,0.000000
6093.404821,-518.144159,-8956.491898,-306.438199
6093.405132,-518.144159,-9030.512492,-229.828649
6093.405444,-444.123565,-8808.450710,0.000000
6093.405755,-370.102971,-8438.347739,-383.047749
6093.406067,-148.041188,-9030.512492,76.609550
6093.406378,-444.123565,-8882.471304,383.047749
6093.406690,-370.102971,-9252.574275,-306.438199
6093.407001,-666.185348,-8956.491898,0.000000
6093.407312,-740.205942,-9030.512492,0.000000
6093.407624,-740.205942,-8734.430116,-383.047749
6093.407935,-518.144159,-8956.491898,76.609550
6093.408247,-296.082377,-8956.491898,0.000000
6093.408558,0.000000,-8808.450710,-153.219100
6093.408870,-888.247130,-8734.430116,306.438199
6093.409181,-444.123565,-9326.594869,76.609550
6093.409493,-518.144159,-9030.512492,0.000000
6093.409804,-666.185348,-9178.553681,0.000000
6093.410115,-444.123565,-8734.430116,-153.219100
6093.410427,-444.123565,-8586.388927,0.000000
6093.410738,-296.082377,-8882.471304,153.219100
6093.411050,-518.144159,-8660.409521,-153.219100
6093.411361,-814.226536,-9178.553681,-842.705048
6093.411673,-814.226536,-8882.471304,-612.876398
6093.411984,-518.144159,-9104.533087,0.000000
6093.412295,-518.144159,-8882.471304,0.000000
6093.412607,-370.102971,-8882.471304,0.000000
6093.412918,-370.102971,-9030.512492,-383.047749
6093.413230,-370.102971,-8808.450710,0.000000
6093.413541,-296.082377,-9030.512492,0.000000
6093.413853,-444.123565,-8956.491898,0.000000
6093.414164,-518.144159,-8956.491898,-306.438199
6093.414475,-592.164754,-9030.512492,0.000000
6093.414787,-518.144159,-8808.450710,-153.219100
6093.415098,-444.123565,-8734.430116,76.609550
6093.415410,-444.123565,-8882.471304,0.000000
6093.415721,-444.123565,-8956.491898,0.000000
6093.416033,-148.041188,-9474.636058,0.000000
6093.416344,-666.185348,-9104.533087,229.828649
6093.416655,-592.164754,-9104.533087,0.000000
6093.416967,-444.123565,-8882.471304,0.000000
6093.417278,-370.102971,-8956.491898,0.000000
6093.417590,-518.144159,-8956.491898,0.000000
6093.417901,-370.102971,-9030.512492,153.219100
6093.418213,-370.102971,-9030.512492,0.000000
6093.418524,-740.205942,-8586.388927,-306.438199
6093.418835,-518.144159,-8808.450710,0.000000
6093.419147,-444.123565,-8808.450710,-153.219100
6093.419458,-444.123565,-8956.491898,0.000000
6093.419770,-370.102971,-8956.491898,0.000000
6093.420081,-592.164754,-8956.491898,0.000000
6093.420393,-370.102971,-8512.368333,0.000000
6093.420704,-592.164754,-9030.512492,-842.705048
6093.421015,-222.061783,-9030.512492,-76.609550
6093.421327,-666.185348,-8660.409521,-306.438199
6093.421638,-444.123565,-8734.430116,0.000000
6093.421950,-370.102971,-8734.430116,0.000000
6093.422261,-518.144159,-9030.512492,0.000000
6093.422573,-444.123565,-9326.594869,-459.657299
6093.422884,-740.205942,-9326.594869,0.000000
6093.423195,-444.123565,-8956.491898,0.000000
6093.423507,-518.144159,-8808.450710,0.000000
6093.423818,-666.185348,-8808.450710,306.438199
6093.424130,-222.061783,-8956.491898,0.000000
6093.424441,-740.205942,-9104.533087,-229.828649
6093.424753,-666.185348,-9104.533087,0.000000
6093.425064,-666.185348,-9104.533087,306.438199
6093.425375,-444.123565,-8734.430116,76.609550
6093.425687,-370.102971,-8734.430116,-689.485948
6093.425998,-370.102971,-8734.430116,-153.219100
6093.426310,-592.164754,-8586.388927,0.000000
6093.426621,-592.164754,-9030.512492,0.000000
6093.426933,-666.185348,-9400.615463,-153.219100
6093.427244,-740.205942,-9104.533087,-306.438199
6093.427556,-592.164754,-8882.471304,153.219100
6093.427867,-518.144159,-7994.224174,0.000000
6093.428178,-370.102971,-8364.327145,0.000000
6093.428490,-370.102971,-9030.512492,306.438199
6093.428801,-592.164754,-9252.574275,0.000000
6093.429113,-592.164754,-9252.574275,0.000000
6093.429424,-740.205942,-9178.553681,-76.609550
6093.429736,-518.144159,-8808.450710,-153.219100
6093.430047,-296.082377,-8216.285956,0.000000
6093.430358,0.000000,-8438.347739,229.828649
6093.430670,-444.123565,-9178.553681,229.828649
6093.430981,-370.102971,-8956.491898,0.000000
6093.431293,-740.205942,-9252.574275,0.000000
6093.431604,-592.164754,-9030.512492,0.000000
6093.431916,-592.164754,-8734.430116,0.000000
6093.432227,-370.102971,-8660.409521,76.609550
6093.432538,-518.144159,-8660.409521,153.219100
6093.432850,-518.144159,-9252.574275,0.000000
6093.433161,-370.102971,-9252.574275,-229.828649
6093.433473,-740.205942,-9178.553681,0.000000
6093.433784,-592.164754,-8808.450710,0.000000
6093.434096,-370.102971,-8808.450710,0.000000
6093.434407,-518.144159,-8734.430116,-153.219100
6093.434718,-444.123565,-9104.533087,153.219100
6093.435030,-370.102971,-9178.553681,0.000000
6093.435341,-444.123565,-9252.574275,-153.219100
6093.435653,-888.247130,-8734.430116,153.219100
6093.435964,-370.102971,-8808.450710,0.000000
6093.436276,-592.164754,-8882.471304,-383.047749
6093.436587,-370.102971,-8882.471304,-229.828649
6093.436898,-444.123565,-8808.450710,-306.438199
6093.437210,-592.164754,-8734.430116,-306.438199
6093.437521,0.000000,-8956.491898,0.000000
6093.437833,-666.185348,-9252.574275,153.219100
6093.438144,-814.226536,-8734.430116,-229.828649
6093.438456,-518.144159,-8808.450710,0.000000
6093.438767,-370.102971,-8882.471304,76.609550
6093.439078,-296.082377,-8882.471304,-153.219100
6093.439390,-370.102971,-9030.512492,76.609550
6093.439701,-666.185348,-9104.533087,0.000000
6093.440013,-740.205942,-8586.388927,153.219100
6093.440324,-222.061783,-8808.450710,-383.047749
6093.440636,-222.061783,-8808.450710,76.609550
6093.440947,-370.102971,-8660.409521,0.000000
6093.441258,-518.144159,-8882.471304,76.609550
6093.441570,-592.164754,-9104.533087,0.000000
6093.441881,-740.205942,-8882.471304,0.000000
6093.442193,-592.164754,-9326.594869,-612.876398
6093.442504,-370.102971,-9104.533087,-689.485948
6093.442816,-222.061783,-9400.615463,0.000000
6093.443127,-370.102971,-8808.450710,0.000000
6093.443438,-370.102971,-8808.450710,0.000000
6093.443750,-370.102971,-9030.512492,0.000000
6093.444061,-740.205942,-9178.553681,0.000000
6093.444373,-740.205942,-9104.533087,-153.219100
6093.444684,-370.102971,-9252.574275,-153.219100
6093.444996,-370.102971,-8512.368333,-383.047749
6093.445307,-814.226536,-8438.347739,229.828649
6093.445618,-518.144159,-8660.409521,-76.609550
6093.445930,-370.102971,-9178.553681,-153.219100
6093.446241,-666.185348,-9400.615463,0.000000
6093.446553,-592.164754,-9178.553681,-383.047749
6093.446864,-666.185348,-8882.471304,0.000000
6093.447176,-222.061783,-8660.409521,76.609550
6093.447487,-370.102971,-8364.327145,0.000000
6093.447799,-444.123565,-9104.533087,0.000000
6093.448110,-518.144159,-9178.553681,0.000000
6093.448421,-740.205942,-9400.615463,0.000000
6093.448733,-666.185348,-9178.553681,0.000000
6093.449044,-370.102971,-8956.491898,0.000000
6093.449356,-222.061783,-8882.471304,-229.828649
6093.449667,-222.061783,-8290.306550,-459.657299
6093.449979,-444.123565,-8586.388927,76.609550
6093.450290,-370.102971,-9178.553681,153.219100
6093.450601,-814.226536,-9030.512492,0.000000
6093.450913,-518.144159,-8956.491898,-153.219100
6093.451224,-592.164754,-8734.430116,-153.219100
6093.451536,-518.144159,-8808.450710,76.609550
6093.451847,-222.061783,-8660.409521,0.000000
6093.452159,-296.082377,-8882.471304,0.000000
6093.452470,-666.185348,-9104.533087,536.266849
6093.452781,-740.205942,-9030.512492,76.609550
6093.453093,-740.205942,-8956.491898,-229.828649
6093.453404,-740.205942,-8882.471304,-153.219100
6093.453716,-370.102971,-8956.491898,0.000000
6093.454027,-370.102971,-8882.471304,0.000000
6093.454339,-592.164754,-9030.512492,-153.219100
6093.454650,-888.247130,-9104.533087,0.000000
6093.454961,-518.144159,-9178.553681,0.000000
6093.455273,-888.247130,-8956.491898,-153.219100
6093.455584,-296.082377,-9030.512492,0.000000
6093.455896,-296.082377,-8882.471304,0.000000
6093.456207,-518.144159,-8734.430116,0.000000
6093.456519,-518.144159,-8882.471304,76.609550
