#time,accel_x,accel_y,accel_z
1483.554197,-8660.409521,-229.828649,592.164754
1483.554508,-8808.450710,0.000000,592.164754
1483.554820,-8956.491898,-229.828649,444.123565
1483.555132,-8808.450710,-153.219100,518.144159
1483.555443,-8882.471304,0.000000,592.164754
1483.555755,-8808.450710,0.000000,666.185348
1483.556066,-8882.471304,-1072.533697,444.123565
1483.556378,-8438.347739,-229.828649,370.102971
1483.556689,-9030.512492,-229.828649,518.144159
1483.557001,-8734.430116,0.000000,444.123565
1483.557312,-8956.491898,-306.438199,444.123565
1483.557624,-9030.512492,0.000000,592.164754
1483.557935,-8808.450710,0.000000,370.102971
1483.558247,-9104.533087,0.000000,296.082377
1483.558558,-8882.471304,306.438199,518.144159
1483.558870,-9030.512492,0.000000,296.082377
1483.559181,-8882.471304,-229.828649,518.144159
1483.559493,-8734.430116,0.000000,518.144159
1483.559804,-8956.491898,0.000000,592.164754
1483.560116,-9104.533087,0.000000,444.123565
1483.560427,-8808.450710,153.219100,296.082377
1483.560739,-8660.409521,0.000000,370.102971
1483.561050,-9030.512492,0.000000,666.185348
1483.561362,-8734.430116,-306.438199,444.123565
1483.561673,-8808.450710,0.000000,296.082377
1483.561985,-8808.450710,0.000000,592.164754
1483.562296,-8882.471304,0.000000,592.164754
1483.562608,-9252.574275,-229.828649,444.123565
1483.562919,-8660.409521,153.219100,370.102971
1483.563231,-9252.574275,306.438199,222.061783
1483.563542,-8734.430116,-612.876398,666.185348
1483.563854,-8660.409521,0.000000,370.102971
1483.564165,-9104.533087,0.000000,518.144159
1483.564477,-8882.471304,0.000000,740.205942
1483.564789,-8956.491898,0.000000,666.185348
1483.565100,-8956.491898,0.000000,666.185348
1483.565412,-8660.409521,383.047749,296.082377
1483.565723,-8734.430116,383.047749,370.102971
1483.566035,-8660.409521,76.609550,518.144159
1483.566346,-8956.491898,-383.047749,666.185348
1483.566658,-8734.430116,0.000000,518.144159
1483.566969,-8882.471304,-153.219100,518.144159
1483.567281,-8956.491898,0.000000,370.102971
1483.567592,-8956.491898,-383.047749,296.082377
1483.567904,-8956.491898,0.000000,444.123565
1483.568215,-8734.430116,459.657299,222.061783
1483.568527,-8808.450710,-383.047749,518.144159
1483.568838,-9030.512492,-229.828649,518.144159
1483.569150,-8882.471304,0.000000,592.164754
1483.569461,-8660.409521,0.000000,666.185348
1483.569773,-8882.471304,0.000000,518.144159
1483.570084,-8660.409521,76.609550,444.123565
1483.570396,-8808.450710,0.000000,296.082377
1483.570707,-8660.409521,0.000000,740.205942
1483.571019,-8956.491898,153.219100,592.164754
1483.571330,-9030.512492,0.000000,370.102971
1483.571642,-8808.450710,-306.438199,444.123565
1483.571953,-8956.491898,-306.438199,518.144159
1483.572265,-9178.553681,-153.219100,370.102971
1483.572576,-9030.512492,76.609550,518.144159
1483.572888,-9104.533087,-766.095498,518.144159
1483.573199,-8512.368333,153.219100,592.164754
1483.573511,-8734.430116,-229.828649,296.082377
1483.573822,-8882.471304,0.000000,518.144159
1483.574134,-9030.512492,-153.219100,370.102971
1483.574446,-9030.512492,0.000000,444.123565
1483.574757,-8956.491898,-229.828649,518.144159
1483.575069,-8956.491898,0.000000,296.082377
1483.575380,-8660.409521,0.000000,370.102971
1483.575692,-8808.450710,0.000000,148.041188
1483.576003,-8956.491898,0.000000,370.102971
1483.576315,-8808.450710,-383.047749,666.185348
1483.576626,-8956.491898,0.000000,592.164754
1483.576938,-9030.512492,-153.219100,666.185348
1483.577249,-8512.368333,0.000000,518.144159
1483.577561,-8808.450710,-153.219100,518.144159
1483.577872,-9104.533087,76.609550,296.082377
1483.578184,-8734.430116,459.657299,518.144159
1483.578495,-8956.491898,-153.219100,370.102971
1483.578807,-8956.491898,0.000000,518.144159
1483.579118,-9030.512492,0.000000,592.164754
1483.579430,-9178.553681,0.000000,666.185348
1483.579741,-8882.471304,0.000000,666.185348
1483.580053,-8364.327145,-383.047749,444.123565
1483.580364,-8586.388927,-383.047749,296.082377
1483.580676,-8660.409521,0.000000,518.144159
1483.580987,-9030.512492,-306.438199,666.185348
1483.581299,-10066.800811,0.000000,444.123565
1483.581610,-11843.295072,1455.581446,370.102971
1483.581922,-9844.739029,4060.306139,666.185348
1483.582233,-7624.121203,4979.620737,888.247130
1483.582545,-7550.100608,2451.505594,962.267725
1483.582856,-5995.668130,-229.828649,518.144159
1483.583168,-7550.100608,-1762.019645,-296.082377
1483.583479,-7105.977043,-459.657299,-0.000000
1483.583791,-9474.636058,-612.876398,-962.267725
1483.584102,-13175.665768,-919.314598,-962.267725
1483.584414,-11325.150913,766.095498,222.061783
1483.584726,-9696.697840,536.266849,814.226536
1483.585037,-8586.388927,-689.485948,2886.803174
1483.585349,-11029.068536,-459.657299,2368.659014
1483.585660,-10881.027347,2757.943793,2442.679609
1483.585972,-5403.503377,5515.887586,2442.679609
1483.586283,-5921.647536,4213.525239,1258.350101
1483.586595,-7698.141797,2834.553343,-370.102971
1483.586906,-6883.915261,3753.867940,-1998.556043
1483.587218,-8734.430116,3294.210641,-2368.659014
1483.587529,-9178.553681,4213.525239,-0.000000
1483.587841,-10214.842000,3524.039291,-1184.329507
1483.588152,-15100.201217,0.000000,-222.061783
1483.588464,-10658.965565,-1378.971896,2886.803174
1483.588775,-9104.533087,-689.485948,1110.308913
1483.589087,-9474.636058,3140.991542,1850.514855
1483.589398,-7105.977043,5822.325785,2146.597232
1483.589710,-7994.224174,3600.648841,1406.391290
1483.590021,-6661.853478,3370.820191,2368.659014
1483.590333,-7402.059420,5592.497135,1258.350101
1483.590644,-8734.430116,6818.249932,-148.041188
1483.590956,-8734.430116,5822.325785,-1184.329507
1483.591267,-9104.533087,4519.963438,-962.267725
1483.591579,-9622.677246,4903.011187,-1554.432478
1483.591890,-11177.109724,5669.106685,-148.041188
1483.592202,-12509.480420,5286.058936,444.123565
1483.592513,-10658.965565,4749.792088,1702.473667
1483.592825,-10214.842000,5362.668486,2220.617826
1483.593136,-7994.224174,5975.544884,2294.638420
1483.593448,-5773.606348,5975.544884,148.041188
1483.593759,-5773.606348,5975.544884,296.082377
1483.594071,-4885.359217,5975.544884,-0.000000
1483.594383,-6587.832884,5515.887586,-1036.288319
1483.594694,-7402.059420,4903.011187,-296.082377
1483.595006,-8734.430116,3447.429741,-1406.391290
1483.595317,-9696.697840,2757.943793,222.061783
1483.595629,-10436.903782,766.095498,518.144159
1483.595940,-10732.986159,229.828649,1776.494261
1483.596252,-11473.192101,0.000000,1406.391290
1483.596563,-10658.965565,1991.848295,2516.700203
1483.596875,-8660.409521,3217.601092,2368.659014
1483.597186,-7402.059420,4290.134789,518.144159
1483.597498,-6143.709319,3064.381992,444.123565
1483.597809,-6291.750507,3524.039291,-814.226536
1483.598121,-6291.750507,3677.258390,-814.226536
1483.598432,-7105.977043,2987.772442,-1702.473667
1483.598744,-8512.368333,612.876398,-666.185348
1483.599055,-10658.965565,-1532.190996,-740.205942
1483.599367,-11843.295072,-1915.238745,1184.329507
1483.599678,-12879.583391,-1991.848295,1850.514855
1483.599990,-13027.624579,-1378.971896,1628.453072
1483.600301,-12361.439231,-229.828649,1554.432478
1483.600613,-11251.130318,1455.581446,518.144159
1483.600924,-9030.512492,3753.867940,-222.061783
1483.601236,-6883.915261,4366.744339,-0.000000
1483.601547,-6365.771101,4443.353888,-0.000000
1483.601859,-5773.606348,4443.353888,592.164754
1483.602170,-7254.018232,2834.553343,518.144159
1483.602482,-9918.759623,1608.800546,148.041188
1483.602793,-11399.171507,689.485948,-0.000000
1483.603105,-12805.562797,459.657299,-222.061783
1483.603416,-13767.830521,-153.219100,-0.000000
1483.603728,-13989.892304,-383.047749,148.041188
1483.604040,-13101.645173,1225.752797,592.164754
1483.604351,-10658.965565,2987.772442,1702.473667
1483.604663,-7772.162391,3830.477490,1850.514855
1483.604974,-5995.668130,5056.230287,1924.535449
1483.605286,-3404.947333,5362.668486,1110.308913
1483.605597,-1702.473667,5822.325785,-0.000000
1483.605909,-2442.679609,5592.497135,-1702.473667
1483.606220,-4885.359217,4519.963438,-1628.453072
1483.606532,-8660.409521,3370.820191,-2072.576638
1483.606843,-12805.562797,2451.505594,-296.082377
1483.607155,-14730.098246,3294.210641,1554.432478
1483.607466,-15618.345376,3294.210641,2590.720797
1483.607778,-13989.892304,3753.867940,3478.967927
1483.608089,-9474.636058,3677.258390,3627.009116
1483.608401,-5551.544565,3600.648841,2146.597232
1483.608712,-2590.720797,4749.792088,222.061783
1483.609024,-1924.535449,7201.297681,-1184.329507
1483.609335,-2368.659014,8197.221829,-2812.782580
1483.609647,-5181.441594,6358.592633,-2738.761985
1483.609958,-7624.121203,4213.525239,-1258.350101
1483.610270,-9474.636058,2068.457845,370.102971
1483.610581,-10658.965565,-842.705048,1184.329507
1483.610893,-12065.356855,-3217.601092,2294.638420
1483.611204,-12435.459826,-3217.601092,1850.514855
1483.611516,-12435.459826,-1302.362347,1702.473667
1483.611827,-11991.336260,1455.581446,1110.308913
1483.612139,-10881.027347,3294.210641,1628.453072
1483.612450,-10140.821405,5286.058936,2146.597232
1483.612762,-7254.018232,5898.935335,1998.556043
1483.613073,-6587.832884,5822.325785,888.247130
1483.613385,-6365.771101,3983.696590,148.041188
1483.613697,-6291.750507,3140.991542,-1406.391290
1483.614008,-7105.977043,3140.991542,-2368.659014
1483.614320,-9252.574275,3064.381992,-2516.700203
1483.614631,-11029.068536,3140.991542,-1850.514855
1483.614943,-12361.439231,2221.676944,-740.205942
1483.615254,-12657.521608,1532.190996,1332.370696
1483.615566,-13323.706956,536.266849,2516.700203
1483.615877,-12731.542202,1608.800546,2886.803174
1483.616189,-11325.150913,4366.744339,2294.638420
1483.616500,-8364.327145,5745.716235,814.226536
1483.616812,-6143.709319,6281.983084,296.082377
1483.617123,-6513.812290,4366.744339,-1110.308913
1483.617435,-6217.729913,3140.991542,-1332.370696
1483.617746,-7698.141797,2145.067394,-1258.350101
1483.618058,-8956.491898,2374.896044,148.041188
1483.618369,-9400.615463,1532.190996,-74.020594
1483.618681,-9030.512492,-459.657299,1258.350101
1483.618992,-7920.203579,-2451.505594,1258.350101
1483.619304,-8068.244768,-1838.629195,1406.391290
1483.619615,-9252.574275,1685.410096,888.247130
1483.619927,-10066.800811,6052.154434,-0.000000
1483.620238,-10510.924376,9193.145976,-444.123565
1483.620550,-10362.883188,9806.022374,592.164754
1483.620861,-9992.780217,7507.735880,444.123565
1483.621173,-8438.347739,3983.696590,814.226536
1483.621484,-7402.059420,2911.162892,444.123565
1483.621796,-6883.915261,3677.258390,666.185348
1483.622107,-5625.565159,3524.039291,592.164754
1483.622419,-5033.400406,1149.143247,444.123565
1483.622730,-4885.359217,-1838.629195,592.164754
1483.623042,-6735.874072,-1532.190996,-370.102971
1483.623353,-9474.636058,2528.115143,-1406.391290
1483.623665,-12435.459826,6588.421283,-1480.411884
1483.623977,-13545.768739,7890.783629,222.061783
1483.624288,-14137.933492,5362.668486,2072.576638
1483.624600,-14211.954086,2221.676944,3478.967927
1483.624911,-10881.027347,2068.457845,4145.153275
1483.625222,-7105.977043,2834.553343,3034.844362
1483.625534,-4589.276840,1378.971896,2072.576638
1483.625845,-3034.844362,-1302.362347,740.205942
1483.626157,-3775.050304,-3983.696590,-888.247130
1483.626468,-5551.544565,-3064.381992,-1406.391290
1483.626779,-6661.853478,1072.533697,-1628.453072
1483.627091,-9696.697840,4826.401637,-1184.329507
1483.627402,-13619.789333,4826.401637,-0.000000
1483.627714,-17024.736666,2374.896044,2146.597232
1483.628025,-18061.024985,3064.381992,3478.967927
1483.628336,-14582.057057,5439.278036,4145.153275
1483.628648,-9844.739029,7354.516781,2664.741391
1483.628959,-4885.359217,3830.477490,-0.000000
1483.629270,-2294.638420,-536.266849,-1184.329507
1483.629582,-666.185348,-612.876398,-2442.679609
1483.629893,-222.061783,2374.896044,-1924.535449
1483.630205,-5329.482782,4060.306139,-888.247130
1483.630516,-12065.356855,2528.115143,740.205942
1483.630827,-16432.571912,459.657299,814.226536
1483.631139,-16950.716072,3524.039291,888.247130
1483.631450,-13989.892304,6588.421283,814.226536
1483.631761,-11547.212695,5132.839837,-592.164754
1483.632073,-10288.862594,2145.067394,-1554.432478
1483.632384,-6809.894666,1455.581446,-1480.411884
1483.632696,-3775.050304,3447.429741,-1036.288319
1483.633007,-4663.297435,2834.553343,666.185348
1483.633318,-7402.059420,383.047749,2368.659014
1483.633630,-9696.697840,-1455.581446,3034.844362
1483.633941,-10214.842000,-1149.143247,3849.070898
1483.634253,-9474.636058,3677.258390,2368.659014
1483.634564,-10214.842000,7660.954980,-888.247130
1483.634875,-10066.800811,8197.221829,-3923.091493
1483.635187,-8734.430116,7201.297681,-4959.379811
1483.635498,-6291.750507,8197.221829,-3256.906145
1483.635809,-9696.697840,8656.879127,-1924.535449
1483.636121,-14137.933492,7354.516781,888.247130
1483.636432,-13249.686362,3217.601092,3997.112087
1483.636744,-10140.821405,-536.266849,5181.441594
1483.637055,-7105.977043,-1915.238745,4737.318029
1483.637366,-4441.235652,-612.876398,1110.308913
1483.637678,-3108.864956,766.095498,-1850.514855
1483.637989,-1924.535449,1991.848295,-2146.597232
1483.638301,-5477.523971,4673.182538,-1406.391290
1483.638612,-12361.439231,6511.811733,-296.082377
1483.638923,-16728.654289,7277.907231,2146.597232
1483.639235,-16136.489536,6435.202183,4885.359217
1483.639546,-11769.274478,3907.087040,4811.338623
1483.639857,-9104.533087,2911.162892,1406.391290
1483.640169,-5255.462188,2757.943793,-1406.391290
1483.640480,-1924.535449,2221.676944,-2146.597232
1483.640792,-4071.132681,-153.219100,-740.205942
1483.641103,-6069.688724,-306.438199,518.144159
1483.641414,-9104.533087,-1149.143247,1628.453072
1483.641726,-11843.295072,-4596.572988,4145.153275
1483.642037,-11399.171507,-3830.477490,3849.070898
1483.642348,-9400.615463,766.095498,1480.411884
1483.642660,-7105.977043,2834.553343,-1036.288319
1483.642971,-6883.915261,1685.410096,-740.205942
1483.643283,-9104.533087,766.095498,-1480.411884
1483.643594,-10881.027347,3600.648841,666.185348
1483.643905,-10955.047942,3907.087040,1702.473667
1483.644217,-11177.109724,612.876398,2812.782580
1483.644528,-9696.697840,-459.657299,2812.782580
1483.644840,-7846.182985,1149.143247,1184.329507
1483.645151,-7179.997637,766.095498,-0.000000
1483.645462,-7105.977043,1685.410096,-888.247130
1483.645774,-9474.636058,3983.696590,-1480.411884
1483.646085,-13619.789333,5056.230287,-2590.720797
1483.646396,-13175.665768,4979.620737,-2442.679609
1483.646708,-11769.274478,5056.230287,-3182.885551
1483.647019,-10362.883188,6588.421283,-2442.679609
1483.647331,-8586.388927,6205.373534,222.061783
1483.647642,-9178.553681,1455.581446,814.226536
1483.647953,-7994.224174,-1608.800546,3701.029710
1483.648265,-8660.409521,-2374.896044,4071.132681
1483.648576,-7920.203579,-1608.800546,3478.967927
1483.648888,-7328.038826,-842.705048,222.061783
1483.649199,-6291.750507,229.828649,-2072.576638
1483.649510,-7105.977043,1225.752797,-3849.070898
1483.649822,-8586.388927,2911.162892,-3701.029710
1483.650133,-10288.862594,3370.820191,-1628.453072
1483.650444,-11991.336260,536.266849,1110.308913
1483.650756,-12657.521608,-1991.848295,1998.556043
1483.651067,-10066.800811,-2145.067394,2664.741391
1483.651379,-7772.162391,-612.876398,2812.782580
1483.651690,-5699.585753,229.828649,2368.659014
1483.652001,-4293.194464,-153.219100,1702.473667
1483.652313,-5995.668130,-842.705048,2294.638420
1483.652624,-6365.771101,0.000000,2294.638420
1483.652935,-6365.771101,536.266849,2146.597232
1483.653247,-6809.894666,995.924147,-74.020594
1483.653558,-5847.626942,842.705048,-740.205942
1483.653870,-5847.626942,842.705048,-2368.659014
1483.654181,-7402.059420,1532.190996,-2812.782580
1483.654492,-9696.697840,2298.286494,-1110.308913
1483.654804,-13101.645173,766.095498,222.061783
1483.655115,-12953.603985,-995.924147,1998.556043
1483.655427,-12287.418637,-3217.601092,3552.988522
1483.655738,-10955.047942,-4443.353888,3849.070898
1483.656049,-9104.533087,-3830.477490,4219.173869
1483.656361,-8660.409521,-2987.772442,2220.617826
1483.656672,-8512.368333,-3064.381992,1480.411884
1483.656983,-7328.038826,-1072.533697,296.082377
1483.657295,-7402.059420,153.219100,-1554.432478
1483.657606,-8882.471304,2068.457845,-2442.679609
1483.657918,-8216.285956,2528.115143,-2368.659014
1483.658229,-10066.800811,1455.581446,-1850.514855
1483.658540,-12213.398043,919.314598,666.185348
1483.658852,-12731.542202,-536.266849,1850.514855
1483.659163,-13175.665768,-1302.362347,2146.597232
1483.659474,-12953.603985,-1991.848295,3034.844362
1483.659786,-10881.027347,-1762.019645,2368.659014
1483.660097,-10214.842000,-2451.505594,740.205942
1483.660409,-8882.471304,-842.705048,-74.020594
1483.660720,-7031.956449,689.485948,-148.041188
1483.661031,-6143.709319,995.924147,-962.267725
1483.661343,-5329.482782,2757.943793,-1702.473667
1483.661654,-4515.256246,3370.820191,-1036.288319
1483.661966,-4663.297435,2298.286494,-296.082377
1483.662277,-5625.565159,1762.019645,740.205942
1483.662588,-8364.327145,1608.800546,888.247130
1483.662900,-10807.006753,-919.314598,1480.411884
1483.663211,-10658.965565,-1762.019645,2072.576638
1483.663522,-10658.965565,-1991.848295,740.205942
1483.663834,-10807.006753,-1762.019645,-222.061783
1483.664145,-8364.327145,-766.095498,296.082377
1483.664457,-7550.100608,-1532.190996,-148.041188
1483.664768,-8512.368333,-842.705048,222.061783
1483.665079,-7254.018232,842.705048,888.247130
1483.665391,-5329.482782,2068.457845,518.144159
1483.665702,-4811.338623,2604.724693,444.123565
1483.666014,-4515.256246,2604.724693,-296.082377
1483.666325,-4811.338623,1685.410096,-962.267725
1483.666636,-8882.471304,229.828649,-1036.288319
1483.666948,-12509.480420,-919.314598,370.102971
1483.667259,-13619.789333,-689.485948,888.247130
1483.667570,-14359.995275,-919.314598,740.205942
1483.667882,-14952.160028,-2757.943793,1406.391290
1483.668193,-12361.439231,-2987.772442,1110.308913
1483.668505,-10214.842000,-1378.971896,-370.102971
1483.668816,-9474.636058,1915.238745,-222.061783
1483.669127,-8364.327145,2987.772442,-814.226536
1483.669439,-6217.729913,2834.553343,-592.164754
1483.669750,-4811.338623,3140.991542,-444.123565
1483.670061,-4071.132681,1532.190996,1332.370696
1483.670373,-5033.400406,-229.828649,1258.350101
1483.670684,-9844.739029,-1685.410096,1924.535449
1483.670996,-13841.851115,-2451.505594,2294.638420
1483.671307,-15026.180623,-2681.334243,2072.576638
1483.671618,-14285.974681,-2681.334243,1480.411884
1483.671930,-12879.583391,-2451.505594,-0.000000
1483.672241,-10140.821405,-3064.381992,-666.185348
1483.672553,-8364.327145,-2451.505594,-888.247130
1483.672864,-7994.224174,612.876398,-888.247130
1483.673175,-8586.388927,1915.238745,-370.102971
1483.673487,-5255.462188,2451.505594,814.226536
1483.673798,-2072.576638,1149.143247,1184.329507
1483.674109,-962.267725,-1838.629195,2886.803174
1483.674421,0.000000,-3600.648841,3182.885551
1483.674732,-4071.132681,-4596.572988,1850.514855
1483.675044,-10955.047942,-4366.744339,1702.473667
1483.675355,-14656.077652,-2298.286494,2368.659014
1483.675666,-16950.716072,-1915.238745,1776.494261
1483.675978,-16432.571912,-1072.533697,1332.370696
1483.676289,-14582.057057,-383.047749,-444.123565
1483.676601,-10584.944971,919.314598,-1480.411884
1483.676912,-7105.977043,4903.011187,-2072.576638
1483.677223,-5181.441594,5286.058936,-1554.432478
1483.677535,-1184.329507,4136.915689,814.226536
1483.677846,1184.329507,2604.724693,1036.288319
1483.678157,-296.082377,689.485948,1924.535449
1483.678469,-2590.720797,-536.266849,1924.535449
1483.678780,-8808.450710,-1225.752797,-370.102971
1483.679092,-15396.283594,306.438199,-296.082377
1483.679403,-18949.272115,306.438199,148.041188
1483.679714,-19467.416275,0.000000,740.205942
1483.680026,-16950.716072,-459.657299,296.082377
1483.680337,-15248.242405,0.000000,-1036.288319
1483.680648,-9696.697840,1991.848295,-1776.494261
1483.680960,-5403.503377,5132.839837,-1998.556043
1483.681271,-3404.947333,4979.620737,-222.061783
1483.681583,0.000000,2374.896044,1332.370696
1483.681894,740.205942,-459.657299,1480.411884
1483.682205,-2368.659014,-2681.334243,2146.597232
1483.682517,-8068.244768,-4826.401637,-0.000000
1483.682828,-11917.315666,-4596.572988,666.185348
1483.683140,-15322.262999,-3217.601092,1924.535449
1483.683451,-18061.024985,-3983.696590,4071.132681
1483.683762,-16654.633695,-5592.497135,4145.153275
1483.684074,-13989.892304,-4366.744339,1554.432478
1483.684385,-12361.439231,-689.485948,-814.226536
1483.684696,-6957.935855,3907.087040,-2368.659014
1483.685008,-3552.988522,6665.030833,-3478.967927
1483.685319,-2442.679609,6128.763984,-1480.411884
1483.685631,-962.267725,2374.896044,444.123565
1483.685942,-1036.288319,-1991.848295,2294.638420
1483.686253,-1628.453072,-995.924147,1702.473667
1483.686565,-3404.947333,-1378.971896,2590.720797
1483.686876,-8438.347739,-3907.087040,1036.288319
1483.687188,-14804.118840,-4826.401637,1184.329507
1483.687499,-19245.354492,-2221.676944,888.247130
1483.687810,-18949.272115,-229.828649,148.041188
1483.688122,-17394.839637,1685.410096,-518.144159
1483.688433,-14878.139434,1991.848295,-666.185348
1483.688744,-10881.027347,1762.019645,-962.267725
1483.689056,-5255.462188,1455.581446,-296.082377
1483.689367,-3404.947333,1149.143247,1480.411884
1483.689679,-2442.679609,229.828649,2368.659014
1483.689990,-3552.988522,-1072.533697,666.185348
1483.690301,-3997.112087,-536.266849,-740.205942
1483.690613,-7698.141797,-612.876398,-1480.411884
1483.690924,-12065.356855,0.000000,-74.020594
1483.691235,-13693.809927,306.438199,1628.453072
1483.691547,-16654.633695,-1225.752797,2664.741391
1483.691858,-15470.304188,-2604.724693,3923.091493
1483.692170,-11399.171507,-1838.629195,2072.576638
1483.692481,-8808.450710,-229.828649,-1258.350101
1483.692792,-5699.585753,3140.991542,-1924.535449
1483.693104,-2368.659014,4366.744339,-3256.906145
1483.693415,-3034.844362,4060.306139,-3552.988522
1483.693727,-5329.482782,4290.134789,-1036.288319
1483.694038,-3997.112087,2528.115143,888.247130
1483.694349,-4663.297435,-1762.019645,2368.659014
1483.694661,-7920.203579,-4519.963438,3404.947333
1483.694972,-9918.759623,-4749.792088,3775.050304
1483.695283,-11843.295072,-2834.553343,2146.597232
1483.695595,-13545.768739,0.000000,1776.494261
1483.695906,-13101.645173,766.095498,370.102971
1483.696218,-11473.192101,0.000000,-2294.638420
1483.696529,-9770.718434,459.657299,-3404.947333
1483.696840,-7476.080014,2681.334243,-2590.720797
1483.697152,-5921.647536,2528.115143,-1036.288319
1483.697463,-7698.141797,766.095498,-0.000000
1483.697775,-8808.450710,459.657299,2220.617826
1483.698086,-5921.647536,-383.047749,3034.844362
1483.698397,-4441.235652,-459.657299,2738.761985
1483.698709,-4737.318029,383.047749,2442.679609
1483.699020,-8438.347739,-612.876398,666.185348
1483.699331,-11103.089130,-842.705048,-0.000000
1483.699643,-13693.809927,0.000000,518.144159
1483.699954,-16654.633695,689.485948,592.164754
1483.700266,-14804.118840,-919.314598,592.164754
1483.700577,-12213.398043,-1915.238745,-518.144159
1483.700888,-10214.842000,-1149.143247,-1110.308913
1483.701200,-8586.388927,-536.266849,296.082377
1483.701511,-7105.977043,306.438199,444.123565
1483.701822,-7698.141797,-306.438199,2220.617826
1483.702134,-6587.832884,-1149.143247,4811.338623
1483.702445,-4737.318029,-2145.067394,3923.091493
1483.702757,-5403.503377,-1378.971896,2664.741391
1483.703068,-4515.256246,-766.095498,1702.473667
1483.703379,-5033.400406,-1302.362347,-0.000000
1483.703691,-8142.265362,-1225.752797,-592.164754
1483.704002,-11917.315666,-689.485948,-370.102971
1483.704314,-13175.665768,-995.924147,-1332.370696
1483.704625,-12213.398043,-1378.971896,-2368.659014
1483.704936,-12361.439231,0.000000,-2886.803174
1483.705248,-10584.944971,919.314598,-1850.514855
1483.705559,-7328.038826,1302.362347,-740.205942
1483.705870,-7920.203579,306.438199,740.205942
1483.706182,-7031.956449,0.000000,4293.194464
1483.706493,-3849.070898,-995.924147,5107.421000
1483.706805,-4071.132681,-1532.190996,3849.070898
1483.707116,-4071.132681,-689.485948,2368.659014
1483.707427,-7254.018232,306.438199,-1702.473667
1483.707739,-10955.047942,2604.724693,-3552.988522
1483.708050,-13323.706956,3907.087040,-4367.215058
1483.708361,-16210.510130,1915.238745,-5107.421000
1483.708673,-15100.201217,1378.971896,-3182.885551
1483.708984,-14730.098246,995.924147,-1998.556043
1483.709296,-13323.706956,0.000000,370.102971
1483.709607,-8882.471304,-229.828649,2960.823768
1483.709918,-6291.750507,0.000000,3330.926739
1483.710230,-5625.565159,1608.800546,4145.153275
1483.710541,-4663.297435,2757.943793,3108.864956
1483.710853,-3256.906145,1532.190996,1036.288319
1483.711164,-4811.338623,3064.381992,-1406.391290
1483.711475,-7254.018232,1762.019645,-1850.514855
1483.711787,-9252.574275,1915.238745,-1776.494261
1483.712098,-13767.830521,-306.438199,-592.164754
1483.712409,-13767.830521,-2604.724693,1184.329507
1483.712721,-11843.295072,-4213.525239,1628.453072
1483.713032,-9696.697840,-2298.286494,1776.494261
1483.713344,-9548.656652,-612.876398,1924.535449
1483.713655,-7550.100608,-383.047749,2368.659014
1483.713966,-5847.626942,153.219100,2886.803174
1483.714278,-4367.215058,1532.190996,4293.194464
1483.714589,-2368.659014,612.876398,4589.276840
1483.714901,-2960.823768,-1838.629195,2368.659014
1483.715212,-4441.235652,-2298.286494,1998.556043
1483.715523,-5033.400406,-1838.629195,-148.041188
1483.715835,-7105.977043,-2068.457845,-518.144159
1483.716146,-11917.315666,-2604.724693,-1036.288319
1483.716457,-13767.830521,-3447.429741,148.041188
1483.716769,-13915.871710,-3907.087040,-74.020594
1483.717080,-13323.706956,-3524.039291,444.123565
1483.717392,-13619.789333,-689.485948,1184.329507
1483.717703,-12509.480420,1838.629195,1332.370696
1483.718014,-9400.615463,4060.306139,740.205942
1483.718326,-8882.471304,4366.744339,1406.391290
1483.718637,-4885.359217,3140.991542,1998.556043
1483.718948,-1480.411884,2681.334243,-0.000000
1483.719260,-3330.926739,1838.629195,-1850.514855
1483.719571,-5921.647536,842.705048,-2220.617826
1483.719883,-10140.821405,306.438199,-2590.720797
1483.720194,-14878.139434,-612.876398,-1702.473667
1483.720505,-18061.024985,-1225.752797,296.082377
1483.720817,-18431.127956,-2911.162892,962.267725
1483.721128,-16432.571912,-2757.943793,1258.350101
1483.721440,-13175.665768,-842.705048,1850.514855
1483.721751,-11029.068536,0.000000,444.123565
1483.722062,-7698.141797,1455.581446,-0.000000
1483.722374,-4737.318029,2911.162892,666.185348
1483.722685,-2812.782580,3064.381992,518.144159
1483.722996,-1628.453072,1915.238745,222.061783
1483.723308,-3034.844362,0.000000,-814.226536
1483.723619,-3552.988522,-459.657299,-1554.432478
1483.723931,-5329.482782,-689.485948,296.082377
1483.724242,-9178.553681,-2145.067394,518.144159
1483.724553,-12583.501014,-2681.334243,666.185348
1483.724865,-13693.809927,-3140.991542,1998.556043
1483.725176,-11251.130318,-2987.772442,814.226536
1483.725487,-9326.594869,-995.924147,-666.185348
1483.725799,-8586.388927,1762.019645,-1036.288319
1483.726110,-6809.894666,1685.410096,-666.185348
1483.726421,-4663.297435,919.314598,-74.020594
1483.726733,-5329.482782,383.047749,1554.432478
1483.727044,-4293.194464,-612.876398,2442.679609
1483.727355,-2516.700203,-1378.971896,1554.432478
1483.727666,-5477.523971,-1762.019645,1702.473667
1483.727978,-7179.997637,-1762.019645,1998.556043
1483.728289,-11251.130318,-1302.362347,888.247130
1483.728600,-16580.613101,-689.485948,962.267725
1483.728912,-18431.127956,76.609550,1110.308913
1483.729223,-16210.510130,1149.143247,-814.226536
1483.729534,-13841.851115,2221.676944,-1924.535449
1483.729846,-11251.130318,1991.848295,-2072.576638
1483.730157,-7031.956449,1302.362347,-1702.473667
1483.730468,-6513.812290,1302.362347,-370.102971
1483.730780,-6661.853478,1608.800546,2516.700203
1483.731091,-5107.421000,842.705048,3478.967927
1483.731402,-7105.977043,306.438199,2368.659014
1483.731713,-8586.388927,306.438199,2368.659014
1483.732025,-8364.327145,995.924147,1184.329507
1483.732336,-10584.944971,1149.143247,-0.000000
1483.732647,-12139.377449,-153.219100,444.123565
1483.732959,-13471.748144,-995.924147,814.226536
1483.733270,-11991.336260,-2757.943793,-0.000000
1483.733581,-9548.656652,-2834.553343,-0.000000
1483.733893,-8808.450710,-2374.896044,-0.000000
1483.734204,-6883.915261,-995.924147,-592.164754
1483.734515,-5699.585753,995.924147,-518.144159
1483.734827,-6587.832884,1302.362347,518.144159
1483.735138,-6439.791695,1302.362347,2294.638420
1483.735449,-4737.318029,1072.533697,2812.782580
1483.735760,-5107.421000,-229.828649,3552.988522
1483.736072,-5477.523971,-1225.752797,3627.009116
1483.736383,-5181.441594,-1762.019645,1184.329507
1483.736694,-6809.894666,-153.219100,444.123565
1483.737006,-7846.182985,-1685.410096,-222.061783
1483.737317,-9474.636058,-2145.067394,-1702.473667
1483.737628,-10881.027347,-2528.115143,-3404.947333
1483.737940,-11547.212695,0.000000,-3404.947333
1483.738251,-12065.356855,689.485948,-1258.350101
1483.738562,-12139.377449,1455.581446,-666.185348
1483.738874,-13249.686362,2834.553343,666.185348
1483.739185,-10066.800811,3140.991542,3849.070898
1483.739496,-5329.482782,1991.848295,4293.194464
1483.739807,-3404.947333,229.828649,3108.864956
1483.740119,-3552.988522,306.438199,1036.288319
1483.740430,-7105.977043,-1225.752797,-1480.411884
1483.740741,-10436.903782,-766.095498,-3256.906145
1483.741053,-15692.365970,536.266849,-3627.009116
1483.741364,-17320.819043,383.047749,-2812.782580
1483.741675,-15396.283594,-1685.410096,-2220.617826
1483.741987,-15988.448347,-3370.820191,-1406.391290
1483.742298,-13471.748144,-2068.457845,962.267725
1483.742609,-10214.842000,-919.314598,1480.411884
1483.742921,-9030.512492,1225.752797,1776.494261
1483.743232,-6439.791695,2374.896044,4885.359217
1483.743543,-2072.576638,1455.581446,4663.297435
1483.743854,-1258.350101,-995.924147,3182.885551
1483.744166,-814.226536,-2451.505594,1406.391290
1483.744477,-3923.091493,-2221.676944,-148.041188
1483.744788,-5699.585753,-1991.848295,-444.123565
1483.745100,-12657.521608,-2068.457845,-740.205942
1483.745411,-15988.448347,-4366.744339,-74.020594
1483.745722,-13767.830521,-3907.087040,-1702.473667
1483.746034,-14211.954086,-1915.238745,-296.082377
1483.746345,-10807.006753,612.876398,814.226536
1483.746656,-8808.450710,2068.457845,-148.041188
1483.746968,-6883.915261,2987.772442,740.205942
1483.747279,-3627.009116,3294.210641,3182.885551
1483.747590,-2072.576638,1532.190996,4737.318029
1483.747901,740.205942,0.000000,4293.194464
1483.748213,296.082377,-842.705048,1924.535449
1483.748524,-3552.988522,-1608.800546,-0.000000
1483.748835,-8438.347739,-536.266849,-1702.473667
1483.749147,-15322.262999,1915.238745,-2220.617826
1483.749458,-18579.169144,1532.190996,-2294.638420
1483.749769,-19319.375086,689.485948,-1776.494261
1483.750081,-17320.819043,306.438199,-222.061783
1483.750392,-14434.015869,1302.362347,-222.061783
1483.750703,-11029.068536,766.095498,1924.535449
1483.751015,-4737.318029,383.047749,4293.194464
1483.751326,-2812.782580,459.657299,4441.235652
1483.751637,-3552.988522,0.000000,3404.947333
1483.751948,-5699.585753,536.266849,222.061783
1483.752260,-6439.791695,1762.019645,-1702.473667
1483.752571,-6439.791695,3983.696590,-2886.803174
1483.752882,-8364.327145,2298.286494,-1702.473667
1483.753194,-13397.727550,76.609550,-1628.453072
1483.753505,-15618.345376,-1762.019645,2368.659014
1483.753816,-12953.603985,-3600.648841,2738.761985
1483.754128,-11769.274478,-1378.971896,2368.659014
1483.754439,-9104.533087,1915.238745,-0.000000
1483.754750,-7105.977043,4060.306139,-1998.556043
1483.755062,-4515.256246,2221.676944,-1998.556043
1483.755373,-2146.597232,2451.505594,-1776.494261
1483.755684,-4219.173869,1685.410096,592.164754
1483.755995,-4959.379811,-1149.143247,1924.535449
1483.756307,-6143.709319,-4366.744339,2146.597232
1483.756618,-8956.491898,-5056.230287,2442.679609
1483.756929,-9474.636058,-4136.915689,2294.638420
1483.757241,-11843.295072,-4136.915689,2294.638420
1483.757552,-14508.036463,-3753.867940,1110.308913
1483.757863,-14359.995275,-1991.848295,296.082377
1483.758175,-12287.418637,766.095498,-1184.329507
1483.758486,-11103.089130,1378.971896,-740.205942
1483.758797,-9030.512492,1915.238745,-814.226536
1483.759109,-5551.544565,1685.410096,-962.267725
1483.759420,-5107.421000,1378.971896,-444.123565
1483.759731,-3552.988522,689.485948,1702.473667
1483.760042,-4663.297435,76.609550,222.061783
1483.760354,-5847.626942,1685.410096,-296.082377
1483.760665,-8068.244768,1455.581446,-74.020594
1483.760976,-12435.459826,-689.485948,-814.226536
1483.761288,-15100.201217,0.000000,518.144159
1483.761599,-17764.942608,842.705048,1110.308913
1483.761910,-16876.695478,-766.095498,2368.659014
1483.762222,-12805.562797,-1915.238745,1998.556043
1483.762533,-10881.027347,-2451.505594,-74.020594
1483.762844,-7698.141797,-612.876398,-0.000000
1483.763156,-3330.926739,459.657299,-1110.308913
1483.763467,-3775.050304,1378.971896,-1406.391290
1483.763778,-5403.503377,995.924147,148.041188
1483.764089,-5847.626942,-842.705048,1554.432478
1483.764401,-5773.606348,-1762.019645,2442.679609
1483.764712,-7550.100608,-1685.410096,2960.823768
1483.765023,-11103.089130,-1225.752797,2590.720797
1483.765335,-10955.047942,-536.266849,2220.617826
1483.765646,-12139.377449,76.609550,740.205942
1483.765957,-12361.439231,153.219100,1036.288319
1483.766269,-7179.997637,919.314598,-1036.288319
1483.766580,-6439.791695,919.314598,-3478.967927
1483.766891,-6439.791695,842.705048,-2886.803174
1483.767203,-4071.132681,1302.362347,-2072.576638
1483.767514,-4589.276840,536.266849,-518.144159
1483.767825,-6513.812290,-229.828649,1184.329507
1483.768136,-6439.791695,-1532.190996,4219.173869
1483.768448,-6883.915261,-2987.772442,4293.194464
1483.768759,-7920.203579,-1685.410096,3849.070898
1483.769070,-8660.409521,0.000000,2368.659014
1483.769382,-11251.130318,-995.924147,-222.061783
1483.769693,-13619.789333,-306.438199,-0.000000
1483.770004,-14582.057057,0.000000,-1036.288319
1483.770316,-13915.871710,383.047749,-1776.494261
1483.770627,-12213.398043,689.485948,-1924.535449
1483.770938,-10214.842000,1072.533697,-1776.494261
1483.771250,-8512.368333,383.047749,-666.185348
1483.771561,-7698.141797,995.924147,666.185348
1483.771872,-7920.203579,2145.067394,2146.597232
1483.772183,-8142.265362,2451.505594,1998.556043
1483.772495,-7550.100608,2451.505594,1776.494261
1483.772806,-7550.100608,2681.334243,814.226536
1483.773117,-6365.771101,2374.896044,-0.000000
1483.773429,-6661.853478,229.828649,370.102971
1483.773740,-10288.862594,-2451.505594,-370.102971
1483.774051,-13101.645173,-2374.896044,-0.000000
1483.774363,-12953.603985,-1915.238745,296.082377
1483.774674,-11621.233289,-2451.505594,-444.123565
1483.774985,-10362.883188,-2068.457845,-666.185348
1483.775297,-9918.759623,-995.924147,-1480.411884
1483.775608,-7105.977043,1225.752797,74.020594
1483.775919,-6513.812290,1532.190996,1480.411884
1483.776230,-7105.977043,1149.143247,3775.050304
1483.776542,-4071.132681,306.438199,5477.523971
1483.776853,-4663.297435,-2145.067394,2960.823768
1483.777164,-5181.441594,-3677.258390,3330.926739
1483.777476,-4737.318029,-1991.848295,-888.247130
1483.777787,-6661.853478,-153.219100,-2294.638420
1483.778098,-8290.306550,229.828649,-1924.535449
1483.778410,-11177.109724,-2298.286494,-1110.308913
1483.778721,-13101.645173,-2451.505594,-1036.288319
1483.779032,-13693.809927,-153.219100,-222.061783
1483.779344,-13249.686362,612.876398,1110.308913
1483.779655,-10288.862594,2145.067394,1258.350101
1483.779966,-8438.347739,3753.867940,1924.535449
1483.780277,-5699.585753,2451.505594,2442.679609
1483.780589,-2738.761985,383.047749,2738.761985
1483.780900,-3627.009116,383.047749,370.102971
1483.781211,-5329.482782,766.095498,-888.247130
1483.781523,-8956.491898,995.924147,-2738.761985
1483.781834,-12065.356855,459.657299,-2738.761985
1483.782145,-16062.468941,-229.828649,-1850.514855
1483.782457,-17320.819043,-1225.752797,370.102971
1483.782768,-16728.654289,-1685.410096,740.205942
1483.783079,-14582.057057,-689.485948,1628.453072
1483.783391,-12213.398043,-459.657299,2072.576638
1483.783702,-8364.327145,1685.410096,2220.617826
1483.784013,-3256.906145,3600.648841,962.267725
1483.784324,-3034.844362,3600.648841,1850.514855
1483.784636,-4219.173869,766.095498,1924.535449
1483.784947,-2294.638420,-689.485948,-666.185348
1483.785258,-4293.194464,153.219100,-1480.411884
1483.785570,-6957.935855,-1378.971896,-888.247130
1483.785881,-9178.553681,-3524.039291,-518.144159
1483.786192,-12805.562797,-3677.258390,370.102971
1483.786504,-13989.892304,-3447.429741,1036.288319
1483.786815,-13693.809927,-2834.553343,1480.411884
1483.787126,-13323.706956,-689.485948,148.041188
1483.787438,-12361.439231,2068.457845,518.144159
1483.787749,-8290.306550,1762.019645,666.185348
1483.788060,-4293.194464,689.485948,2072.576638
1483.788371,-2812.782580,1149.143247,3404.947333
1483.788683,-1406.391290,0.000000,1776.494261
1483.788994,0.000000,-306.438199,1258.350101
1483.789305,-1998.556043,-766.095498,-1110.308913
1483.789617,-6809.894666,-842.705048,-2220.617826
1483.789928,-10510.924376,-995.924147,-1702.473667
1483.790239,-14878.139434,-689.485948,-2072.576638
1483.790551,-18283.086767,229.828649,-0.000000
1483.790862,-17320.819043,-229.828649,888.247130
1483.791173,-15470.304188,229.828649,814.226536
1483.791485,-12731.542202,153.219100,1924.535449
1483.791796,-8142.265362,1149.143247,2146.597232
1483.792107,-3849.070898,1225.752797,2294.638420
1483.792418,-2442.679609,1532.190996,-0.000000
1483.792730,-3775.050304,2068.457845,592.164754
1483.793041,-4811.338623,842.705048,-74.020594
1483.793352,-6587.832884,76.609550,-2442.679609
1483.793664,-9474.636058,1685.410096,-1480.411884
1483.793975,-12805.562797,-459.657299,-518.144159
1483.794286,-15544.324782,-2374.896044,814.226536
1483.794598,-16654.633695,-2834.553343,2368.659014
1483.794909,-16506.592507,-2834.553343,2368.659014
1483.795220,-11769.274478,-919.314598,2664.741391
1483.795532,-7994.224174,-153.219100,888.247130
1483.795843,-7179.997637,0.000000,-0.000000
1483.796154,-3330.926739,1072.533697,-0.000000
1483.796465,-2368.659014,2681.334243,-740.205942
1483.796777,-2664.741391,2451.505594,1924.535449
1483.797088,-3182.885551,-842.705048,1628.453072
1483.797399,-5255.462188,-3600.648841,1998.556043
1483.797711,-7772.162391,-3983.696590,1924.535449
1483.798022,-11103.089130,-3064.381992,888.247130
1483.798333,-10584.944971,-919.314598,1184.329507
1483.798645,-11843.295072,-919.314598,-518.144159
1483.798956,-13471.748144,-1838.629195,1036.288319
1483.799267,-11029.068536,-2451.505594,592.164754
1483.799579,-10140.821405,-1302.362347,-592.164754
1483.799890,-8364.327145,2068.457845,296.082377
1483.800201,-7031.956449,2987.772442,148.041188
1483.800512,-5995.668130,2528.115143,740.205942
1483.800824,-4293.194464,1225.752797,1998.556043
1483.801135,-3775.050304,76.609550,1776.494261
1483.801446,-4589.276840,0.000000,296.082377
1483.801758,-7920.203579,1225.752797,-1258.350101
1483.802069,-11621.233289,1838.629195,-1998.556043
1483.802380,-13323.706956,536.266849,-1702.473667
1483.802692,-14730.098246,459.657299,-222.061783
1483.803003,-16210.510130,0.000000,296.082377
1483.803314,-15470.304188,-1149.143247,-0.000000
1483.803626,-12657.521608,-995.924147,74.020594
1483.803937,-10362.883188,459.657299,-222.061783
1483.804248,-7328.038826,1991.848295,-0.000000
1483.804559,-4737.318029,1991.848295,666.185348
1483.804871,-5403.503377,459.657299,1480.411884
1483.805182,-6513.812290,-995.924147,2886.803174
1483.805493,-6513.812290,-1302.362347,962.267725
1483.805805,-7105.977043,536.266849,-74.020594
1483.806116,-8364.327145,536.266849,-74.020594
1483.806427,-9178.553681,-1378.971896,-0.000000
1483.806739,-10214.842000,-2911.162892,370.102971
1483.807050,-11029.068536,-3294.210641,518.144159
1483.807361,-11177.109724,-2451.505594,518.144159
1483.807673,-10436.903782,-2145.067394,-444.123565
1483.807984,-11177.109724,306.438199,-1184.329507
1483.808295,-9400.615463,1532.190996,-222.061783
1483.808606,-6735.874072,1685.410096,-518.144159
1483.808918,-6883.915261,2987.772442,814.226536
1483.809229,-4737.318029,2757.943793,2664.741391
1483.809540,-2368.659014,76.609550,2072.576638
1483.809852,-3256.906145,-2528.115143,2442.679609
1483.810163,-6069.688724,-2298.286494,1332.370696
1483.810474,-7476.080014,-1378.971896,-0.000000
1483.810786,-10732.986159,-842.705048,-1702.473667
1483.811097,-15766.386565,76.609550,-2146.597232
1483.811408,-15766.386565,612.876398,-2072.576638
1483.811720,-14878.139434,-459.657299,-1702.473667
1483.812031,-13915.871710,383.047749,-74.020594
1483.812342,-11547.212695,766.095498,1258.350101
1483.812653,-9252.574275,1149.143247,1924.535449
1483.812965,-5107.421000,2145.067394,3552.988522
1483.813276,-3849.070898,842.705048,3997.112087
1483.813587,-4589.276840,76.609550,3108.864956
1483.813899,-3627.009116,536.266849,1036.288319
1483.814210,-4811.338623,1455.581446,-888.247130
1483.814521,-9178.553681,0.000000,-1332.370696
1483.814833,-11843.295072,-229.828649,-2072.576638
1483.815144,-14285.974681,0.000000,-1332.370696
1483.815455,-14285.974681,-1838.629195,-0.000000
1483.815767,-13619.789333,-3217.601092,1998.556043
1483.816078,-12731.542202,-2681.334243,962.267725
1483.816389,-12139.377449,-153.219100,814.226536
1483.816700,-8068.244768,1532.190996,1036.288319
1483.817012,-4737.318029,2221.676944,888.247130
1483.817323,-3701.029710,2681.334243,3034.844362
1483.817634,-814.226536,612.876398,3997.112087
1483.817946,-148.041188,-3600.648841,2368.659014
1483.818257,-3108.864956,-4443.353888,1776.494261
1483.818568,-7031.956449,-2068.457845,-370.102971
1483.818880,-9030.512492,0.000000,-1184.329507
1483.819191,-12805.562797,-459.657299,-2368.659014
1483.819502,-15618.345376,-1608.800546,-1554.432478
1483.819814,-13471.748144,-1991.848295,-1332.370696
1483.820125,-14656.077652,-306.438199,-1776.494261
1483.820436,-14582.057057,2451.505594,296.082377
1483.820747,-10807.006753,2987.772442,1258.350101
1483.821059,-7920.203579,2987.772442,3182.885551
1483.821370,-4737.318029,1532.190996,4219.173869
1483.821681,-740.205942,842.705048,3552.988522
1483.821993,962.267725,536.266849,592.164754
1483.822304,-2220.617826,1378.971896,-2738.761985
1483.822615,-7920.203579,2451.505594,-4367.215058
1483.822927,-13027.624579,1532.190996,-4885.359217
1483.823238,-16136.489536,919.314598,-2516.700203
1483.823549,-17616.901420,-995.924147,888.247130
1483.823861,-17912.983796,-3217.601092,1554.432478
1483.824172,-16284.530724,-2221.676944,1702.473667
1483.824483,-12213.398043,0.000000,1480.411884
1483.824794,-8438.347739,459.657299,1776.494261
1483.825106,-5255.462188,2221.676944,2368.659014
1483.825417,-3775.050304,2681.334243,1998.556043
1483.825728,-1776.494261,1378.971896,1406.391290
1483.826039,-1258.350101,-459.657299,1036.288319
1483.826351,-4071.132681,-1915.238745,-518.144159
1483.826662,-6957.935855,-1608.800546,-962.267725
1483.826973,-10584.944971,-1915.238745,-0.000000
1483.827285,-12213.398043,-2451.505594,666.185348
1483.827596,-14285.974681,-3907.087040,1258.350101
1483.827907,-14508.036463,-2987.772442,1258.350101
1483.828218,-11917.315666,-1608.800546,444.123565
1483.828530,-10436.903782,76.609550,-296.082377
1483.828841,-8734.430116,1685.410096,592.164754
1483.829152,-5625.565159,2681.334243,222.061783
1483.829463,-3478.967927,2604.724693,370.102971
1483.829775,-4441.235652,383.047749,1554.432478
1483.830086,-1258.350101,-1302.362347,2294.638420
1483.830397,-1480.411884,-689.485948,1776.494261
1483.830708,-5773.606348,-1685.410096,1924.535449
1483.831020,-9474.636058,-1991.848295,-0.000000
1483.831331,-13397.727550,-842.705048,-518.144159
1483.831642,-16876.695478,153.219100,-1480.411884
1483.831954,-17468.860231,-459.657299,-0.000000
1483.832265,-16136.489536,-689.485948,-740.205942
1483.832576,-13619.789333,1302.362347,-814.226536
1483.832887,-11473.192101,536.266849,962.267725
1483.833199,-9400.615463,0.000000,740.205942
1483.833510,-4885.359217,2221.676944,1406.391290
1483.833821,-3108.864956,4136.915689,1924.535449
1483.834132,-2590.720797,1838.629195,2294.638420
1483.834444,-3330.926739,-536.266849,-666.185348
1483.834755,-7476.080014,1608.800546,-1184.329507
1483.835066,-8808.450710,2681.334243,-222.061783
1483.835378,-11843.295072,1838.629195,-0.000000
1483.835689,-14878.139434,766.095498,1924.535449
1483.836000,-14211.954086,-1915.238745,1776.494261
1483.836311,-12287.418637,-3983.696590,1480.411884
1483.836623,-9622.677246,-1991.848295,-962.267725
1483.836934,-8068.244768,3753.867940,-3108.864956
1483.837245,-7105.977043,5056.230287,-3108.864956
1483.837556,-5773.606348,2298.286494,-814.226536
1483.837868,-4293.194464,0.000000,1998.556043
1483.838179,-3478.967927,-1762.019645,4219.173869
1483.838490,-3775.050304,-2528.115143,5329.482782
1483.838801,-6069.688724,-3830.477490,4441.235652
1483.839113,-8364.327145,-2911.162892,1554.432478
1483.839424,-9474.636058,-995.924147,1406.391290
1483.839735,-8586.388927,-1072.533697,222.061783
1483.840047,-11103.089130,-1225.752797,-814.226536
1483.840358,-12731.542202,-1762.019645,-1406.391290
1483.840669,-11325.150913,-2221.676944,-2368.659014
1483.840980,-10510.924376,459.657299,-2368.659014
1483.841292,-10436.903782,2145.067394,-814.226536
1483.841603,-8882.471304,2681.334243,-962.267725
1483.841914,-8586.388927,1762.019645,-148.041188
1483.842225,-7402.059420,1149.143247,3108.864956
1483.842537,-3256.906145,1225.752797,3701.029710
1483.842848,-2664.741391,153.219100,2812.782580
1483.843159,-6069.688724,-766.095498,1850.514855
1483.843470,-10955.047942,-1302.362347,888.247130
1483.843782,-13323.706956,-995.924147,-1924.535449
1483.844093,-15914.427753,1225.752797,-1332.370696
1483.844404,-16580.613101,229.828649,-962.267725
1483.844716,-14434.015869,-2451.505594,-1850.514855
1483.845027,-12065.356855,-2068.457845,-1036.288319
1483.845338,-11399.171507,-1225.752797,222.061783
1483.845649,-9400.615463,0.000000,1258.350101
1483.845961,-7550.100608,2374.896044,1480.411884
1483.846272,-6957.935855,3064.381992,3552.988522
1483.846583,-2442.679609,1225.752797,3552.988522
1483.846894,-1036.288319,229.828649,1702.473667
1483.847206,-3627.009116,0.000000,1258.350101
1483.847517,-6587.832884,-306.438199,148.041188
1483.847828,-9178.553681,-153.219100,-222.061783
1483.848140,-11917.315666,-689.485948,-370.102971
1483.848451,-12213.398043,-2068.457845,296.082377
1483.848762,-9844.739029,-5056.230287,-1184.329507
1483.849073,-9474.636058,-4136.915689,-2368.659014
1483.849385,-11103.089130,-766.095498,-2442.679609
1483.849696,-10732.986159,2374.896044,-1776.494261
1483.850007,-9104.533087,4136.915689,666.185348
1483.850318,-8216.285956,4060.306139,2516.700203
1483.850630,-5995.668130,612.876398,5699.585753
1483.850941,-1628.453072,-1991.848295,5477.523971
1483.851252,0.000000,-2221.676944,4293.194464
1483.851563,-2738.761985,-1685.410096,1924.535449
1483.851875,-7328.038826,-842.705048,-1184.329507
1483.852186,-13471.748144,612.876398,-3627.009116
1483.852497,-16284.530724,2145.067394,-2664.741391
1483.852809,-15396.283594,919.314598,-2442.679609
1483.853120,-15322.262999,0.000000,-2812.782580
1483.853431,-15470.304188,919.314598,-1406.391290
1483.853742,-12361.439231,995.924147,-74.020594
1483.854054,-9770.718434,919.314598,-0.000000
1483.854365,-8216.285956,2068.457845,2368.659014
1483.854676,-5181.441594,2604.724693,4515.256246
1483.854987,-962.267725,-306.438199,3701.029710
1483.855299,-592.164754,-1685.410096,2146.597232
1483.855610,-5329.482782,-612.876398,-0.000000
1483.855921,-8956.491898,1608.800546,-1628.453072
1483.856233,-12805.562797,2068.457845,-2220.617826
1483.856544,-17838.963202,842.705048,-296.082377
1483.856855,-16506.592507,-2451.505594,962.267725
1483.857166,-12657.521608,-3294.210641,148.041188
1483.857478,-11843.295072,-1532.190996,-592.164754
1483.857789,-9918.759623,229.828649,-888.247130
1483.858100,-6883.915261,1915.238745,-370.102971
1483.858411,-5477.523971,2145.067394,148.041188
1483.858723,-3627.009116,1302.362347,1480.411884
1483.859034,-1036.288319,-536.266849,2516.700203
1483.859345,-222.061783,-2757.943793,3478.967927
1483.859656,-2368.659014,-4366.744339,4219.173869
1483.859968,-5329.482782,-4903.011187,3627.009116
1483.860279,-10362.883188,-3447.429741,2368.659014
1483.860590,-15026.180623,-2221.676944,2368.659014
1483.860902,-13841.851115,-1378.971896,888.247130
1483.861213,-12731.542202,-1072.533697,-2146.597232
1483.861524,-12657.521608,383.047749,-2516.700203
1483.861835,-11251.130318,2298.286494,-1776.494261
1483.862147,-8808.450710,2604.724693,-666.185348
1483.862458,-8142.265362,2911.162892,-222.061783
1483.862769,-7772.162391,2528.115143,518.144159
1483.863080,-6217.729913,1608.800546,1406.391290
1483.863392,-3404.947333,1072.533697,2294.638420
1483.863703,-2294.638420,-229.828649,1258.350101
1483.864014,-4367.215058,-1762.019645,1554.432478
1483.864325,-8882.471304,-1838.629195,1776.494261
1483.864637,-15618.345376,-459.657299,1184.329507
1483.864948,-18653.189738,459.657299,592.164754
1483.865259,-15914.427753,842.705048,-740.205942
1483.865571,-13767.830521,1455.581446,-1332.370696
1483.865882,-11991.336260,1072.533697,-1554.432478
1483.866193,-7698.141797,919.314598,-1924.535449
1483.866504,-7402.059420,-306.438199,-962.267725
1483.866816,-7846.182985,995.924147,1628.453072
1483.867127,-6143.709319,1378.971896,3034.844362
1483.867438,-5847.626942,-229.828649,1406.391290
1483.867749,-5625.565159,-536.266849,2072.576638
1483.868061,-5403.503377,-536.266849,2220.617826
1483.868372,-7402.059420,-1072.533697,1184.329507
1483.868683,-9770.718434,76.609550,1850.514855
1483.868995,-12583.501014,-995.924147,1332.370696
1483.869306,-11177.109724,-2221.676944,666.185348
1483.869617,-7846.182985,-383.047749,-296.082377
1483.869928,-7476.080014,689.485948,-2738.761985
1483.870240,-6291.750507,1455.581446,-3849.070898
1483.870551,-5181.441594,3217.601092,-2664.741391
1483.870862,-6217.729913,2911.162892,-1480.411884
1483.871173,-7698.141797,842.705048,592.164754
1483.871485,-8290.306550,-1225.752797,2072.576638
1483.871796,-6883.915261,-842.705048,3627.009116
1483.872107,-6957.935855,-1532.190996,3997.112087
1483.872418,-7031.956449,-2987.772442,2664.741391
1483.872730,-9770.718434,-1532.190996,1184.329507
1483.873041,-13767.830521,-153.219100,666.185348
1483.873352,-12435.459826,153.219100,-0.000000
1483.873664,-11769.274478,-536.266849,-1776.494261
1483.873975,-12657.521608,-612.876398,-2368.659014
1483.874286,-11547.212695,306.438199,-1776.494261
1483.874597,-9104.533087,689.485948,-1628.453072
1483.874909,-9992.780217,1455.581446,-518.144159
1483.875220,-10955.047942,0.000000,1776.494261
1483.875531,-7550.100608,0.000000,2590.720797
1483.875842,-4885.359217,153.219100,2590.720797
1483.876154,-4441.235652,76.609550,1998.556043
1483.876465,-5699.585753,-1302.362347,666.185348
1483.876776,-9178.553681,-1915.238745,370.102971
1483.877088,-11843.295072,-612.876398,148.041188
1483.877399,-14730.098246,-229.828649,-0.000000
1483.877710,-13989.892304,-229.828649,-0.000000
1483.878021,-12287.418637,-1532.190996,-888.247130
1483.878333,-11695.253884,-3677.258390,-1036.288319
1483.878644,-7624.121203,-1915.238745,-0.000000
1483.878955,-7476.080014,1302.362347,-814.226536
1483.879266,-8734.430116,2451.505594,740.205942
1483.879578,-7031.956449,1532.190996,1850.514855
1483.879889,-4441.235652,689.485948,1924.535449
1483.880200,-2294.638420,0.000000,3701.029710
1483.880511,-1554.432478,-1685.410096,3478.967927
1483.880823,-3923.091493,-3753.867940,1776.494261
1483.881134,-8882.471304,-2374.896044,1110.308913
1483.881445,-11103.089130,-1149.143247,1850.514855
1483.881757,-11547.212695,-536.266849,-1332.370696
1483.882068,-13619.789333,766.095498,-2738.761985
1483.882379,-13027.624579,1838.629195,-1554.432478
1483.882690,-11029.068536,1608.800546,-1406.391290
1483.883002,-7846.182985,3217.601092,222.061783
1483.883313,-7328.038826,2834.553343,1036.288319
1483.883624,-5699.585753,1149.143247,4071.132681
1483.883935,-2072.576638,-306.438199,4515.256246
1483.884247,-2812.782580,-612.876398,2072.576638
1483.884558,-4441.235652,76.609550,-296.082377
1483.884869,-8290.306550,0.000000,-2146.597232
1483.885180,-13989.892304,919.314598,-2738.761985
1483.885492,-16580.613101,1455.581446,-2072.576638
1483.885803,-17024.736666,-689.485948,-740.205942
1483.886114,-15248.242405,-1838.629195,814.226536
1483.886426,-14952.160028,-3064.381992,1554.432478
1483.886737,-11251.130318,-1991.848295,1554.432478
1483.887048,-6735.874072,1302.362347,962.267725
1483.887359,-7105.977043,2298.286494,1924.535449
1483.887671,-4071.132681,3677.258390,2294.638420
1483.887982,-2886.803174,1608.800546,-0.000000
1483.888293,-3923.091493,536.266849,-1036.288319
1483.888604,-4959.379811,-1072.533697,-296.082377
1483.888916,-7624.121203,-1838.629195,-888.247130
1483.889227,-11325.150913,-1915.238745,-0.000000
1483.889538,-14137.933492,-3294.210641,1332.370696
1483.889850,-14952.160028,-5362.668486,2146.597232
1483.890161,-13249.686362,-4213.525239,2368.659014
1483.890472,-10658.965565,-1455.581446,1184.329507
1483.890783,-8068.244768,-842.705048,740.205942
1483.891095,-5551.544565,-1302.362347,1480.411884
1483.891406,-3627.009116,-766.095498,592.164754
1483.891717,-2812.782580,-1838.629195,1258.350101
1483.892028,-2516.700203,-3524.039291,814.226536
1483.892340,-2220.617826,-3830.477490,814.226536
1483.892651,-4367.215058,-3600.648841,-888.247130
1483.892962,-7328.038826,-3907.087040,-370.102971
1483.893273,-11843.295072,-3524.039291,-74.020594
1483.893585,-14730.098246,-3370.820191,888.247130
1483.893896,-16876.695478,-3370.820191,1258.350101
1483.894207,-16136.489536,-2681.334243,1332.370696
1483.894519,-13397.727550,-689.485948,444.123565
1483.894830,-11029.068536,-459.657299,814.226536
1483.895141,-7772.162391,-1302.362347,370.102971
1483.895452,-5403.503377,-1302.362347,-444.123565
1483.895764,-4885.359217,-306.438199,-74.020594
1483.896075,-4737.318029,-1225.752797,296.082377
1483.896386,-5403.503377,-2068.457845,-222.061783
1483.896697,-8438.347739,-1608.800546,-1258.350101
1483.897009,-10362.883188,-1608.800546,666.185348
1483.897320,-11843.295072,-2221.676944,1036.288319
1483.897631,-14285.974681,-2451.505594,2220.617826
1483.897943,-15100.201217,-2987.772442,3034.844362
1483.898254,-12805.562797,-4979.620737,2590.720797
1483.898565,-9474.636058,-4903.011187,-74.020594
1483.898876,-5699.585753,-3140.991542,-2220.617826
1483.899188,-3034.844362,-2681.334243,-1924.535449
1483.899499,-4441.235652,-5745.716235,-2220.617826
1483.899810,-6957.935855,-5362.668486,-1036.288319
1483.900121,-7624.121203,-3907.087040,444.123565
1483.900433,-10658.965565,-4979.620737,2072.576638
1483.900744,-11103.089130,-5669.106685,3627.009116
1483.901055,-9104.533087,-6665.030833,2220.617826
1483.901366,-8290.306550,-6588.421283,1998.556043
1483.901678,-7328.038826,-4903.011187,1406.391290
1483.901989,-9030.512492,-1072.533697,222.061783
1483.902300,-10362.883188,383.047749,-666.185348
1483.902612,-9030.512492,919.314598,-222.061783
1483.902923,-7254.018232,-1302.362347,-740.205942
1483.903234,-7698.141797,-2834.553343,-1924.535449
1483.903545,-5329.482782,-1685.410096,-2294.638420
1483.903857,-4737.318029,-766.095498,-2664.741391
1483.904168,-8068.244768,-2681.334243,-370.102971
1483.904479,-11769.274478,-4213.525239,2368.659014
1483.904790,-14804.118840,-3677.258390,3627.009116
1483.905102,-15396.283594,-2298.286494,4145.153275
1483.905413,-12213.398043,-1225.752797,3478.967927
1483.905724,-8882.471304,-919.314598,666.185348
1483.906035,-4515.256246,459.657299,-1776.494261
1483.906347,-1406.391290,-153.219100,-1258.350101
1483.906658,-3552.988522,-3600.648841,-740.205942
1483.906969,-8068.244768,-2834.553343,444.123565
1483.907281,-13397.727550,-1532.190996,370.102971
1483.907592,-14285.974681,-1608.800546,1332.370696
1483.907903,-12361.439231,-3983.696590,1924.535449
1483.908214,-11029.068536,-5822.325785,1036.288319
1483.908526,-8068.244768,-5975.544884,-0.000000
1483.908837,-6439.791695,-6818.249932,296.082377
1483.909148,-6735.874072,-5209.449386,1258.350101
1483.909459,-9622.677246,-2911.162892,2664.741391
1483.909771,-11695.253884,-2681.334243,3775.050304
1483.910082,-10214.842000,-3370.820191,3627.009116
1483.910393,-7550.100608,-2528.115143,2738.761985
1483.910705,-2812.782580,-612.876398,1110.308913
1483.911016,-2146.597232,-1225.752797,-1480.411884
1483.911327,-2368.659014,-3600.648841,-2368.659014
1483.911638,-3034.844362,-4443.353888,-2886.803174
1483.911950,-5847.626942,-3447.429741,-740.205942
1483.912261,-10066.800811,-3600.648841,1258.350101
1483.912572,-15988.448347,-5669.106685,2516.700203
1483.912883,-16654.633695,-5745.716235,3404.947333
1483.913195,-14211.954086,-3677.258390,3034.844362
1483.913506,-10584.944971,-2834.553343,1776.494261
1483.913817,-7772.162391,-4136.915689,-592.164754
1483.914128,-5995.668130,-5669.106685,-1924.535449
1483.914440,-3478.967927,-4443.353888,-2886.803174
1483.914751,-2368.659014,-1532.190996,-1924.535449
1483.915062,-5921.647536,-459.657299,-1258.350101
1483.915374,-10732.986159,-2911.162892,1332.370696
1483.915685,-13619.789333,-6052.154434,2738.761985
1483.915996,-14211.954086,-4366.744339,3923.091493
1483.916307,-13619.789333,76.609550,2516.700203
1483.916619,-12731.542202,1072.533697,-0.000000
1483.916930,-10362.883188,-1149.143247,-1702.473667
1483.917241,-5995.668130,-2987.772442,-3034.844362
1483.917552,-4663.297435,-1991.848295,-2664.741391
1483.917864,-7105.977043,-995.924147,-2886.803174
1483.918175,-10362.883188,-766.095498,-962.267725
1483.918486,-11843.295072,-2221.676944,1554.432478
1483.918798,-13101.645173,-5669.106685,2368.659014
1483.919109,-13397.727550,-5898.935335,2590.720797
1483.919420,-11177.109724,-3600.648841,2220.617826
1483.919731,-9474.636058,-2834.553343,1406.391290
1483.920043,-5921.647536,-3064.381992,518.144159
1483.920354,-3701.029710,-3294.210641,-666.185348
1483.920665,-3552.988522,-3830.477490,-1406.391290
1483.920976,-5699.585753,-2451.505594,-814.226536
1483.921288,-8216.285956,-1149.143247,-0.000000
1483.921599,-9400.615463,1762.019645,-814.226536
1483.921910,-10732.986159,2604.724693,222.061783
1483.922221,-10362.883188,536.266849,1184.329507
1483.922533,-11695.253884,-1532.190996,1110.308913
1483.922844,-10732.986159,-1991.848295,2368.659014
1483.923155,-8882.471304,-1532.190996,1554.432478
1483.923467,-8216.285956,-1532.190996,1480.411884
1483.923778,-6365.771101,-1532.190996,592.164754
1483.924089,-4737.318029,-3370.820191,-0.000000
1483.924401,-2738.761985,-5515.887586,222.061783
1483.924712,-3330.926739,-6511.811733,888.247130
1483.925023,-5921.647536,-5056.230287,592.164754
1483.925335,-9474.636058,-3677.258390,-0.000000
1483.925646,-11991.336260,-3064.381992,1332.370696
1483.925958,-12065.356855,-4060.306139,2368.659014
1483.926269,-12435.459826,-5975.544884,2886.803174
1483.926581,-11547.212695,-7124.688131,4071.132681
1483.926892,-10584.944971,-7124.688131,3108.864956
1483.927203,-8438.347739,-5669.106685,1998.556043
1483.927515,-5921.647536,-5209.449386,740.205942
1483.927826,-5255.462188,-4979.620737,518.144159
1483.928138,-4737.318029,-4136.915689,370.102971
1483.928449,-4959.379811,-4443.353888,-1480.411884
1483.928760,-6291.750507,-3447.429741,-2146.597232
1483.929072,-8512.368333,-2528.115143,-1184.329507
1483.929383,-11325.150913,-2068.457845,-296.082377
1483.929695,-13545.768739,-1915.238745,666.185348
1483.930006,-15766.386565,-2604.724693,1258.350101
1483.930318,-16580.613101,-2911.162892,2368.659014
1483.930629,-14878.139434,-1302.362347,2146.597232
1483.930940,-12065.356855,-1915.238745,1702.473667
1483.931252,-8956.491898,-3370.820191,1258.350101
1483.931563,-4515.256246,-5362.668486,370.102971
1483.931875,-2590.720797,-5669.106685,-666.185348
1483.932186,-3997.112087,-4060.306139,-2294.638420
1483.932497,-4737.318029,-2374.896044,-2590.720797
1483.932809,-7105.977043,-995.924147,-3256.906145
1483.933120,-10510.924376,-1149.143247,-1776.494261
1483.933432,-12731.542202,-1608.800546,-148.041188
1483.933743,-14508.036463,-2145.067394,1332.370696
1483.934055,-13841.851115,-2911.162892,2220.617826
1483.934366,-12583.501014,-2834.553343,1554.432478
1483.934677,-8882.471304,-3294.210641,1110.308913
1483.934989,-6587.832884,-2528.115143,-148.041188
1483.935300,-5255.462188,-1762.019645,740.205942
1483.935612,-3849.070898,-1455.581446,296.082377
1483.935923,-4367.215058,-1072.533697,740.205942
1483.936234,-4737.318029,-612.876398,296.082377
1483.936546,-6069.688724,-1762.019645,148.041188
1483.936857,-7105.977043,-2221.676944,-444.123565
1483.937169,-7624.121203,-1685.410096,-666.185348
1483.937480,-9252.574275,-2604.724693,-0.000000
1483.937791,-11103.089130,-4290.134789,962.267725
1483.938103,-11621.233289,-4060.306139,1850.514855
1483.938414,-11621.233289,-3983.696590,2516.700203
1483.938726,-10510.924376,-4749.792088,2516.700203
1483.939037,-9030.512492,-5515.887586,2072.576638
1483.939349,-7476.080014,-3370.820191,1332.370696
1483.939660,-6069.688724,-1762.019645,-222.061783
1483.939971,-5477.523971,-1225.752797,-1406.391290
1483.940283,-5477.523971,-1225.752797,-1850.514855
1483.940594,-5033.400406,-1378.971896,-1406.391290
1483.940906,-6587.832884,-2834.553343,-444.123565
1483.941217,-9622.677246,-3140.991542,148.041188
1483.941528,-11991.336260,-3983.696590,1776.494261
1483.941840,-13545.768739,-5286.058936,2664.741391
1483.942151,-14211.954086,-5745.716235,3478.967927
1483.942463,-13915.871710,-4979.620737,3256.906145
1483.942774,-12139.377449,-3524.039291,2146.597232
1483.943086,-9918.759623,-2528.115143,740.205942
1483.943397,-7031.956449,-766.095498,-0.000000
1483.943708,-5699.585753,0.000000,-888.247130
1483.944020,-5181.441594,-995.924147,-1258.350101
1483.944331,-5477.523971,-2145.067394,-592.164754
1483.944643,-6735.874072,-3447.429741,-74.020594
1483.944954,-8586.388927,-4136.915689,518.144159
1483.945265,-10436.903782,-5439.278036,1184.329507
1483.945577,-11917.315666,-5515.887586,1776.494261
1483.945888,-13693.809927,-6205.373534,2220.617826
1483.946200,-13471.748144,-5439.278036,2368.659014
1483.946511,-11991.336260,-4903.011187,1850.514855
1483.946823,-9770.718434,-3753.867940,1628.453072
1483.947134,-7105.977043,-2987.772442,1036.288319
1483.947445,-5403.503377,-2145.067394,148.041188
1483.947757,-4071.132681,-919.314598,-0.000000
1483.948068,-4367.215058,0.000000,-814.226536
1483.948380,-5033.400406,-153.219100,-740.205942
1483.948691,-5921.647536,0.000000,-962.267725
1483.949002,-8290.306550,-1149.143247,-370.102971
1483.949314,-9918.759623,-2451.505594,222.061783
1483.949625,-11103.089130,-2604.724693,1036.288319
1483.949937,-10140.821405,-2757.943793,1702.473667
1483.950248,-11029.068536,-3140.991542,1258.350101
1483.950559,-7920.203579,-2145.067394,1554.432478
1483.950871,-8216.285956,-2451.505594,-0.000000
1483.951182,-6661.853478,-2757.943793,-0.000000
1483.951494,-4515.256246,-1532.190996,-518.144159
1483.951805,-5625.565159,-2374.896044,-1110.308913
1483.952117,-7402.059420,-3524.039291,444.123565
1483.952428,-11029.068536,-4979.620737,-0.000000
1483.952739,-11325.150913,-3677.258390,1110.308913
1483.953051,-11843.295072,-2451.505594,2146.597232
1483.953362,-11917.315666,-3064.381992,2664.741391
1483.953674,-11917.315666,-4366.744339,1998.556043
1483.953985,-10510.924376,-4443.353888,2516.700203
1483.954296,-8956.491898,-2068.457845,2738.761985
1483.954608,-9474.636058,-306.438199,1924.535449
1483.954919,-10807.006753,1378.971896,1480.411884
1483.955231,-9918.759623,1532.190996,1110.308913
1483.955542,-8882.471304,536.266849,518.144159
1483.955854,-6661.853478,306.438199,1036.288319
1483.956165,-6365.771101,76.609550,666.185348
1483.956476,-8216.285956,-2145.067394,1184.329507
1483.956788,-9030.512492,-4366.744339,3478.967927
1483.957099,-11103.089130,-4826.401637,3997.112087
1483.957411,-11325.150913,-2068.457845,6217.729913
1483.957722,-13545.768739,-2451.505594,5847.626942
1483.958033,-12435.459826,-2987.772442,7031.956449
1483.958345,-8808.450710,-1149.143247,3997.112087
1483.958656,-5995.668130,1378.971896,3849.070898
1483.958968,-4885.359217,1225.752797,2516.700203
1483.959279,-4293.194464,-229.828649,2072.576638
1483.959591,-6217.729913,-536.266849,1702.473667
1483.959902,-5329.482782,536.266849,3923.091493
1483.960213,-8808.450710,153.219100,3330.926739
1483.960525,-11695.253884,-842.705048,5107.421000
1483.960836,-11843.295072,-153.219100,6513.812290
1483.961148,-10140.821405,-1532.190996,6439.791695
1483.961459,-7920.203579,-1149.143247,7254.018232
1483.961770,-8512.368333,0.000000,5255.462188
1483.962082,-7105.977043,1149.143247,5181.441594
1483.962393,-5107.421000,1455.581446,3404.947333
1483.962705,-4737.318029,1762.019645,3108.864956
1483.963016,-5107.421000,2834.553343,1924.535449
1483.963328,-7698.141797,2068.457845,3108.864956
1483.963639,-8734.430116,689.485948,3923.091493
1483.963950,-8364.327145,-383.047749,4737.318029
1483.964262,-9252.574275,-1532.190996,5329.482782
1483.964573,-9770.718434,-1991.848295,5773.606348
1483.964885,-9548.656652,-3140.991542,5847.626942
1483.965196,-8660.409521,-1302.362347,5329.482782
1483.965507,-8438.347739,76.609550,5107.421000
1483.965819,-9474.636058,1685.410096,3404.947333
1483.966130,-10807.006753,2068.457845,3404.947333
1483.966442,-10066.800811,3447.429741,3034.844362
1483.966753,-8438.347739,3294.210641,2812.782580
1483.967064,-8142.265362,2221.676944,2738.761985
1483.967376,-7476.080014,0.000000,2516.700203
1483.967687,-7402.059420,0.000000,2220.617826
1483.967999,-6809.894666,-536.266849,3108.864956
1483.968310,-7179.997637,-1608.800546,3701.029710
1483.968622,-9178.553681,-1762.019645,4293.194464
1483.968933,-10955.047942,-1838.629195,4293.194464
1483.969244,-11621.233289,-229.828649,4367.215058
1483.969556,-10955.047942,-153.219100,3849.070898
1483.969867,-10955.047942,536.266849,3404.947333
1483.970179,-9992.780217,842.705048,2294.638420
1483.970490,-9400.615463,306.438199,1998.556043
1483.970801,-7994.224174,536.266849,1332.370696
1483.971113,-8142.265362,459.657299,2146.597232
1483.971424,-9548.656652,-766.095498,3034.844362
1483.971736,-9474.636058,-1991.848295,4219.173869
1483.972047,-9548.656652,-2221.676944,4589.276840
1483.972359,-8512.368333,-2298.286494,5033.400406
1483.972670,-7920.203579,-766.095498,3997.112087
1483.972981,-7402.059420,-766.095498,3108.864956
1483.973293,-6735.874072,1149.143247,1702.473667
1483.973604,-6069.688724,2221.676944,-0.000000
1483.973916,-6809.894666,2604.724693,-592.164754
1483.974227,-8512.368333,3294.210641,74.020594
1483.974538,-10732.986159,2987.772442,1258.350101
1483.974850,-12435.459826,1225.752797,3034.844362
1483.975161,-12657.521608,-306.438199,4071.132681
1483.975473,-11695.253884,-1378.971896,5107.421000
1483.975784,-9696.697840,-2451.505594,4663.297435
1483.976096,-6809.894666,-3140.991542,3627.009116
1483.976407,-3923.091493,-2911.162892,2072.576638
1483.976718,-3849.070898,-1762.019645,1110.308913
1483.977030,-6365.771101,-766.095498,1480.411884
1483.977341,-9770.718434,0.000000,2960.823768
1483.977653,-12361.439231,0.000000,3997.112087
1483.977964,-14730.098246,995.924147,5329.482782
1483.978275,-14285.974681,995.924147,5847.626942
1483.978587,-11621.233289,76.609550,5181.441594
1483.978898,-7698.141797,-229.828649,4145.153275
1483.979210,-4293.194464,-306.438199,1924.535449
1483.979521,-3330.926739,-766.095498,1850.514855
1483.979832,-3775.050304,-459.657299,888.247130
1483.980144,-5699.585753,995.924147,2072.576638
1483.980455,-9474.636058,1072.533697,3108.864956
1483.980767,-12657.521608,919.314598,4663.297435
1483.981078,-14508.036463,1072.533697,5033.400406
1483.981390,-11917.315666,1455.581446,5181.441594
1483.981701,-9400.615463,612.876398,4219.173869
1483.982012,-7031.956449,-995.924147,2812.782580
1483.982324,-5107.421000,-1072.533697,2812.782580
1483.982635,-5107.421000,-1149.143247,3552.988522
1483.982947,-6883.915261,-842.705048,4589.276840
1483.983258,-9622.677246,-229.828649,6661.853478
1483.983569,-12435.459826,0.000000,7624.121203
1483.983881,-12583.501014,0.000000,8142.265362
1483.984192,-10436.903782,229.828649,6587.832884
1483.984504,-7402.059420,1302.362347,4145.153275
1483.984815,-5033.400406,3294.210641,1332.370696
1483.985127,-4219.173869,3064.381992,-666.185348
1483.985438,-4737.318029,2221.676944,-296.082377
1483.985749,-7254.018232,1685.410096,740.205942
1483.986061,-10140.821405,842.705048,3330.926739
1483.986372,-12361.439231,0.000000,6069.688724
1483.986684,-13841.851115,-3370.820191,8364.327145
1483.986995,-13841.851115,-3447.429741,9622.677246
1483.987306,-12139.377449,-3140.991542,9918.759623
1483.987618,-9622.677246,-1991.848295,8364.327145
1483.987929,-6439.791695,-612.876398,5477.523971
1483.988241,-3775.050304,995.924147,3182.885551
1483.988552,-1850.514855,1838.629195,518.144159
1483.988864,-1258.350101,2757.943793,-148.041188
1483.989175,-3775.050304,2757.943793,148.041188
1483.989486,-7402.059420,2221.676944,2146.597232
1483.989798,-11473.192101,153.219100,3923.091493
1483.990109,-14137.933492,-1225.752797,5699.585753
1483.990421,-15544.324782,-1838.629195,7179.997637
1483.990732,-14730.098246,-1762.019645,7328.038826
1483.991043,-11917.315666,-612.876398,6217.729913
1483.991355,-8512.368333,0.000000,4737.318029
1483.991666,-5625.565159,153.219100,3701.029710
1483.991978,-4145.153275,229.828649,2442.679609
1483.992289,-2886.803174,995.924147,2590.720797
1483.992601,-3997.112087,1149.143247,2146.597232
1483.992912,-5403.503377,766.095498,1554.432478
1483.993223,-6291.750507,536.266849,-74.020594
1483.993535,-7328.038826,-229.828649,-0.000000
1483.993846,-9696.697840,0.000000,222.061783
1483.994158,-12953.603985,-689.485948,1998.556043
1483.994469,-16654.633695,-689.485948,4367.215058
1483.994780,-19023.292709,-612.876398,6735.874072
1483.995092,-18357.107362,-306.438199,7994.224174
1483.995403,-14508.036463,-229.828649,7624.121203
1483.995715,-8882.471304,0.000000,6069.688724
1483.996026,-3404.947333,919.314598,3478.967927
1483.996337,962.267725,919.314598,-148.041188
1483.996649,5329.482782,689.485948,-4071.132681
1483.996960,4589.276840,-229.828649,-5699.585753
1483.997272,-962.267725,-766.095498,-3775.050304
1483.997583,-9474.636058,-383.047749,1036.288319
1483.997895,-19541.436869,-1838.629195,5995.668130
1483.998206,-27091.537477,-2681.334243,11325.150913
1483.998517,-27609.681637,-2145.067394,12657.521608
1483.998829,-20503.704593,-1608.800546,11029.068536
1483.999140,-9770.718434,-1149.143247,8290.306550
1483.999452,-1110.308913,-612.876398,1184.329507
1483.999763,6217.729913,76.609550,-3775.050304
1484.000074,8438.347739,1455.581446,-6809.894666
1484.000386,4071.132681,3370.820191,-5033.400406
1484.000697,-4367.215058,3217.601092,-1628.453072
1484.001009,-14211.954086,1608.800546,2146.597232
1484.001320,-20577.725188,459.657299,5921.647536
1484.001632,-21984.116477,-153.219100,8290.306550
1484.001943,-17246.798449,-1072.533697,7624.121203
1484.002254,-11177.109724,-1915.238745,6069.688724
1484.002566,-7105.977043,-2681.334243,3034.844362
1484.002877,-1850.514855,-2221.676944,444.123565
1484.003189,-74.020594,229.828649,-518.144159
1484.003500,-1924.535449,2528.115143,222.061783
1484.003811,-6143.709319,1915.238745,2294.638420
1484.004123,-10510.924376,689.485948,3182.885551
1484.004434,-13027.624579,612.876398,4811.338623
1484.004746,-12583.501014,1378.971896,4367.215058
1484.005057,-10510.924376,689.485948,2590.720797
1484.005369,-7994.224174,-1302.362347,2146.597232
1484.005680,-7846.182985,-3064.381992,1258.350101
1484.005991,-8216.285956,-1149.143247,3478.967927
1484.006303,-11177.109724,0.000000,5773.606348
1484.006614,-13397.727550,1072.533697,8956.491898
1484.006926,-15396.283594,383.047749,10881.027347
1484.007237,-13841.851115,-1302.362347,9918.759623
1484.007548,-7772.162391,-1149.143247,7402.059420
1484.007860,-1850.514855,612.876398,1480.411884
1484.008171,1406.391290,2604.724693,-1628.453072
1484.008483,2072.576638,2068.457845,-3849.070898
1484.008794,-2738.761985,459.657299,-1776.494261
1484.009105,-10584.944971,306.438199,3404.947333
1484.009417,-17246.798449,-919.314598,8734.430116
1484.009728,-20799.786970,-2987.772442,12509.480420
1484.010040,-17690.922014,-3983.696590,13619.789333
1484.010351,-12139.377449,-4596.572988,10881.027347
1484.010663,-6883.915261,-3677.258390,7772.162391
1484.010974,-1702.473667,1302.362347,3034.844362
1484.011285,1850.514855,3217.601092,-0.000000
1484.011597,1850.514855,3907.087040,-2516.700203
1484.011908,-2072.576638,3830.477490,-1628.453072
1484.012220,-5921.647536,4290.134789,148.041188
1484.012531,-9548.656652,2911.162892,2738.761985
1484.012842,-12435.459826,1072.533697,4663.297435
1484.013154,-13397.727550,-536.266849,6587.832884
1484.013465,-13841.851115,-1378.971896,7402.059420
1484.013777,-12583.501014,-1915.238745,7105.977043
1484.014088,-9770.718434,-1302.362347,4959.379811
1484.014400,-7550.100608,-1225.752797,2368.659014
1484.014711,-5329.482782,1302.362347,814.226536
1484.015022,-6069.688724,1838.629195,1258.350101
1484.015334,-8364.327145,229.828649,1110.308913
1484.015645,-8808.450710,-459.657299,1850.514855
1484.015957,-8808.450710,-1149.143247,1480.411884
1484.016268,-8216.285956,-536.266849,1628.453072
1484.016579,-8142.265362,-689.485948,444.123565
1484.016891,-8068.244768,-2221.676944,-296.082377
1484.017202,-8216.285956,-2528.115143,-1702.473667
1484.017514,-9400.615463,-1991.848295,222.061783
1484.017825,-11547.212695,-995.924147,666.185348
1484.018137,-15766.386565,229.828649,1998.556043
1484.018448,-15692.365970,842.705048,3849.070898
1484.018759,-14211.954086,0.000000,2516.700203
1484.019071,-10066.800811,0.000000,1184.329507
1484.019382,-6809.894666,766.095498,-1554.432478
1484.019694,-3108.864956,1608.800546,-4145.153275
1484.020005,148.041188,1532.190996,-6291.750507
1484.020316,0.000000,995.924147,-5033.400406
1484.020628,-4219.173869,-306.438199,-2368.659014
1484.020939,-9770.718434,-2528.115143,888.247130
1484.021251,-13027.624579,-3064.381992,2812.782580
1484.021562,-14285.974681,-2451.505594,3775.050304
1484.021874,-15100.201217,-1532.190996,3404.947333
1484.022185,-14137.933492,-383.047749,1332.370696
1484.022496,-11769.274478,842.705048,-2072.576638
1484.022808,-8882.471304,1838.629195,-3997.112087
1484.023119,-6513.812290,2221.676944,-5255.462188
1484.023431,-6143.709319,2681.334243,-4737.318029
1484.023742,-6809.894666,1838.629195,-3552.988522
1484.024053,-7476.080014,-306.438199,-814.226536
1484.024365,-8808.450710,-1762.019645,1480.411884
1484.024676,-10066.800811,-1838.629195,2590.720797
1484.024988,-11251.130318,-2451.505594,3182.885551
1484.025299,-11251.130318,-2681.334243,2220.617826
1484.025610,-10288.862594,-1072.533697,1480.411884
1484.025922,-10140.821405,842.705048,962.267725
1484.026233,-9918.759623,1225.752797,-814.226536
1484.026545,-10436.903782,1302.362347,-666.185348
1484.026856,-10658.965565,2145.067394,-148.041188
1484.027167,-10214.842000,919.314598,2072.576638
1484.027479,-10807.006753,-1225.752797,2220.617826
1484.027790,-10362.883188,-1302.362347,2146.597232
1484.028101,-7920.203579,-536.266849,2442.679609
1484.028413,-4589.276840,-1378.971896,962.267725
1484.028724,-2220.617826,-536.266849,-888.247130
1484.029035,-3997.112087,1225.752797,888.247130
1484.029347,-8586.388927,1685.410096,3330.926739
1484.029658,-12065.356855,842.705048,5033.400406
1484.029969,-14285.974681,459.657299,5551.544565
1484.030281,-13101.645173,0.000000,5181.441594
1484.030592,-9770.718434,-842.705048,3478.967927
1484.030903,-5773.606348,-1149.143247,1332.370696
1484.031215,-2590.720797,-995.924147,-1332.370696
1484.031526,-1998.556043,-1532.190996,-2368.659014
1484.031837,-3849.070898,-842.705048,-1332.370696
1484.032149,-6217.729913,-229.828649,1702.473667
1484.032460,-9992.780217,689.485948,3478.967927
1484.032771,-11621.233289,153.219100,4811.338623
1484.033082,-10362.883188,995.924147,5773.606348
1484.033394,-9252.574275,2068.457845,2960.823768
1484.033705,-6809.894666,2757.943793,1110.308913
1484.034016,-6217.729913,1915.238745,-1036.288319
1484.034328,-7105.977043,842.705048,-3404.947333
1484.034639,-7920.203579,1532.190996,-2812.782580
1484.034950,-9030.512492,689.485948,-2368.659014
1484.035262,-9992.780217,-995.924147,370.102971
1484.035573,-11843.295072,-2451.505594,1924.535449
1484.035884,-13027.624579,-3140.991542,2516.700203
1484.036196,-11547.212695,-2987.772442,3404.947333
1484.036507,-9326.594869,-1455.581446,2960.823768
1484.036818,-6809.894666,536.266849,1850.514855
1484.037130,-6439.791695,1532.190996,-814.226536
1484.037441,-7476.080014,1225.752797,-3330.926739
1484.037752,-6661.853478,919.314598,-4441.235652
1484.038064,-7624.121203,1762.019645,-4145.153275
1484.038375,-10584.944971,2298.286494,-3478.967927
1484.038686,-12213.398043,842.705048,-1332.370696
1484.038998,-15026.180623,-1991.848295,-148.041188
1484.039309,-16802.674883,-3140.991542,2812.782580
1484.039620,-15988.448347,-3677.258390,3182.885551
1484.039932,-12287.418637,-2451.505594,1406.391290
1484.040243,-6661.853478,0.000000,296.082377
1484.040554,-2664.741391,919.314598,-2220.617826
1484.040866,-1110.308913,0.000000,-3997.112087
1484.041177,-814.226536,1608.800546,-4071.132681
1484.041488,-4959.379811,2834.553343,-2590.720797
1484.041799,-11843.295072,1455.581446,1924.535449
1484.042111,-15544.324782,-1838.629195,2220.617826
1484.042422,-15100.201217,-2528.115143,-666.185348
1484.042733,-11177.109724,-1072.533697,-1924.535449
1484.043045,-8068.244768,536.266849,-1184.329507
1484.043356,-7772.162391,153.219100,-592.164754
1484.043667,-9992.780217,-1302.362347,-296.082377
1484.043979,-13027.624579,-3294.210641,2442.679609
1484.044290,-11547.212695,-2604.724693,3997.112087
1484.044601,-8216.285956,1762.019645,3404.947333
1484.044913,-4737.318029,2528.115143,518.144159
1484.045224,-2590.720797,153.219100,-2442.679609
1484.045535,-2664.741391,-536.266849,-3330.926739
1484.045847,-3478.967927,1149.143247,-2664.741391
1484.046158,-7031.956449,2068.457845,-1924.535449
1484.046469,-11399.171507,153.219100,1110.308913
1484.046781,-16210.510130,-1838.629195,2072.576638
1484.047092,-17616.901420,-1455.581446,3478.967927
1484.047403,-13027.624579,-536.266849,3775.050304
1484.047715,-9992.780217,153.219100,2886.803174
1484.048026,-8290.306550,612.876398,1776.494261
1484.048337,-5995.668130,766.095498,-518.144159
1484.048649,-4959.379811,1378.971896,-1998.556043
1484.048960,-3997.112087,3064.381992,-2072.576638
1484.049271,-3701.029710,4290.134789,-1628.453072
1484.049582,-4737.318029,2604.724693,-1258.350101
1484.049894,-7698.141797,-1608.800546,1184.329507
1484.050205,-10214.842000,-2451.505594,2960.823768
1484.050516,-12213.398043,-2221.676944,4663.297435
1484.050828,-14285.974681,-1149.143247,5255.462188
1484.051139,-15470.304188,-1915.238745,4737.318029
1484.051450,-12583.501014,-2221.676944,3775.050304
1484.051762,-9548.656652,-1302.362347,2590.720797
1484.052073,-8512.368333,919.314598,740.205942
1484.052384,-4737.318029,1225.752797,-592.164754
1484.052696,-2368.659014,1302.362347,-1924.535449
1484.053007,-2368.659014,1838.629195,-962.267725
1484.053318,-4589.276840,1991.848295,-0.000000
1484.053630,-8142.265362,-229.828649,1332.370696
1484.053941,-10436.903782,-1225.752797,2886.803174
1484.054252,-11621.233289,-995.924147,3849.070898
1484.054564,-12509.480420,-1225.752797,4367.215058
1484.054875,-11695.253884,-1915.238745,3627.009116
1484.055186,-11769.274478,-1072.533697,1110.308913
1484.055498,-10807.006753,0.000000,1480.411884
1484.055809,-9178.553681,1225.752797,2368.659014
1484.056120,-8956.491898,0.000000,1332.370696
1484.056432,-7476.080014,-1608.800546,-592.164754
1484.056743,-4885.359217,-1149.143247,-2664.741391
1484.057054,-2590.720797,2604.724693,-1850.514855
1484.057366,-3849.070898,2604.724693,-1110.308913
1484.057677,-8734.430116,383.047749,-592.164754
1484.057988,-12879.583391,-2068.457845,1480.411884
1484.058299,-13175.665768,-1838.629195,2738.761985
1484.058611,-11103.089130,-306.438199,2960.823768
1484.058922,-10288.862594,0.000000,1036.288319
1484.059233,-11547.212695,306.438199,-1258.350101
1484.059545,-9474.636058,0.000000,-1702.473667
1484.059856,-6883.915261,612.876398,-1702.473667
1484.060167,-7550.100608,1455.581446,-1702.473667
1484.060479,-9400.615463,1608.800546,-1332.370696
1484.060790,-9622.677246,1225.752797,-2516.700203
1484.061101,-6809.894666,1762.019645,-3256.906145
1484.061413,-3849.070898,3064.381992,-2220.617826
1484.061724,-5403.503377,459.657299,-2294.638420
1484.062035,-7698.141797,-536.266849,-814.226536
1484.062347,-8882.471304,-2068.457845,518.144159
1484.062658,-12435.459826,-2298.286494,1480.411884
1484.062969,-14508.036463,-1685.410096,2516.700203
1484.063281,-15396.283594,-919.314598,1406.391290
1484.063592,-12879.583391,-306.438199,-296.082377
1484.063903,-9030.512492,-153.219100,-740.205942
1484.064215,-6069.688724,-995.924147,-1702.473667
1484.064526,-6069.688724,-1072.533697,-2368.659014
1484.064837,-7105.977043,-842.705048,-1184.329507
1484.065149,-7402.059420,-612.876398,148.041188
1484.065460,-8808.450710,153.219100,1998.556043
1484.065771,-9918.759623,536.266849,2516.700203
1484.066083,-10658.965565,-919.314598,2442.679609
1484.066394,-9696.697840,-2068.457845,2960.823768
1484.066705,-9178.553681,-919.314598,1406.391290
1484.067016,-9252.574275,1532.190996,888.247130
1484.067328,-10584.944971,153.219100,-518.144159
1484.067639,-11399.171507,-612.876398,148.041188
1484.067950,-8364.327145,-306.438199,-74.020594
1484.068262,-7105.977043,459.657299,-148.041188
1484.068573,-7698.141797,995.924147,1184.329507
1484.068884,-9030.512492,536.266849,1184.329507
1484.069196,-7994.224174,76.609550,1480.411884
1484.069507,-6291.750507,842.705048,1332.370696
1484.069818,-6217.729913,1378.971896,1258.350101
1484.070130,-7846.182985,1838.629195,1480.411884
1484.070441,-8808.450710,229.828649,1702.473667
1484.070752,-8290.306550,-995.924147,444.123565
1484.071064,-8364.327145,0.000000,-296.082377
1484.071375,-8734.430116,919.314598,-148.041188
1484.071686,-9474.636058,1378.971896,-888.247130
1484.071998,-11177.109724,1455.581446,-296.082377
1484.072309,-10881.027347,0.000000,1332.370696
1484.072620,-10732.986159,-1302.362347,1924.535449
1484.072932,-9622.677246,-1378.971896,1924.535449
1484.073243,-7105.977043,-383.047749,1850.514855
1484.073554,-4737.318029,229.828649,962.267725
1484.073866,-3997.112087,0.000000,-0.000000
1484.074177,-6957.935855,-536.266849,592.164754
1484.074488,-8660.409521,-995.924147,1036.288319
1484.074800,-11251.130318,-459.657299,2294.638420
1484.075111,-13249.686362,-153.219100,2738.761985
1484.075422,-12879.583391,-1762.019645,2146.597232
1484.075733,-11473.192101,-2834.553343,-666.185348
1484.076045,-8438.347739,229.828649,-0.000000
1484.076356,-5847.626942,1762.019645,814.226536
1484.076667,-8808.450710,153.219100,1480.411884
1484.076979,-12435.459826,-1378.971896,2442.679609
1484.077290,-12657.521608,-766.095498,2886.803174
1484.077601,-9178.553681,612.876398,2886.803174
1484.077913,-5625.565159,1838.629195,1924.535449
1484.078224,-5551.544565,612.876398,-814.226536
1484.078535,-5181.441594,306.438199,-2368.659014
1484.078847,-4737.318029,-689.485948,-1628.453072
1484.079158,-6513.812290,-229.828649,-1406.391290
1484.079469,-10066.800811,459.657299,148.041188
1484.079781,-13175.665768,-153.219100,1628.453072
1484.080092,-14137.933492,-306.438199,2294.638420
1484.080403,-11029.068536,1072.533697,2516.700203
1484.080715,-7550.100608,1532.190996,2294.638420
1484.081026,-6735.874072,689.485948,2368.659014
1484.081337,-6661.853478,766.095498,666.185348
1484.081649,-5477.523971,995.924147,296.082377
1484.081960,-5181.441594,1608.800546,-1924.535449
1484.082271,-5181.441594,2068.457845,-2368.659014
1484.082583,-5329.482782,1378.971896,-3404.947333
1484.082894,-6217.729913,306.438199,-3256.906145
1484.083205,-8808.450710,-459.657299,-962.267725
1484.083517,-11991.336260,-1455.581446,370.102971
1484.083828,-14730.098246,-1072.533697,1850.514855
1484.084139,-16284.530724,-919.314598,3256.906145
1484.084450,-14656.077652,-919.314598,3923.091493
1484.084762,-11769.274478,-1915.238745,2516.700203
1484.085073,-7550.100608,-1608.800546,370.102971
1484.085384,-4219.173869,-1225.752797,-1702.473667
1484.085696,-2664.741391,-1149.143247,-2886.803174
1484.086007,-3701.029710,-842.705048,-2368.659014
1484.086318,-9622.677246,-689.485948,-2368.659014
1484.086630,-13027.624579,-995.924147,666.185348
1484.086941,-14508.036463,-2451.505594,1036.288319
1484.087252,-14211.954086,-2374.896044,1480.411884
1484.087564,-12287.418637,-1532.190996,740.205942
1484.087875,-10436.903782,-459.657299,222.061783
1484.088186,-10140.821405,383.047749,-148.041188
1484.088498,-9992.780217,842.705048,666.185348
1484.088809,-8956.491898,1225.752797,962.267725
1484.089120,-8364.327145,689.485948,666.185348
1484.089432,-7105.977043,229.828649,592.164754
1484.089743,-5921.647536,153.219100,-888.247130
1484.090054,-5181.441594,1072.533697,-2738.761985
1484.090366,-5847.626942,2451.505594,-2516.700203
1484.090677,-6513.812290,2604.724693,-2590.720797
1484.090988,-8586.388927,919.314598,-592.164754
1484.091300,-10066.800811,536.266849,740.205942
1484.091611,-11769.274478,536.266849,1258.350101
1484.091922,-11621.233289,1455.581446,1628.453072
1484.092233,-10807.006753,1685.410096,2738.761985
1484.092545,-9252.574275,689.485948,2812.782580
1484.092856,-7328.038826,153.219100,2072.576638
1484.093167,-7328.038826,459.657299,1554.432478
1484.093479,-7031.956449,153.219100,1184.329507
1484.093790,-5921.647536,612.876398,222.061783
1484.094101,-5403.503377,-689.485948,-518.144159
1484.094413,-7328.038826,-153.219100,1184.329507
1484.094724,-10066.800811,-383.047749,3701.029710
1484.095035,-11251.130318,-2068.457845,5107.421000
1484.095347,-9178.553681,-3600.648841,4737.318029
1484.095658,-6365.771101,-3677.258390,2960.823768
1484.095969,-5403.503377,-1762.019645,3182.885551
1484.096281,-7994.224174,995.924147,2664.741391
1484.096592,-10732.986159,612.876398,2812.782580
1484.096903,-11547.212695,-919.314598,3034.844362
1484.097215,-9918.759623,-995.924147,2960.823768
1484.097526,-7994.224174,-229.828649,1554.432478
1484.097837,-7254.018232,612.876398,-888.247130
1484.098149,-5995.668130,76.609550,-74.020594
1484.098460,-7476.080014,459.657299,-296.082377
1484.098771,-9104.533087,1455.581446,592.164754
1484.099083,-10584.944971,1302.362347,1628.453072
1484.099394,-11325.150913,306.438199,1776.494261
1484.099705,-9622.677246,-383.047749,1110.308913
1484.100017,-7476.080014,612.876398,-1480.411884
1484.100328,-6439.791695,1378.971896,-2960.823768
1484.100639,-8438.347739,1072.533697,-3330.926739
1484.100950,-9030.512492,1455.581446,-2072.576638
1484.101262,-9622.677246,0.000000,-1776.494261
1484.101573,-12361.439231,-536.266849,-1406.391290
1484.101884,-12879.583391,306.438199,-814.226536
1484.102196,-11251.130318,689.485948,-1110.308913
1484.102507,-8142.265362,1072.533697,-1036.288319
1484.102818,-6957.935855,1455.581446,-2294.638420
1484.103130,-7624.121203,-383.047749,-2294.638420
1484.103441,-8438.347739,-842.705048,-888.247130
1484.103752,-9104.533087,-1991.848295,-444.123565
1484.104064,-9252.574275,-1762.019645,-1110.308913
1484.104375,-9992.780217,-1225.752797,-1628.453072
1484.104686,-11177.109724,-1302.362347,-1628.453072
1484.104998,-11547.212695,-1685.410096,-1554.432478
1484.105309,-11029.068536,-536.266849,-222.061783
1484.105620,-10510.924376,0.000000,888.247130
1484.105932,-11251.130318,-1225.752797,2294.638420
1484.106243,-11991.336260,-2145.067394,2220.617826
1484.106554,-10288.862594,-995.924147,2368.659014
1484.106866,-6439.791695,76.609550,1702.473667
1484.107177,-4737.318029,612.876398,-148.041188
1484.107488,-4885.359217,536.266849,-1776.494261
1484.107800,-5551.544565,-689.485948,-2886.803174
1484.108111,-6365.771101,-919.314598,-1924.535449
1484.108422,-9696.697840,-153.219100,-444.123565
1484.108734,-14211.954086,0.000000,1480.411884
1484.109045,-16358.551318,0.000000,3404.947333
1484.109356,-14285.974681,-459.657299,4515.256246
1484.109667,-10066.800811,-1838.629195,4589.276840
1484.109979,-6513.812290,-1378.971896,3775.050304
1484.110290,-5477.523971,306.438199,2516.700203
1484.110601,-5551.544565,2451.505594,1628.453072
1484.110913,-4663.297435,2987.772442,1924.535449
1484.111224,-3108.864956,1838.629195,888.247130
1484.111535,-2146.597232,459.657299,-1332.370696
1484.111847,-2368.659014,689.485948,-3627.009116
1484.112158,-3923.091493,2911.162892,-2516.700203
1484.112469,-8882.471304,3447.429741,-222.061783
1484.112781,-16654.633695,1838.629195,2072.576638
1484.113092,-19689.478057,0.000000,5403.503377
1484.113403,-16432.571912,-1378.971896,6513.812290
1484.113715,-10288.862594,-842.705048,5773.606348
1484.114026,-5255.462188,-383.047749,2590.720797
1484.114337,-2146.597232,-1608.800546,-518.144159
1484.114649,-2072.576638,-536.266849,-1924.535449
1484.114960,-2664.741391,-153.219100,-370.102971
1484.115271,-5625.565159,536.266849,444.123565
1484.115583,-10140.821405,-1838.629195,-74.020594
1484.115894,-12213.398043,-1838.629195,-148.041188
1484.116205,-12361.439231,-1149.143247,-518.144159
1484.116517,-10807.006753,-306.438199,370.102971
1484.116828,-11843.295072,0.000000,1110.308913
1484.117139,-13915.871710,-1532.190996,1480.411884
1484.117451,-12509.480420,-995.924147,3627.009116
1484.117762,-12731.542202,0.000000,3478.967927
1484.118073,-12065.356855,-766.095498,3108.864956
1484.118384,-9918.759623,-1455.581446,2072.576638
1484.118696,-5477.523971,-229.828649,-1036.288319
1484.119007,-1924.535449,1378.971896,-3182.885551
1484.119318,-2368.659014,1838.629195,-4589.276840
1484.119630,-4367.215058,842.705048,-4145.153275
1484.119941,-7624.121203,0.000000,-2960.823768
1484.120252,-10955.047942,-383.047749,-1110.308913
1484.120564,-14063.912898,-153.219100,814.226536
1484.120875,-16136.489536,1072.533697,2220.617826
1484.121186,-16358.551318,1378.971896,3034.844362
1484.121498,-13101.645173,1302.362347,2294.638420
1484.121809,-8882.471304,1455.581446,1258.350101
1484.122120,-6365.771101,1455.581446,-148.041188
1484.122432,-4737.318029,995.924147,-2368.659014
1484.122743,-2664.741391,76.609550,-4145.153275
1484.123054,-1258.350101,1072.533697,-4811.338623
1484.123366,-2220.617826,1838.629195,-3108.864956
1484.123677,-6069.688724,306.438199,-2590.720797
1484.123988,-10288.862594,-1225.752797,-0.000000
1484.124300,-13767.830521,-1225.752797,2812.782580
1484.124611,-16210.510130,0.000000,4885.359217
1484.124922,-17838.963202,766.095498,5847.626942
1484.125234,-15026.180623,-1455.581446,5033.400406
1484.125545,-7772.162391,-3217.601092,1480.411884
1484.125856,-370.102971,-1915.238745,-1110.308913
1484.126168,1702.473667,766.095498,-1776.494261
1484.126479,-3034.844362,536.266849,-1480.411884
1484.126790,-10066.800811,-612.876398,666.185348
1484.127102,-13249.686362,-2221.676944,2516.700203
1484.127413,-13693.809927,-536.266849,3108.864956
1484.127725,-10436.903782,612.876398,1702.473667
1484.128036,-8068.244768,153.219100,370.102971
1484.128347,-8142.265362,-1225.752797,-592.164754
1484.128659,-7698.141797,-1762.019645,-740.205942
1484.128970,-10140.821405,76.609550,1776.494261
1484.129282,-14730.098246,842.705048,2664.741391
1484.129593,-16062.468941,1149.143247,5255.462188
1484.129904,-11991.336260,-1685.410096,3552.988522
1484.130216,-8068.244768,-1302.362347,518.144159
1484.130527,-4589.276840,-306.438199,-2072.576638
1484.130839,-2664.741391,306.438199,-3182.885551
1484.131150,-1554.432478,306.438199,-3627.009116
1484.131462,-4145.153275,0.000000,-3182.885551
1484.131773,-9252.574275,842.705048,-814.226536
1484.132084,-14137.933492,1149.143247,1480.411884
1484.132396,-16580.613101,1991.848295,2590.720797
1484.132707,-15766.386565,1455.581446,3849.070898
1484.133019,-13545.768739,842.705048,2664.741391
1484.133330,-10140.821405,842.705048,1258.350101
1484.133641,-7031.956449,1991.848295,-370.102971
1484.133953,-4071.132681,1608.800546,-2886.803174
1484.134264,-2294.638420,1302.362347,-3775.050304
1484.134576,-2590.720797,0.000000,-2812.782580
1484.134887,-5033.400406,-1149.143247,-2516.700203
1484.135198,-8364.327145,-1302.362347,-0.000000
1484.135510,-10288.862594,-1302.362347,2368.659014
1484.135821,-11473.192101,-766.095498,3552.988522
1484.136133,-12657.521608,-1302.362347,3478.967927
1484.136444,-13101.645173,-2374.896044,3330.926739
1484.136756,-9992.780217,-1302.362347,2516.700203
1484.137067,-6809.894666,-459.657299,-518.144159
1484.137378,-4811.338623,536.266849,-1406.391290
1484.137690,-5625.565159,0.000000,-962.267725
1484.138001,-8660.409521,-383.047749,-666.185348
1484.138313,-9030.512492,-306.438199,370.102971
1484.138624,-9030.512492,-1149.143247,592.164754
1484.138935,-10807.006753,-2145.067394,2146.597232
1484.139247,-10955.047942,-1149.143247,1184.329507
1484.139558,-9918.759623,1225.752797,1184.329507
1484.139870,-8364.327145,842.705048,2146.597232
1484.140181,-7550.100608,229.828649,2294.638420
1484.140493,-9104.533087,383.047749,2590.720797
1484.140804,-8734.430116,153.219100,1924.535449
1484.141115,-7105.977043,1378.971896,2368.659014
1484.141427,-7698.141797,1762.019645,1480.411884
1484.141738,-7846.182985,842.705048,-74.020594
1484.142050,-6735.874072,0.000000,-3256.906145
1484.142361,-5255.462188,842.705048,-3256.906145
1484.142672,-7550.100608,2374.896044,-1258.350101
1484.142984,-12435.459826,1225.752797,296.082377
1484.143295,-16506.592507,-306.438199,1924.535449
1484.143607,-16284.530724,-1302.362347,3627.009116
1484.143918,-11103.089130,-766.095498,5107.421000
1484.144229,-6291.750507,919.314598,2812.782580
1484.144541,-4515.256246,-842.705048,-148.041188
1484.144852,-2516.700203,-2604.724693,-2812.782580
1484.145164,-2368.659014,-995.924147,-3182.885551
1484.145475,-6143.709319,1455.581446,-1998.556043
1484.145787,-13323.706956,1072.533697,-814.226536
1484.146098,-17468.860231,-536.266849,740.205942
1484.146409,-16284.530724,-2298.286494,1850.514855
1484.146721,-12287.418637,-1762.019645,1554.432478
1484.147032,-8364.327145,-1532.190996,296.082377
1484.147344,-6365.771101,-1072.533697,-222.061783
1484.147655,-7772.162391,-2451.505594,-518.144159
1484.147966,-7402.059420,-1608.800546,962.267725
1484.148278,-8438.347739,-459.657299,888.247130
1484.148589,-9326.594869,536.266849,148.041188
1484.148901,-6883.915261,536.266849,296.082377
1484.149212,-7031.956449,-229.828649,-2442.679609
1484.149524,-6513.812290,76.609550,-1850.514855
1484.149835,-8660.409521,153.219100,-1776.494261
1484.150146,-11325.150913,383.047749,-0.000000
1484.150458,-13027.624579,153.219100,1406.391290
1484.150769,-13619.789333,-536.266849,2960.823768
1484.151081,-11399.171507,-1225.752797,2146.597232
1484.151392,-8290.306550,-1149.143247,1480.411884
1484.151703,-5921.647536,1225.752797,-0.000000
1484.152015,-2368.659014,2987.772442,-592.164754
1484.152326,-3108.864956,1991.848295,-1850.514855
1484.152638,-5477.523971,919.314598,-1406.391290
1484.152949,-7476.080014,612.876398,-740.205942
1484.153260,-7550.100608,2221.676944,-666.185348
1484.153572,-9326.594869,3140.991542,-0.000000
1484.153883,-10362.883188,1072.533697,148.041188
1484.154195,-11399.171507,-153.219100,1110.308913
1484.154506,-12805.562797,0.000000,2738.761985
1484.154818,-11621.233289,-229.828649,3775.050304
1484.155129,-11621.233289,-2451.505594,3627.009116
1484.155440,-10436.903782,-4213.525239,3552.988522
1484.155752,-8364.327145,-2374.896044,1998.556043
1484.156063,-6291.750507,-306.438199,740.205942
1484.156375,-4367.215058,1378.971896,444.123565
1484.156686,-5847.626942,-612.876398,-0.000000
1484.156997,-5773.606348,-1762.019645,-0.000000
1484.157309,-5847.626942,-459.657299,222.061783
1484.157620,-8438.347739,1608.800546,2220.617826
1484.157932,-13545.768739,1302.362347,3627.009116
1484.158243,-16580.613101,-153.219100,4737.318029
1484.158555,-16876.695478,-1072.533697,3923.091493
1484.158866,-12805.562797,-229.828649,4219.173869
1484.159177,-8068.244768,0.000000,1924.535449
1484.159489,-6143.709319,-842.705048,-888.247130
1484.159800,-4589.276840,-766.095498,-2590.720797
1484.160112,-3552.988522,-1072.533697,-2738.761985
1484.160423,-4737.318029,1225.752797,-1406.391290
1484.160734,-7846.182985,2987.772442,1258.350101
1484.161046,-10066.800811,459.657299,2368.659014
1484.161357,-8586.388927,-2451.505594,2368.659014
1484.161669,-6661.853478,-2604.724693,-74.020594
1484.161980,-6069.688724,1991.848295,-1776.494261
1484.162291,-8882.471304,3217.601092,-1776.494261
1484.162603,-13693.809927,1532.190996,-1036.288319
1484.162914,-16284.530724,0.000000,-74.020594
1484.163226,-16136.489536,-306.438199,-0.000000
1484.163537,-12583.501014,689.485948,-148.041188
1484.163849,-7846.182985,1608.800546,-2368.659014
1484.164160,-3404.947333,766.095498,-4145.153275
1484.164471,-1628.453072,-229.828649,-4737.318029
1484.164783,-3108.864956,766.095498,-3627.009116
1484.165094,-5329.482782,1762.019645,-592.164754
1484.165406,-8364.327145,689.485948,888.247130
1484.165717,-11325.150913,-1991.848295,1776.494261
1484.166028,-13027.624579,-3064.381992,1628.453072
1484.166340,-12361.439231,-1762.019645,740.205942
1484.166651,-10436.903782,0.000000,370.102971
1484.166963,-9622.677246,-229.828649,444.123565
1484.167274,-10140.821405,-3140.991542,-370.102971
1484.167586,-11177.109724,-4290.134789,-296.082377
1484.167897,-9844.739029,-1225.752797,-222.061783
1484.168208,-8956.491898,1302.362347,-0.000000
1484.168520,-7476.080014,2221.676944,962.267725
1484.168831,-6143.709319,1302.362347,-296.082377
1484.169143,-7105.977043,-383.047749,888.247130
1484.169454,-7624.121203,-1072.533697,2368.659014
1484.169765,-9326.594869,0.000000,2886.803174
1484.170077,-12287.418637,229.828649,2960.823768
1484.170388,-13619.789333,-995.924147,4293.194464
1484.170700,-12509.480420,-3294.210641,3256.906145
1484.171011,-8660.409521,-3294.210641,2220.617826
1484.171322,-6735.874072,-1378.971896,592.164754
1484.171634,-7031.956449,-1225.752797,370.102971
1484.171945,-8216.285956,-536.266849,1332.370696
1484.172257,-10214.842000,1225.752797,1776.494261
1484.172568,-10436.903782,2221.676944,2886.803174
1484.172880,-7846.182985,2604.724693,2812.782580
1484.173191,-4737.318029,3447.429741,1258.350101
1484.173502,-2960.823768,2911.162892,-222.061783
1484.173814,-1480.411884,1072.533697,-962.267725
1484.174125,-4811.338623,0.000000,-1332.370696
1484.174437,-9252.574275,1225.752797,-74.020594
1484.174748,-13175.665768,1455.581446,1776.494261
1484.175059,-16210.510130,-153.219100,2886.803174
1484.175371,-15470.304188,-919.314598,3330.926739
1484.175682,-13027.624579,-1149.143247,1184.329507
1484.175994,-7105.977043,-459.657299,888.247130
1484.176305,-2886.803174,536.266849,-962.267725
1484.176616,-1184.329507,0.000000,-1924.535449
1484.176928,-2072.576638,153.219100,-2812.782580
1484.177239,-4071.132681,229.828649,-1850.514855
1484.177551,-6957.935855,-383.047749,-0.000000
1484.177862,-10955.047942,-995.924147,-0.000000
1484.178174,-13619.789333,-919.314598,296.082377
1484.178485,-16062.468941,-1225.752797,296.082377
1484.178796,-15618.345376,-1762.019645,962.267725
1484.179108,-14508.036463,-1532.190996,1110.308913
1484.179419,-13027.624579,-2068.457845,-666.185348
1484.179731,-11473.192101,-2221.676944,-1036.288319
1484.180042,-9104.533087,-1762.019645,-222.061783
1484.180353,-8290.306550,0.000000,-1332.370696
1484.180665,-7105.977043,1838.629195,-148.041188
1484.180976,-5921.647536,1072.533697,222.061783
1484.181288,-6143.709319,-842.705048,-814.226536
1484.181599,-5921.647536,0.000000,-518.144159
1484.181911,-6143.709319,306.438199,-1480.411884
1484.182222,-7550.100608,0.000000,-1554.432478
1484.182533,-9696.697840,-842.705048,-1406.391290
1484.182845,-12361.439231,536.266849,-0.000000
1484.183156,-13989.892304,995.924147,370.102971
1484.183468,-13249.686362,2834.553343,1628.453072
1484.183779,-12435.459826,2451.505594,2294.638420
1484.184090,-11029.068536,1608.800546,1924.535449
1484.184402,-9474.636058,1072.533697,1850.514855
1484.184713,-4885.359217,842.705048,444.123565
1484.185025,2072.576638,76.609550,-2664.741391
1484.185336,5107.421000,0.000000,-5181.441594
1484.185647,1332.370696,1225.752797,-2960.823768
1484.185959,-8290.306550,-383.047749,888.247130
1484.186270,-16802.674883,-3524.039291,4293.194464
1484.186582,-21391.951724,-3907.087040,5995.668130
1484.186893,-20059.581028,-2681.334243,7105.977043
1484.187205,-14359.995275,-1378.971896,4441.235652
1484.187516,-9252.574275,-612.876398,814.226536
1484.187827,-4589.276840,-842.705048,-962.267725
1484.188139,-3034.844362,-995.924147,-1776.494261
1484.188450,-3627.009116,689.485948,-962.267725
1484.188762,-6069.688724,2298.286494,1554.432478
1484.189073,-9104.533087,1302.362347,2960.823768
1484.189384,-9400.615463,-1149.143247,2590.720797
1484.189696,-7550.100608,-995.924147,1776.494261
1484.190007,-6587.832884,-306.438199,-74.020594
1484.190319,-7550.100608,-612.876398,444.123565
1484.190630,-9918.759623,-2604.724693,1628.453072
1484.190942,-12657.521608,-3907.087040,1554.432478
1484.191253,-15396.283594,-1532.190996,2516.700203
1484.191564,-14878.139434,306.438199,3034.844362
1484.191876,-12435.459826,1225.752797,3775.050304
1484.192187,-7624.121203,459.657299,2368.659014
1484.192499,-4737.318029,0.000000,-888.247130
1484.192810,-4811.338623,612.876398,-2368.659014
1484.193121,-3256.906145,2681.334243,-2220.617826
1484.193433,-3478.967927,3830.477490,-3108.864956
1484.193744,-5625.565159,1915.238745,-3404.947333
1484.194056,-8882.471304,-229.828649,-2146.597232
1484.194367,-11621.233289,-842.705048,-592.164754
1484.194678,-13397.727550,612.876398,444.123565
1484.194990,-14285.974681,1302.362347,2368.659014
1484.195301,-14730.098246,459.657299,1554.432478
1484.195613,-12287.418637,76.609550,1924.535449
1484.195924,-9104.533087,306.438199,666.185348
1484.196236,-4441.235652,459.657299,-1036.288319
1484.196547,-592.164754,1225.752797,-2516.700203
1484.196858,-666.185348,1072.533697,-3330.926739
1484.197170,-3108.864956,459.657299,-2960.823768
1484.197481,-6661.853478,-536.266849,-1110.308913
1484.197793,-10510.924376,-229.828649,148.041188
1484.198104,-13693.809927,-153.219100,1258.350101
1484.198415,-16358.551318,-2145.067394,4145.153275
1484.198727,-15174.221811,-3600.648841,3182.885551
1484.199038,-11991.336260,-3447.429741,1258.350101
1484.199350,-7179.997637,-383.047749,-0.000000
1484.199661,-5329.482782,1608.800546,1406.391290
1484.199973,-8216.285956,1072.533697,1332.370696
1484.200284,-10214.842000,-536.266849,2812.782580
1484.200595,-11251.130318,-1762.019645,2886.803174
1484.200907,-8216.285956,-1378.971896,2368.659014
1484.201218,-4959.379811,-536.266849,-148.041188
1484.201530,-4293.194464,0.000000,-3627.009116
1484.201841,-5551.544565,0.000000,-3256.906145
1484.202152,-9030.512492,0.000000,-1554.432478
1484.202464,-13027.624579,-306.438199,1850.514855
1484.202775,-17838.963202,459.657299,3701.029710
1484.203087,-17690.922014,306.438199,4219.173869
1484.203398,-11769.274478,0.000000,3108.864956
1484.203709,-7476.080014,1225.752797,-296.082377
1484.204021,-4367.215058,3370.820191,-1850.514855
1484.204332,-2960.823768,2604.724693,-2220.617826
1484.204644,-4737.318029,536.266849,-1776.494261
1484.204955,-7994.224174,-459.657299,-0.000000
1484.205267,-10510.924376,153.219100,222.061783
1484.205578,-11547.212695,76.609550,1850.514855
1484.205889,-8734.430116,153.219100,2072.576638
1484.206201,-5255.462188,-689.485948,1702.473667
1484.206512,-4737.318029,-2681.334243,666.185348
1484.206824,-6735.874072,-1685.410096,1406.391290
1484.207135,-8512.368333,153.219100,814.226536
1484.207446,-8808.450710,153.219100,518.144159
1484.207758,-9326.594869,842.705048,-444.123565
1484.208069,-9622.677246,1455.581446,-296.082377
1484.208381,-8290.306550,842.705048,-1554.432478
1484.208692,-8216.285956,-306.438199,-518.144159
1484.209004,-9844.739029,-1072.533697,370.102971
1484.209315,-11325.150913,-1532.190996,1998.556043
1484.209626,-11547.212695,-2221.676944,3108.864956
1484.209938,-10140.821405,-2834.553343,3034.844362
1484.210249,-9104.533087,-1991.848295,2442.679609
1484.210561,-7031.956449,-1838.629195,1110.308913
1484.210872,-5477.523971,-1838.629195,-740.205942
1484.211183,-6291.750507,-383.047749,-1480.411884
1484.211495,-8290.306550,1378.971896,-1480.411884
1484.211806,-11843.295072,1455.581446,-518.144159
1484.212118,-14878.139434,689.485948,296.082377
1484.212429,-15470.304188,1225.752797,2368.659014
1484.212740,-15470.304188,459.657299,2738.761985
1484.213052,-11029.068536,-459.657299,3256.906145
1484.213363,-6069.688724,-1915.238745,962.267725
1484.213675,-3775.050304,-995.924147,296.082377
1484.213986,-2886.803174,995.924147,962.267725
1484.214298,-6143.709319,1608.800546,-370.102971
1484.214609,-8290.306550,2757.943793,1036.288319
1484.214920,-9400.615463,1072.533697,592.164754
1484.215232,-9252.574275,76.609550,962.267725
1484.215543,-7994.224174,1225.752797,-370.102971
1484.215855,-7402.059420,689.485948,-2738.761985
1484.216166,-7698.141797,536.266849,-2368.659014
1484.216477,-8290.306550,459.657299,-740.205942
1484.216789,-10807.006753,459.657299,2146.597232
1484.217100,-14434.015869,-766.095498,3330.926739
1484.217412,-14804.118840,-2374.896044,4219.173869
1484.217723,-9326.594869,-383.047749,2960.823768
1484.218034,-3478.967927,842.705048,222.061783
1484.218346,-740.205942,1378.971896,-2294.638420
1484.218657,-1628.453072,306.438199,-3775.050304
1484.218969,-2960.823768,-612.876398,-3627.009116
1484.219280,-7031.956449,689.485948,-2442.679609
1484.219592,-13101.645173,229.828649,-814.226536
1484.219903,-15544.324782,0.000000,1480.411884
1484.220214,-15840.407159,-1455.581446,2886.803174
1484.220526,-13397.727550,-2834.553343,3701.029710
1484.220837,-11917.315666,-3830.477490,3923.091493
1484.221149,-10362.883188,-3677.258390,3330.926739
1484.221460,-7994.224174,-919.314598,2664.741391
1484.221771,-7031.956449,-1378.971896,592.164754
1484.222083,-6883.915261,-153.219100,-518.144159
1484.222394,-6291.750507,2451.505594,-1554.432478
1484.222706,-5921.647536,2911.162892,-2664.741391
1484.223017,-6069.688724,1991.848295,-2516.700203
1484.223329,-7328.038826,1455.581446,-1184.329507
1484.223640,-11917.315666,1378.971896,-1258.350101
1484.223951,-14211.954086,0.000000,2220.617826
1484.224263,-15396.283594,-1685.410096,2294.638420
1484.224574,-15248.242405,-1072.533697,2294.638420
1484.224886,-11991.336260,0.000000,2220.617826
1484.225197,-9104.533087,-995.924147,666.185348
1484.225508,-7105.977043,-1532.190996,-222.061783
1484.225820,-5551.544565,306.438199,-1628.453072
1484.226131,-4515.256246,1991.848295,-1702.473667
1484.226443,-5773.606348,1532.190996,-1850.514855
1484.226754,-7624.121203,1838.629195,-814.226536
1484.227065,-9030.512492,2068.457845,-888.247130
1484.227377,-9918.759623,1762.019645,296.082377
1484.227688,-9770.718434,766.095498,1036.288319
1484.228000,-9104.533087,-1915.238745,814.226536
1484.228311,-9252.574275,-1608.800546,2072.576638
1484.228622,-9622.677246,-919.314598,2590.720797
1484.228934,-10881.027347,-1608.800546,3552.988522
1484.229245,-10288.862594,-2528.115143,3701.029710
1484.229557,-8216.285956,-2604.724693,3627.009116
1484.229868,-4145.153275,-1302.362347,2368.659014
1484.230179,-888.247130,-306.438199,-222.061783
1484.230491,-1480.411884,1149.143247,-888.247130
1484.230802,-3923.091493,1991.848295,-518.144159
1484.231114,-7179.997637,229.828649,-296.082377
1484.231425,-10066.800811,-995.924147,2516.700203
1484.231736,-12657.521608,-689.485948,4145.153275
1484.232048,-15026.180623,-2451.505594,4145.153275
1484.232359,-13619.789333,-1762.019645,3478.967927
1484.232670,-11547.212695,-766.095498,1702.473667
1484.232982,-10658.965565,76.609550,1554.432478
1484.233293,-8734.430116,-919.314598,1332.370696
1484.233605,-7105.977043,-1685.410096,-444.123565
1484.233916,-7105.977043,0.000000,-370.102971
1484.234227,-7105.977043,1378.971896,-1480.411884
1484.234539,-5255.462188,2987.772442,-518.144159
1484.234850,-5107.421000,2681.334243,-444.123565
1484.235162,-7179.997637,689.485948,296.082377
1484.235473,-10066.800811,-1532.190996,518.144159
1484.235784,-12287.418637,-383.047749,888.247130
1484.236096,-13027.624579,1302.362347,814.226536
1484.236407,-15026.180623,459.657299,-666.185348
1484.236719,-13841.851115,383.047749,-666.185348
1484.237030,-10807.006753,536.266849,-1628.453072
1484.237341,-8290.306550,766.095498,-2368.659014
1484.237653,-7550.100608,536.266849,-1258.350101
1484.237964,-7402.059420,76.609550,-1406.391290
1484.238276,-6809.894666,153.219100,-1332.370696
1484.238587,-6069.688724,229.828649,-370.102971
1484.238898,-6291.750507,689.485948,518.144159
1484.239210,-7624.121203,153.219100,-222.061783
1484.239521,-8586.388927,-1302.362347,-0.000000
1484.239832,-9992.780217,-1762.019645,222.061783
1484.240144,-11399.171507,-1685.410096,1332.370696
1484.240455,-12583.501014,-229.828649,518.144159
1484.240767,-12953.603985,-459.657299,148.041188
1484.241078,-12361.439231,-995.924147,222.061783
1484.241389,-9696.697840,-1455.581446,666.185348
1484.241701,-7476.080014,-842.705048,-370.102971
1484.242012,-5699.585753,0.000000,-1480.411884
1484.242324,-4293.194464,1149.143247,-0.000000
1484.242635,-4589.276840,1149.143247,1332.370696
1484.242946,-7402.059420,153.219100,2368.659014
1484.243258,-10881.027347,-536.266849,3404.947333
1484.243569,-11251.130318,-2681.334243,4219.173869
1484.243881,-7772.162391,-2528.115143,4367.215058
1484.244192,-4811.338623,-2528.115143,1036.288319
1484.244503,-5403.503377,-1149.143247,-1554.432478
1484.244815,-8142.265362,612.876398,-1998.556043
1484.245126,-11547.212695,2604.724693,-444.123565
1484.245438,-12361.439231,4213.525239,2368.659014
1484.245749,-14285.974681,2374.896044,1998.556043
1484.246060,-12805.562797,612.876398,2664.741391
1484.246372,-7920.203579,1762.019645,444.123565
1484.246683,-2590.720797,2987.772442,-1998.556043
1484.246995,0.000000,3294.210641,-2368.659014
1484.247306,-3108.864956,689.485948,-1480.411884
1484.247617,-7402.059420,-1608.800546,-0.000000
1484.247929,-10584.944971,-2298.286494,1628.453072
1484.248240,-14285.974681,-1838.629195,2516.700203
1484.248551,-16284.530724,-919.314598,2812.782580
1484.248863,-15322.262999,-1532.190996,1332.370696
1484.249174,-11177.109724,-1915.238745,222.061783
1484.249486,-7476.080014,-919.314598,-148.041188
1484.249797,-7254.018232,-153.219100,370.102971
1484.250108,-7476.080014,-459.657299,-0.000000
1484.250420,-7994.224174,-612.876398,370.102971
1484.250731,-9252.574275,-306.438199,592.164754
1484.251043,-7920.203579,1225.752797,2220.617826
1484.251354,-6291.750507,229.828649,962.267725
1484.251665,-6809.894666,-1072.533697,-0.000000
1484.251977,-7254.018232,-1532.190996,-592.164754
1484.252288,-9400.615463,-1149.143247,-296.082377
1484.252600,-11695.253884,-459.657299,888.247130
1484.252911,-13841.851115,-459.657299,1184.329507
1484.253222,-14878.139434,-2145.067394,1628.453072
1484.253534,-11991.336260,-1685.410096,1258.350101
1484.253845,-7698.141797,-383.047749,592.164754
1484.254157,-5921.647536,306.438199,-148.041188
1484.254468,-5403.503377,-153.219100,-1110.308913
1484.254779,-5699.585753,-306.438199,-592.164754
1484.255091,-7624.121203,1378.971896,-0.000000
1484.255402,-9696.697840,1685.410096,444.123565
1484.255714,-10658.965565,2145.067394,814.226536
1484.256025,-8956.491898,919.314598,370.102971
1484.256336,-6735.874072,-536.266849,-1406.391290
1484.256648,-5625.565159,76.609550,-1702.473667
1484.256959,-8068.244768,3064.381992,-592.164754
1484.257270,-12583.501014,3064.381992,1184.329507
1484.257582,-14730.098246,1149.143247,2738.761985
1484.257893,-13767.830521,0.000000,4071.132681
1484.258205,-8364.327145,-1225.752797,3034.844362
1484.258516,-3627.009116,-995.924147,222.061783
1484.258827,0.000000,-995.924147,-1036.288319
1484.259139,0.000000,153.219100,-1702.473667
1484.259450,-3330.926739,536.266849,-1036.288319
1484.259762,-8882.471304,-153.219100,444.123565
1484.260073,-12509.480420,-689.485948,2220.617826
1484.260384,-12953.603985,-842.705048,2812.782580
1484.260696,-11843.295072,-229.828649,1332.370696
1484.261007,-10436.903782,536.266849,296.082377
1484.261319,-11029.068536,1762.019645,-0.000000
1484.261630,-10807.006753,2068.457845,1480.411884
1484.261941,-9770.718434,383.047749,1628.453072
1484.262253,-7920.203579,-1072.533697,-0.000000
1484.262564,-7254.018232,-1302.362347,-1554.432478
1484.262876,-5699.585753,-612.876398,-2664.741391
1484.263187,-2812.782580,-766.095498,-2738.761985
1484.263498,-3627.009116,-1072.533697,-3552.988522
1484.263810,-8438.347739,-1838.629195,-2220.617826
1484.264121,-13915.871710,-1838.629195,148.041188
1484.264433,-16136.489536,-1532.190996,1554.432478
1484.264744,-14878.139434,-459.657299,1036.288319
1484.265055,-13323.706956,-459.657299,-1258.350101
1484.265367,-8956.491898,153.219100,-2516.700203
1484.265678,-5773.606348,766.095498,-4959.379811
1484.265989,-4589.276840,1455.581446,-4737.318029
1484.266301,-6957.935855,919.314598,-4293.194464
1484.266612,-10066.800811,0.000000,-3701.029710
1484.266924,-11103.089130,76.609550,-2442.679609
1484.267235,-11325.150913,-153.219100,-2738.761985
1484.267546,-10066.800811,-1915.238745,-2590.720797
1484.267858,-9178.553681,-1762.019645,-4145.153275
1484.268169,-8660.409521,-153.219100,-5033.400406
1484.268481,-9474.636058,612.876398,-4663.297435
1484.268792,-10807.006753,919.314598,-1998.556043
1484.269103,-11843.295072,-919.314598,-2146.597232
1484.269415,-10881.027347,-1608.800546,-2072.576638
1484.269726,-8586.388927,-1149.143247,-2886.803174
1484.270038,-6883.915261,995.924147,-3552.988522
1484.270349,-6883.915261,3217.601092,-4145.153275
1484.270660,-7328.038826,3294.210641,-4219.173869
1484.270972,-8808.450710,76.609550,-2960.823768
1484.271283,-8882.471304,-2681.334243,-3701.029710
1484.271595,-8586.388927,-1455.581446,-4367.215058
1484.271906,-7105.977043,229.828649,-4071.132681
1484.272217,-7846.182985,536.266849,-2664.741391
1484.272529,-11029.068536,-1225.752797,-1184.329507
1484.272840,-13397.727550,-2298.286494,444.123565
1484.273152,-13767.830521,-1762.019645,2368.659014
1484.273463,-10066.800811,-1455.581446,2220.617826
1484.273774,-6883.915261,-383.047749,-444.123565
1484.274086,-3552.988522,536.266849,-3627.009116
1484.274397,-1554.432478,689.485948,-5477.523971
1484.274708,-1628.453072,-306.438199,-5033.400406
1484.275020,-5921.647536,842.705048,-3849.070898
1484.275331,-11843.295072,1915.238745,-1628.453072
1484.275643,-16284.530724,536.266849,-148.041188
1484.275954,-16654.633695,-306.438199,1110.308913
1484.276265,-13619.789333,-383.047749,-0.000000
1484.276577,-10066.800811,-306.438199,-1702.473667
1484.276888,-6883.915261,-1072.533697,-3108.864956
1484.277200,-5625.565159,-1378.971896,-3997.112087
1484.277511,-6291.750507,0.000000,-2886.803174
1484.277822,-8290.306550,1072.533697,-1110.308913
1484.278134,-10436.903782,536.266849,592.164754
1484.278445,-11029.068536,-766.095498,888.247130
1484.278757,-10066.800811,-1072.533697,-518.144159
1484.279068,-8142.265362,0.000000,-2442.679609
1484.279379,-6587.832884,1455.581446,-3923.091493
1484.279691,-6661.853478,2221.676944,-4959.379811
1484.280002,-9252.574275,1149.143247,-4589.276840
1484.280314,-11547.212695,459.657299,-2516.700203
1484.280625,-13249.686362,1149.143247,-296.082377
1484.280936,-14285.974681,919.314598,1184.329507
1484.281248,-12287.418637,-153.219100,1850.514855
1484.281559,-7328.038826,-1991.848295,370.102971
1484.281870,-2368.659014,-2681.334243,-2590.720797
1484.282182,-888.247130,-1991.848295,-5329.482782
1484.282493,-1332.370696,-1072.533697,-6809.894666
1484.282805,-4663.297435,-153.219100,-5921.647536
1484.283116,-9178.553681,306.438199,-2812.782580
1484.283427,-14804.118840,-536.266849,-592.164754
1484.283739,-18135.045579,-1225.752797,1332.370696
1484.284050,-16580.613101,-153.219100,2368.659014
1484.284362,-12139.377449,0.000000,148.041188
1484.284673,-7105.977043,-536.266849,-2886.803174
1484.284984,-3404.947333,-383.047749,-5403.503377
1484.285296,-1258.350101,689.485948,-7179.997637
1484.285607,-1332.370696,1838.629195,-7105.977043
1484.285919,-5403.503377,1685.410096,-5329.482782
1484.286230,-11177.109724,1685.410096,-2812.782580
1484.286541,-15100.201217,1532.190996,-444.123565
1484.286853,-15914.427753,919.314598,962.267725
1484.287164,-14285.974681,76.609550,888.247130
1484.287476,-10881.027347,-919.314598,-814.226536
1484.287787,-5403.503377,-153.219100,-4441.235652
1484.288098,-888.247130,306.438199,-7105.977043
1484.288410,592.164754,766.095498,-6957.935855
1484.288721,-2812.782580,459.657299,-5625.565159
1484.289033,-9474.636058,76.609550,-4293.194464
1484.289344,-14656.077652,76.609550,-518.144159
1484.289655,-18875.251521,229.828649,888.247130
1484.289967,-18579.169144,459.657299,2146.597232
1484.290278,-15100.201217,536.266849,-740.205942
1484.290589,-9918.759623,-153.219100,-3182.885551
1484.290901,-3627.009116,-1225.752797,-4293.194464
1484.291212,74.020594,-1608.800546,-6661.853478
1484.291524,444.123565,-1072.533697,-6587.832884
1484.291835,-3182.885551,-2451.505594,-5329.482782
1484.292146,-9474.636058,-2604.724693,-1776.494261
1484.292458,-16284.530724,-2298.286494,1184.329507
1484.292769,-20725.766376,-689.485948,2294.638420
1484.293081,-20725.766376,0.000000,2072.576638
1484.293392,-16210.510130,0.000000,222.061783
1484.293703,-8808.450710,919.314598,-2516.700203
1484.294015,-1998.556043,536.266849,-5329.482782
1484.294326,888.247130,-229.828649,-6365.771101
1484.294638,740.205942,-1378.971896,-5403.503377
1484.294949,-1998.556043,-459.657299,-4071.132681
1484.295260,-6661.853478,0.000000,-2294.638420
1484.295572,-13397.727550,-995.924147,-888.247130
1484.295883,-17024.736666,-1149.143247,-222.061783
1484.296195,-17024.736666,306.438199,-1036.288319
1484.296506,-15692.365970,1915.238745,-1628.453072
1484.296817,-12509.480420,1225.752797,-2812.782580
1484.297129,-10140.821405,995.924147,-4071.132681
1484.297440,-5699.585753,1149.143247,-3552.988522
1484.297752,-2738.761985,612.876398,-3552.988522
1484.298063,-1924.535449,153.219100,-3108.864956
1484.298374,-1184.329507,919.314598,-3182.885551
1484.298686,-2516.700203,0.000000,-4441.235652
1484.298997,-5181.441594,-1072.533697,-4145.153275
1484.299308,-8808.450710,-1225.752797,-4515.256246
1484.299620,-12287.418637,76.609550,-4811.338623
1484.299931,-13471.748144,0.000000,-3627.009116
1484.300243,-14434.015869,-995.924147,-3034.844362
1484.300554,-14211.954086,-1302.362347,-2146.597232
1484.300865,-11843.295072,-1455.581446,-1480.411884
1484.301177,-9844.739029,-995.924147,-444.123565
1484.301488,-8882.471304,-919.314598,-888.247130
1484.301800,-8068.244768,1072.533697,-814.226536
1484.302111,-7328.038826,1685.410096,-1258.350101
1484.302422,-5625.565159,1762.019645,-2590.720797
1484.302734,-4515.256246,1685.410096,-4219.173869
1484.303045,-4145.153275,1608.800546,-6069.688724
1484.303357,-4737.318029,1455.581446,-6587.832884
1484.303668,-7254.018232,919.314598,-5699.585753
1484.303979,-12139.377449,-229.828649,-3997.112087
1484.304291,-16580.613101,-1149.143247,-1332.370696
1484.304602,-19097.313304,-2221.676944,888.247130
1484.304914,-18357.107362,-2834.553343,1480.411884
1484.305225,-14211.954086,-2298.286494,1110.308913
1484.305536,-9178.553681,-1608.800546,-740.205942
1484.305848,-3108.864956,-1378.971896,-3034.844362
1484.306159,-296.082377,-1685.410096,-4441.235652
1484.306471,-740.205942,-1225.752797,-4959.379811
1484.306782,-4515.256246,-153.219100,-3849.070898
1484.307093,-10214.842000,-153.219100,-1998.556043
1484.307405,-15322.262999,153.219100,-0.000000
1484.307716,-17690.922014,153.219100,1036.288319
1484.308027,-16506.592507,153.219100,740.205942
1484.308339,-13175.665768,459.657299,-888.247130
1484.308650,-8142.265362,919.314598,-2516.700203
1484.308962,-3701.029710,1532.190996,-3701.029710
1484.309273,-1554.432478,1762.019645,-3923.091493
1484.309584,-1480.411884,1762.019645,-3701.029710
1484.309896,-4071.132681,2068.457845,-2516.700203
1484.310207,-7105.977043,1532.190996,-1628.453072
1484.310519,-9400.615463,766.095498,-1258.350101
1484.310830,-10658.965565,536.266849,-1850.514855
1484.311141,-10436.903782,153.219100,-1480.411884
1484.311453,-10066.800811,-1762.019645,-2812.782580
1484.311764,-8512.368333,-3140.991542,-2812.782580
1484.312076,-7920.203579,-3524.039291,-1554.432478
1484.312387,-7772.162391,-4060.306139,-1110.308913
1484.312698,-7698.141797,-3753.867940,-0.000000
