#time,accel_x,accel_y,accel_z
1238.699476,-8364.327145,-306.438199,518.144159
1238.699787,-8882.471304,-306.438199,222.061783
1238.700098,-9030.512492,612.876398,222.061783
1238.700410,-8956.491898,0.000000,518.144159
1238.700721,-8808.450710,76.609550,518.144159
1238.701032,-8808.450710,0.000000,592.164754
1238.701344,-8956.491898,0.000000,370.102971
1238.701655,-8956.491898,-153.219100,296.082377
1238.701966,-9030.512492,-153.219100,592.164754
1238.702277,-8956.491898,76.609550,814.226536
1238.702589,-8882.471304,383.047749,518.144159
1238.702900,-8882.471304,-229.828649,666.185348
1238.703211,-9030.512492,0.000000,518.144159
1238.703523,-8956.491898,0.000000,518.144159
1238.703834,-8882.471304,0.000000,518.144159
1238.704145,-9030.512492,153.219100,888.247130
1238.704457,-8882.471304,-306.438199,518.144159
1238.704768,-8586.388927,0.000000,444.123565
1238.705079,-9252.574275,0.000000,296.082377
1238.705390,-9104.533087,0.000000,370.102971
1238.705702,-8882.471304,0.000000,518.144159
1238.706013,-8808.450710,-153.219100,666.185348
1238.706324,-8882.471304,-229.828649,592.164754
1238.706636,-8808.450710,-229.828649,592.164754
1238.706947,-8660.409521,0.000000,666.185348
1238.707258,-9178.553681,0.000000,222.061783
1238.707569,-9104.533087,0.000000,-0.000000
1238.707881,-8882.471304,0.000000,518.144159
1238.708192,-8734.430116,0.000000,518.144159
1238.708503,-8882.471304,76.609550,592.164754
1238.708815,-8882.471304,0.000000,592.164754
1238.709126,-8586.388927,-536.266849,444.123565
1238.709437,-8808.450710,153.219100,222.061783
1238.709749,-8808.450710,612.876398,444.123565
1238.710060,-8586.388927,0.000000,666.185348
1238.710371,-9030.512492,0.000000,592.164754
1238.710682,-8956.491898,0.000000,370.102971
1238.710994,-8956.491898,76.609550,444.123565
1238.711305,-8882.471304,-153.219100,666.185348
1238.711616,-8808.450710,76.609550,592.164754
1238.711928,-8734.430116,-229.828649,444.123565
1238.712239,-9030.512492,0.000000,148.041188
1238.712550,-8956.491898,0.000000,592.164754
1238.712861,-8882.471304,0.000000,666.185348
1238.713173,-8882.471304,0.000000,518.144159
1238.713484,-9030.512492,0.000000,370.102971
1238.713795,-8808.450710,459.657299,518.144159
1238.714107,-8956.491898,0.000000,370.102971
1238.714418,-8808.450710,0.000000,222.061783
1238.714729,-8808.450710,383.047749,518.144159
1238.715041,-8808.450710,-153.219100,888.247130
1238.715352,-8956.491898,-153.219100,444.123565
1238.715663,-8956.491898,0.000000,666.185348
1238.715974,-8956.491898,0.000000,444.123565
1238.716286,-9178.553681,0.000000,518.144159
1238.716597,-8882.471304,76.609550,666.185348
1238.716908,-8808.450710,612.876398,518.144159
1238.717220,-8808.450710,229.828649,518.144159
1238.717531,-9030.512492,-153.219100,370.102971
1238.717842,-9104.533087,0.000000,518.144159
1238.718153,-8882.471304,0.000000,444.123565
1238.718465,-8882.471304,153.219100,592.164754
1238.718776,-9104.533087,76.609550,370.102971
1238.719087,-8734.430116,0.000000,-0.000000
1238.719399,-8734.430116,383.047749,222.061783
1238.719710,-8734.430116,153.219100,222.061783
1238.720021,-8808.450710,0.000000,518.144159
1238.720333,-8882.471304,-153.219100,666.185348
1238.720644,-8882.471304,0.000000,592.164754
1238.720955,-8956.491898,76.609550,592.164754
1238.721266,-8882.471304,383.047749,444.123565
1238.721578,-8882.471304,-153.219100,518.144159
1238.721889,-8512.368333,76.609550,518.144159
1238.722200,-8882.471304,-306.438199,370.102971
1238.722512,-8882.471304,0.000000,518.144159
1238.722823,-9178.553681,0.000000,444.123565
1238.723134,-9030.512492,-306.438199,444.123565
1238.723445,-9178.553681,0.000000,518.144159
1238.723757,-9030.512492,-306.438199,592.164754
1238.724068,-8586.388927,153.219100,296.082377
1238.724379,-9030.512492,0.000000,-0.000000
1238.724691,-8808.450710,0.000000,666.185348
1238.725002,-8882.471304,0.000000,370.102971
1238.725313,-8882.471304,-153.219100,444.123565
1238.725625,-9474.636058,153.219100,592.164754
1238.725936,-11695.253884,1455.581446,148.041188
1238.726247,-10658.965565,3600.648841,518.144159
1238.726558,-8142.265362,4903.011187,740.205942
1238.726870,-7402.059420,2911.162892,1110.308913
1238.727181,-6439.791695,612.876398,1110.308913
1238.727492,-7031.956449,-995.924147,-148.041188
1238.727804,-7254.018232,-766.095498,-74.020594
1238.728115,-8290.306550,-153.219100,-592.164754
1238.728426,-12583.501014,-1149.143247,-1406.391290
1238.728737,-11843.295072,536.266849,-0.000000
1238.729049,-9770.718434,766.095498,518.144159
1238.729360,-8586.388927,0.000000,1850.514855
1238.729671,-9844.739029,-919.314598,2664.741391
1238.729983,-11621.233289,1455.581446,1332.370696
1238.730294,-6587.832884,4979.620737,2738.761985
1238.730605,-5477.523971,4826.401637,1776.494261
1238.730917,-7920.203579,2911.162892,444.123565
1238.731228,-7846.182985,2681.334243,-1036.288319
1238.731539,-7698.141797,3753.867940,-1998.556043
1238.731850,-8882.471304,3140.991542,-592.164754
1238.732162,-9252.574275,3600.648841,-518.144159
1238.732473,-14211.954086,1455.581446,-1184.329507
1238.732784,-12435.459826,-1302.362347,2072.576638
1238.733096,-8438.347739,-1378.971896,2294.638420
1238.733407,-10362.883188,1762.019645,962.267725
1238.733718,-7328.038826,6281.983084,2516.700203
1238.734029,-8808.450710,4903.011187,814.226536
1238.734341,-7476.080014,2681.334243,2960.823768
1238.734652,-5847.626942,5209.449386,1554.432478
1238.734963,-7624.121203,7124.688131,-222.061783
1238.735275,-8364.327145,6588.421283,-1110.308913
1238.735586,-10436.903782,4903.011187,-814.226536
1238.735897,-9548.656652,4366.744339,-1702.473667
1238.736209,-10658.965565,5669.106685,-814.226536
1238.736520,-11103.089130,4903.011187,444.123565
1238.736831,-10510.924376,3830.477490,1628.453072
1238.737142,-10732.986159,4366.744339,2146.597232
1238.737454,-8438.347739,5209.449386,2442.679609
1238.737765,-6735.874072,4903.011187,962.267725
1238.738076,-5477.523971,5669.106685,592.164754
1238.738388,-4811.338623,5056.230287,444.123565
1238.738699,-5033.400406,5515.887586,-1036.288319
1238.739010,-6957.935855,4903.011187,-1184.329507
1238.739321,-9178.553681,3753.867940,-740.205942
1238.739633,-9770.718434,2528.115143,-296.082377
1238.739944,-10362.883188,1225.752797,444.123565
1238.740255,-10362.883188,612.876398,1480.411884
1238.740567,-11103.089130,-306.438199,1554.432478
1238.740878,-10214.842000,689.485948,2146.597232
1238.741189,-8216.285956,2145.067394,1924.535449
1238.741501,-6661.853478,3677.258390,962.267725
1238.741812,-5995.668130,2374.896044,518.144159
1238.742123,-6809.894666,1378.971896,-444.123565
1238.742434,-6365.771101,1838.629195,-666.185348
1238.742746,-6439.791695,2068.457845,-1184.329507
1238.743057,-7624.121203,-383.047749,-814.226536
1238.743368,-9770.718434,-3753.867940,-888.247130
1238.743680,-11251.130318,-4749.792088,1110.308913
1238.743991,-12213.398043,-3907.087040,1628.453072
1238.744302,-13101.645173,-3677.258390,2146.597232
1238.744613,-13397.727550,-2757.943793,1702.473667
1238.744925,-12731.542202,-919.314598,1036.288319
1238.745236,-10288.862594,1762.019645,-148.041188
1238.745547,-7772.162391,2221.676944,-666.185348
1238.745859,-6661.853478,3140.991542,-1332.370696
1238.746170,-6365.771101,3907.087040,-222.061783
1238.746481,-6957.935855,2681.334243,-74.020594
1238.746793,-7994.224174,459.657299,296.082377
1238.747104,-9622.677246,-995.924147,962.267725
1238.747415,-11547.212695,-2451.505594,666.185348
1238.747726,-12731.542202,-3600.648841,888.247130
1238.748038,-12583.501014,-4596.572988,814.226536
1238.748349,-12583.501014,-3524.039291,148.041188
1238.748660,-11917.315666,-1762.019645,-0.000000
1238.748972,-10881.027347,0.000000,-0.000000
1238.749283,-8956.491898,1685.410096,296.082377
1238.749594,-6957.935855,3370.820191,370.102971
1238.749906,-4959.379811,4060.306139,814.226536
1238.750217,-3330.926739,2604.724693,592.164754
1238.750528,-2960.823768,1991.848295,814.226536
1238.750839,-4737.318029,1072.533697,888.247130
1238.751151,-7994.224174,536.266849,-370.102971
1238.751462,-9696.697840,76.609550,-296.082377
1238.751773,-11769.274478,-306.438199,-370.102971
1238.752085,-12435.459826,-995.924147,148.041188
1238.752396,-12361.439231,-842.705048,740.205942
1238.752707,-11399.171507,-229.828649,666.185348
1238.753018,-10584.944971,1225.752797,-74.020594
1238.753330,-7550.100608,4060.306139,592.164754
1238.753641,-5847.626942,4903.011187,222.061783
1238.753952,-4737.318029,4519.963438,1184.329507
1238.754264,-2664.741391,2911.162892,1184.329507
1238.754575,-3330.926739,995.924147,1776.494261
1238.754886,-5403.503377,-842.705048,1258.350101
1238.755198,-8216.285956,-2757.943793,1184.329507
1238.755509,-11547.212695,-3983.696590,444.123565
1238.755820,-13545.768739,-3524.039291,1184.329507
1238.756131,-13841.851115,-3907.087040,1184.329507
1238.756443,-13767.830521,-3447.429741,222.061783
1238.756754,-13027.624579,-1685.410096,-370.102971
1238.757065,-11325.150913,689.485948,-370.102971
1238.757377,-8956.491898,2987.772442,666.185348
1238.757688,-7402.059420,3447.429741,444.123565
1238.757999,-5107.421000,3370.820191,-666.185348
1238.758310,-3701.029710,2298.286494,962.267725
1238.758622,-2812.782580,76.609550,1850.514855
1238.758933,-4219.173869,-1302.362347,1184.329507
1238.759244,-7624.121203,-2911.162892,222.061783
1238.759556,-11251.130318,-3830.477490,148.041188
1238.759867,-13545.768739,-3830.477490,370.102971
1238.760178,-14582.057057,-3753.867940,-74.020594
1238.760490,-15544.324782,-3064.381992,-740.205942
1238.760801,-15248.242405,-1915.238745,-370.102971
1238.761112,-13397.727550,536.266849,370.102971
1238.761423,-10510.924376,2681.334243,518.144159
1238.761735,-7254.018232,3447.429741,-222.061783
1238.762046,-5329.482782,3677.258390,-296.082377
1238.762357,-3552.988522,2451.505594,2072.576638
1238.762669,-2442.679609,2221.676944,2368.659014
1238.762980,-4885.359217,-766.095498,962.267725
1238.763291,-8290.306550,-1378.971896,592.164754
1238.763602,-11843.295072,-1378.971896,-0.000000
1238.763914,-13397.727550,-689.485948,-296.082377
1238.764225,-13397.727550,-842.705048,-444.123565
1238.764536,-13323.706956,-919.314598,-1332.370696
1238.764848,-11325.150913,0.000000,-1036.288319
1238.765159,-8216.285956,1838.629195,-666.185348
1238.765470,-6587.832884,3677.258390,-740.205942
1238.765782,-5329.482782,3753.867940,962.267725
1238.766093,-3552.988522,2604.724693,3552.988522
1238.766404,-1776.494261,1072.533697,3404.947333
1238.766715,-2072.576638,0.000000,2664.741391
1238.767027,-4293.194464,-1532.190996,888.247130
1238.767338,-9252.574275,-1838.629195,-444.123565
1238.767649,-12139.377449,-383.047749,-962.267725
1238.767961,-13767.830521,-459.657299,-444.123565
1238.768272,-14508.036463,-1685.410096,-0.000000
1238.768583,-13545.768739,-1838.629195,-0.000000
1238.768894,-11843.295072,229.828649,-222.061783
1238.769206,-9474.636058,3217.601092,-370.102971
1238.769517,-6439.791695,4290.134789,222.061783
1238.769828,-4589.276840,4290.134789,296.082377
1238.770140,-4219.173869,3064.381992,1184.329507
1238.770451,-3330.926739,-153.219100,3256.906145
1238.770762,-4589.276840,-1762.019645,2516.700203
1238.771074,-8068.244768,-3064.381992,2516.700203
1238.771385,-11769.274478,-3370.820191,1480.411884
1238.771696,-14285.974681,-4213.525239,1110.308913
1238.772008,-14359.995275,-3294.210641,888.247130
1238.772319,-14508.036463,-3753.867940,-1036.288319
1238.772631,-13397.727550,-2298.286494,-2220.617826
1238.772942,-11991.336260,0.000000,-1628.453072
1238.773254,-10584.944971,2451.505594,-518.144159
1238.773565,-7846.182985,2528.115143,1332.370696
1238.773877,-5921.647536,1072.533697,1554.432478
1238.774188,-4663.297435,-612.876398,3108.864956
1238.774499,-2368.659014,-1378.971896,3034.844362
1238.774811,-3182.885551,-2145.067394,2368.659014
1238.775122,-5255.462188,-3830.477490,-0.000000
1238.775434,-8956.491898,-2987.772442,-518.144159
1238.775745,-12361.439231,-3294.210641,-740.205942
1238.776057,-14285.974681,-2528.115143,-592.164754
1238.776368,-15618.345376,-1685.410096,-1258.350101
1238.776680,-14952.160028,-612.876398,-1332.370696
1238.776991,-12583.501014,1838.629195,-296.082377
1238.777302,-8956.491898,2451.505594,-0.000000
1238.777614,-5921.647536,3294.210641,222.061783
1238.777925,-4367.215058,3524.039291,814.226536
1238.778237,-2664.741391,3140.991542,2886.803174
1238.778548,-2590.720797,2374.896044,3108.864956
1238.778860,-4885.359217,76.609550,1628.453072
1238.779171,-7772.162391,-1302.362347,-0.000000
1238.779483,-11695.253884,-2145.067394,-0.000000
1238.779794,-13397.727550,-1608.800546,-444.123565
1238.780105,-14285.974681,-1225.752797,-222.061783
1238.780417,-14582.057057,-1455.581446,-1406.391290
1238.780728,-12953.603985,-995.924147,-962.267725
1238.781040,-9326.594869,1378.971896,-444.123565
1238.781351,-6809.894666,3294.210641,-444.123565
1238.781663,-5921.647536,3830.477490,148.041188
1238.781974,-4145.153275,3907.087040,2072.576638
1238.782286,-1850.514855,2681.334243,3997.112087
1238.782597,-1998.556043,0.000000,2812.782580
1238.782909,-3923.091493,-1532.190996,1924.535449
1238.783220,-8216.285956,-2374.896044,-74.020594
1238.783531,-11695.253884,-1302.362347,-1184.329507
1238.783843,-13397.727550,-689.485948,-888.247130
1238.784154,-15544.324782,-1685.410096,-962.267725
1238.784466,-15470.304188,-1608.800546,-740.205942
1238.784777,-14063.912898,-1608.800546,-148.041188
1238.785089,-11473.192101,1225.752797,296.082377
1238.785400,-8808.450710,3140.991542,1110.308913
1238.785712,-5699.585753,3907.087040,1258.350101
1238.786023,-3997.112087,2911.162892,962.267725
1238.786334,-2590.720797,1378.971896,3478.967927
1238.786646,-1924.535449,-766.095498,2368.659014
1238.786957,-5329.482782,-3447.429741,1554.432478
1238.787269,-9178.553681,-3524.039291,592.164754
1238.787580,-13693.809927,-3294.210641,222.061783
1238.787892,-15174.221811,-3447.429741,740.205942
1238.788203,-15248.242405,-4136.915689,-0.000000
1238.788515,-14804.118840,-4519.963438,-1480.411884
1238.788826,-12805.562797,-1915.238745,-888.247130
1238.789137,-11325.150913,1225.752797,-370.102971
1238.789449,-8068.244768,2911.162892,370.102971
1238.789760,-5847.626942,2298.286494,888.247130
1238.790072,-3701.029710,612.876398,3182.885551
1238.790383,-2294.638420,0.000000,3627.009116
1238.790695,-1554.432478,-1072.533697,2590.720797
1238.791006,-3108.864956,-2451.505594,-0.000000
1238.791318,-6735.874072,-2757.943793,-740.205942
1238.791629,-10584.944971,-3370.820191,-1258.350101
1238.791940,-14508.036463,-2757.943793,-518.144159
1238.792252,-16210.510130,-3064.381992,-740.205942
1238.792563,-17024.736666,-2145.067394,-888.247130
1238.792875,-14952.160028,383.047749,148.041188
1238.793186,-12065.356855,2298.286494,-74.020594
1238.793498,-8290.306550,3983.696590,-370.102971
1238.793809,-4515.256246,4290.134789,-592.164754
1238.794121,-1998.556043,4366.744339,1258.350101
1238.794432,0.000000,3524.039291,2886.803174
1238.794744,-2072.576638,689.485948,1702.473667
1238.795055,-5773.606348,-2374.896044,740.205942
1238.795366,-10658.965565,-2528.115143,-74.020594
1238.795678,-14359.995275,-1455.581446,-518.144159
1238.795989,-15914.427753,-1149.143247,-814.226536
1238.796301,-16506.592507,-1532.190996,-1110.308913
1238.796612,-14656.077652,-1685.410096,-1850.514855
1238.796924,-11991.336260,-1149.143247,-1406.391290
1238.797235,-9252.574275,2145.067394,-370.102971
1238.797547,-5625.565159,3753.867940,-74.020594
1238.797858,-4145.153275,4596.572988,814.226536
1238.798169,-3108.864956,3524.039291,3997.112087
1238.798481,-1480.411884,612.876398,3849.070898
1238.798792,-1258.350101,-612.876398,2664.741391
1238.799104,-4441.235652,-1838.629195,1036.288319
1238.799415,-9844.739029,-1378.971896,-814.226536
1238.799727,-13915.871710,-1149.143247,-1110.308913
1238.800038,-15692.365970,-689.485948,-962.267725
1238.800350,-16062.468941,-1455.581446,-518.144159
1238.800661,-14656.077652,-1302.362347,-814.226536
1238.800972,-13175.665768,459.657299,-518.144159
1238.801284,-9548.656652,3524.039291,592.164754
1238.801595,-5921.647536,3600.648841,518.144159
1238.801907,-4811.338623,2911.162892,1628.453072
1238.802218,-2368.659014,1838.629195,3701.029710
1238.802530,-666.185348,76.609550,3849.070898
1238.802841,-2886.803174,-2604.724693,2738.761985
1238.803153,-6735.874072,-3217.601092,1702.473667
1238.803464,-11843.295072,-2298.286494,-296.082377
1238.803776,-14582.057057,-1991.848295,-222.061783
1238.804087,-15914.427753,-2604.724693,962.267725
1238.804398,-16136.489536,-3140.991542,-740.205942
1238.804710,-14359.995275,-1991.848295,-1406.391290
1238.805021,-11695.253884,153.219100,-518.144159
1238.805333,-8364.327145,2068.457845,-0.000000
1238.805644,-5625.565159,3294.210641,1184.329507
1238.805956,-3108.864956,2604.724693,1184.329507
1238.806267,-2886.803174,689.485948,2516.700203
1238.806579,-740.205942,306.438199,2590.720797
1238.806890,-1628.453072,-1149.143247,1702.473667
1238.807201,-5033.400406,-3064.381992,-518.144159
1238.807513,-10288.862594,-2834.553343,-666.185348
1238.807824,-14359.995275,-2298.286494,-740.205942
1238.808136,-16062.468941,-2528.115143,-370.102971
1238.808447,-17542.880825,-1608.800546,-296.082377
1238.808759,-16358.551318,-612.876398,-740.205942
1238.809070,-13323.706956,2221.676944,-222.061783
1238.809382,-9770.718434,2911.162892,-444.123565
1238.809693,-5921.647536,3830.477490,-444.123565
1238.810004,-3552.988522,4519.963438,222.061783
1238.810316,-1554.432478,3600.648841,2886.803174
1238.810627,-1036.288319,1302.362347,3034.844362
1238.810939,-5403.503377,-1608.800546,1554.432478
1238.811250,-8364.327145,-2451.505594,296.082377
1238.811562,-12583.501014,-1838.629195,-148.041188
1238.811873,-15322.262999,-919.314598,-444.123565
1238.812185,-16506.592507,-995.924147,-962.267725
1238.812496,-16136.489536,-1225.752797,-1628.453072
1238.812807,-13101.645173,-306.438199,-1332.370696
1238.813119,-9252.574275,2145.067394,-296.082377
1238.813430,-6957.935855,3064.381992,-0.000000
1238.813742,-4589.276840,4443.353888,444.123565
1238.814053,-3034.844362,3830.477490,1924.535449
1238.814365,-1776.494261,2374.896044,3552.988522
1238.814676,-888.247130,383.047749,2738.761985
1238.814988,-2812.782580,-1378.971896,1110.308913
1238.815299,-7402.059420,-2528.115143,-0.000000
1238.815611,-11399.171507,-2374.896044,-740.205942
1238.815922,-14211.954086,-1838.629195,-0.000000
1238.816233,-16728.654289,-2221.676944,-0.000000
1238.816545,-16284.530724,-2681.334243,-0.000000
1238.816856,-14508.036463,-1225.752797,-74.020594
1238.817168,-11251.130318,1991.848295,592.164754
1238.817479,-6883.915261,3140.991542,444.123565
1238.817791,-3701.029710,3217.601092,296.082377
1238.818102,-1258.350101,2834.553343,1258.350101
1238.818414,-1480.411884,1685.410096,2146.597232
1238.818725,-2664.741391,-383.047749,1998.556043
1238.819036,-6143.709319,-2604.724693,2368.659014
1238.819348,-10436.903782,-2911.162892,1258.350101
1238.819659,-14137.933492,-2681.334243,370.102971
1238.819971,-15766.386565,-2604.724693,740.205942
1238.820282,-16358.551318,-3064.381992,-296.082377
1238.820594,-14656.077652,-2987.772442,-1702.473667
1238.820905,-12065.356855,-919.314598,-1258.350101
1238.821217,-10881.027347,1532.190996,-814.226536
1238.821528,-7105.977043,3064.381992,666.185348
1238.821839,-4811.338623,2451.505594,888.247130
1238.822151,-2960.823768,1302.362347,2516.700203
1238.822462,-1628.453072,536.266849,3108.864956
1238.822774,-1258.350101,-612.876398,2738.761985
1238.823085,-3627.009116,-2757.943793,370.102971
1238.823397,-8142.265362,-2757.943793,-962.267725
1238.823708,-12065.356855,-2528.115143,-888.247130
1238.824020,-15322.262999,-1762.019645,-296.082377
1238.824331,-17172.777854,-1685.410096,-666.185348
1238.824642,-17098.757260,-612.876398,-814.226536
1238.824954,-14878.139434,1225.752797,-518.144159
1238.825265,-10658.965565,3447.429741,-296.082377
1238.825577,-6957.935855,4060.306139,-296.082377
1238.825888,-3701.029710,4213.525239,-592.164754
1238.826200,-1702.473667,3677.258390,1850.514855
1238.826511,-814.226536,1915.238745,2664.741391
1238.826823,-2590.720797,-536.266849,2368.659014
1238.827134,-6513.812290,-2145.067394,814.226536
1238.827446,-10807.006753,-1915.238745,-0.000000
1238.827757,-14211.954086,-1991.848295,-148.041188
1238.828068,-16062.468941,-995.924147,148.041188
1238.828380,-16432.571912,-1378.971896,-814.226536
1238.828691,-14878.139434,-2068.457845,-1036.288319
1238.829003,-11769.274478,689.485948,-296.082377
1238.829314,-8364.327145,2604.724693,-0.000000
1238.829626,-5255.462188,3600.648841,-0.000000
1238.829937,-2738.761985,3294.210641,-0.000000
1238.830249,-1850.514855,2834.553343,2368.659014
1238.830560,-1184.329507,1072.533697,3627.009116
1238.830871,-1998.556043,-689.485948,2738.761985
1238.831183,-5921.647536,-2834.553343,1036.288319
1238.831494,-10214.842000,-2757.943793,370.102971
1238.831806,-12953.603985,-2068.457845,-74.020594
1238.832117,-14582.057057,-1149.143247,-74.020594
1238.832429,-15914.427753,-1915.238745,-814.226536
1238.832740,-15544.324782,-1149.143247,-1406.391290
1238.833052,-12583.501014,1302.362347,-74.020594
1238.833363,-9548.656652,2528.115143,74.020594
1238.833674,-5995.668130,3064.381992,1110.308913
1238.833986,-3997.112087,2374.896044,518.144159
1238.834297,-2664.741391,1072.533697,2368.659014
1238.834609,-2664.741391,-383.047749,2664.741391
1238.834920,-4145.153275,-2068.457845,2516.700203
1238.835232,-8216.285956,-2987.772442,1184.329507
1238.835543,-11917.315666,-2834.553343,814.226536
1238.835855,-14656.077652,-3753.867940,962.267725
1238.836166,-15766.386565,-3370.820191,-0.000000
1238.836477,-15396.283594,-2681.334243,-444.123565
1238.836789,-13989.892304,-1455.581446,-1628.453072
1238.837100,-11695.253884,1532.190996,-1110.308913
1238.837412,-8734.430116,2298.286494,-592.164754
1238.837723,-5033.400406,3064.381992,-0.000000
1238.838035,-3627.009116,2374.896044,1258.350101
1238.838346,-2516.700203,1225.752797,2368.659014
1238.838658,-1702.473667,0.000000,2886.803174
1238.838969,-2442.679609,-1072.533697,1406.391290
1238.839281,-6069.688724,-2834.553343,-74.020594
1238.839592,-10436.903782,-2911.162892,-444.123565
1238.839903,-14063.912898,-1608.800546,-222.061783
1238.840215,-16062.468941,-689.485948,-740.205942
1238.840526,-16506.592507,-766.095498,-666.185348
1238.840838,-15396.283594,383.047749,-592.164754
1238.841149,-11843.295072,2911.162892,-222.061783
1238.841461,-8290.306550,3830.477490,-592.164754
1238.841772,-5033.400406,3677.258390,-814.226536
1238.842084,-2368.659014,4519.963438,148.041188
1238.842395,-1406.391290,2451.505594,2738.761985
1238.842706,-2072.576638,0.000000,3108.864956
1238.843018,-5847.626942,-2528.115143,1850.514855
1238.843329,-10288.862594,-2911.162892,1258.350101
1238.843641,-13619.789333,-2068.457845,740.205942
1238.843952,-16062.468941,-1302.362347,-74.020594
1238.844264,-15766.386565,-1149.143247,-592.164754
1238.844575,-14434.015869,-1762.019645,-1332.370696
1238.844887,-11843.295072,0.000000,-888.247130
1238.845198,-9178.553681,2068.457845,-296.082377
1238.845509,-6439.791695,3830.477490,-74.020594
1238.845821,-3775.050304,4213.525239,444.123565
1238.846132,-2516.700203,3064.381992,1998.556043
1238.846444,-1850.514855,1608.800546,3552.988522
1238.846755,-1480.411884,0.000000,3034.844362
1238.847067,-4071.132681,-2145.067394,1924.535449
1238.847378,-8956.491898,-3294.210641,592.164754
1238.847690,-12213.398043,-2528.115143,296.082377
1238.848001,-14063.912898,-2298.286494,-0.000000
1238.848312,-15692.365970,-2757.943793,-518.144159
1238.848624,-15396.283594,-2374.896044,-666.185348
1238.848935,-13693.809927,-153.219100,-74.020594
1238.849247,-11103.089130,2374.896044,-0.000000
1238.849558,-7105.977043,2604.724693,740.205942
1238.849870,-4589.276840,2221.676944,444.123565
1238.850181,-3627.009116,1225.752797,1406.391290
1238.850493,-2812.782580,689.485948,2072.576638
1238.850804,-3478.967927,-536.266849,2442.679609
1238.851116,-6069.688724,-2528.115143,1924.535449
1238.851427,-10584.944971,-3677.258390,888.247130
1238.851738,-13323.706956,-3294.210641,814.226536
1238.852050,-15618.345376,-3524.039291,222.061783
1238.852361,-16062.468941,-2757.943793,-666.185348
1238.852673,-14730.098246,-1378.971896,-1406.391290
1238.852984,-13175.665768,919.314598,-1480.411884
1238.853296,-9992.780217,2451.505594,-962.267725
1238.853607,-6587.832884,2911.162892,-0.000000
1238.853919,-4441.235652,2528.115143,888.247130
1238.854230,-2664.741391,1225.752797,2664.741391
1238.854541,-2368.659014,-1072.533697,3034.844362
1238.854853,-1406.391290,-1915.238745,2516.700203
1238.855164,-4219.173869,-3140.991542,296.082377
1238.855476,-9178.553681,-2834.553343,-370.102971
1238.855787,-13175.665768,-2451.505594,-74.020594
1238.856099,-15470.304188,-1762.019645,-370.102971
1238.856410,-16062.468941,-1762.019645,-518.144159
1238.856722,-15914.427753,-536.266849,-814.226536
1238.857033,-13397.727550,2145.067394,-296.082377
1238.857344,-9474.636058,4290.134789,-74.020594
1238.857656,-5921.647536,3370.820191,-814.226536
1238.857967,-3034.844362,3677.258390,296.082377
1238.858279,-1184.329507,3140.991542,2072.576638
1238.858590,-2146.597232,919.314598,2664.741391
1238.858902,-4145.153275,-1608.800546,2442.679609
1238.859213,-8216.285956,-2374.896044,814.226536
1238.859525,-12213.398043,-2221.676944,296.082377
1238.859836,-14656.077652,-1225.752797,-0.000000
1238.860147,-15396.283594,-1378.971896,-222.061783
1238.860459,-14804.118840,-1838.629195,-1110.308913
1238.860770,-13175.665768,-1072.533697,-1110.308913
1238.861082,-10436.903782,1302.362347,-296.082377
1238.861393,-8290.306550,3907.087040,148.041188
1238.861705,-5033.400406,3830.477490,1554.432478
1238.862016,-2516.700203,2987.772442,1554.432478
1238.862328,-1924.535449,1072.533697,3627.009116
1238.862639,-1628.453072,-919.314598,3034.844362
1238.862951,-3404.947333,-2068.457845,1702.473667
1238.863262,-7772.162391,-2681.334243,-222.061783
1238.863573,-11769.274478,-2145.067394,-222.061783
1238.863885,-14211.954086,-1762.019645,-444.123565
1238.864196,-15174.221811,-2145.067394,-222.061783
1238.864508,-15396.283594,-1991.848295,-222.061783
1238.864819,-14211.954086,-1149.143247,-222.061783
1238.865131,-11991.336260,1685.410096,-0.000000
1238.865442,-8364.327145,3370.820191,296.082377
1238.865754,-4959.379811,3753.867940,740.205942
1238.866065,-2960.823768,2451.505594,962.267725
1238.866376,-2368.659014,1532.190996,2738.761985
1238.866688,-2960.823768,0.000000,2886.803174
1238.866999,-5625.565159,-2451.505594,1480.411884
1238.867311,-9770.718434,-2834.553343,1036.288319
1238.867622,-13323.706956,-3140.991542,666.185348
1238.867934,-14804.118840,-2911.162892,222.061783
1238.868245,-15174.221811,-3677.258390,-740.205942
1238.868557,-14434.015869,-2987.772442,-1702.473667
1238.868868,-12953.603985,-1072.533697,-1258.350101
1238.869179,-10658.965565,2145.067394,-592.164754
1238.869491,-7624.121203,2987.772442,222.061783
1238.869802,-5625.565159,1838.629195,1184.329507
1238.870114,-2664.741391,919.314598,3034.844362
1238.870425,-1480.411884,0.000000,2960.823768
1238.870737,-1184.329507,-919.314598,2220.617826
1238.871048,-3701.029710,-2068.457845,-148.041188
1238.871359,-7920.203579,-1608.800546,-1110.308913
1238.871671,-11399.171507,-1225.752797,-814.226536
1238.871982,-14359.995275,-1838.629195,-888.247130
1238.872293,-16432.571912,-2068.457845,-222.061783
1238.872604,-16580.613101,-1455.581446,-518.144159
1238.872916,-14359.995275,919.314598,-222.061783
1238.873227,-11621.233289,3217.601092,-592.164754
1238.873538,-7476.080014,4290.134789,-296.082377
1238.873849,-4441.235652,4596.572988,-370.102971
1238.874161,-1998.556043,3064.381992,1850.514855
1238.874472,-962.267725,1378.971896,2960.823768
1238.874783,-2738.761985,-766.095498,2368.659014
1238.875094,-6587.832884,-2528.115143,1184.329507
1238.875406,-11473.192101,-2221.676944,370.102971
1238.875717,-14137.933492,-1455.581446,-444.123565
1238.876028,-15544.324782,-1608.800546,-148.041188
1238.876339,-15322.262999,-2145.067394,-888.247130
1238.876651,-13249.686362,-1378.971896,-1480.411884
1238.876962,-11399.171507,536.266849,-814.226536
1238.877273,-9326.594869,2528.115143,-518.144159
1238.877585,-6143.709319,3983.696590,444.123565
1238.877896,-3552.988522,3600.648841,1554.432478
1238.878207,-2072.576638,1915.238745,3256.906145
1238.878518,-888.247130,76.609550,3552.988522
1238.878830,-2294.638420,-1685.410096,1628.453072
1238.879141,-5921.647536,-2834.553343,444.123565
1238.879452,-10214.842000,-2298.286494,-740.205942
1238.879763,-13175.665768,-1455.581446,-592.164754
1238.880075,-14878.139434,-1685.410096,-296.082377
1238.880386,-15840.407159,-2757.943793,-740.205942
1238.880697,-14730.098246,-1838.629195,-740.205942
1238.881008,-13027.624579,1378.971896,-666.185348
1238.881320,-10288.862594,3370.820191,-666.185348
1238.881631,-6513.812290,4673.182538,444.123565
1238.881942,-4293.194464,3370.820191,740.205942
1238.882253,-2146.597232,1915.238745,3108.864956
1238.882565,-962.267725,-229.828649,3108.864956
1238.882876,-3404.947333,-2681.334243,2812.782580
1238.883187,-7402.059420,-3677.258390,1480.411884
1238.883499,-11991.336260,-2221.676944,-0.000000
1238.883810,-15766.386565,-2068.457845,-518.144159
1238.884121,-16284.530724,-2068.457845,-222.061783
1238.884432,-15914.427753,-1991.848295,-888.247130
1238.884744,-14063.912898,-1532.190996,-1628.453072
1238.885055,-11991.336260,1149.143247,-740.205942
1238.885366,-9326.594869,2757.943793,-0.000000
1238.885677,-6291.750507,3217.601092,814.226536
1238.885989,-3330.926739,2145.067394,2368.659014
1238.886300,-666.185348,1149.143247,3478.967927
1238.886611,370.102971,-306.438199,3701.029710
1238.886922,-1258.350101,-1915.238745,1702.473667
1238.887234,-5921.647536,-2068.457845,-0.000000
1238.887545,-11103.089130,-1455.581446,-814.226536
1238.887856,-14582.057057,-689.485948,-518.144159
1238.888167,-16950.716072,-1072.533697,-148.041188
1238.888479,-16654.633695,-1532.190996,-592.164754
1238.888790,-15470.304188,-306.438199,-444.123565
1238.889101,-12805.562797,1838.629195,-74.020594
1238.889413,-8512.368333,3140.991542,-74.020594
1238.889724,-4885.359217,3983.696590,666.185348
1238.890035,-2146.597232,3140.991542,1776.494261
1238.890346,-592.164754,1455.581446,3182.885551
1238.890658,-888.247130,-995.924147,2368.659014
1238.890969,-3997.112087,-2221.676944,1406.391290
1238.891280,-8956.491898,-1991.848295,222.061783
1238.891591,-13175.665768,-1762.019645,-0.000000
1238.891903,-16432.571912,-1762.019645,-296.082377
1238.892214,-16432.571912,-1685.410096,-592.164754
1238.892525,-15026.180623,-1455.581446,-1332.370696
1238.892836,-13249.686362,-612.876398,-1776.494261
1238.893148,-10955.047942,1225.752797,-1258.350101
1238.893459,-7105.977043,4903.011187,-518.144159
1238.893770,-4367.215058,4596.572988,888.247130
1238.894081,-2664.741391,2757.943793,2368.659014
1238.894393,-1480.411884,919.314598,3997.112087
1238.894704,-888.247130,-1378.971896,3034.844362
1238.895015,-3478.967927,-2528.115143,1184.329507
1238.895327,-7550.100608,-2911.162892,-666.185348
1238.895638,-12287.418637,-1532.190996,-1406.391290
1238.895949,-15322.262999,-1762.019645,-740.205942
1238.896260,-17098.757260,-2298.286494,-962.267725
1238.896572,-16876.695478,-1762.019645,-666.185348
1238.896883,-15840.407159,306.438199,-888.247130
1238.897194,-12879.583391,2681.334243,-296.082377
1238.897505,-8734.430116,3524.039291,-74.020594
1238.897817,-4737.318029,4060.306139,-0.000000
1238.898128,-2072.576638,3217.601092,2146.597232
1238.898439,592.164754,1685.410096,3627.009116
1238.898750,148.041188,-919.314598,2738.761985
1238.899062,-3923.091493,-2528.115143,1554.432478
1238.899373,-9770.718434,-2298.286494,148.041188
1238.899684,-14582.057057,-1149.143247,-592.164754
1238.899995,-17542.880825,-842.705048,-444.123565
1238.900307,-17468.860231,-1915.238745,-1332.370696
1238.900618,-14804.118840,-1838.629195,-518.144159
1238.900929,-13175.665768,-306.438199,-814.226536
1238.901241,-9844.739029,842.705048,-148.041188
1238.901552,-6735.874072,1762.019645,666.185348
1238.901863,-4293.194464,2068.457845,2072.576638
1238.902174,-1332.370696,2145.067394,3923.091493
1238.902486,0.000000,842.705048,3775.050304
1238.902797,-444.123565,-1915.238745,2294.638420
1238.903108,-3256.906145,-3370.820191,814.226536
1238.903419,-7994.224174,-2451.505594,-370.102971
1238.903731,-12657.521608,-1302.362347,-1036.288319
1238.904042,-16654.633695,-1149.143247,-370.102971
1238.904353,-17690.922014,-2221.676944,-0.000000
1238.904664,-16580.613101,-1608.800546,-0.000000
1238.904976,-13989.892304,0.000000,-148.041188
1238.905287,-10732.986159,3294.210641,-888.247130
1238.905598,-7179.997637,3447.429741,-296.082377
1238.905909,-3627.009116,3140.991542,370.102971
1238.906221,-1480.411884,2298.286494,2738.761985
1238.906532,-370.102971,-383.047749,3108.864956
1238.906843,-1924.535449,-2145.067394,2960.823768
1238.907155,-6217.729913,-3600.648841,1850.514855
1238.907466,-10881.027347,-2911.162892,444.123565
1238.907777,-14656.077652,-1302.362347,148.041188
1238.908088,-17468.860231,-1838.629195,-0.000000
1238.908400,-16950.716072,-1455.581446,-888.247130
1238.908711,-15544.324782,-842.705048,-1702.473667
1238.909022,-12435.459826,1302.362347,-1184.329507
1238.909333,-9030.512492,2987.772442,-592.164754
1238.909645,-5255.462188,4136.915689,740.205942
1238.909956,-2516.700203,2451.505594,1998.556043
1238.910267,-1480.411884,842.705048,3775.050304
1238.910578,-740.205942,-536.266849,3478.967927
1238.910890,-2368.659014,-1225.752797,1924.535449
1238.911201,-6069.688724,-1991.848295,-222.061783
1238.911512,-10362.883188,-1762.019645,-1554.432478
1238.911823,-13545.768739,-1149.143247,-1480.411884
1238.912135,-16062.468941,-919.314598,-1184.329507
1238.912446,-16580.613101,-1915.238745,-814.226536
1238.912757,-14952.160028,-612.876398,-0.000000
1238.913069,-13323.706956,1378.971896,-0.000000
1238.913380,-9474.636058,3140.991542,296.082377
1238.913691,-5773.606348,3830.477490,222.061783
1238.914002,-3034.844362,3447.429741,1184.329507
1238.914314,-1628.453072,2528.115143,2960.823768
1238.914625,-1036.288319,459.657299,1628.453072
1238.914936,-3108.864956,-1608.800546,1332.370696
1238.915247,-7550.100608,-2298.286494,740.205942
1238.915559,-11769.274478,-2374.896044,-0.000000
1238.915870,-14508.036463,-2911.162892,-0.000000
1238.916181,-16284.530724,-3140.991542,-0.000000
1238.916492,-15618.345376,-2911.162892,-148.041188
1238.916804,-13619.789333,-1532.190996,-740.205942
1238.917115,-11177.109724,766.095498,-1036.288319
1238.917426,-7920.203579,1608.800546,-592.164754
1238.917738,-5181.441594,2987.772442,666.185348
1238.918049,-2812.782580,2757.943793,2146.597232
1238.918360,-1184.329507,1378.971896,3256.906145
1238.918671,-740.205942,-1532.190996,3182.885551
1238.918983,-2738.761985,-3140.991542,1850.514855
1238.919294,-6661.853478,-2145.067394,-0.000000
1238.919605,-11029.068536,-1149.143247,-814.226536
1238.919916,-14878.139434,-1685.410096,-962.267725
1238.920228,-17394.839637,-1532.190996,-814.226536
1238.920539,-17172.777854,-2068.457845,-740.205942
1238.920850,-15914.427753,-842.705048,-370.102971
1238.921161,-13323.706956,1532.190996,-74.020594
1238.921473,-9400.615463,2987.772442,-74.020594
1238.921784,-5033.400406,3217.601092,222.061783
1238.922095,-2220.617826,3217.601092,1332.370696
1238.922406,-370.102971,1915.238745,2664.741391
1238.922718,-222.061783,-306.438199,2664.741391
1238.923029,-4071.132681,-2451.505594,2368.659014
1238.923340,-9326.594869,-2757.943793,740.205942
1238.923652,-13619.789333,-2068.457845,-0.000000
1238.923963,-16876.695478,-842.705048,-518.144159
1238.924274,-17764.942608,-612.876398,-74.020594
1238.924585,-16432.571912,-995.924147,-1332.370696
1238.924897,-13249.686362,-842.705048,-518.144159
1238.925208,-9918.759623,2145.067394,-370.102971
1238.925519,-6365.771101,3140.991542,370.102971
1238.925830,-3182.885551,3677.258390,1554.432478
1238.926142,-962.267725,2757.943793,2516.700203
1238.926453,-370.102971,1149.143247,2812.782580
1238.926764,-1258.350101,-383.047749,1554.432478
1238.927075,-4293.194464,-1149.143247,148.041188
1238.927387,-8364.327145,-689.485948,-592.164754
1238.927698,-12509.480420,-1685.410096,-1036.288319
1238.928009,-15470.304188,-2221.676944,-666.185348
1238.928320,-16432.571912,-2528.115143,-74.020594
1238.928632,-15470.304188,-1532.190996,-74.020594
1238.928943,-14063.912898,612.876398,-222.061783
1238.929254,-10732.986159,2681.334243,-222.061783
1238.929566,-6291.750507,4136.915689,-74.020594
1238.929877,-3256.906145,3524.039291,666.185348
1238.930188,-740.205942,2528.115143,3108.864956
1238.930499,-1036.288319,153.219100,2960.823768
1238.930811,-3034.844362,-1685.410096,2368.659014
1238.931122,-6883.915261,-2757.943793,1480.411884
1238.931433,-11251.130318,-2604.724693,-0.000000
1238.931744,-14137.933492,-1685.410096,-518.144159
1238.932056,-16136.489536,-3217.601092,-74.020594
1238.932367,-15766.386565,-3064.381992,-518.144159
1238.932678,-14211.954086,-2374.896044,-518.144159
1238.932989,-12953.603985,0.000000,-666.185348
1238.933301,-10732.986159,1685.410096,-74.020594
1238.933612,-7105.977043,2987.772442,-0.000000
1238.933923,-4071.132681,3600.648841,370.102971
1238.934234,-1258.350101,1302.362347,2590.720797
1238.934546,518.144159,0.000000,2368.659014
1238.934857,-444.123565,-1991.848295,2368.659014
1238.935168,-4737.318029,-3753.867940,888.247130
1238.935480,-9844.739029,-3294.210641,-370.102971
1238.935791,-15322.262999,-2451.505594,-592.164754
1238.936102,-17394.839637,-1915.238745,-0.000000
1238.936413,-17912.983796,-2298.286494,-444.123565
1238.936725,-16654.633695,-2068.457845,-222.061783
1238.937036,-13989.892304,536.266849,-74.020594
1238.937347,-10288.862594,1532.190996,-148.041188
1238.937658,-6513.812290,2987.772442,370.102971
1238.937970,-3182.885551,3217.601092,1110.308913
1238.938281,-962.267725,2221.676944,2812.782580
1238.938592,74.020594,0.000000,2886.803174
1238.938903,-2072.576638,-1915.238745,1776.494261
1238.939215,-6883.915261,-2068.457845,444.123565
1238.939526,-12657.521608,-306.438199,-518.144159
1238.939837,-16432.571912,0.000000,-740.205942
1238.940148,-17246.798449,0.000000,-74.020594
1238.940460,-16210.510130,-612.876398,-888.247130
1238.940771,-13545.768739,0.000000,-1332.370696
1238.941082,-10584.944971,2451.505594,-1628.453072
1238.941394,-7698.141797,4060.306139,-814.226536
1238.941705,-3404.947333,4749.792088,1184.329507
1238.942016,-962.267725,3524.039291,2738.761985
1238.942327,-740.205942,1149.143247,3775.050304
1238.942639,-1850.514855,-1378.971896,2738.761985
1238.942950,-4071.132681,-2145.067394,888.247130
1238.943261,-7698.141797,-1762.019645,-814.226536
1238.943572,-11695.253884,-689.485948,-1480.411884
1238.943884,-14730.098246,-1838.629195,-740.205942
1238.944195,-16506.592507,-2528.115143,296.082377
1238.944506,-15766.386565,-2068.457845,518.144159
1238.944817,-14063.912898,-689.485948,518.144159
1238.945129,-11621.233289,2068.457845,296.082377
1238.945440,-7328.038826,3677.258390,-222.061783
1238.945751,-4367.215058,3983.696590,-0.000000
1238.946062,-1850.514855,3217.601092,666.185348
1238.946374,-814.226536,2068.457845,2072.576638
1238.946685,-2220.617826,-689.485948,1850.514855
1238.946996,-5995.668130,-2987.772442,1850.514855
1238.947308,-9622.677246,-3600.648841,888.247130
1238.947619,-13693.809927,-3217.601092,962.267725
1238.947930,-15396.283594,-3370.820191,1184.329507
1238.948241,-16432.571912,-4060.306139,-74.020594
1238.948553,-16062.468941,-2987.772442,-2072.576638
1238.948864,-12805.562797,383.047749,-1776.494261
1238.949175,-11029.068536,3140.991542,-1554.432478
1238.949486,-7254.018232,3370.820191,592.164754
1238.949798,-5551.544565,2451.505594,518.144159
1238.950109,-3997.112087,1302.362347,1850.514855
1238.950420,-2442.679609,842.705048,2220.617826
1238.950731,-1628.453072,229.828649,2442.679609
1238.951043,-2590.720797,-1225.752797,1184.329507
1238.951354,-6365.771101,-2911.162892,296.082377
1238.951665,-10955.047942,-3677.258390,888.247130
1238.951976,-14952.160028,-3140.991542,1036.288319
1238.952288,-16580.613101,-1915.238745,296.082377
1238.952599,-17172.777854,-919.314598,-74.020594
1238.952910,-15766.386565,76.609550,-222.061783
1238.953222,-12287.418637,1532.190996,-740.205942
1238.953533,-8068.244768,2604.724693,-888.247130
1238.953844,-5477.523971,3370.820191,-814.226536
1238.954155,-4219.173869,2911.162892,370.102971
1238.954467,-2368.659014,1532.190996,2368.659014
1238.954778,-1776.494261,-919.314598,3330.926739
1238.955089,-3552.988522,-3140.991542,2886.803174
1238.955400,-8068.244768,-4136.915689,2294.638420
1238.955712,-12139.377449,-2987.772442,888.247130
1238.956023,-14804.118840,-689.485948,-0.000000
1238.956334,-15470.304188,229.828649,-1258.350101
1238.956645,-14952.160028,612.876398,-1850.514855
1238.956957,-11991.336260,1838.629195,-1924.535449
1238.957268,-9326.594869,2681.334243,-1702.473667
1238.957579,-6809.894666,3600.648841,-814.226536
1238.957890,-4071.132681,3983.696590,1036.288319
1238.958202,-1332.370696,919.314598,3404.947333
1238.958513,444.123565,-766.095498,3997.112087
1238.958824,-2590.720797,-2528.115143,2442.679609
1238.959136,-5773.606348,-3064.381992,740.205942
1238.959447,-10288.862594,-2374.896044,-666.185348
1238.959758,-14211.954086,-612.876398,-1702.473667
1238.960069,-16432.571912,76.609550,-962.267725
1238.960381,-16210.510130,0.000000,-1184.329507
1238.960692,-13989.892304,-306.438199,-444.123565
1238.961003,-12435.459826,919.314598,-740.205942
1238.961314,-9770.718434,3370.820191,-666.185348
1238.961626,-6217.729913,5515.887586,-74.020594
1238.961937,-2812.782580,4366.744339,1258.350101
1238.962248,-962.267725,1838.629195,2146.597232
1238.962559,-2590.720797,-995.924147,2220.617826
1238.962871,-5107.421000,-2298.286494,1480.411884
1238.963182,-9326.594869,-2834.553343,592.164754
1238.963493,-13545.768739,-2374.896044,-666.185348
1238.963805,-15470.304188,-2374.896044,74.020594
1238.964116,-16432.571912,-2834.553343,444.123565
1238.964427,-14730.098246,-3447.429741,740.205942
1238.964738,-13101.645173,-2528.115143,-296.082377
1238.965050,-11695.253884,919.314598,-740.205942
1238.965361,-9252.574275,4366.744339,-444.123565
1238.965672,-6365.771101,3983.696590,666.185348
1238.965983,-1776.494261,2834.553343,2072.576638
1238.966295,222.061783,0.000000,3775.050304
1238.966606,-666.185348,-1915.238745,2960.823768
1238.966917,-2886.803174,-2221.676944,1998.556043
1238.967228,-7402.059420,-1608.800546,-0.000000
1238.967540,-11843.295072,-383.047749,-962.267725
1238.967851,-15470.304188,76.609550,-814.226536
1238.968162,-15618.345376,-1378.971896,-0.000000
1238.968473,-14582.057057,-1149.143247,-74.020594
1238.968785,-14063.912898,-459.657299,-222.061783
1238.969096,-11621.233289,1991.848295,-0.000000
1238.969407,-8512.368333,2681.334243,-444.123565
1238.969719,-5107.421000,2451.505594,1110.308913
1238.970030,-1776.494261,2451.505594,3404.947333
1238.970341,-370.102971,766.095498,3775.050304
1238.970638,-1332.370696,-1532.190996,2516.700203
1238.970950,-5329.482782,-2681.334243,1332.370696
1238.971261,-10066.800811,-919.314598,-0.000000
1238.971572,-14359.995275,306.438199,-370.102971
1238.971884,-16950.716072,-229.828649,-74.020594
1238.972195,-17024.736666,-2145.067394,-0.000000
1238.972506,-14730.098246,-1762.019645,-518.144159
1238.972818,-11621.233289,842.705048,-666.185348
1238.973129,-9400.615463,2911.162892,-1406.391290
1238.973440,-6143.709319,2834.553343,-0.000000
1238.973752,-3775.050304,3064.381992,1850.514855
1238.974063,-1924.535449,2451.505594,3256.906145
1238.974374,-2146.597232,306.438199,3034.844362
1238.974686,-3330.926739,-1302.362347,1776.494261
1238.974997,-5995.668130,-1991.848295,148.041188
1238.975308,-9030.512492,-1149.143247,-740.205942
1238.975620,-12509.480420,-1378.971896,-666.185348
1238.975931,-15174.221811,-1838.629195,-592.164754
1238.976242,-15470.304188,-2374.896044,148.041188
1238.976554,-14508.036463,-1302.362347,-222.061783
1238.976865,-12953.603985,612.876398,-740.205942
1238.977176,-10732.986159,3140.991542,-1110.308913
1238.977488,-7105.977043,3753.867940,-518.144159
1238.977799,-4071.132681,3600.648841,444.123565
1238.978110,-1628.453072,1991.848295,2812.782580
1238.978422,-1406.391290,-842.705048,2590.720797
1238.978733,-3182.885551,-2681.334243,2590.720797
1238.979044,-6957.935855,-3753.867940,1332.370696
1238.979356,-11103.089130,-2757.943793,-0.000000
1238.979667,-14582.057057,-2298.286494,-296.082377
1238.979978,-16580.613101,-2528.115143,-0.000000
1238.980290,-15618.345376,-2068.457845,-962.267725
1238.980601,-13471.748144,-1608.800546,-962.267725
1238.980912,-11621.233289,-153.219100,-814.226536
1238.981224,-9992.780217,842.705048,-518.144159
1238.981535,-7328.038826,2451.505594,296.082377
1238.981846,-4811.338623,2987.772442,1628.453072
1238.982158,-1924.535449,1915.238745,3478.967927
1238.982469,-296.082377,-76.609550,3108.864956
1238.982780,-2072.576638,-2374.896044,2146.597232
1238.983092,-5107.421000,-2145.067394,-0.000000
1238.983403,-9844.739029,-1762.019645,-666.185348
1238.983714,-14211.954086,-995.924147,-1036.288319
1238.984026,-16802.674883,-1072.533697,-222.061783
1238.984337,-16506.592507,-1608.800546,-0.000000
1238.984648,-14730.098246,-1378.971896,296.082377
1238.984960,-12953.603985,1149.143247,-0.000000
1238.985271,-10436.903782,2528.115143,-888.247130
1238.985582,-7179.997637,4213.525239,444.123565
1238.985894,-4071.132681,3294.210641,1702.473667
1238.986205,-962.267725,2221.676944,3478.967927
1238.986516,-666.185348,-459.657299,2368.659014
1238.986828,-2442.679609,-2068.457845,2072.576638
1238.987139,-7105.977043,-1915.238745,1036.288319
1238.987450,-11547.212695,-1149.143247,-0.000000
1238.987762,-15248.242405,-459.657299,-0.000000
1238.988073,-17098.757260,-766.095498,222.061783
1238.988384,-15618.345376,-1302.362347,-222.061783
1238.988696,-12657.521608,-229.828649,-814.226536
1238.989007,-9400.615463,1685.410096,-1702.473667
1238.989318,-6587.832884,3064.381992,-1332.370696
1238.989630,-4293.194464,4136.915689,666.185348
1238.989941,-1998.556043,2911.162892,2886.803174
1238.990252,-1702.473667,1608.800546,3182.885551
1238.990564,-2664.741391,-995.924147,3034.844362
1238.990875,-4515.256246,-2451.505594,1998.556043
1238.991186,-7328.038826,-2834.553343,-222.061783
1238.991498,-11103.089130,-1991.848295,-1480.411884
1238.991809,-14211.954086,-1685.410096,-740.205942
1238.992120,-15618.345376,-2145.067394,-518.144159
1238.992432,-15544.324782,-2528.115143,-592.164754
1238.992743,-14285.974681,-689.485948,-296.082377
1238.993054,-12583.501014,1225.752797,-0.000000
1238.993366,-9474.636058,3370.820191,148.041188
1238.993677,-6291.750507,4290.134789,592.164754
1238.993988,-3182.885551,3370.820191,1702.473667
1238.994300,-1110.308913,1532.190996,3034.844362
1238.994611,-1628.453072,-1455.581446,1924.535449
1238.994922,-4071.132681,-2834.553343,1480.411884
1238.995234,-8068.244768,-2987.772442,-444.123565
1238.995545,-12361.439231,-2528.115143,-592.164754
1238.995856,-15544.324782,-2757.943793,-444.123565
1238.996168,-16284.530724,-3447.429741,-0.000000
1238.996479,-15618.345376,-3447.429741,-222.061783
1238.996790,-13915.871710,-2451.505594,-444.123565
1238.997102,-11473.192101,536.266849,-444.123565
1238.997413,-9326.594869,1532.190996,-666.185348
1238.997724,-5921.647536,2987.772442,370.102971
1238.998036,-3034.844362,2604.724693,2294.638420
1238.998347,-370.102971,612.876398,2886.803174
1238.998658,148.041188,-1149.143247,2294.638420
1238.998970,-2072.576638,-2221.676944,962.267725
1238.999281,-7105.977043,-1991.848295,-814.226536
1238.999592,-12065.356855,-1532.190996,-1332.370696
1238.999904,-15396.283594,-612.876398,-740.205942
1239.000215,-17098.757260,-919.314598,-962.267725
1239.000526,-16062.468941,-1762.019645,-370.102971
1239.000838,-14656.077652,-459.657299,-370.102971
1239.001149,-12065.356855,1378.971896,-740.205942
1239.001460,-8586.388927,2834.553343,-148.041188
1239.001772,-5995.668130,3677.258390,740.205942
1239.002083,-2960.823768,2451.505594,2146.597232
1239.002394,-592.164754,1838.629195,3701.029710
1239.002706,-962.267725,-1455.581446,2442.679609
1239.003017,-4589.276840,-2221.676944,1480.411884
1239.003328,-9770.718434,-1225.752797,-0.000000
1239.003640,-14211.954086,-229.828649,-444.123565
1239.003951,-17394.839637,0.000000,-222.061783
1239.004262,-17172.777854,-1072.533697,-74.020594
1239.004574,-14434.015869,-153.219100,-592.164754
1239.004885,-11473.192101,0.000000,-962.267725
1239.005196,-8512.368333,2068.457845,-666.185348
1239.005508,-5181.441594,2987.772442,296.082377
1239.005819,-2812.782580,3140.991542,2146.597232
1239.006131,-1258.350101,1991.848295,3478.967927
1239.006442,-1628.453072,536.266849,3256.906145
1239.006753,-2738.761985,-919.314598,1850.514855
1239.007065,-5699.585753,-1532.190996,296.082377
1239.007376,-8438.347739,-1072.533697,-1406.391290
1239.007687,-12657.521608,-995.924147,-1184.329507
1239.007999,-15396.283594,-1302.362347,-222.061783
1239.008310,-15544.324782,-2221.676944,370.102971
1239.008621,-14878.139434,-1532.190996,370.102971
1239.008933,-13323.706956,919.314598,-0.000000
1239.009244,-10584.944971,2911.162892,-148.041188
1239.009555,-6809.894666,3753.867940,666.185348
1239.009867,-3034.844362,4136.915689,1110.308913
1239.010178,-1332.370696,2528.115143,3108.864956
1239.010489,-1850.514855,-229.828649,2442.679609
1239.010801,-3775.050304,-2068.457845,1924.535449
1239.011112,-7476.080014,-2604.724693,444.123565
1239.011423,-11843.295072,-2068.457845,-666.185348
1239.011735,-14508.036463,-2911.162892,-666.185348
1239.012046,-16432.571912,-2987.772442,-0.000000
1239.012357,-15396.283594,-3294.210641,-518.144159
1239.012669,-14508.036463,-2145.067394,-888.247130
1239.012980,-12509.480420,76.609550,-296.082377
1239.013291,-10288.862594,1685.410096,-444.123565
1239.013603,-7698.141797,3294.210641,148.041188
1239.013914,-3923.091493,3217.601092,962.267725
1239.014225,-888.247130,2145.067394,2812.782580
1239.014537,1184.329507,-383.047749,2368.659014
1239.014848,-1036.288319,-2145.067394,962.267725
1239.015159,-5551.544565,-2681.334243,-296.082377
1239.015471,-10658.965565,-2068.457845,-1036.288319
1239.015782,-14952.160028,-1149.143247,-518.144159
1239.016093,-17320.819043,-1915.238745,-0.000000
1239.016405,-17098.757260,-2604.724693,-0.000000
1239.016716,-14804.118840,-1991.848295,888.247130
1239.017027,-13027.624579,306.438199,-74.020594
1239.017339,-9622.677246,1838.629195,-444.123565
1239.017650,-6365.771101,3600.648841,-296.082377
1239.017961,-3775.050304,4366.744339,1036.288319
1239.018273,-1184.329507,2604.724693,2664.741391
1239.018584,-148.041188,0.000000,2368.659014
1239.018895,-2220.617826,-1685.410096,1850.514855
1239.019207,-7920.203579,-2451.505594,666.185348
1239.019518,-12361.439231,-1838.629195,296.082377
1239.019829,-16136.489536,-995.924147,-0.000000
1239.020141,-17320.819043,-766.095498,222.061783
1239.020452,-15322.262999,-1302.362347,-592.164754
1239.020763,-12731.542202,-612.876398,-1332.370696
1239.021075,-9918.759623,1455.581446,-1850.514855
1239.021386,-7105.977043,3370.820191,-1332.370696
1239.021697,-5033.400406,4136.915689,518.144159
1239.022009,-2886.803174,2987.772442,3182.885551
1239.022320,-1850.514855,766.095498,4145.153275
1239.022631,-2220.617826,-1838.629195,3330.926739
1239.022943,-4219.173869,-2451.505594,1924.535449
1239.023254,-7254.018232,-2145.067394,-296.082377
1239.023565,-11325.150913,-1378.971896,-1702.473667
1239.023877,-14730.098246,-1455.581446,-814.226536
1239.024188,-16210.510130,-995.924147,-296.082377
1239.024499,-15692.365970,-1608.800546,592.164754
1239.024811,-14211.954086,-612.876398,592.164754
1239.025122,-11473.192101,2145.067394,-0.000000
1239.025433,-7772.162391,4673.182538,-0.000000
1239.025745,-4441.235652,5209.449386,962.267725
1239.026056,-1628.453072,3677.258390,1554.432478
1239.026367,-1184.329507,1915.238745,2516.700203
1239.026679,-2368.659014,-766.095498,1850.514855
1239.026990,-5255.462188,-2221.676944,1480.411884
1239.027301,-9548.656652,-2451.505594,-74.020594
1239.027613,-13693.809927,-2374.896044,-74.020594
1239.027924,-15766.386565,-2987.772442,-0.000000
1239.028235,-15248.242405,-3370.820191,370.102971
1239.028547,-14582.057057,-2987.772442,-0.000000
1239.028858,-12879.583391,-919.314598,-444.123565
1239.029169,-10510.924376,2068.457845,-0.000000
1239.029481,-7920.203579,2528.115143,-0.000000
1239.029792,-4663.297435,3370.820191,1406.391290
1239.030103,-1924.535449,2145.067394,3182.885551
1239.030415,-518.144159,0.000000,2960.823768
1239.030726,-1110.308913,-1685.410096,2368.659014
1239.031037,-4145.153275,-2834.553343,296.082377
1239.031349,-8660.409521,-2298.286494,-1332.370696
1239.031660,-12435.459826,-1378.971896,-1628.453072
1239.031971,-15692.365970,-1455.581446,-370.102971
1239.032283,-16210.510130,-2298.286494,-0.000000
1239.032594,-15174.221811,-2145.067394,-148.041188
1239.032905,-13545.768739,-383.047749,-74.020594
1239.033217,-11177.109724,2145.067394,-962.267725
1239.033528,-8216.285956,2911.162892,-518.144159
1239.033839,-5477.523971,4443.353888,518.144159
1239.034151,-2812.782580,2987.772442,1924.535449
1239.034462,-1110.308913,383.047749,2516.700203
1239.034773,-1924.535449,-1762.019645,2072.576638
1239.035085,-5477.523971,-2987.772442,962.267725
1239.035396,-10288.862594,-2604.724693,296.082377
1239.035707,-14582.057057,-1762.019645,-296.082377
1239.036019,-17468.860231,-995.924147,-148.041188
1239.036330,-16950.716072,-1915.238745,-74.020594
1239.036641,-14582.057057,-1225.752797,-666.185348
1239.036953,-12287.418637,612.876398,-1406.391290
1239.037264,-9104.533087,2604.724693,-1036.288319
1239.037575,-6069.688724,3217.601092,-296.082377
1239.037887,-3478.967927,3217.601092,1480.411884
1239.038198,-1184.329507,2145.067394,3256.906145
1239.038509,-888.247130,-153.219100,2886.803174
1239.038821,-2516.700203,-1838.629195,1924.535449
1239.039132,-5847.626942,-2145.067394,370.102971
1239.039443,-9622.677246,-1225.752797,-1036.288319
1239.039755,-13619.789333,-842.705048,-1110.308913
1239.040066,-16358.551318,-536.266849,-444.123565
1239.040377,-16062.468941,-1378.971896,-148.041188
1239.040689,-14804.118840,-1072.533697,-296.082377
1239.041000,-12731.542202,1072.533697,-74.020594
1239.041311,-9548.656652,3830.477490,-592.164754
1239.041623,-5921.647536,4519.963438,518.144159
1239.041934,-3034.844362,3983.696590,1850.514855
1239.042245,-1554.432478,2221.676944,3182.885551
1239.042557,-2072.576638,-383.047749,2664.741391
1239.042868,-4589.276840,-1991.848295,1850.514855
1239.043179,-8068.244768,-2681.334243,592.164754
1239.043491,-11769.274478,-1991.848295,-444.123565
1239.043802,-14359.995275,-2221.676944,-0.000000
1239.044113,-15840.407159,-2528.115143,148.041188
1239.044425,-14952.160028,-2604.724693,148.041188
1239.044736,-13619.789333,-1532.190996,-296.082377
1239.045047,-11547.212695,1378.971896,-592.164754
1239.045359,-8586.388927,3140.991542,-444.123565
1239.045670,-5995.668130,3753.867940,1110.308913
1239.045981,-2294.638420,3217.601092,1850.514855
1239.046293,0.000000,1302.362347,3034.844362
1239.046604,-222.061783,-995.924147,2590.720797
1239.046915,-2812.782580,-2221.676944,1332.370696
1239.047227,-6883.915261,-2528.115143,-222.061783
1239.047538,-11991.336260,-2145.067394,-444.123565
1239.047849,-15840.407159,-1532.190996,-222.061783
1239.048161,-16802.674883,-1915.238745,-148.041188
1239.048472,-15914.427753,-2068.457845,222.061783
1239.048783,-14878.139434,-1149.143247,148.041188
1239.049095,-12287.418637,995.924147,-518.144159
1239.049406,-9178.553681,2451.505594,-592.164754
1239.049717,-6587.832884,3753.867940,148.041188
1239.050029,-3627.009116,3370.820191,1332.370696
1239.050340,-1406.391290,2221.676944,2664.741391
1239.050651,-962.267725,-536.266849,2590.720797
1239.050963,-4071.132681,-2604.724693,1776.494261
1239.051274,-8586.388927,-2145.067394,222.061783
1239.051585,-13545.768739,-1149.143247,-444.123565
1239.051897,-16432.571912,-459.657299,-592.164754
1239.052208,-16728.654289,-766.095498,-666.185348
1239.052519,-14878.139434,-1762.019645,-1184.329507
1239.052831,-12435.459826,-766.095498,-1258.350101
1239.053142,-10214.842000,1685.410096,-1776.494261
1239.053453,-7402.059420,2987.772442,-740.205942
1239.053765,-4959.379811,3370.820191,1184.329507
1239.054076,-2664.741391,2298.286494,3330.926739
1239.054387,-1258.350101,306.438199,3997.112087
1239.054699,-1406.391290,-1455.581446,2590.720797
1239.055010,-3849.070898,-2528.115143,666.185348
1239.055321,-7994.224174,-1149.143247,-888.247130
1239.055633,-12361.439231,-995.924147,-1184.329507
1239.055944,-15470.304188,-766.095498,-518.144159
1239.056255,-16580.613101,-1378.971896,-0.000000
1239.056567,-15470.304188,-1302.362347,222.061783
1239.056878,-13915.871710,76.609550,-296.082377
1239.057189,-10658.965565,2987.772442,-518.144159
1239.057501,-6513.812290,4519.963438,-666.185348
1239.057812,-4367.215058,4060.306139,666.185348
1239.058123,-1702.473667,3294.210641,2368.659014
1239.058435,-1628.453072,0.000000,3108.864956
1239.058746,-3775.050304,-2604.724693,2368.659014
1239.059057,-6735.874072,-3294.210641,1554.432478
1239.059369,-10658.965565,-2834.553343,-0.000000
1239.059680,-13915.871710,-2451.505594,-444.123565
1239.059991,-15396.283594,-3140.991542,-0.000000
1239.060303,-14656.077652,-3294.210641,-444.123565
1239.060614,-13471.748144,-2911.162892,-740.205942
1239.060925,-12361.439231,-689.485948,-518.144159
1239.061237,-10584.944971,1991.848295,-296.082377
1239.061548,-7328.038826,3370.820191,148.041188
1239.061859,-4441.235652,3217.601092,1554.432478
1239.062171,-1924.535449,1991.848295,3478.967927
1239.062482,-518.144159,-1072.533697,2812.782580
1239.062793,-1850.514855,-2145.067394,1850.514855
1239.063105,-5329.482782,-2681.334243,-0.000000
1239.063416,-9622.677246,-2145.067394,-888.247130
1239.063727,-13693.809927,-1532.190996,-740.205942
1239.064039,-15988.448347,-1762.019645,370.102971
1239.064350,-15766.386565,-1455.581446,370.102971
1239.064661,-15026.180623,-1838.629195,-0.000000
1239.064973,-13175.665768,919.314598,-148.041188
1239.065284,-10066.800811,2374.896044,-1258.350101
1239.065595,-7476.080014,3830.477490,-518.144159
1239.065907,-5033.400406,4443.353888,962.267725
1239.066218,-2738.761985,2987.772442,3034.844362
1239.066529,-1554.432478,0.000000,2590.720797
1239.066841,-3108.864956,-1991.848295,1998.556043
1239.067152,-6883.915261,-2145.067394,444.123565
1239.067463,-11177.109724,-1762.019645,-148.041188
1239.067775,-15174.221811,-919.314598,-1184.329507
1239.068086,-16802.674883,-1302.362347,-222.061783
1239.068397,-15692.365970,-1608.800546,-444.123565
1239.068709,-13101.645173,-1072.533697,-444.123565
1239.069020,-10955.047942,766.095498,-740.205942
1239.069331,-7698.141797,2681.334243,-0.000000
1239.069643,-4737.318029,3064.381992,962.267725
1239.069954,-1850.514855,2681.334243,3256.906145
1239.070265,-1258.350101,612.876398,3256.906145
1239.070577,-1776.494261,-919.314598,2220.617826
1239.070888,-3997.112087,-1915.238745,518.144159
1239.071199,-7179.997637,-1685.410096,-814.226536
1239.071511,-10955.047942,-1149.143247,-1184.329507
1239.071822,-13915.871710,-1302.362347,-592.164754
1239.072134,-15618.345376,-1532.190996,592.164754
1239.072445,-15248.242405,-2298.286494,370.102971
1239.072756,-13397.727550,-1225.752797,-0.000000
1239.073068,-10881.027347,2298.286494,-592.164754
1239.073379,-8142.265362,4443.353888,-962.267725
1239.073690,-5995.668130,4596.572988,-0.000000
1239.074002,-3108.864956,3524.039291,1184.329507
1239.074313,-2368.659014,1378.971896,2072.576638
1239.074624,-3627.009116,-1685.410096,2072.576638
1239.074936,-5847.626942,-3294.210641,2146.597232
1239.075247,-9622.677246,-3983.696590,222.061783
1239.075558,-13027.624579,-3600.648841,-222.061783
1239.075870,-14878.139434,-3140.991542,296.082377
1239.076181,-15248.242405,-3677.258390,-0.000000
1239.076492,-14582.057057,-2834.553343,-222.061783
1239.076804,-13175.665768,-1072.533697,-666.185348
1239.077115,-11177.109724,1532.190996,-666.185348
1239.077427,-7920.203579,2757.943793,-74.020594
1239.077738,-5329.482782,2528.115143,444.123565
1239.078049,-3034.844362,1225.752797,2442.679609
1239.078361,-1480.411884,-153.219100,2294.638420
1239.078672,-1332.370696,-1149.143247,1998.556043
1239.078983,-3997.112087,-1915.238745,592.164754
1239.079295,-8438.347739,-2221.676944,-1110.308913
1239.079606,-12435.459826,-1532.190996,-1480.411884
1239.079917,-15026.180623,-1532.190996,-222.061783
1239.080229,-16062.468941,-1915.238745,-0.000000
1239.080540,-15618.345376,-1225.752797,-148.041188
1239.080851,-14285.974681,0.000000,-148.041188
1239.081163,-11399.171507,1608.800546,-666.185348
1239.081474,-8364.327145,2834.553343,-444.123565
1239.081786,-5255.462188,4136.915689,740.205942
1239.082097,-3034.844362,3677.258390,1850.514855
1239.082408,-1480.411884,1225.752797,2738.761985
1239.082720,-3034.844362,-842.705048,2146.597232
1239.083031,-5551.544565,-1915.238745,1480.411884
1239.083342,-9918.759623,-1149.143247,296.082377
1239.083654,-14063.912898,-229.828649,-370.102971
1239.083965,-16580.613101,-229.828649,-962.267725
1239.084276,-15396.283594,0.000000,-1036.288319
1239.084588,-13767.830521,306.438199,-1036.288319
1239.084899,-11325.150913,842.705048,-1184.329507
1239.085211,-8142.265362,2987.772442,-518.144159
1239.085522,-5699.585753,3217.601092,666.185348
1239.085833,-3034.844362,2757.943793,2812.782580
1239.086145,-1702.473667,919.314598,3701.029710
1239.086456,-1110.308913,-689.485948,3256.906145
1239.086767,-2590.720797,-2451.505594,1998.556043
1239.087079,-5847.626942,-2757.943793,-0.000000
1239.087390,-10066.800811,-1762.019645,-666.185348
1239.087701,-14063.912898,-1302.362347,-444.123565
1239.088013,-16136.489536,-1455.581446,-0.000000
1239.088324,-16358.551318,-1608.800546,1110.308913
1239.088635,-14952.160028,-306.438199,592.164754
1239.088947,-12583.501014,919.314598,-148.041188
1239.089258,-9622.677246,3677.258390,-74.020594
1239.089570,-5551.544565,4596.572988,370.102971
1239.089881,-2812.782580,4443.353888,1184.329507
1239.090192,-1554.432478,1991.848295,2886.803174
1239.090504,-1924.535449,-383.047749,2516.700203
1239.090815,-3627.009116,-1915.238745,2072.576638
1239.091126,-7402.059420,-2528.115143,444.123565
1239.091438,-11251.130318,-2221.676944,148.041188
1239.091749,-14063.912898,-2298.286494,-222.061783
1239.092060,-15544.324782,-2757.943793,-0.000000
1239.092372,-15914.427753,-2528.115143,-0.000000
1239.092683,-14582.057057,-1608.800546,-222.061783
1239.092995,-12435.459826,459.657299,-222.061783
1239.093306,-9918.759623,1991.848295,296.082377
1239.093617,-7179.997637,2374.896044,666.185348
1239.093929,-3923.091493,2145.067394,1554.432478
1239.094240,-1332.370696,689.485948,2664.741391
1239.094551,-814.226536,-995.924147,2220.617826
1239.094863,-2590.720797,-1991.848295,814.226536
1239.095174,-6735.874072,-2298.286494,-592.164754
1239.095485,-11029.068536,-1991.848295,-1036.288319
1239.095797,-14285.974681,-1685.410096,-888.247130
1239.096108,-16506.592507,-1915.238745,-148.041188
1239.096419,-15914.427753,-2145.067394,444.123565
1239.096731,-14878.139434,-1149.143247,-0.000000
1239.097042,-12657.521608,919.314598,-222.061783
1239.097354,-9770.718434,3217.601092,-1110.308913
1239.097665,-6735.874072,4519.963438,-592.164754
1239.097976,-3478.967927,4903.011187,740.205942
1239.098288,-1554.432478,2298.286494,1702.473667
1239.098599,-814.226536,995.924147,1406.391290
1239.098910,-2960.823768,-2451.505594,1776.494261
1239.099222,-7846.182985,-2068.457845,666.185348
1239.099533,-12213.398043,-1915.238745,222.061783
1239.099844,-16284.530724,-1455.581446,-296.082377
1239.100156,-17394.839637,-1378.971896,-518.144159
1239.100467,-15544.324782,-842.705048,-592.164754
1239.100778,-12805.562797,0.000000,-888.247130
1239.101090,-9918.759623,1608.800546,-1110.308913
1239.101401,-6883.915261,2451.505594,-0.000000
1239.101713,-4293.194464,2528.115143,1258.350101
1239.102024,-1628.453072,2221.676944,3404.947333
1239.102335,-814.226536,229.828649,3552.988522
1239.102647,-1480.411884,-1225.752797,2368.659014
1239.102958,-3701.029710,-1455.581446,1036.288319
1239.103269,-7550.100608,-1378.971896,-814.226536
1239.103581,-11399.171507,-612.876398,-962.267725
1239.103892,-15100.201217,-995.924147,-444.123565
1239.104203,-16580.613101,-2145.067394,148.041188
1239.104515,-15914.427753,-1991.848295,888.247130
1239.104826,-13989.892304,-995.924147,962.267725
1239.105138,-11473.192101,1455.581446,370.102971
1239.105449,-8216.285956,2987.772442,222.061783
1239.105760,-5551.544565,3370.820191,1332.370696
1239.106072,-2738.761985,2987.772442,1554.432478
1239.106383,-1184.329507,995.924147,2516.700203
1239.106694,-2516.700203,-1991.848295,2294.638420
1239.107006,-5625.565159,-3217.601092,2294.638420
1239.107317,-9548.656652,-3064.381992,740.205942
1239.107628,-13249.686362,-1915.238745,444.123565
1239.107940,-15544.324782,-1455.581446,296.082377
1239.108251,-16136.489536,-1455.581446,148.041188
1239.108562,-15174.221811,-1225.752797,-370.102971
1239.108874,-13175.665768,459.657299,-370.102971
1239.109185,-10732.986159,2145.067394,-518.144159
1239.109497,-7328.038826,2451.505594,296.082377
1239.109808,-4441.235652,2145.067394,1036.288319
1239.110119,-1480.411884,842.705048,2886.803174
1239.110431,0.000000,-459.657299,2368.659014
1239.110742,-740.205942,-2221.676944,1850.514855
1239.111053,-4589.276840,-1991.848295,-222.061783
1239.111365,-9178.553681,-1685.410096,-888.247130
1239.111676,-13471.748144,-1532.190996,-1110.308913
1239.111987,-15988.448347,-1072.533697,-592.164754
1239.112299,-16654.633695,-995.924147,-0.000000
1239.112610,-15840.407159,-1072.533697,-222.061783
1239.112921,-12879.583391,0.000000,148.041188
1239.113233,-9918.759623,2068.457845,-888.247130
1239.113544,-6883.915261,4213.525239,-370.102971
1239.113856,-4515.256246,3524.039291,370.102971
1239.114167,-2590.720797,2987.772442,1332.370696
1239.114478,-1480.411884,919.314598,1702.473667
1239.114790,-2960.823768,-1225.752797,1184.329507
1239.115101,-6883.915261,-1991.848295,518.144159
1239.115412,-10955.047942,-1991.848295,-74.020594
1239.115724,-14952.160028,-1685.410096,-148.041188
1239.116035,-16802.674883,-1378.971896,148.041188
1239.116346,-16580.613101,-1149.143247,-370.102971
1239.116658,-14656.077652,-383.047749,-1036.288319
1239.116969,-11325.150913,1149.143247,-1110.308913
1239.117281,-7772.162391,2834.553343,-1406.391290
1239.117592,-4959.379811,3753.867940,-444.123565
1239.117903,-3256.906145,2604.724693,1258.350101
1239.118215,-1554.432478,1225.752797,3108.864956
1239.118526,-1628.453072,-995.924147,3108.864956
1239.118837,-3108.864956,-2068.457845,2294.638420
1239.119149,-7254.018232,-3294.210641,148.041188
1239.119460,-10955.047942,-2298.286494,-666.185348
1239.119771,-13989.892304,-1762.019645,-740.205942
1239.120083,-15544.324782,-1762.019645,-518.144159
1239.120394,-15840.407159,-1378.971896,296.082377
1239.120705,-14656.077652,-1608.800546,370.102971
1239.121017,-12287.418637,689.485948,444.123565
1239.121328,-9104.533087,2068.457845,-148.041188
1239.121640,-5699.585753,3447.429741,296.082377
1239.121951,-2960.823768,3217.601092,1110.308913
1239.122262,-1480.411884,1532.190996,2442.679609
1239.122574,-1628.453072,-919.314598,2220.617826
1239.122885,-3997.112087,-2068.457845,1998.556043
1239.123196,-7772.162391,-2757.943793,888.247130
1239.123508,-11843.295072,-2604.724693,518.144159
1239.123819,-14952.160028,-2451.505594,518.144159
1239.124130,-16284.530724,-1991.848295,148.041188
1239.124442,-15470.304188,-1455.581446,-74.020594
1239.124753,-13767.830521,-459.657299,-222.061783
1239.125065,-11103.089130,1225.752797,-296.082377
1239.125376,-8216.285956,3140.991542,-592.164754
1239.125687,-5403.503377,3907.087040,222.061783
1239.125999,-2368.659014,2681.334243,1554.432478
1239.126310,-592.164754,1149.143247,2738.761985
1239.126621,-518.144159,-459.657299,2220.617826
1239.126933,-3256.906145,-1991.848295,1110.308913
1239.127244,-7179.997637,-2757.943793,222.061783
1239.127555,-11473.192101,-2451.505594,-74.020594
1239.127867,-14878.139434,-1072.533697,-0.000000
1239.128178,-16654.633695,-1378.971896,-148.041188
1239.128489,-16506.592507,-1072.533697,-222.061783
1239.128801,-14508.036463,0.000000,222.061783
1239.129112,-11621.233289,2068.457845,-740.205942
1239.129424,-8142.265362,3600.648841,-444.123565
1239.129735,-4737.318029,4443.353888,148.041188
1239.130046,-2294.638420,3447.429741,1480.411884
1239.130358,-1110.308913,1915.238745,2368.659014
1239.130669,-2146.597232,-229.828649,1850.514855
1239.130980,-5033.400406,-1838.629195,1110.308913
1239.131292,-9474.636058,-2451.505594,444.123565
1239.131603,-13545.768739,-1915.238745,-0.000000
1239.131914,-16432.571912,-1762.019645,-222.061783
1239.132226,-16654.633695,-1685.410096,-0.000000
1239.132537,-15100.201217,-1608.800546,-962.267725
1239.132848,-12287.418637,0.000000,-1184.329507
1239.133160,-9400.615463,2451.505594,-1406.391290
1239.133471,-6809.894666,3294.210641,-888.247130
1239.133783,-4219.173869,3524.039291,518.144159
1239.134094,-2368.659014,2451.505594,2220.617826
1239.134405,-1776.494261,536.266849,2664.741391
1239.134717,-2368.659014,-1072.533697,2442.679609
1239.135028,-5477.523971,-2911.162892,1184.329507
1239.135339,-8882.471304,-2528.115143,-296.082377
1239.135651,-13027.624579,-1915.238745,-518.144159
1239.135962,-15692.365970,-1455.581446,-370.102971
1239.136273,-16136.489536,-2298.286494,-148.041188
1239.136585,-15248.242405,-1838.629195,-0.000000
1239.136896,-13841.851115,0.000000,148.041188
1239.137208,-10510.924376,1532.190996,-148.041188
1239.137519,-7846.182985,2451.505594,-148.041188
1239.137830,-4663.297435,2528.115143,444.123565
1239.138142,-2294.638420,2221.676944,2146.597232
1239.138453,-1998.556043,229.828649,2516.700203
1239.138764,-3256.906145,-1762.019645,2146.597232
1239.139076,-6143.709319,-2757.943793,1628.453072
1239.139387,-9992.780217,-2221.676944,296.082377
1239.139698,-12583.501014,-1225.752797,-74.020594
1239.140010,-15396.283594,-1762.019645,-0.000000
1239.140321,-15692.365970,-1991.848295,-74.020594
1239.140632,-13841.851115,-1302.362347,-296.082377
1239.140944,-11917.315666,383.047749,-370.102971
1239.141255,-9400.615463,2145.067394,-592.164754
1239.141567,-6883.915261,2604.724693,-74.020594
1239.141878,-4219.173869,2681.334243,592.164754
1239.142189,-1776.494261,1685.410096,2590.720797
1239.142501,-962.267725,76.609550,2294.638420
1239.142812,-2072.576638,-2374.896044,2072.576638
1239.143123,-5773.606348,-3294.210641,962.267725
1239.143435,-10214.842000,-2528.115143,-0.000000
1239.143746,-14063.912898,-1838.629195,-148.041188
1239.144057,-15988.448347,-1455.581446,-74.020594
1239.144369,-16432.571912,-1072.533697,-222.061783
1239.144680,-15026.180623,-229.828649,-296.082377
1239.144991,-12435.459826,1762.019645,-444.123565
1239.145303,-9252.574275,2528.115143,-666.185348
1239.145614,-6291.750507,3677.258390,-222.061783
1239.145926,-3997.112087,3600.648841,1184.329507
1239.146237,-2516.700203,1532.190996,2590.720797
1239.146548,-2294.638420,-229.828649,2516.700203
1239.146860,-4219.173869,-1685.410096,1924.535449
1239.147171,-7920.203579,-2451.505594,740.205942
1239.147482,-11843.295072,-1608.800546,-0.000000
1239.147794,-14730.098246,-1225.752797,-296.082377
1239.148105,-16136.489536,-1685.410096,-0.000000
1239.148416,-15470.304188,-1608.800546,-296.082377
1239.148728,-13323.706956,0.000000,-740.205942
1239.149039,-10510.924376,1915.238745,-1036.288319
1239.149351,-7550.100608,3447.429741,-1110.308913
1239.149662,-4441.235652,3370.820191,888.247130
1239.149973,-2294.638420,2451.505594,2886.803174
1239.150285,-1554.432478,612.876398,3256.906145
1239.150596,-2146.597232,-1378.971896,2664.741391
1239.150907,-4441.235652,-1608.800546,1554.432478
1239.151219,-7846.182985,-1608.800546,-296.082377
1239.151530,-11621.233289,-842.705048,-1184.329507
1239.151841,-14285.974681,-842.705048,-666.185348
1239.152153,-14211.954086,-1149.143247,370.102971
1239.152464,-14878.139434,-1685.410096,-0.000000
1239.152775,-13323.706956,-459.657299,-0.000000
1239.153087,-11103.089130,1838.629195,-666.185348
1239.153398,-7550.100608,2911.162892,-74.020594
1239.153710,-5033.400406,3524.039291,814.226536
1239.154021,-2960.823768,2834.553343,1850.514855
1239.154332,-2516.700203,766.095498,2146.597232
1239.154644,-4145.153275,-1225.752797,1480.411884
1239.154955,-6735.874072,-3524.039291,1258.350101
1239.155266,-10140.821405,-2987.772442,-0.000000
1239.155578,-13175.665768,-2757.943793,-74.020594
1239.155889,-15026.180623,-2834.553343,-0.000000
1239.156200,-15322.262999,-3677.258390,370.102971
1239.156512,-14211.954086,-2374.896044,-370.102971
1239.156823,-12583.501014,-689.485948,-888.247130
1239.157135,-10658.965565,2681.334243,-518.144159
1239.157446,-7698.141797,2604.724693,-296.082377
1239.157757,-4737.318029,2681.334243,-0.000000
1239.158069,-2516.700203,1455.581446,1998.556043
1239.158380,-1628.453072,0.000000,2072.576638
1239.158691,-1924.535449,-995.924147,1776.494261
1239.159003,-4959.379811,-2528.115143,-0.000000
1239.159314,-8438.347739,-2221.676944,-444.123565
1239.159625,-12361.439231,-1608.800546,-814.226536
1239.159937,-15174.221811,-1762.019645,-148.041188
1239.160248,-15470.304188,-2068.457845,296.082377
1239.160559,-15248.242405,-1149.143247,-222.061783
1239.160871,-13915.871710,306.438199,-148.041188
1239.161182,-10732.986159,2145.067394,-518.144159
1239.161494,-7846.182985,3830.477490,-740.205942
1239.161805,-5921.647536,4136.915689,444.123565
1239.162116,-3849.070898,2681.334243,2294.638420
1239.162428,-1554.432478,536.266849,2516.700203
1239.162739,-3034.844362,-1378.971896,2368.659014
1239.163050,-6661.853478,-2604.724693,1406.391290
1239.163362,-10436.903782,-2374.896044,-0.000000
1239.163673,-13619.789333,-842.705048,-444.123565
1239.163984,-16062.468941,-306.438199,-444.123565
1239.164296,-15396.283594,-1225.752797,-222.061783
1239.164607,-13841.851115,-229.828649,-740.205942
1239.164918,-11843.295072,766.095498,-148.041188
1239.165230,-8808.450710,2451.505594,148.041188
1239.165541,-5773.606348,3524.039291,814.226536
1239.165853,-3552.988522,2834.553343,2590.720797
1239.166164,-1480.411884,2298.286494,2516.700203
1239.166475,-1184.329507,0.000000,2812.782580
1239.166787,-2590.720797,-842.705048,1110.308913
1239.167098,-6291.750507,-1072.533697,-0.000000
1239.167409,-9918.759623,-153.219100,-814.226536
1239.167721,-13841.851115,-689.485948,-444.123565
1239.168032,-15470.304188,-995.924147,370.102971
1239.168343,-15100.201217,-1532.190996,518.144159
1239.168655,-14285.974681,-306.438199,-370.102971
1239.168966,-11251.130318,1532.190996,-666.185348
1239.169278,-8216.285956,3677.258390,-888.247130
1239.169589,-5477.523971,4290.134789,-444.123565
1239.169900,-2812.782580,3447.429741,1110.308913
1239.170212,-1998.556043,919.314598,3330.926739
1239.170523,-2886.803174,-1762.019645,3108.864956
1239.170834,-4959.379811,-3447.429741,2664.741391
1239.171146,-9474.636058,-3217.601092,888.247130
1239.171457,-12287.418637,-2068.457845,592.164754
1239.171768,-14656.077652,-1532.190996,222.061783
1239.172080,-15470.304188,-2221.676944,-0.000000
1239.172391,-14211.954086,-1915.238745,-74.020594
1239.172702,-13323.706956,-1072.533697,-666.185348
1239.173014,-11399.171507,995.924147,-518.144159
1239.173325,-8882.471304,2451.505594,-148.041188
1239.173636,-6735.874072,3447.429741,148.041188
1239.173948,-4071.132681,1838.629195,1702.473667
1239.174259,-1628.453072,536.266849,2738.761985
1239.174571,-740.205942,-689.485948,2368.659014
1239.174882,-3034.844362,-2451.505594,814.226536
1239.175193,-6957.935855,-2681.334243,-444.123565
1239.175505,-11251.130318,-2298.286494,-592.164754
1239.175816,-14582.057057,-1302.362347,-296.082377
1239.176127,-15692.365970,-1685.410096,-0.000000
1239.176439,-15396.283594,-1532.190996,-222.061783
1239.176750,-14285.974681,-1455.581446,-296.082377
1239.177061,-12435.459826,766.095498,-888.247130
1239.177373,-9326.594869,2528.115143,-814.226536
1239.177684,-6661.853478,3524.039291,-444.123565
1239.177995,-4515.256246,3370.820191,1258.350101
1239.178307,-2886.803174,995.924147,2516.700203
1239.178618,-1776.494261,-612.876398,2960.823768
1239.178929,-4293.194464,-2451.505594,1924.535449
1239.179241,-8216.285956,-1762.019645,962.267725
1239.179552,-12583.501014,-1225.752797,222.061783
1239.179863,-15618.345376,-689.485948,-74.020594
1239.180175,-15766.386565,-306.438199,-518.144159
1239.180486,-14211.954086,-153.219100,-1036.288319
1239.180797,-11843.295072,536.266849,-1110.308913
1239.181109,-9326.594869,2298.286494,-1480.411884
1239.181420,-6587.832884,3677.258390,-962.267725
1239.181731,-4885.359217,3524.039291,296.082377
1239.182043,-3478.967927,2068.457845,3108.864956
1239.182354,-1776.494261,306.438199,3997.112087
1239.182665,-1776.494261,-1378.971896,3182.885551
1239.182977,-4219.173869,-2911.162892,1554.432478
1239.183288,-8068.244768,-2681.334243,-74.020594
1239.183599,-12583.501014,-1149.143247,-1110.308913
1239.183911,-15396.283594,0.000000,-814.226536
1239.184222,-15988.448347,-1378.971896,-370.102971
1239.184533,-14878.139434,-1378.971896,222.061783
1239.184845,-13397.727550,0.000000,148.041188
1239.185156,-10658.965565,1532.190996,-0.000000
1239.185467,-6883.915261,3600.648841,-148.041188
1239.185779,-4811.338623,3600.648841,740.205942
1239.186090,-2960.823768,2221.676944,2072.576638
1239.186401,-1776.494261,612.876398,2886.803174
1239.186713,-3997.112087,-1915.238745,1702.473667
1239.187024,-6365.771101,-2681.334243,1702.473667
1239.187336,-10436.903782,-2451.505594,-0.000000
1239.187647,-13841.851115,-2068.457845,148.041188
1239.187958,-15766.386565,-2145.067394,444.123565
1239.188270,-14878.139434,-2987.772442,370.102971
1239.188581,-13693.809927,-2068.457845,-0.000000
1239.188892,-11769.274478,306.438199,-592.164754
1239.189204,-9030.512492,1838.629195,-592.164754
1239.189515,-6809.894666,2528.115143,-222.061783
1239.189826,-4737.318029,2451.505594,148.041188
1239.190138,-3330.926739,1302.362347,2368.659014
1239.190449,-1702.473667,-153.219100,2886.803174
1239.190760,-2368.659014,-1915.238745,2368.659014
1239.191072,-5255.462188,-3294.210641,296.082377
1239.191383,-8734.430116,-2911.162892,-148.041188
1239.191694,-12435.459826,-1915.238745,-444.123565
1239.192006,-15248.242405,-1378.971896,-0.000000
1239.192317,-16506.592507,-1225.752797,-74.020594
1239.192628,-15544.324782,-459.657299,-518.144159
1239.192940,-13545.768739,766.095498,-518.144159
1239.193251,-10214.842000,2451.505594,-962.267725
1239.193562,-6735.874072,3600.648841,-1110.308913
1239.193874,-4589.276840,3907.087040,-296.082377
1239.194185,-3552.988522,2528.115143,1702.473667
1239.194496,-2368.659014,153.219100,2146.597232
1239.194808,-3701.029710,-1532.190996,1850.514855
1239.195119,-6439.791695,-2451.505594,1184.329507
1239.195430,-10066.800811,-2068.457845,370.102971
1239.195742,-14063.912898,-995.924147,-148.041188
1239.196053,-16210.510130,-1608.800546,-74.020594
1239.196364,-15840.407159,-1455.581446,-296.082377
1239.196676,-13915.871710,-459.657299,-222.061783
1239.196987,-11473.192101,919.314598,-814.226536
1239.197298,-8364.327145,2221.676944,-814.226536
1239.197610,-5255.462188,2374.896044,-148.041188
1239.197921,-2738.761985,2145.067394,1554.432478
1239.198232,-1702.473667,842.705048,2590.720797
1239.198544,-1850.514855,-766.095498,2812.782580
1239.198855,-3775.050304,-1991.848295,1850.514855
1239.199166,-6809.894666,-2834.553343,592.164754
1239.199478,-10658.965565,-1915.238745,-296.082377
1239.199789,-13841.851115,-689.485948,-444.123565
1239.200101,-15618.345376,-459.657299,-0.000000
1239.200412,-14730.098246,-1149.143247,-0.000000
1239.200723,-13249.686362,0.000000,-222.061783
1239.201035,-10807.006753,919.314598,-518.144159
1239.201346,-8216.285956,2757.943793,-592.164754
1239.201657,-5921.647536,3447.429741,-518.144159
1239.201969,-4219.173869,3140.991542,962.267725
1239.202280,-3330.926739,1225.752797,2738.761985
1239.202591,-3034.844362,-842.705048,3034.844362
1239.202903,-5477.523971,-2681.334243,2368.659014
1239.203214,-8438.347739,-2681.334243,1554.432478
1239.203525,-11621.233289,-2681.334243,296.082377
1239.203837,-14285.974681,-2221.676944,-0.000000
1239.204148,-15396.283594,-1838.629195,-74.020594
1239.204459,-14582.057057,-1225.752797,-592.164754
1239.204771,-13249.686362,-459.657299,-814.226536
1239.205082,-10807.006753,1149.143247,-222.061783
1239.205393,-7920.203579,1838.629195,-0.000000
1239.205705,-5921.647536,2298.286494,-0.000000
1239.206016,-3701.029710,1225.752797,1184.329507
1239.206327,-2146.597232,689.485948,2294.638420
1239.206639,-1702.473667,-536.266849,1850.514855
1239.206950,-3627.009116,-1608.800546,1036.288319
1239.207261,-7550.100608,-2298.286494,-148.041188
1239.207573,-11325.150913,-1685.410096,-962.267725
1239.207884,-14508.036463,-612.876398,-666.185348
1239.208195,-16136.489536,-766.095498,-0.000000
1239.208507,-15544.324782,-1685.410096,-0.000000
1239.208818,-13915.871710,0.000000,148.041188
1239.209129,-11399.171507,1838.629195,-814.226536
1239.209441,-7994.224174,2681.334243,-518.144159
1239.209752,-5403.503377,3370.820191,-0.000000
1239.210063,-3923.091493,3370.820191,1702.473667
1239.210375,-2664.741391,1378.971896,2664.741391
1239.210686,-3552.988522,-919.314598,2664.741391
1239.210997,-6439.791695,-1991.848295,1850.514855
1239.211309,-9400.615463,-1608.800546,518.144159
1239.211620,-12805.562797,-1378.971896,-148.041188
1239.211931,-14730.098246,-536.266849,-814.226536
1239.212243,-15174.221811,-306.438199,-740.205942
1239.212554,-14137.933492,-306.438199,-962.267725
1239.212865,-11769.274478,689.485948,-370.102971
1239.213177,-9474.636058,2604.724693,-888.247130
1239.213488,-6513.812290,3140.991542,-74.020594
1239.213800,-3997.112087,3140.991542,1110.308913
1239.214111,-2516.700203,1455.581446,2516.700203
1239.214422,-1776.494261,-383.047749,3108.864956
1239.214734,-2664.741391,-1685.410096,1850.514855
1239.215045,-5551.544565,-2604.724693,1036.288319
1239.215356,-8512.368333,-1915.238745,-222.061783
1239.215668,-12657.521608,-1685.410096,-740.205942
1239.215979,-15248.242405,-1762.019645,-0.000000
1239.216290,-15470.304188,-2298.286494,444.123565
1239.216602,-14656.077652,-1455.581446,518.144159
1239.216913,-12953.603985,0.000000,-0.000000
1239.217224,-9844.739029,1532.190996,-222.061783
1239.217536,-6809.894666,3370.820191,-518.144159
1239.217847,-4515.256246,3140.991542,-0.000000
1239.218158,-3256.906145,2451.505594,2220.617826
1239.218470,-2960.823768,76.609550,2442.679609
1239.218781,-4441.235652,-1762.019645,2812.782580
1239.219092,-7254.018232,-2911.162892,2072.576638
1239.219404,-10436.903782,-2911.162892,740.205942
1239.219715,-13027.624579,-2757.943793,-0.000000
1239.220026,-15174.221811,-2374.896044,-74.020594
1239.220338,-14211.954086,-1532.190996,-444.123565
1239.220649,-13767.830521,-1378.971896,-962.267725
1239.220960,-11843.295072,306.438199,-666.185348
1239.221272,-9548.656652,1302.362347,-74.020594
1239.221583,-7254.018232,1991.848295,148.041188
1239.221894,-4737.318029,2221.676944,444.123565
1239.222206,-3404.947333,1149.143247,1628.453072
1239.222517,-1480.411884,0.000000,2146.597232
1239.222828,-2072.576638,-1378.971896,1924.535449
1239.223140,-5551.544565,-2757.943793,518.144159
1239.223451,-9770.718434,-2681.334243,-74.020594
1239.223762,-13693.809927,-1991.848295,-518.144159
1239.224074,-15766.386565,-995.924147,-0.000000
1239.224385,-15988.448347,-842.705048,-0.000000
1239.224696,-14582.057057,-306.438199,-370.102971
1239.225008,-12805.562797,1608.800546,-592.164754
1239.225319,-9178.553681,2451.505594,-888.247130
1239.225630,-6291.750507,3370.820191,-592.164754
1239.225942,-4293.194464,3524.039291,592.164754
1239.226253,-2960.823768,2145.067394,2516.700203
1239.226565,-2442.679609,-153.219100,2442.679609
1239.226876,-4515.256246,-2145.067394,1776.494261
1239.227187,-7624.121203,-2068.457845,1036.288319
1239.227499,-11399.171507,-1838.629195,-148.041188
1239.227810,-15026.180623,-1685.410096,-222.061783
1239.228121,-15692.365970,-612.876398,-370.102971
1239.228433,-14730.098246,-153.219100,-666.185348
1239.228744,-13027.624579,76.609550,-666.185348
1239.229055,-10214.842000,1762.019645,-740.205942
1239.229367,-7624.121203,3294.210641,-814.226536
1239.229678,-4959.379811,4366.744339,-296.082377
1239.229989,-3034.844362,2987.772442,2516.700203
1239.230301,-1702.473667,1608.800546,3552.988522
1239.230612,-2072.576638,-919.314598,3108.864956
1239.230923,-4589.276840,-2145.067394,1850.514855
1239.231235,-7772.162391,-2451.505594,296.082377
1239.231546,-11177.109724,-919.314598,-592.164754
1239.231857,-14434.015869,-1762.019645,-296.082377
1239.232169,-15544.324782,-1378.971896,-0.000000
1239.232480,-15248.242405,-1685.410096,-74.020594
1239.232791,-13397.727550,0.000000,74.020594
1239.233103,-11177.109724,1225.752797,-74.020594
1239.233414,-7920.203579,2681.334243,-0.000000
1239.233725,-5255.462188,3447.429741,592.164754
1239.234037,-2960.823768,2757.943793,1406.391290
1239.234348,-1628.453072,1302.362347,3552.988522
1239.234659,-3330.926739,-1378.971896,2294.638420
1239.234971,-5699.585753,-3447.429741,1702.473667
1239.235282,-9474.636058,-2757.943793,148.041188
1239.235593,-12805.562797,-1991.848295,-148.041188
1239.235905,-14952.160028,-1991.848295,-0.000000
1239.236216,-15322.262999,-2528.115143,296.082377
1239.236527,-14359.995275,-2681.334243,-222.061783
1239.236839,-12731.542202,-766.095498,-148.041188
1239.237150,-10510.924376,1378.971896,-518.144159
1239.237461,-7328.038826,2451.505594,-370.102971
1239.237773,-4885.359217,1915.238745,-296.082377
1239.238084,-3256.906145,766.095498,1110.308913
1239.238395,-2294.638420,0.000000,2072.576638
1239.238707,-2368.659014,-1302.362347,2072.576638
1239.239018,-5329.482782,-2987.772442,888.247130
1239.239330,-8734.430116,-3370.820191,222.061783
1239.239641,-12213.398043,-2528.115143,-222.061783
1239.239952,-15396.283594,-1378.971896,-0.000000
1239.240264,-16062.468941,-1072.533697,222.061783
1239.240575,-15766.386565,-383.047749,-1110.308913
1239.240886,-13397.727550,1149.143247,-444.123565
1239.241198,-10436.903782,2757.943793,-1184.329507
1239.241509,-7179.997637,3830.477490,-1184.329507
1239.241820,-4885.359217,4366.744339,-370.102971
1239.242132,-3627.009116,2757.943793,2146.597232
1239.242443,-2368.659014,842.705048,2590.720797
1239.242754,-4071.132681,-1225.752797,1998.556043
1239.243066,-7328.038826,-2145.067394,1036.288319
1239.243377,-10807.006753,-1685.410096,-0.000000
1239.243688,-13841.851115,-689.485948,-592.164754
1239.244000,-15026.180623,-306.438199,-444.123565
1239.244311,-15026.180623,-1378.971896,-296.082377
1239.244622,-13323.706956,-153.219100,-148.041188
1239.244934,-11177.109724,766.095498,-0.000000
1239.245245,-8290.306550,2451.505594,-148.041188
1239.245556,-5403.503377,3753.867940,518.144159
1239.245868,-3182.885551,3064.381992,2368.659014
1239.246179,-1480.411884,1991.848295,2516.700203
1239.246490,-1628.453072,153.219100,2220.617826
1239.246802,-3849.070898,-612.876398,370.102971
1239.247113,-7476.080014,-1225.752797,-0.000000
1239.247424,-10658.965565,-383.047749,-814.226536
1239.247736,-13545.768739,-689.485948,-222.061783
1239.248047,-15026.180623,-1378.971896,888.247130
1239.248358,-14211.954086,-1838.629195,1110.308913
1239.248670,-13175.665768,-1302.362347,666.185348
1239.248981,-11621.233289,1302.362347,-74.020594
1239.249292,-8512.368333,4136.915689,-814.226536
1239.249604,-5847.626942,4596.572988,-370.102971
1239.249915,-3404.947333,3447.429741,740.205942
1239.250226,-2738.761985,1225.752797,2738.761985
1239.250538,-3997.112087,-1455.581446,2368.659014
1239.250849,-5699.585753,-3140.991542,2516.700203
1239.251160,-9474.636058,-2834.553343,1332.370696
1239.251472,-13175.665768,-3524.039291,222.061783
1239.251783,-14878.139434,-2834.553343,370.102971
1239.252094,-14730.098246,-3064.381992,-0.000000
1239.252406,-13397.727550,-2451.505594,-444.123565
1239.252717,-12065.356855,-1149.143247,-888.247130
1239.253029,-10955.047942,842.705048,-518.144159
1239.253340,-8290.306550,1378.971896,-148.041188
1239.253651,-6587.832884,2374.896044,-74.020594
1239.253963,-4071.132681,2298.286494,1184.329507
1239.254274,-2516.700203,766.095498,1998.556043
1239.254585,-2146.597232,-306.438199,1702.473667
1239.254897,-4071.132681,-1991.848295,592.164754
1239.255208,-6883.915261,-2374.896044,-370.102971
1239.255519,-10436.903782,-1915.238745,-370.102971
1239.255831,-14434.015869,-2145.067394,-0.000000
1239.256142,-15322.262999,-1838.629195,296.082377
1239.256453,-15618.345376,-1532.190996,-222.061783
1239.256765,-14211.954086,689.485948,-592.164754
1239.257076,-11769.274478,2068.457845,-962.267725
1239.257387,-8512.368333,2911.162892,-1036.288319
1239.257699,-6217.729913,3294.210641,-740.205942
1239.258010,-4145.153275,2911.162892,1110.308913
1239.258321,-1998.556043,1915.238745,2812.782580
1239.258633,-2368.659014,-612.876398,2960.823768
1239.258944,-5329.482782,-2528.115143,1850.514855
1239.259255,-9030.512492,-3064.381992,1332.370696
1239.259567,-13101.645173,-2298.286494,518.144159
1239.259878,-15174.221811,-919.314598,-0.000000
1239.260189,-15470.304188,-229.828649,-222.061783
1239.260501,-14211.954086,-306.438199,-888.247130
1239.260812,-11991.336260,612.876398,-962.267725
1239.261123,-9104.533087,1685.410096,-740.205942
1239.261435,-7179.997637,3064.381992,-518.144159
1239.261746,-4885.359217,3064.381992,1036.288319
1239.262057,-2738.761985,1838.629195,2960.823768
1239.262369,-2072.576638,153.219100,3478.967927
1239.262680,-2368.659014,-1991.848295,3034.844362
1239.262991,-5255.462188,-2911.162892,1110.308913
1239.263303,-8068.244768,-1762.019645,222.061783
1239.263614,-11991.336260,-306.438199,-888.247130
1239.263925,-15026.180623,-459.657299,-296.082377
1239.264237,-15692.365970,-1072.533697,222.061783
1239.264548,-14878.139434,-766.095498,222.061783
1239.264859,-12657.521608,306.438199,296.082377
1239.265171,-9992.780217,2298.286494,-74.020594
1239.265482,-6291.750507,4366.744339,-0.000000
1239.265794,-4367.215058,3677.258390,370.102971
1239.266105,-2294.638420,2221.676944,1628.453072
1239.266416,-2442.679609,0.000000,2442.679609
1239.266728,-4219.173869,-2145.067394,2516.700203
1239.267039,-7772.162391,-3524.039291,1850.514855
1239.267350,-11621.233289,-3370.820191,740.205942
1239.267662,-13989.892304,-2374.896044,444.123565
1239.267973,-15544.324782,-2221.676944,-148.041188
1239.268284,-14434.015869,-1991.848295,-814.226536
1239.268596,-12657.521608,-1149.143247,-888.247130
1239.268907,-11547.212695,-306.438199,-1036.288319
1239.269218,-8660.409521,1762.019645,-222.061783
1239.269530,-6365.771101,2528.115143,296.082377
1239.269841,-4219.173869,2221.676944,592.164754
1239.270152,-3108.864956,766.095498,2072.576638
1239.270464,-1776.494261,-919.314598,1850.514855
1239.270775,-2738.761985,-1915.238745,1258.350101
1239.271086,-5847.626942,-2604.724693,148.041188
1239.271398,-10288.862594,-1762.019645,-518.144159
1239.271709,-14285.974681,-1378.971896,-518.144159
1239.272020,-15766.386565,-1072.533697,-0.000000
1239.272332,-15914.427753,-995.924147,-0.000000
1239.272643,-14063.912898,-153.219100,444.123565
1239.272955,-11547.212695,842.705048,-592.164754
1239.273266,-8068.244768,2604.724693,-740.205942
1239.273578,-5551.544565,3140.991542,-814.226536
1239.273889,-3997.112087,3600.648841,74.020594
1239.274200,-3478.967927,1838.629195,1998.556043
1239.274512,-3775.050304,-919.314598,2146.597232
1239.274823,-5921.647536,-2681.334243,1702.473667
1239.275135,-8734.430116,-2681.334243,1036.288319
1239.275446,-12139.377449,-2681.334243,222.061783
1239.275758,-15026.180623,-1991.848295,-370.102971
1239.276069,-15544.324782,-2068.457845,222.061783
1239.276381,-14211.954086,-1608.800546,-222.061783
1239.276692,-12213.398043,-306.438199,-74.020594
1239.277004,-10066.800811,1762.019645,-666.185348
1239.277315,-7402.059420,3064.381992,-666.185348
1239.277627,-4737.318029,3830.477490,-222.061783
1239.277938,-3034.844362,2604.724693,1184.329507
1239.278250,-2294.638420,1378.971896,2516.700203
1239.278561,-2812.782580,0.000000,2516.700203
1239.278872,-5033.400406,-2221.676944,1628.453072
1239.279184,-8068.244768,-2451.505594,518.144159
1239.279495,-11843.295072,-1762.019645,-296.082377
1239.279807,-14359.995275,-842.705048,-74.020594
1239.280118,-14730.098246,-1532.190996,296.082377
1239.280430,-15100.201217,-1608.800546,-222.061783
1239.280741,-12805.562797,-229.828649,-0.000000
1239.281053,-10584.944971,2298.286494,-296.082377
1239.281364,-7328.038826,3217.601092,-74.020594
1239.281676,-5329.482782,3447.429741,518.144159
1239.281987,-3627.009116,2681.334243,1776.494261
1239.282299,-3404.947333,1302.362347,2220.617826
1239.282610,-4515.256246,-612.876398,2294.638420
1239.282922,-6217.729913,-1685.410096,2294.638420
1239.283233,-9622.677246,-2604.724693,592.164754
1239.283544,-12509.480420,-2451.505594,-74.020594
1239.283856,-14211.954086,-2221.676944,-148.041188
1239.284167,-14137.933492,-2068.457845,-74.020594
1239.284479,-13323.706956,-766.095498,-444.123565
1239.284790,-11695.253884,-153.219100,-370.102971
1239.285102,-9474.636058,1685.410096,-296.082377
1239.285413,-7846.182985,2451.505594,-74.020594
1239.285725,-5255.462188,3064.381992,962.267725
1239.286036,-3182.885551,1915.238745,2220.617826
1239.286348,-2368.659014,306.438199,2368.659014
1239.286659,-2960.823768,-995.924147,1554.432478
1239.286971,-5107.421000,-2221.676944,888.247130
1239.287282,-8956.491898,-2298.286494,-592.164754
1239.287594,-12435.459826,-1991.848295,-222.061783
1239.287905,-14582.057057,-1378.971896,222.061783
1239.288216,-15692.365970,-1378.971896,-0.000000
1239.288528,-14508.036463,-459.657299,-148.041188
1239.288839,-12657.521608,919.314598,-740.205942
1239.289151,-9918.759623,2451.505594,-888.247130
1239.289462,-7031.956449,3983.696590,-1036.288319
1239.289774,-5181.441594,3677.258390,-222.061783
1239.290085,-3404.947333,2834.553343,1776.494261
1239.290397,-3256.906145,459.657299,2294.638420
1239.290708,-4441.235652,-1838.629195,2516.700203
1239.291020,-7624.121203,-2528.115143,1332.370696
1239.291331,-10807.006753,-2298.286494,296.082377
1239.291643,-13619.789333,-1685.410096,-592.164754
1239.291954,-15396.283594,-1302.362347,-222.061783
1239.292266,-14730.098246,-1532.190996,-370.102971
1239.292577,-13175.665768,-1149.143247,-740.205942
1239.292888,-11325.150913,536.266849,-370.102971
1239.293200,-8660.409521,1915.238745,296.082377
1239.293511,-6291.750507,2757.943793,740.205942
1239.293823,-4219.173869,2528.115143,1776.494261
1239.294134,-2738.761985,1455.581446,2442.679609
1239.294446,-2072.576638,612.876398,2590.720797
1239.294757,-3330.926739,-229.828649,1110.308913
1239.295069,-5773.606348,-1838.629195,370.102971
1239.295380,-8956.491898,-1455.581446,-740.205942
1239.295692,-12435.459826,-1072.533697,-444.123565
1239.296003,-14952.160028,-1532.190996,-0.000000
1239.296315,-15174.221811,-1455.581446,-74.020594
1239.296626,-14285.974681,-153.219100,-0.000000
1239.296938,-12435.459826,1302.362347,-0.000000
1239.297249,-8882.471304,2451.505594,-296.082377
1239.297560,-6957.935855,3753.867940,-666.185348
1239.297872,-3701.029710,2987.772442,888.247130
1239.298183,-2738.761985,1302.362347,2960.823768
1239.298495,-3256.906145,-1149.143247,2886.803174
1239.298806,-5181.441594,-2451.505594,2812.782580
1239.299118,-8364.327145,-2681.334243,1184.329507
1239.299429,-11695.253884,-2528.115143,-0.000000
1239.299741,-14211.954086,-1991.848295,-518.144159
1239.300052,-14582.057057,-1225.752797,-518.144159
1239.300364,-13545.768739,-1608.800546,-370.102971
1239.300675,-12805.562797,-1608.800546,-296.082377
1239.300987,-11103.089130,0.000000,222.061783
1239.301298,-8660.409521,1302.362347,592.164754
1239.301609,-6217.729913,2604.724693,222.061783
1239.301921,-3775.050304,2528.115143,1480.411884
1239.302232,-2146.597232,1378.971896,1998.556043
1239.302544,-1924.535449,-153.219100,1998.556043
1239.302855,-3478.967927,-2374.896044,1406.391290
1239.303167,-7031.956449,-2757.943793,518.144159
1239.303478,-11177.109724,-2145.067394,222.061783
1239.303790,-14656.077652,-1685.410096,-0.000000
1239.304101,-16432.571912,-1762.019645,740.205942
1239.304413,-15322.262999,-1762.019645,-222.061783
1239.304724,-13841.851115,0.000000,-518.144159
1239.305036,-11251.130318,1378.971896,-444.123565
1239.305347,-8586.388927,2298.286494,-962.267725
1239.305659,-6143.709319,3600.648841,-148.041188
1239.305970,-4145.153275,2757.943793,1184.329507
1239.306281,-2812.782580,1072.533697,2738.761985
1239.306593,-2886.803174,-1225.752797,2516.700203
1239.306904,-4959.379811,-1302.362347,1924.535449
1239.307216,-9030.512492,-2298.286494,370.102971
1239.307527,-12361.439231,-1991.848295,-518.144159
1239.307839,-15692.365970,-842.705048,-518.144159
1239.308150,-16284.530724,-536.266849,-740.205942
1239.308462,-14508.036463,-459.657299,-666.185348
1239.308773,-12361.439231,229.828649,-222.061783
1239.309085,-9918.759623,1455.581446,-148.041188
1239.309396,-6291.750507,1838.629195,-74.020594
1239.309708,-4367.215058,2987.772442,888.247130
1239.310019,-2886.803174,2221.676944,2960.823768
1239.310331,-1776.494261,842.705048,3404.947333
1239.310642,-2812.782580,-995.924147,2368.659014
1239.310953,-5477.523971,-1991.848295,1036.288319
1239.311265,-8660.409521,-1838.629195,-888.247130
1239.311576,-11547.212695,-842.705048,-962.267725
1239.311888,-14211.954086,-689.485948,-444.123565
1239.312199,-14878.139434,-1532.190996,-296.082377
1239.312511,-14508.036463,-1225.752797,-222.061783
1239.312822,-12583.501014,76.609550,-148.041188
1239.313134,-9696.697840,2145.067394,-370.102971
1239.313445,-6809.894666,3447.429741,-222.061783
1239.313757,-5033.400406,3370.820191,-444.123565
1239.314068,-2886.803174,2757.943793,1628.453072
1239.314380,-2738.761985,842.705048,2146.597232
1239.314691,-3775.050304,-1685.410096,2220.617826
1239.315003,-6587.832884,-3140.991542,1480.411884
1239.315314,-10066.800811,-3447.429741,-0.000000
1239.315625,-13619.789333,-3140.991542,-74.020594
1239.315937,-15248.242405,-2604.724693,-0.000000
1239.316248,-15100.201217,-2451.505594,-370.102971
1239.316560,-14359.995275,-1838.629195,-1036.288319
1239.316871,-12213.398043,-766.095498,-592.164754
1239.317183,-10066.800811,1149.143247,-148.041188
1239.317494,-7328.038826,2451.505594,-0.000000
1239.317806,-4737.318029,2528.115143,-0.000000
1239.318117,-3701.029710,1455.581446,1850.514855
1239.318429,-2664.741391,306.438199,2072.576638
1239.318740,-3108.864956,-766.095498,1850.514855
1239.319052,-5773.606348,-2604.724693,592.164754
1239.319363,-9548.656652,-2298.286494,-148.041188
1239.319675,-12805.562797,-1838.629195,-592.164754
1239.319986,-14878.139434,-1302.362347,-518.144159
1239.320297,-15618.345376,-1302.362347,-0.000000
1239.320609,-14878.139434,-766.095498,-518.144159
1239.320920,-13101.645173,995.924147,-444.123565
1239.321232,-10140.821405,2068.457845,-444.123565
1239.321543,-6291.750507,3524.039291,-0.000000
1239.321855,-4367.215058,3830.477490,148.041188
1239.322166,-3034.844362,2528.115143,2294.638420
1239.322478,-2294.638420,536.266849,3182.885551
1239.322789,-3330.926739,-1532.190996,2664.741391
1239.323101,-6883.915261,-2681.334243,1776.494261
1239.323412,-10732.986159,-2374.896044,592.164754
1239.323724,-14137.933492,-1608.800546,-148.041188
1239.324035,-15100.201217,-459.657299,-296.082377
1239.324347,-14211.954086,-306.438199,-370.102971
1239.324658,-13249.686362,-306.438199,-518.144159
1239.324969,-10584.944971,766.095498,-0.000000
1239.325281,-7550.100608,2451.505594,-0.000000
1239.325592,-4589.276840,3753.867940,888.247130
1239.325904,-2738.761985,3447.429741,2146.597232
1239.326215,-1850.514855,2451.505594,2368.659014
1239.326527,-1998.556043,383.047749,2294.638420
1239.326838,-3701.029710,-153.219100,222.061783
1239.327150,-7105.977043,-1532.190996,-74.020594
1239.327461,-10807.006753,-995.924147,-740.205942
1239.327773,-14508.036463,-1685.410096,-370.102971
1239.328084,-15914.427753,-1762.019645,518.144159
1239.328396,-15618.345376,-1608.800546,-0.000000
1239.328707,-14211.954086,-153.219100,370.102971
1239.329019,-11621.233289,1991.848295,-74.020594
1239.329330,-8142.265362,3294.210641,-592.164754
1239.329641,-5477.523971,4213.525239,-222.061783
1239.329953,-3330.926739,3753.867940,1110.308913
1239.330264,-2812.782580,1762.019645,2590.720797
1239.330576,-4589.276840,-1072.533697,2294.638420
1239.330887,-7031.956449,-2451.505594,2146.597232
1239.331199,-9622.677246,-2757.943793,370.102971
1239.331510,-12805.562797,-2221.676944,-518.144159
1239.331822,-14656.077652,-2451.505594,-296.082377
1239.332133,-14878.139434,-3524.039291,-370.102971
1239.332445,-13619.789333,-2757.943793,-740.205942
1239.332756,-12435.459826,-1302.362347,-296.082377
1239.333068,-10732.986159,1991.848295,-222.061783
1239.333379,-8216.285956,1991.848295,370.102971
1239.333691,-5181.441594,2528.115143,592.164754
1239.334002,-3034.844362,2681.334243,1110.308913
1239.334313,-1776.494261,766.095498,1850.514855
1239.334625,-1776.494261,-459.657299,1702.473667
1239.334936,-4589.276840,-2374.896044,222.061783
1239.335248,-8068.244768,-2681.334243,-518.144159
1239.335559,-11769.274478,-2221.676944,-148.041188
1239.335871,-14582.057057,-2221.676944,444.123565
1239.336182,-15470.304188,-2757.943793,444.123565
1239.336494,-15174.221811,-2298.286494,-0.000000
1239.336805,-13693.809927,-612.876398,592.164754
1239.337117,-10510.924376,1455.581446,-370.102971
1239.337428,-7476.080014,2834.553343,-444.123565
1239.337740,-5181.441594,3064.381992,-444.123565
1239.338051,-3404.947333,2451.505594,962.267725
1239.338363,-2146.597232,1378.971896,2220.617826
1239.338674,-3701.029710,-383.047749,2072.576638
1239.338985,-6735.874072,-1991.848295,1628.453072
1239.339297,-10436.903782,-2221.676944,814.226536
1239.339608,-13841.851115,-1991.848295,74.020594
1239.339920,-15174.221811,-919.314598,518.144159
1239.340231,-14952.160028,-1149.143247,-222.061783
1239.340543,-14211.954086,-1072.533697,-1110.308913
1239.340854,-12065.356855,1532.190996,-814.226536
1239.341166,-8808.450710,2451.505594,-1110.308913
1239.341477,-6217.729913,4213.525239,-370.102971
1239.341789,-3997.112087,3753.867940,1406.391290
1239.342100,-2220.617826,2145.067394,2960.823768
1239.342412,-2368.659014,-229.828649,2738.761985
1239.342723,-3108.864956,-1225.752797,2220.617826
1239.343034,-5995.668130,-2604.724693,518.144159
1239.343346,-10066.800811,-2451.505594,-444.123565
1239.343657,-13175.665768,-842.705048,-888.247130
1239.343969,-15840.407159,-1149.143247,-370.102971
1239.344280,-15396.283594,-1532.190996,518.144159
1239.344592,-14211.954086,-1072.533697,148.041188
1239.344903,-12065.356855,612.876398,370.102971
1239.345215,-8734.430116,2757.943793,-148.041188
1239.345526,-5477.523971,3753.867940,-740.205942
1239.345838,-2738.761985,3830.477490,1184.329507
1239.346149,-1554.432478,2221.676944,2220.617826
1239.346461,-2146.597232,-383.047749,2812.782580
1239.346772,-4441.235652,-2145.067394,2812.782580
1239.347084,-8438.347739,-3753.867940,2220.617826
1239.347395,-12287.418637,-3140.991542,888.247130
1239.347706,-14508.036463,-2757.943793,740.205942
1239.348018,-15248.242405,-1991.848295,592.164754
1239.348329,-14656.077652,-3217.601092,-444.123565
1239.348641,-13175.665768,-1455.581446,-1406.391290
1239.348952,-11325.150913,536.266849,-296.082377
1239.349264,-8882.471304,2298.286494,-222.061783
1239.349575,-6365.771101,2528.115143,592.164754
1239.349887,-3849.070898,2298.286494,1406.391290
1239.350198,-2442.679609,842.705048,2516.700203
1239.350510,-1110.308913,-1532.190996,2516.700203
1239.350821,-2368.659014,-1991.848295,1628.453072
1239.351133,-5995.668130,-2911.162892,740.205942
1239.351444,-10362.883188,-2528.115143,-222.061783
1239.351756,-14508.036463,-2374.896044,-444.123565
1239.352067,-16506.592507,-1915.238745,-0.000000
1239.352378,-16358.551318,-1685.410096,-0.000000
1239.352690,-14952.160028,-689.485948,-222.061783
1239.353001,-12731.542202,842.705048,-814.226536
1239.353313,-9326.594869,2221.676944,-592.164754
1239.353624,-5699.585753,3677.258390,-0.000000
1239.353936,-3849.070898,3524.039291,888.247130
1239.354247,-2886.803174,2298.286494,2368.659014
1239.354559,-3256.906145,76.609550,1702.473667
1239.354870,-4737.318029,-919.314598,1406.391290
1239.355182,-8956.491898,-1378.971896,296.082377
1239.355493,-12361.439231,-1378.971896,-0.000000
1239.355805,-15100.201217,-995.924147,-296.082377
1239.356116,-16284.530724,-1225.752797,-0.000000
1239.356428,-14804.118840,-919.314598,-370.102971
1239.356739,-12435.459826,153.219100,-518.144159
1239.357050,-9622.677246,1915.238745,-666.185348
1239.357362,-5921.647536,3294.210641,-370.102971
1239.357673,-3182.885551,4060.306139,148.041188
1239.357985,-1184.329507,3370.820191,1776.494261
1239.358296,-1332.370696,1532.190996,2368.659014
1239.358608,-2960.823768,-842.705048,1776.494261
1239.358919,-5477.523971,-1915.238745,1480.411884
1239.359231,-9030.512492,-2451.505594,-148.041188
1239.359542,-12583.501014,-2298.286494,-370.102971
1239.359854,-15100.201217,-2221.676944,-0.000000
1239.360165,-15988.448347,-2298.286494,-74.020594
1239.360477,-14508.036463,-2298.286494,444.123565
1239.360788,-12731.542202,-919.314598,222.061783
1239.361100,-10066.800811,1915.238745,296.082377
1239.361411,-6513.812290,3294.210641,148.041188
1239.361722,-3552.988522,3294.210641,518.144159
1239.362034,-2146.597232,2451.505594,1702.473667
1239.362345,-2146.597232,1455.581446,2146.597232
1239.362657,-4293.194464,-612.876398,1554.432478
1239.362968,-6735.874072,-1685.410096,1332.370696
1239.363280,-11029.068536,-2221.676944,-0.000000
1239.363591,-13767.830521,-2145.067394,-222.061783
1239.363903,-15618.345376,-2604.724693,-74.020594
1239.364214,-15544.324782,-3217.601092,-148.041188
1239.364526,-14508.036463,-1838.629195,-592.164754
1239.364837,-12509.480420,229.828649,-370.102971
1239.365149,-10066.800811,2451.505594,370.102971
1239.365460,-7994.224174,2987.772442,518.144159
1239.365772,-4737.318029,3064.381992,518.144159
1239.366083,-2368.659014,2604.724693,2294.638420
1239.366394,-1184.329507,1072.533697,2220.617826
1239.366706,-2590.720797,-919.314598,1924.535449
1239.367017,-5551.544565,-2298.286494,-0.000000
1239.367329,-9696.697840,-1685.410096,-296.082377
1239.367640,-13397.727550,-1838.629195,-592.164754
1239.367952,-15026.180623,-1455.581446,-148.041188
1239.368263,-15396.283594,-2374.896044,444.123565
1239.368575,-14582.057057,-1378.971896,-0.000000
1239.368886,-12657.521608,383.047749,518.144159
1239.369198,-9622.677246,1838.629195,-0.000000
1239.369509,-7105.977043,3370.820191,-444.123565
1239.369821,-3627.009116,3983.696590,888.247130
1239.370132,-2072.576638,2681.334243,1850.514855
1239.370444,-1998.556043,995.924147,1776.494261
1239.370755,-4071.132681,-689.485948,1702.473667
1239.371066,-7994.224174,-1991.848295,1110.308913
1239.371378,-11843.295072,-1762.019645,518.144159
1239.371689,-14804.118840,-1455.581446,148.041188
1239.372001,-16062.468941,-1378.971896,-0.000000
1239.372312,-14730.098246,-842.705048,-148.041188
1239.372624,-12435.459826,-306.438199,-592.164754
1239.372935,-9696.697840,1685.410096,-1036.288319
1239.373247,-6883.915261,2987.772442,-444.123565
1239.373558,-4663.297435,4060.306139,222.061783
1239.373870,-3256.906145,3677.258390,1480.411884
1239.374181,-2146.597232,1762.019645,2664.741391
1239.374493,-2590.720797,-229.828649,2072.576638
1239.374804,-4071.132681,-2604.724693,2072.576638
1239.375116,-7550.100608,-3064.381992,-74.020594
1239.375427,-11325.150913,-2757.943793,-740.205942
1239.375738,-14285.974681,-2298.286494,-370.102971
1239.376050,-15914.427753,-2451.505594,-518.144159
1239.376361,-15766.386565,-1991.848295,-74.020594
1239.376673,-14434.015869,-459.657299,-0.000000
1239.376984,-11843.295072,919.314598,-296.082377
1239.377296,-7846.182985,2987.772442,370.102971
1239.377607,-5625.565159,3217.601092,148.041188
1239.377919,-2664.741391,2987.772442,1036.288319
1239.378230,-2220.617826,1072.533697,2146.597232
1239.378542,-3849.070898,-766.095498,1924.535449
1239.378853,-6513.812290,-2528.115143,1776.494261
1239.379165,-9696.697840,-3370.820191,296.082377
1239.379476,-13545.768739,-3140.991542,-74.020594
1239.379788,-14656.077652,-3064.381992,148.041188
1239.380099,-15026.180623,-3140.991542,-444.123565
1239.380411,-14285.974681,-2528.115143,-444.123565
1239.380722,-12657.521608,-919.314598,-740.205942
1239.381034,-10807.006753,1685.410096,-740.205942
1239.381345,-8216.285956,3447.429741,-222.061783
1239.381657,-5181.441594,3753.867940,148.041188
1239.381968,-2886.803174,2451.505594,1924.535449
1239.382280,-1480.411884,689.485948,2738.761985
1239.382591,-1702.473667,-689.485948,2442.679609
1239.382903,-4071.132681,-2451.505594,1480.411884
1239.383214,-7920.203579,-2757.943793,296.082377
1239.383525,-12287.418637,-2451.505594,-518.144159
1239.383837,-15396.283594,-1915.238745,-222.061783
1239.384148,-16358.551318,-1149.143247,-518.144159
1239.384460,-15470.304188,-842.705048,-296.082377
1239.384771,-13323.706956,689.485948,148.041188
1239.385083,-10881.027347,2068.457845,-0.000000
1239.385394,-6883.915261,3447.429741,222.061783
1239.385706,-3627.009116,3677.258390,1184.329507
1239.386017,-1850.514855,2757.943793,1628.453072
1239.386329,-1924.535449,1378.971896,2368.659014
1239.386640,-3849.070898,-766.095498,1480.411884
1239.386952,-7105.977043,-1378.971896,962.267725
1239.387263,-11029.068536,-1532.190996,370.102971
1239.387575,-14434.015869,-1762.019645,222.061783
1239.387886,-15544.324782,-1685.410096,148.041188
1239.388198,-15174.221811,-2145.067394,-148.041188
1239.388509,-13545.768739,-1532.190996,-518.144159
1239.388821,-10807.006753,383.047749,-666.185348
1239.389132,-7920.203579,2451.505594,-592.164754
1239.389444,-5107.421000,3294.210641,148.041188
1239.389755,-2442.679609,3294.210641,1184.329507
1239.390067,-2072.576638,1455.581446,2738.761985
1239.390378,-2516.700203,0.000000,2664.741391
1239.390690,-4145.153275,-1532.190996,2368.659014
1239.391001,-7105.977043,-2987.772442,1332.370696
1239.391312,-10362.883188,-2757.943793,-222.061783
1239.391624,-13027.624579,-2221.676944,-74.020594
1239.391935,-15248.242405,-2604.724693,-0.000000
1239.392247,-15174.221811,-2221.676944,-370.102971
1239.392558,-14063.912898,-612.876398,-370.102971
1239.392870,-12065.356855,995.924147,-444.123565
1239.393181,-9696.697840,2528.115143,-0.000000
1239.393493,-6513.812290,3524.039291,222.061783
1239.393804,-3701.029710,3907.087040,222.061783
1239.394116,-2812.782580,2451.505594,2072.576638
1239.394427,-3256.906145,0.000000,1628.453072
1239.394739,-4737.318029,-1762.019645,1924.535449
1239.395050,-8216.285956,-2987.772442,444.123565
1239.395362,-11547.212695,-3294.210641,-0.000000
1239.395673,-14359.995275,-2681.334243,-444.123565
1239.395985,-15026.180623,-2834.553343,-296.082377
1239.396296,-14285.974681,-2911.162892,-888.247130
1239.396608,-13027.624579,-536.266849,-888.247130
1239.396919,-11991.336260,306.438199,-518.144159
1239.397231,-9548.656652,1685.410096,370.102971
1239.397542,-6809.894666,2911.162892,518.144159
1239.397854,-4515.256246,2834.553343,1110.308913
1239.398165,-2368.659014,1915.238745,2294.638420
1239.398477,-1406.391290,766.095498,1850.514855
1239.398788,-2960.823768,-1455.581446,1184.329507
1239.399100,-6143.709319,-2221.676944,370.102971
1239.399411,-10362.883188,-1608.800546,-666.185348
1239.399722,-14063.912898,-1302.362347,-444.123565
1239.400034,-15988.448347,-1915.238745,-444.123565
1239.400345,-15248.242405,-1608.800546,-74.020594
1239.400657,-13989.892304,-612.876398,-296.082377
1239.400968,-11177.109724,2145.067394,-518.144159
1239.401280,-8660.409521,3064.381992,-1184.329507
1239.401591,-5773.606348,3830.477490,-0.000000
1239.401903,-2886.803174,4060.306139,592.164754
1239.402214,-1924.535449,1762.019645,2368.659014
1239.402526,-2294.638420,-536.266849,2812.782580
1239.402837,-5033.400406,-2374.896044,2664.741391
1239.403149,-9104.533087,-2681.334243,1850.514855
1239.403460,-12731.542202,-2374.896044,518.144159
1239.403772,-15988.448347,-1455.581446,-0.000000
1239.404083,-16284.530724,-1378.971896,-0.000000
1239.404395,-14137.933492,-689.485948,-518.144159
1239.404706,-12139.377449,-229.828649,-814.226536
1239.405018,-9770.718434,1915.238745,-444.123565
1239.405329,-6809.894666,2987.772442,296.082377
1239.405641,-4293.194464,3600.648841,962.267725
1239.405952,-2590.720797,2911.162892,2516.700203
1239.406264,-1998.556043,1072.533697,2812.782580
1239.406575,-2220.617826,0.000000,2368.659014
1239.406887,-4885.359217,-1685.410096,1258.350101
1239.407198,-8142.265362,-1838.629195,-444.123565
1239.407509,-11769.274478,-995.924147,-1110.308913
1239.407821,-14730.098246,-1225.752797,-666.185348
1239.408132,-15840.407159,-1762.019645,-370.102971
1239.408444,-15470.304188,-1532.190996,-666.185348
1239.408755,-14137.933492,-536.266849,-74.020594
1239.409067,-10955.047942,2145.067394,-74.020594
1239.409378,-7476.080014,3294.210641,-0.000000
1239.409690,-4885.359217,3217.601092,1258.350101
1239.410001,-2886.803174,2451.505594,1998.556043
1239.410313,-2368.659014,919.314598,2146.597232
1239.410624,-4515.256246,-995.924147,1258.350101
1239.410936,-7105.977043,-2145.067394,962.267725
1239.411247,-11177.109724,-1991.848295,-518.144159
1239.411559,-13249.686362,-2374.896044,-814.226536
1239.411870,-14582.057057,-3370.820191,-444.123565
1239.412182,-14730.098246,-3447.429741,-444.123565
1239.412493,-13545.768739,-2298.286494,-370.102971
1239.412805,-12213.398043,-153.219100,-222.061783
1239.413116,-10362.883188,2068.457845,222.061783
1239.413428,-7550.100608,2681.334243,888.247130
1239.413739,-3701.029710,3524.039291,1110.308913
1239.414051,-1258.350101,2298.286494,2738.761985
1239.414362,-1184.329507,459.657299,2072.576638
1239.414674,-2516.700203,-1149.143247,1480.411884
1239.414985,-5699.585753,-2221.676944,-222.061783
1239.415296,-9474.636058,-1991.848295,-962.267725
1239.415608,-12953.603985,-1838.629195,-962.267725
1239.415919,-15692.365970,-2604.724693,-148.041188
1239.416231,-16358.551318,-2834.553343,296.082377
1239.416542,-15766.386565,-2298.286494,-0.000000
1239.416854,-13545.768739,842.705048,296.082377
1239.417165,-10436.903782,2604.724693,-0.000000
1239.417477,-6883.915261,3907.087040,518.144159
1239.417788,-3849.070898,3907.087040,1332.370696
1239.418100,-1702.473667,2757.943793,2368.659014
1239.418411,-1036.288319,383.047749,1924.535449
1239.418723,-3849.070898,-306.438199,1406.391290
1239.419034,-7920.203579,-1378.971896,296.082377
1239.419346,-12065.356855,-1915.238745,-0.000000
1239.419657,-15174.221811,-1608.800546,-0.000000
1239.419969,-16580.613101,-1991.848295,296.082377
1239.420280,-15100.201217,-2528.115143,-0.000000
1239.420592,-13545.768739,-1838.629195,-0.000000
1239.420903,-9918.759623,842.705048,-0.000000
1239.421215,-7105.977043,2451.505594,-0.000000
1239.421526,-4663.297435,2834.553343,888.247130
1239.421838,-2442.679609,3140.991542,2072.576638
1239.422149,-2146.597232,1991.848295,2812.782580
1239.422461,-2368.659014,0.000000,2146.597232
1239.422772,-3330.926739,-1455.581446,1258.350101
1239.423083,-6587.832884,-1838.629195,-0.000000
1239.423395,-10140.821405,-2068.457845,-148.041188
1239.423706,-13619.789333,-3294.210641,-222.061783
1239.424018,-15692.365970,-3217.601092,148.041188
1239.424329,-15840.407159,-2451.505594,370.102971
1239.424641,-14508.036463,-459.657299,148.041188
1239.424952,-12287.418637,2068.457845,-0.000000
1239.425264,-9104.533087,3907.087040,-0.000000
1239.425575,-5699.585753,4443.353888,444.123565
1239.425887,-3182.885551,4366.744339,814.226536
1239.426198,-1110.308913,2681.334243,2590.720797
1239.426510,-1776.494261,0.000000,1998.556043
1239.426821,-5255.462188,-2451.505594,1406.391290
1239.427133,-8882.471304,-3140.991542,518.144159
1239.427444,-12879.583391,-2757.943793,-296.082377
1239.427756,-15396.283594,-3217.601092,-296.082377
1239.428067,-16210.510130,-3064.381992,-148.041188
1239.428379,-15174.221811,-3830.477490,-740.205942
1239.428690,-12953.603985,-2374.896044,-444.123565
1239.429002,-11621.233289,153.219100,-370.102971
1239.429313,-8956.491898,2145.067394,-0.000000
1239.429625,-5625.565159,3370.820191,888.247130
1239.429936,-2220.617826,2987.772442,2146.597232
1239.430248,0.000000,1991.848295,2516.700203
1239.430559,-592.164754,-842.705048,1480.411884
1239.430871,-3182.885551,-1838.629195,370.102971
1239.431182,-7772.162391,-1608.800546,-1036.288319
1239.431493,-11917.315666,-995.924147,-740.205942
1239.431805,-15766.386565,-1532.190996,-888.247130
1239.432116,-16802.674883,-2451.505594,296.082377
1239.432428,-15692.365970,-2528.115143,148.041188
1239.432739,-14211.954086,-1072.533697,222.061783
1239.433051,-12509.480420,2374.896044,-1110.308913
1239.433362,-8660.409521,3370.820191,-740.205942
1239.433674,-5847.626942,4213.525239,-0.000000
1239.433985,-2368.659014,3294.210641,1776.494261
1239.434297,-518.144159,1685.410096,2812.782580
1239.434608,-1850.514855,-383.047749,2442.679609
1239.434920,-5551.544565,-1991.848295,2590.720797
1239.435231,-9622.677246,-2451.505594,1110.308913
1239.435543,-13767.830521,-1532.190996,296.082377
1239.435854,-16432.571912,-919.314598,296.082377
1239.436166,-16506.592507,-1838.629195,-74.020594
1239.436477,-14508.036463,-1455.581446,-962.267725
1239.436789,-12139.377449,0.000000,-1110.308913
1239.437100,-9252.574275,2145.067394,-888.247130
1239.437412,-6291.750507,2604.724693,-222.061783
1239.437723,-3034.844362,3064.381992,1110.308913
1239.438035,-1702.473667,1762.019645,3182.885551
1239.438346,-1110.308913,-612.876398,3849.070898
1239.438658,-1776.494261,-1991.848295,2960.823768
1239.438969,-4959.379811,-2681.334243,1702.473667
1239.439280,-9178.553681,-2451.505594,-222.061783
1239.439592,-13323.706956,-1762.019645,-888.247130
1239.439903,-16062.468941,-1838.629195,-740.205942
1239.440215,-15470.304188,-2298.286494,-74.020594
1239.440526,-15322.262999,-1302.362347,-518.144159
1239.440838,-13619.789333,-229.828649,-0.000000
1239.441149,-10807.006753,2374.896044,-0.000000
1239.441461,-7179.997637,3677.258390,814.226536
1239.441772,-3997.112087,4060.306139,1406.391290
1239.442084,-1554.432478,3294.210641,2220.617826
1239.442395,-1702.473667,1302.362347,1406.391290
1239.442707,-3330.926739,-919.314598,1924.535449
1239.443018,-6513.812290,-2374.896044,148.041188
1239.443330,-10584.944971,-2374.896044,-444.123565
1239.443641,-14434.015869,-2451.505594,-370.102971
1239.443953,-16950.716072,-2757.943793,-296.082377
1239.444264,-16210.510130,-3064.381992,-74.020594
1239.444576,-14359.995275,-1532.190996,-814.226536
1239.444887,-12213.398043,0.000000,-814.226536
1239.445199,-10214.842000,1915.238745,-1036.288319
1239.445510,-6735.874072,3524.039291,444.123565
1239.445822,-3108.864956,3447.429741,1036.288319
1239.446133,-1036.288319,2145.067394,2960.823768
1239.446445,-814.226536,-383.047749,2220.617826
1239.446756,-2960.823768,-1838.629195,1554.432478
1239.447067,-6069.688724,-2298.286494,-370.102971
1239.447379,-10584.944971,-1915.238745,-1332.370696
1239.447690,-14359.995275,-995.924147,-1258.350101
1239.448002,-16728.654289,-1915.238745,-518.144159
1239.448313,-16580.613101,-2374.896044,296.082377
1239.448625,-14804.118840,-1608.800546,370.102971
1239.448936,-12953.603985,689.485948,222.061783
1239.449248,-9474.636058,2987.772442,-0.000000
1239.449559,-5477.523971,4519.963438,148.041188
1239.449871,-2368.659014,4673.182538,666.185348
1239.450182,-222.061783,2987.772442,2294.638420
1239.450494,-444.123565,919.314598,1406.391290
1239.450805,-3997.112087,-1225.752797,1480.411884
1239.451117,-9030.512492,-1608.800546,666.185348
1239.451428,-13619.789333,-1915.238745,296.082377
1239.451740,-16284.530724,-1532.190996,-0.000000
1239.452051,-17172.777854,-1915.238745,1110.308913
1239.452363,-14804.118840,-2374.896044,518.144159
1239.452674,-12805.562797,-1225.752797,-888.247130
1239.452986,-9918.759623,1302.362347,-740.205942
1239.453297,-6735.874072,2911.162892,-296.082377
1239.453609,-3997.112087,3907.087040,740.205942
1239.453920,-1924.535449,3140.991542,2368.659014
1239.454232,-1850.514855,689.485948,2738.761985
1239.454543,-1554.432478,-1149.143247,2516.700203
1239.454855,-3997.112087,-2068.457845,1850.514855
1239.455166,-7994.224174,-2451.505594,-296.082377
1239.455477,-11917.315666,-2451.505594,-518.144159
1239.455789,-15100.201217,-2757.943793,-370.102971
1239.456100,-16284.530724,-2911.162892,-0.000000
1239.456412,-15396.283594,-1532.190996,222.061783
1239.456723,-13915.871710,76.609550,-0.000000
1239.457035,-11991.336260,2068.457845,-222.061783
1239.457346,-7994.224174,3447.429741,-370.102971
1239.457658,-4737.318029,4519.963438,222.061783
