#time,accel_x,accel_y,accel_z
1447.910446,-8734.430116,0.000000,296.082377
1447.910757,-8808.450710,-153.219100,222.061783
1447.911069,-8808.450710,0.000000,222.061783
1447.911380,-8660.409521,0.000000,296.082377
1447.911692,-8956.491898,-229.828649,518.144159
1447.912003,-8956.491898,-76.609550,666.185348
1447.912315,-8882.471304,-153.219100,592.164754
1447.912626,-8734.430116,0.000000,444.123565
1447.912938,-8808.450710,383.047749,592.164754
1447.913249,-8734.430116,76.609550,666.185348
1447.913561,-9178.553681,229.828649,148.041188
1447.913872,-8882.471304,0.000000,296.082377
1447.914184,-9030.512492,153.219100,592.164754
1447.914495,-9030.512492,-153.219100,740.205942
1447.914807,-9030.512492,0.000000,444.123565
1447.915118,-8956.491898,0.000000,592.164754
1447.915430,-8734.430116,-612.876398,666.185348
1447.915741,-8882.471304,-459.657299,148.041188
1447.916053,-8734.430116,0.000000,518.144159
1447.916364,-8808.450710,0.000000,666.185348
1447.916676,-8882.471304,-153.219100,518.144159
1447.916987,-9104.533087,-153.219100,444.123565
1447.917298,-8882.471304,-306.438199,592.164754
1447.917610,-8882.471304,153.219100,740.205942
1447.917921,-8364.327145,153.219100,518.144159
1447.918233,-8660.409521,0.000000,296.082377
1447.918544,-9030.512492,0.000000,444.123565
1447.918856,-9252.574275,0.000000,370.102971
1447.919167,-9030.512492,0.000000,666.185348
1447.919479,-9178.553681,0.000000,740.205942
1447.919790,-8956.491898,0.000000,518.144159
1447.920102,-8734.430116,-229.828649,296.082377
1447.920413,-8438.347739,-383.047749,296.082377
1447.920725,-8956.491898,0.000000,296.082377
1447.921036,-9030.512492,306.438199,592.164754
1447.921348,-9104.533087,0.000000,592.164754
1447.921659,-9030.512492,0.000000,444.123565
1447.921971,-8956.491898,-229.828649,518.144159
1447.922282,-9030.512492,0.000000,444.123565
1447.922594,-9030.512492,-536.266849,370.102971
1447.922905,-8512.368333,-229.828649,814.226536
1447.923217,-8734.430116,-306.438199,370.102971
1447.923528,-9178.553681,0.000000,444.123565
1447.923840,-8882.471304,0.000000,592.164754
1447.924151,-9104.533087,0.000000,444.123565
1447.924463,-8882.471304,76.609550,592.164754
1447.924774,-8956.491898,0.000000,370.102971
1447.925086,-8512.368333,153.219100,666.185348
1447.925397,-8956.491898,-229.828649,444.123565
1447.925709,-8956.491898,0.000000,222.061783
1447.926020,-8956.491898,0.000000,370.102971
1447.926332,-8956.491898,0.000000,444.123565
1447.926643,-9104.533087,0.000000,444.123565
1447.926955,-8956.491898,0.000000,592.164754
1447.927266,-9104.533087,153.219100,296.082377
1447.927578,-8660.409521,-153.219100,740.205942
1447.927889,-9104.533087,-229.828649,370.102971
1447.928201,-8882.471304,536.266849,296.082377
1447.928512,-9030.512492,0.000000,592.164754
1447.928824,-8882.471304,0.000000,592.164754
1447.929135,-9030.512492,-153.219100,592.164754
1447.929447,-9104.533087,0.000000,518.144159
1447.929758,-8364.327145,0.000000,370.102971
1447.930069,-8734.430116,-229.828649,296.082377
1447.930381,-8808.450710,153.219100,296.082377
1447.930692,-8882.471304,-383.047749,296.082377
1447.931004,-9030.512492,-153.219100,444.123565
1447.931315,-8956.491898,0.000000,592.164754
1447.931627,-8956.491898,-153.219100,592.164754
1447.931938,-8808.450710,76.609550,444.123565
1447.932250,-8808.450710,306.438199,444.123565
1447.932561,-9400.615463,0.000000,370.102971
1447.932873,-8734.430116,536.266849,962.267725
1447.933184,-8808.450710,0.000000,444.123565
1447.933496,-8956.491898,0.000000,444.123565
1447.933807,-8956.491898,0.000000,444.123565
1447.934119,-8956.491898,-153.219100,592.164754
1447.934430,-9030.512492,153.219100,518.144159
1447.934742,-8734.430116,-306.438199,592.164754
1447.935053,-8290.306550,459.657299,1110.308913
1447.935365,-8660.409521,76.609550,444.123565
1447.935676,-8734.430116,0.000000,518.144159
1447.935988,-8882.471304,-229.828649,592.164754
1447.936299,-9030.512492,-153.219100,592.164754
1447.936611,-8808.450710,0.000000,740.205942
1447.936922,-8290.306550,-612.876398,518.144159
1447.937234,-8586.388927,0.000000,296.082377
1447.937545,-9030.512492,459.657299,-0.000000
1447.937857,-8438.347739,153.219100,518.144159
1447.938168,-9104.533087,153.219100,518.144159
1447.938480,-8956.491898,-229.828649,518.144159
1447.938791,-9030.512492,0.000000,444.123565
1447.939103,-8882.471304,0.000000,592.164754
1447.939414,-8660.409521,0.000000,148.041188
1447.939726,-8956.491898,689.485948,370.102971
1447.940037,-9178.553681,-306.438199,370.102971
1447.940349,-8882.471304,-383.047749,592.164754
1447.940660,-9030.512492,0.000000,666.185348
1447.940972,-9030.512492,0.000000,518.144159
1447.941283,-8734.430116,0.000000,740.205942
1447.941595,-8956.491898,0.000000,518.144159
1447.941906,-8882.471304,153.219100,592.164754
1447.942218,-8734.430116,76.609550,444.123565
1447.942529,-9104.533087,-306.438199,296.082377
1447.942841,-8808.450710,0.000000,444.123565
1447.943152,-9178.553681,0.000000,518.144159
1447.943463,-9030.512492,0.000000,592.164754
1447.943775,-9326.594869,0.000000,592.164754
1447.944086,-8882.471304,153.219100,518.144159
1447.944398,-9030.512492,536.266849,666.185348
1447.944709,-8660.409521,383.047749,296.082377
1447.945021,-8808.450710,-153.219100,444.123565
1447.945332,-8882.471304,-153.219100,592.164754
1447.945644,-8882.471304,0.000000,592.164754
1447.945955,-8956.491898,-229.828649,518.144159
1447.946267,-8882.471304,-229.828649,666.185348
1447.946578,-8808.450710,0.000000,444.123565
1447.946890,-8438.347739,0.000000,296.082377
1447.947201,-8734.430116,0.000000,370.102971
1447.947513,-8882.471304,0.000000,148.041188
1447.947824,-9030.512492,0.000000,296.082377
1447.948136,-9178.553681,0.000000,518.144159
1447.948447,-9030.512492,0.000000,592.164754
1447.948759,-8882.471304,76.609550,518.144159
1447.949070,-8438.347739,-229.828649,222.061783
1447.949382,-9030.512492,153.219100,-0.000000
1447.949693,-9252.574275,153.219100,370.102971
1447.950005,-11103.089130,383.047749,74.020594
1447.950316,-11399.171507,2757.943793,370.102971
1447.950628,-8734.430116,4903.011187,888.247130
1447.950939,-7476.080014,3830.477490,814.226536
1447.951251,-6587.832884,1149.143247,1480.411884
1447.951562,-6809.894666,-1455.581446,-0.000000
1447.951874,-7476.080014,-1302.362347,-74.020594
1447.952185,-7476.080014,-459.657299,-222.061783
1447.952497,-11769.274478,-995.924147,-1184.329507
1447.952808,-12805.562797,-153.219100,-444.123565
1447.953120,-10214.842000,612.876398,518.144159
1447.953431,-8882.471304,-153.219100,1554.432478
1447.953743,-8660.409521,-689.485948,2812.782580
1447.954054,-12731.542202,536.266849,1110.308913
1447.954366,-8142.265362,4749.792088,2738.761985
1447.954677,-5181.441594,5745.716235,1702.473667
1447.954989,-7402.059420,3370.820191,1184.329507
1447.955300,-7846.182985,2451.505594,-518.144159
1447.955612,-7254.018232,3140.991542,-2220.617826
1447.955923,-8660.409521,3447.429741,-1480.411884
1447.956234,-8956.491898,3907.087040,-444.123565
1447.956546,-12509.480420,1838.629195,-1776.494261
1447.956857,-13471.748144,-689.485948,888.247130
1447.957169,-8364.327145,-1608.800546,2812.782580
1447.957480,-10066.800811,306.438199,888.247130
1447.957792,-8660.409521,5286.058936,2738.761985
1447.958103,-7698.141797,5286.058936,1480.411884
1447.958415,-7550.100608,2681.334243,1998.556043
1447.958726,-6069.688724,4213.525239,2368.659014
1447.959038,-7994.224174,6894.859482,296.082377
1447.959349,-8734.430116,7277.907231,-888.247130
1447.959661,-8882.471304,5209.449386,-1036.288319
1447.959972,-9400.615463,4826.401637,-1258.350101
1447.960284,-10362.883188,5669.106685,-1110.308913
1447.960595,-11621.233289,5515.887586,-0.000000
1447.960907,-10955.047942,4903.011187,1480.411884
1447.961218,-10362.883188,3830.477490,1332.370696
1447.961530,-9178.553681,5209.449386,2590.720797
1447.961841,-7105.977043,5209.449386,1332.370696
1447.962153,-5921.647536,5592.497135,-0.000000
1447.962464,-5625.565159,5209.449386,518.144159
1447.962776,-5551.544565,5286.058936,-0.000000
1447.963087,-6513.812290,4673.182538,-1258.350101
1447.963399,-7476.080014,4443.353888,-740.205942
1447.963710,-8956.491898,3140.991542,-814.226536
1447.964022,-10658.965565,2528.115143,296.082377
1447.964333,-10658.965565,306.438199,1036.288319
1447.964645,-11473.192101,0.000000,1850.514855
1447.964956,-11251.130318,842.705048,2072.576638
1447.965268,-9474.636058,2528.115143,2664.741391
1447.965579,-8364.327145,3447.429741,1702.473667
1447.965891,-6217.729913,3140.991542,370.102971
1447.966202,-5847.626942,3447.429741,-370.102971
1447.966514,-6291.750507,3600.648841,-1184.329507
1447.966825,-6735.874072,4290.134789,-1776.494261
1447.967137,-7698.141797,2221.676944,-1406.391290
1447.967448,-9400.615463,-995.924147,-370.102971
1447.967760,-10881.027347,-2068.457845,296.082377
1447.968071,-12287.418637,-2298.286494,1332.370696
1447.968383,-12731.542202,-1991.848295,2072.576638
1447.968694,-13323.706956,-766.095498,1332.370696
1447.969005,-12213.398043,919.314598,962.267725
1447.969317,-10436.903782,2374.896044,-148.041188
1447.969628,-8216.285956,4366.744339,-370.102971
1447.969940,-6513.812290,4519.963438,-0.000000
1447.970251,-6661.853478,4290.134789,592.164754
1447.970563,-7105.977043,3830.477490,962.267725
1447.970874,-8660.409521,2528.115143,-0.000000
1447.971186,-10658.965565,2068.457845,-0.000000
1447.971497,-11177.109724,842.705048,222.061783
1447.971809,-12657.521608,-229.828649,-370.102971
1447.972120,-13767.830521,-995.924147,-148.041188
1447.972432,-12953.603985,919.314598,444.123565
1447.972743,-11843.295072,2451.505594,592.164754
1447.973055,-10140.821405,3753.867940,1850.514855
1447.973366,-7105.977043,4213.525239,2072.576638
1447.973678,-4663.297435,4979.620737,1480.411884
1447.973989,-2664.741391,6128.763984,-0.000000
1447.974301,-1332.370696,6205.373534,-444.123565
1447.974612,-3182.885551,4519.963438,-1850.514855
1447.974924,-7105.977043,3524.039291,-1554.432478
1447.975235,-10807.006753,3217.601092,-1110.308913
1447.975547,-14211.954086,3677.258390,296.082377
1447.975858,-15618.345376,3677.258390,2220.617826
1447.976170,-14508.036463,2681.334243,3256.906145
1447.976481,-11473.192101,2911.162892,3256.906145
1447.976793,-7105.977043,3217.601092,3034.844362
1447.977104,-3849.070898,4136.915689,1554.432478
1447.977416,-2368.659014,5745.716235,-296.082377
1447.977727,-2294.638420,7431.126331,-1702.473667
1447.978039,-3627.009116,7507.735880,-2886.803174
1447.978350,-6661.853478,5592.497135,-2664.741391
1447.978662,-8586.388927,3294.210641,-444.123565
1447.978973,-9770.718434,1225.752797,-0.000000
1447.979285,-11547.212695,-1991.848295,1480.411884
1447.979596,-12361.439231,-3830.477490,1924.535449
1447.979908,-13545.768739,-2374.896044,1628.453072
1447.980219,-13619.789333,766.095498,1036.288319
1447.980531,-11843.295072,2911.162892,1480.411884
1447.980842,-10881.027347,4443.353888,1776.494261
1447.981154,-8956.491898,4903.011187,2072.576638
1447.981465,-6587.832884,4903.011187,2072.576638
1447.981776,-6069.688724,3600.648841,296.082377
1447.982088,-6069.688724,3294.210641,-222.061783
1447.982399,-7254.018232,3447.429741,-2220.617826
1447.982711,-8808.450710,3600.648841,-2664.741391
1447.983022,-10140.821405,3447.429741,-3108.864956
1447.983334,-11917.315666,2451.505594,-740.205942
1447.983645,-12139.377449,1685.410096,444.123565
1447.983957,-11991.336260,766.095498,2146.597232
1447.984268,-13693.809927,766.095498,2368.659014
1447.984580,-12583.501014,2757.943793,2516.700203
1447.984891,-9918.759623,6511.811733,1628.453072
1447.985203,-7994.224174,7354.516781,962.267725
1447.985514,-5329.482782,6205.373534,-444.123565
1447.985826,-4959.379811,4673.182538,-1628.453072
1447.986137,-6587.832884,2451.505594,-1184.329507
1447.986449,-8068.244768,2681.334243,-222.061783
1447.986760,-9104.533087,2221.676944,-444.123565
1447.987072,-9918.759623,1149.143247,222.061783
1447.987383,-8808.450710,-1455.581446,1998.556043
1447.987695,-7846.182985,-3677.258390,1554.432478
1447.988006,-7920.203579,-689.485948,1702.473667
1447.988318,-9326.594869,3447.429741,370.102971
1447.988629,-10066.800811,6435.202183,-222.061783
1447.988941,-10066.800811,9193.145976,592.164754
1447.989252,-9696.697840,8197.221829,1406.391290
1447.989564,-7402.059420,4979.620737,1776.494261
1447.989875,-7624.121203,2528.115143,1702.473667
1447.990187,-8216.285956,2911.162892,1110.308913
1447.990498,-5847.626942,5132.839837,444.123565
1447.990810,-5921.647536,3907.087040,222.061783
1447.991121,-5329.482782,919.314598,888.247130
1447.991433,-5921.647536,-1149.143247,-370.102971
1447.991744,-8660.409521,459.657299,-1406.391290
1447.992056,-10658.965565,5822.325785,-740.205942
1447.992367,-11991.336260,8044.002729,-148.041188
1447.992679,-13545.768739,6894.859482,1554.432478
1447.992990,-13989.892304,2451.505594,3256.906145
1447.993302,-12953.603985,842.705048,3404.947333
1447.993613,-10214.842000,2987.772442,2664.741391
1447.993924,-7105.977043,4749.792088,1628.453072
1447.994236,-4219.173869,2068.457845,592.164754
1447.994547,-3552.988522,-4060.306139,444.123565
1447.994859,-4293.194464,-6818.249932,222.061783
1447.995170,-4959.379811,-3524.039291,-592.164754
1447.995482,-7624.121203,2681.334243,-1998.556043
1447.995793,-11695.253884,5209.449386,-740.205942
1447.996105,-14211.954086,4060.306139,-74.020594
1447.996416,-17542.880825,2068.457845,1480.411884
1447.996728,-16210.510130,4136.915689,3701.029710
1447.997039,-12065.356855,6894.859482,3034.844362
1447.997351,-7698.141797,5592.497135,2294.638420
1447.997662,-4441.235652,1225.752797,814.226536
1447.997974,-1776.494261,-1225.752797,-592.164754
1447.998285,0.000000,76.609550,-2072.576638
1447.998597,-1850.514855,3217.601092,-1702.473667
1447.998908,-8142.265362,4366.744339,-1110.308913
1447.999220,-14063.912898,1991.848295,-296.082377
1447.999531,-17172.777854,2374.896044,444.123565
1447.999843,-15322.262999,4826.401637,888.247130
1448.000154,-12583.501014,5975.544884,296.082377
1448.000466,-11547.212695,3217.601092,-1110.308913
1448.000777,-9252.574275,1685.410096,-2072.576638
1448.001089,-4811.338623,2681.334243,-2368.659014
1448.001400,-3256.906145,3907.087040,-0.000000
1448.001711,-5033.400406,2221.676944,1776.494261
1448.002023,-9104.533087,-1762.019645,3404.947333
1448.002334,-10881.027347,-3064.381992,3775.050304
1448.002646,-10881.027347,612.876398,3256.906145
1448.002957,-10881.027347,6205.373534,-0.000000
1448.003269,-11103.089130,8350.440928,-2368.659014
1448.003580,-9548.656652,5822.325785,-4737.318029
1448.003892,-6809.894666,4826.401637,-3997.112087
1448.004203,-7476.080014,7124.688131,-2664.741391
1448.004515,-12361.439231,8503.660028,-518.144159
1448.004826,-14211.954086,6894.859482,2072.576638
1448.005138,-11917.315666,1762.019645,4663.297435
1448.005449,-7772.162391,-1915.238745,5107.421000
1448.005761,-4737.318029,-1608.800546,3034.844362
1448.006072,-4589.276840,-306.438199,-518.144159
1448.006384,-1184.329507,0.000000,-1258.350101
1448.006695,-444.123565,1608.800546,-1924.535449
1448.007007,-7550.100608,1915.238745,-222.061783
1448.007318,-14063.912898,1072.533697,740.205942
1448.007630,-16210.510130,1455.581446,2664.741391
1448.007941,-13915.871710,1302.362347,5107.421000
1448.008253,-11251.130318,383.047749,3182.885551
1448.008564,-8364.327145,0.000000,666.185348
1448.008875,-4071.132681,-612.876398,-1406.391290
1448.009187,-1998.556043,-2757.943793,-370.102971
1448.009498,-2960.823768,-3294.210641,1184.329507
1448.009810,-7772.162391,-2145.067394,2368.659014
1448.010121,-11621.233289,-2987.772442,3256.906145
1448.010433,-11695.253884,-3983.696590,3701.029710
1448.010744,-10140.821405,-4213.525239,3923.091493
1448.011056,-8142.265362,-2451.505594,-74.020594
1448.011367,-6439.791695,-1608.800546,-2442.679609
1448.011679,-7105.977043,-1378.971896,-3701.029710
1448.011990,-10140.821405,0.000000,-2664.741391
1448.012302,-12509.480420,1378.971896,296.082377
1448.012613,-13841.851115,-689.485948,1776.494261
1448.012925,-13397.727550,-2987.772442,3701.029710
1448.013236,-12435.459826,-1685.410096,3330.926739
1448.013548,-9474.636058,1302.362347,814.226536
1448.013859,-5181.441594,2681.334243,-1776.494261
1448.014171,-3997.112087,2451.505594,-2146.597232
1448.014482,-6587.832884,2451.505594,-2072.576638
1448.014794,-10140.821405,3830.477490,-1258.350101
1448.015105,-14137.933492,3064.381992,-1628.453072
1448.015417,-15174.221811,2528.115143,-1480.411884
1448.015728,-14211.954086,2911.162892,-1628.453072
1448.016040,-11547.212695,3140.991542,-1554.432478
1448.016351,-8512.368333,229.828649,-1628.453072
1448.016662,-7772.162391,-2987.772442,148.041188
1448.016974,-8660.409521,-3294.210641,2738.761985
1448.017285,-9474.636058,-842.705048,4219.173869
1448.017597,-9474.636058,76.609550,3627.009116
1448.017908,-8216.285956,536.266849,1998.556043
1448.018220,-5403.503377,1915.238745,-518.144159
1448.018531,-3182.885551,4826.401637,-3552.988522
1448.018843,-3404.947333,5515.887586,-4293.194464
1448.019154,-6809.894666,2987.772442,-3256.906145
1448.019466,-10436.903782,766.095498,-444.123565
1448.019777,-11917.315666,-459.657299,2590.720797
1448.020089,-13323.706956,-1838.629195,4293.194464
1448.020400,-10807.006753,-3907.087040,4515.256246
1448.020712,-7328.038826,-3600.648841,2442.679609
1448.021023,-4071.132681,-1915.238745,1332.370696
1448.021335,-2442.679609,-689.485948,814.226536
1448.021646,-4293.194464,-842.705048,370.102971
1448.021958,-6143.709319,-459.657299,1554.432478
1448.022269,-6735.874072,536.266849,2294.638420
1448.022581,-7105.977043,-306.438199,1554.432478
1448.022892,-6883.915261,-1225.752797,666.185348
1448.023204,-7105.977043,-1608.800546,-370.102971
1448.023515,-7772.162391,-1149.143247,-962.267725
1448.023827,-10658.965565,-1149.143247,-74.020594
1448.024138,-13323.706956,-842.705048,1776.494261
1448.024449,-15470.304188,-1838.629195,3552.988522
1448.024761,-15544.324782,-3217.601092,4071.132681
1448.025072,-12805.562797,-2757.943793,2812.782580
1448.025384,-8586.388927,-1455.581446,370.102971
1448.025695,-4663.297435,536.266849,-1036.288319
1448.026007,-3108.864956,689.485948,-1924.535449
1448.026318,-5773.606348,-1072.533697,-1998.556043
1448.026630,-9326.594869,-1302.362347,-814.226536
1448.026941,-12583.501014,153.219100,-0.000000
1448.027253,-14878.139434,1149.143247,888.247130
1448.027564,-15174.221811,383.047749,518.144159
1448.027876,-12953.603985,-1302.362347,296.082377
1448.028187,-10066.800811,-919.314598,296.082377
1448.028499,-9104.533087,383.047749,592.164754
1448.028810,-10066.800811,2374.896044,592.164754
1448.029122,-10732.986159,3217.601092,1184.329507
1448.029433,-11473.192101,1915.238745,1628.453072
1448.029745,-10214.842000,2374.896044,740.205942
1448.030056,-8734.430116,3677.258390,-2294.638420
1448.030368,-5921.647536,5132.839837,-2886.803174
1448.030679,-3330.926739,4443.353888,-2960.823768
1448.030991,-4071.132681,766.095498,-2072.576638
1448.031302,-7476.080014,-1532.190996,296.082377
1448.031614,-10510.924376,-1838.629195,2146.597232
1448.031925,-10881.027347,229.828649,4737.318029
1448.032236,-10807.006753,-153.219100,4441.235652
1448.032548,-8068.244768,76.609550,2812.782580
1448.032859,-3701.029710,766.095498,-74.020594
1448.033171,-1850.514855,1378.971896,-2146.597232
1448.033482,-2072.576638,1378.971896,-1110.308913
1448.033794,-5181.441594,1225.752797,-1110.308913
1448.034105,-9252.574275,-766.095498,-74.020594
1448.034417,-11399.171507,-1838.629195,1924.535449
1448.034728,-10436.903782,-3677.258390,1628.453072
1448.035040,-9400.615463,-3294.210641,962.267725
1448.035351,-7254.018232,-3753.867940,888.247130
1448.035663,-6735.874072,-4903.011187,296.082377
1448.035974,-8512.368333,-4596.572988,1776.494261
1448.036286,-10658.965565,-2451.505594,2146.597232
1448.036597,-11695.253884,-842.705048,2886.803174
1448.036909,-11547.212695,-1762.019645,2516.700203
1448.037220,-9622.677246,-1149.143247,1110.308913
1448.037532,-7105.977043,459.657299,-1110.308913
1448.037843,-6439.791695,2298.286494,-3182.885551
1448.038155,-6513.812290,2604.724693,-2368.659014
1448.038466,-8882.471304,842.705048,-1554.432478
1448.038778,-12361.439231,-842.705048,222.061783
1448.039089,-13841.851115,-1532.190996,1554.432478
1448.039401,-14804.118840,-459.657299,1480.411884
1448.039712,-13767.830521,76.609550,1480.411884
1448.040023,-11621.233289,306.438199,-0.000000
1448.040335,-9770.718434,153.219100,-444.123565
1448.040646,-9770.718434,0.000000,-1110.308913
1448.040958,-10066.800811,1225.752797,-222.061783
1448.041269,-11473.192101,2451.505594,-296.082377
1448.041581,-11917.315666,1838.629195,1406.391290
1448.041892,-10140.821405,995.924147,1036.288319
1448.042204,-9400.615463,-153.219100,-0.000000
1448.042515,-6217.729913,1455.581446,-0.000000
1448.042827,-4663.297435,612.876398,-0.000000
1448.043138,-6291.750507,-612.876398,888.247130
1448.043450,-8068.244768,-612.876398,1628.453072
1448.043761,-10955.047942,153.219100,2368.659014
1448.044073,-11843.295072,995.924147,2590.720797
1448.044384,-10658.965565,2068.457845,1258.350101
1448.044696,-7846.182985,2374.896044,-444.123565
1448.045007,-5329.482782,1608.800546,-1998.556043
1448.045319,-3256.906145,1072.533697,-1628.453072
1448.045630,-2368.659014,766.095498,-370.102971
1448.045942,-5847.626942,383.047749,1480.411884
1448.046253,-7772.162391,-2068.457845,4367.215058
1448.046565,-6735.874072,-3983.696590,4663.297435
1448.046876,-7698.141797,-3524.039291,3627.009116
1448.047188,-5403.503377,-689.485948,1850.514855
1448.047499,-3923.091493,0.000000,-518.144159
1448.047810,-4145.153275,-1149.143247,-1036.288319
1448.048122,-6809.894666,-1072.533697,-296.082377
1448.048433,-9992.780217,-306.438199,-0.000000
1448.048745,-12139.377449,-766.095498,296.082377
1448.049056,-13841.851115,-995.924147,1184.329507
1448.049368,-11843.295072,-842.705048,-0.000000
1448.049679,-9474.636058,1072.533697,-1628.453072
1448.049991,-8882.471304,1225.752797,-1554.432478
1448.050302,-8290.306550,612.876398,-296.082377
1448.050614,-9326.594869,689.485948,1110.308913
1448.050925,-10510.924376,0.000000,2886.803174
1448.051237,-10881.027347,-995.924147,2886.803174
1448.051548,-12065.356855,-3064.381992,1480.411884
1448.051860,-11399.171507,0.000000,-74.020594
1448.052171,-9326.594869,2451.505594,-2738.761985
1448.052483,-8956.491898,1685.410096,-3552.988522
1448.052794,-11843.295072,-153.219100,-2442.679609
1448.053106,-14063.912898,0.000000,-1702.473667
1448.053417,-14508.036463,-842.705048,814.226536
1448.053729,-14137.933492,-1838.629195,2442.679609
1448.054040,-13323.706956,-1991.848295,2442.679609
1448.054352,-11103.089130,-995.924147,1110.308913
1448.054663,-6661.853478,689.485948,1036.288319
1448.054975,-6143.709319,1149.143247,148.041188
1448.055286,-7476.080014,2068.457845,592.164754
1448.055597,-8364.327145,2757.943793,1554.432478
1448.055909,-8956.491898,1072.533697,2072.576638
1448.056220,-8734.430116,-306.438199,1776.494261
1448.056532,-7920.203579,-612.876398,814.226536
1448.056843,-4737.318029,459.657299,-740.205942
1448.057155,-2886.803174,459.657299,-1628.453072
1448.057466,-3923.091493,-536.266849,-1036.288319
1448.057778,-6513.812290,-383.047749,518.144159
1448.058089,-9252.574275,0.000000,2220.617826
1448.058401,-9622.677246,-919.314598,3923.091493
1448.058712,-10214.842000,-2221.676944,3404.947333
1448.059024,-8438.347739,-2068.457845,3034.844362
1448.059335,-5107.421000,-612.876398,888.247130
1448.059647,-3849.070898,-229.828649,-222.061783
1448.059958,-4515.256246,-229.828649,-296.082377
1448.060270,-6735.874072,153.219100,-0.000000
1448.060581,-9178.553681,536.266849,888.247130
1448.060893,-10658.965565,-1225.752797,1480.411884
1448.061204,-10066.800811,-1455.581446,1184.329507
1448.061516,-9252.574275,-459.657299,-370.102971
1448.061827,-6957.935855,842.705048,-1554.432478
1448.062139,-6883.915261,1225.752797,-1406.391290
1448.062450,-9178.553681,1072.533697,-592.164754
1448.062762,-11103.089130,1302.362347,666.185348
1448.063073,-13101.645173,1149.143247,1628.453072
1448.063384,-13767.830521,536.266849,1258.350101
1448.063696,-12879.583391,306.438199,-74.020594
1448.064007,-10362.883188,1225.752797,-1554.432478
1448.064319,-7846.182985,1762.019645,-2442.679609
1448.064630,-8364.327145,1225.752797,-2664.741391
1448.064942,-11103.089130,689.485948,-888.247130
1448.065253,-13175.665768,995.924147,888.247130
1448.065565,-13693.809927,612.876398,2368.659014
1448.065876,-13471.748144,0.000000,2812.782580
1448.066188,-11769.274478,-612.876398,2294.638420
1448.066499,-8660.409521,919.314598,222.061783
1448.066811,-6069.688724,1532.190996,-962.267725
1448.067122,-5995.668130,1378.971896,-1036.288319
1448.067434,-8068.244768,766.095498,-740.205942
1448.067745,-10214.842000,1302.362347,962.267725
1448.068057,-11029.068536,-153.219100,2146.597232
1448.068368,-9992.780217,-1915.238745,2294.638420
1448.068680,-8660.409521,-3217.601092,1554.432478
1448.068991,-5403.503377,-2068.457845,592.164754
1448.069303,-3849.070898,-842.705048,-518.144159
1448.069614,-4959.379811,-842.705048,-74.020594
1448.069926,-6587.832884,-766.095498,1850.514855
1448.070237,-8142.265362,-1762.019645,2960.823768
1448.070549,-8364.327145,-2451.505594,3552.988522
1448.070860,-7994.224174,-2757.943793,2886.803174
1448.071171,-6217.729913,-2068.457845,1628.453072
1448.071483,-3923.091493,-766.095498,148.041188
1448.071794,-4071.132681,-1532.190996,296.082377
1448.072106,-5625.565159,-2604.724693,222.061783
1448.072417,-8512.368333,-766.095498,518.144159
1448.072729,-10807.006753,612.876398,1628.453072
1448.073040,-11029.068536,919.314598,1332.370696
1448.073352,-10362.883188,383.047749,962.267725
1448.073663,-9326.594869,0.000000,-296.082377
1448.073975,-7920.203579,995.924147,-1480.411884
1448.074286,-7994.224174,1915.238745,-1628.453072
1448.074598,-9844.739029,1762.019645,-518.144159
1448.074909,-11547.212695,536.266849,1110.308913
1448.075221,-13175.665768,-842.705048,1406.391290
1448.075532,-13323.706956,-306.438199,888.247130
1448.075844,-9770.718434,2451.505594,-592.164754
1448.076155,-8364.327145,2911.162892,-1776.494261
1448.076467,-6513.812290,2145.067394,-962.267725
1448.076778,-7402.059420,0.000000,-1924.535449
1448.077090,-11917.315666,-76.609550,-592.164754
1448.077401,-12657.521608,1455.581446,1332.370696
1448.077713,-13915.871710,1149.143247,1110.308913
1448.078024,-15026.180623,766.095498,296.082377
1448.078336,-11621.233289,459.657299,222.061783
1448.078647,-8364.327145,0.000000,-1110.308913
1448.078958,-6365.771101,1072.533697,-1110.308913
1448.079270,-6365.771101,1838.629195,-0.000000
1448.079581,-7624.121203,76.609550,1110.308913
1448.079893,-10436.903782,-1302.362347,2960.823768
1448.080204,-10362.883188,-229.828649,4515.256246
1448.080516,-7624.121203,689.485948,2516.700203
1448.080827,-5329.482782,612.876398,592.164754
1448.081139,-2886.803174,-536.266849,-370.102971
1448.081450,-3330.926739,-1302.362347,-1184.329507
1448.081762,-5921.647536,-1532.190996,222.061783
1448.082073,-8364.327145,-1762.019645,666.185348
1448.082385,-9992.780217,-2221.676944,2664.741391
1448.082696,-10066.800811,-4673.182538,3256.906145
1448.083008,-9696.697840,-3600.648841,1998.556043
1448.083319,-7846.182985,-2681.334243,814.226536
1448.083631,-6365.771101,-842.705048,-666.185348
1448.083942,-6661.853478,-383.047749,-74.020594
1448.084254,-7031.956449,-689.485948,1036.288319
1448.084565,-9252.574275,-1532.190996,1702.473667
1448.084877,-10658.965565,-1915.238745,3256.906145
1448.085188,-9770.718434,-919.314598,2590.720797
1448.085500,-8068.244768,766.095498,370.102971
1448.085811,-5403.503377,1991.848295,-962.267725
1448.086123,-6143.709319,1225.752797,-2886.803174
1448.086434,-7179.997637,1302.362347,-2516.700203
1448.086745,-10140.821405,1838.629195,-1332.370696
1448.087057,-12953.603985,1225.752797,-148.041188
1448.087368,-14137.933492,1149.143247,592.164754
1448.087680,-14878.139434,689.485948,-0.000000
1448.087991,-13545.768739,536.266849,370.102971
1448.088303,-9252.574275,842.705048,-666.185348
1448.088614,-8216.285956,1455.581446,-740.205942
1448.088926,-8142.265362,1455.581446,740.205942
1448.089237,-10066.800811,919.314598,1110.308913
1448.089549,-12065.356855,689.485948,2590.720797
1448.089860,-11917.315666,1608.800546,2738.761985
1448.090172,-10881.027347,689.485948,1184.329507
1448.090483,-8364.327145,1378.971896,-0.000000
1448.090795,-4959.379811,2681.334243,-1554.432478
1448.091106,-4367.215058,2068.457845,-1628.453072
1448.091418,-6661.853478,0.000000,-740.205942
1448.091729,-9548.656652,383.047749,592.164754
1448.092040,-11029.068536,1072.533697,2516.700203
1448.092351,-11621.233289,612.876398,3182.885551
1448.092663,-10066.800811,-766.095498,3256.906145
1448.092974,-6069.688724,-612.876398,666.185348
1448.093285,-2738.761985,383.047749,-444.123565
1448.093597,-3182.885551,-766.095498,-74.020594
1448.093908,-5403.503377,-1685.410096,1998.556043
1448.094219,-6883.915261,-2068.457845,1850.514855
1448.094530,-9178.553681,-2528.115143,3404.947333
1448.094842,-9548.656652,-3600.648841,2590.720797
1448.095153,-8660.409521,-2145.067394,1036.288319
1448.095464,-6957.935855,-1302.362347,814.226536
1448.095775,-5773.606348,-2374.896044,-740.205942
1448.096087,-7105.977043,-3753.867940,296.082377
1448.096398,-9992.780217,-2451.505594,222.061783
1448.096709,-11843.295072,-1838.629195,1110.308913
1448.097021,-12139.377449,-2987.772442,1628.453072
1448.097332,-11251.130318,-2451.505594,1110.308913
1448.097643,-10732.986159,-2374.896044,-444.123565
1448.097954,-9474.636058,-153.219100,-2072.576638
1448.098266,-8438.347739,1455.581446,-1628.453072
1448.098577,-9326.594869,2145.067394,-1258.350101
1448.098888,-10658.965565,1838.629195,-222.061783
1448.099199,-11621.233289,995.924147,148.041188
1448.099511,-11769.274478,-306.438199,518.144159
1448.099822,-10436.903782,459.657299,-296.082377
1448.100133,-8512.368333,1991.848295,-1554.432478
1448.100445,-7772.162391,1915.238745,-2146.597232
1448.100756,-8808.450710,919.314598,-1850.514855
1448.101067,-10732.986159,0.000000,-962.267725
1448.101378,-12953.603985,459.657299,-0.000000
1448.101690,-14063.912898,766.095498,2442.679609
1448.102001,-12435.459826,-995.924147,2664.741391
1448.102312,-11177.109724,-1378.971896,1332.370696
1448.102623,-8142.265362,-459.657299,148.041188
1448.102935,-4515.256246,1455.581446,-444.123565
1448.103246,-3701.029710,1838.629195,-0.000000
1448.103557,-5995.668130,1838.629195,1554.432478
1448.103869,-9178.553681,919.314598,2146.597232
1448.104180,-9992.780217,919.314598,1702.473667
1448.104491,-9104.533087,1608.800546,2368.659014
1448.104802,-7624.121203,2451.505594,444.123565
1448.105114,-5403.503377,2145.067394,-222.061783
1448.105425,-4367.215058,229.828649,-740.205942
1448.105736,-3627.009116,0.000000,-74.020594
1448.106047,-5847.626942,-383.047749,1184.329507
1448.106359,-8512.368333,0.000000,2738.761985
1448.106670,-9918.759623,-1762.019645,4145.153275
1448.106981,-10362.883188,-3524.039291,3108.864956
1448.107293,-8364.327145,-2451.505594,2146.597232
1448.107604,-5625.565159,536.266849,-0.000000
1448.107915,-4441.235652,689.485948,-1406.391290
1448.108226,-5995.668130,-1225.752797,-0.000000
1448.108538,-8734.430116,-2528.115143,1184.329507
1448.108849,-10807.006753,-2451.505594,1850.514855
1448.109160,-12731.542202,-2604.724693,2220.617826
1448.109471,-13323.706956,-2374.896044,2294.638420
1448.109783,-11325.150913,-1225.752797,740.205942
1448.110094,-8586.388927,306.438199,-888.247130
1448.110405,-7846.182985,-153.219100,-1406.391290
1448.110717,-8660.409521,229.828649,-518.144159
1448.111028,-10584.944971,842.705048,-148.041188
1448.111339,-11621.233289,842.705048,888.247130
1448.111650,-11843.295072,-995.924147,222.061783
1448.111962,-11103.089130,-689.485948,-592.164754
1448.112273,-10214.842000,1149.143247,-1776.494261
1448.112584,-9400.615463,2221.676944,-3330.926739
1448.112895,-9548.656652,2604.724693,-2738.761985
1448.113207,-11029.068536,2145.067394,-592.164754
1448.113518,-12435.459826,0.000000,1036.288319
1448.113829,-12953.603985,-1378.971896,2368.659014
1448.114140,-11473.192101,-1608.800546,2738.761985
1448.114452,-7920.203579,612.876398,1924.535449
1448.114763,-4811.338623,1608.800546,-370.102971
1448.115074,-4589.276840,1072.533697,-888.247130
1448.115386,-5995.668130,459.657299,-740.205942
1448.115697,-7476.080014,995.924147,592.164754
1448.116008,-9918.759623,459.657299,2146.597232
1448.116319,-11991.336260,0.000000,2516.700203
1448.116631,-11029.068536,-1149.143247,1258.350101
1448.116942,-7550.100608,-919.314598,222.061783
1448.117253,-3849.070898,-229.828649,-666.185348
1448.117564,-2368.659014,306.438199,-1332.370696
1448.117876,-4145.153275,-612.876398,-74.020594
1448.118187,-6587.832884,-1149.143247,1036.288319
1448.118498,-8586.388927,-612.876398,2294.638420
1448.118810,-9992.780217,-153.219100,3849.070898
1448.119121,-9104.533087,-842.705048,3256.906145
1448.119432,-6365.771101,0.000000,1110.308913
1448.119743,-4219.173869,-842.705048,-814.226536
1448.120055,-4959.379811,-1149.143247,-740.205942
1448.120366,-7698.141797,-459.657299,-444.123565
1448.120677,-11029.068536,-383.047749,370.102971
1448.120988,-13767.830521,-1762.019645,1998.556043
1448.121300,-13767.830521,-2757.943793,2368.659014
1448.121611,-13101.645173,-1762.019645,740.205942
1448.121922,-11029.068536,76.609550,-1110.308913
1448.122234,-7920.203579,1378.971896,-2368.659014
1448.122545,-8438.347739,1072.533697,-2220.617826
1448.122856,-10584.944971,2068.457845,-296.082377
1448.123167,-11325.150913,2604.724693,666.185348
1448.123479,-12657.521608,0.000000,1850.514855
1448.123790,-11177.109724,-995.924147,2738.761985
1448.124101,-9104.533087,-306.438199,740.205942
1448.124412,-7105.977043,1225.752797,-1110.308913
1448.124724,-6513.812290,2068.457845,-2072.576638
1448.125035,-8142.265362,1455.581446,-2072.576638
1448.125346,-12213.398043,1455.581446,-1110.308913
1448.125658,-13915.871710,1838.629195,444.123565
1448.125969,-13915.871710,-229.828649,1036.288319
1448.126280,-13397.727550,-536.266849,1036.288319
1448.126591,-9548.656652,459.657299,1110.308913
1448.126903,-5551.544565,229.828649,-740.205942
1448.127214,-3849.070898,-1685.410096,-296.082377
1448.127525,-5477.523971,-1225.752797,1998.556043
1448.127836,-7328.038826,-459.657299,3256.906145
1448.128148,-8216.285956,-536.266849,3478.967927
1448.128459,-9178.553681,-459.657299,3923.091493
1448.128770,-8216.285956,-766.095498,2516.700203
1448.129082,-5255.462188,0.000000,814.226536
1448.129393,-3034.844362,536.266849,-814.226536
1448.129704,-2516.700203,229.828649,-1480.411884
1448.130015,-5477.523971,-459.657299,-222.061783
1448.130327,-8364.327145,0.000000,888.247130
1448.130638,-11029.068536,-766.095498,2368.659014
1448.130949,-12287.418637,-1991.848295,2590.720797
1448.131260,-10214.842000,-1225.752797,1702.473667
1448.131572,-7105.977043,459.657299,-0.000000
1448.131883,-4737.318029,-459.657299,-1036.288319
1448.132194,-4959.379811,-1455.581446,296.082377
1448.132505,-8364.327145,-2221.676944,1110.308913
1448.132817,-9844.739029,-1532.190996,2664.741391
1448.133128,-11547.212695,-1302.362347,2664.741391
1448.133439,-12139.377449,-612.876398,1702.473667
1448.133751,-9992.780217,995.924147,-148.041188
1448.134062,-8512.368333,1838.629195,-2442.679609
1448.134373,-7698.141797,1302.362347,-2738.761985
1448.134684,-9918.759623,2068.457845,-2072.576638
1448.134996,-13249.686362,2374.896044,-962.267725
1448.135307,-15174.221811,1762.019645,666.185348
1448.135618,-14878.139434,-536.266849,1332.370696
1448.135929,-12139.377449,-229.828649,1406.391290
1448.136241,-9548.656652,919.314598,-518.144159
1448.136552,-7031.956449,1608.800546,-2738.761985
1448.136863,-6513.812290,2221.676944,-2220.617826
1448.137175,-8068.244768,1532.190996,-222.061783
1448.137486,-9844.739029,612.876398,1036.288319
1448.137797,-12509.480420,-459.657299,2220.617826
1448.138108,-12361.439231,306.438199,2516.700203
1448.138420,-9474.636058,1225.752797,888.247130
1448.138731,-5773.606348,1608.800546,-1036.288319
1448.139042,-4515.256246,1378.971896,-1332.370696
1448.139353,-5773.606348,153.219100,-1850.514855
1448.139665,-7254.018232,459.657299,296.082377
1448.139976,-9622.677246,995.924147,2146.597232
1448.140287,-11843.295072,-153.219100,3627.009116
1448.140599,-11399.171507,-1915.238745,3923.091493
1448.140910,-8882.471304,-1532.190996,2590.720797
1448.141221,-4219.173869,-766.095498,740.205942
1448.141532,-1850.514855,-459.657299,-296.082377
1448.141844,-3478.967927,-1378.971896,-0.000000
1448.142155,-6291.750507,-2757.943793,1332.370696
1448.142466,-8438.347739,-2757.943793,1850.514855
1448.142777,-9252.574275,-2221.676944,2220.617826
1448.143089,-8882.471304,-1608.800546,2368.659014
1448.143400,-8438.347739,-1532.190996,962.267725
1448.143711,-6587.832884,-2221.676944,-518.144159
1448.144023,-5699.585753,-536.266849,-592.164754
1448.144334,-6809.894666,0.000000,-0.000000
1448.144645,-9918.759623,0.000000,666.185348
1448.144956,-12213.398043,-995.924147,2294.638420
1448.145268,-13471.748144,-2145.067394,2072.576638
1448.145579,-12139.377449,-995.924147,1554.432478
1448.145890,-10140.821405,1455.581446,-222.061783
1448.146201,-9104.533087,2451.505594,-2146.597232
1448.146513,-7994.224174,1378.971896,-1850.514855
1448.146824,-9252.574275,306.438199,-888.247130
1448.147135,-11621.233289,689.485948,-0.000000
1448.147447,-13101.645173,1762.019645,666.185348
1448.147758,-12361.439231,1532.190996,666.185348
1448.148069,-11103.089130,1302.362347,-222.061783
1448.148380,-8512.368333,2221.676944,-1258.350101
1448.148692,-7328.038826,2298.286494,-2220.617826
1448.149003,-9252.574275,2451.505594,-1998.556043
1448.149314,-11251.130318,3064.381992,-222.061783
1448.149625,-12731.542202,2068.457845,888.247130
1448.149937,-13915.871710,-153.219100,1702.473667
1448.150248,-11251.130318,-536.266849,2072.576638
1448.150559,-8808.450710,-842.705048,-0.000000
1448.150870,-4885.359217,-612.876398,-0.000000
1448.151182,-4589.276840,-919.314598,-74.020594
1448.151493,-7402.059420,-1225.752797,592.164754
1448.151804,-8142.265362,153.219100,1110.308913
1448.152116,-9474.636058,2068.457845,1702.473667
1448.152427,-8956.491898,612.876398,2590.720797
1448.152738,-8068.244768,-919.314598,2220.617826
1448.153049,-6587.832884,-1915.238745,1332.370696
1448.153361,-3256.906145,-995.924147,-148.041188
1448.153672,-2812.782580,-536.266849,296.082377
1448.153983,-3997.112087,-689.485948,814.226536
1448.154294,-7550.100608,-1532.190996,1554.432478
1448.154606,-10584.944971,-3677.258390,2960.823768
1448.154917,-9104.533087,-3983.696590,3627.009116
1448.155228,-8882.471304,-2757.943793,2590.720797
1448.155540,-6809.894666,-1838.629195,518.144159
1448.155851,-5477.523971,-2451.505594,-740.205942
1448.156162,-7105.977043,-2528.115143,-1332.370696
1448.156473,-8068.244768,-1378.971896,-740.205942
1448.156785,-10288.862594,306.438199,-370.102971
1448.157096,-12213.398043,229.828649,1184.329507
1448.157407,-12361.439231,383.047749,1554.432478
1448.157718,-11177.109724,-536.266849,1332.370696
1448.158030,-8808.450710,0.000000,592.164754
1448.158341,-7179.997637,1149.143247,-444.123565
1448.158652,-7624.121203,1762.019645,-814.226536
1448.158964,-9992.780217,1532.190996,-888.247130
1448.159275,-12805.562797,689.485948,-666.185348
1448.159586,-14285.974681,76.609550,148.041188
1448.159897,-15026.180623,0.000000,-296.082377
1448.160209,-13545.768739,1838.629195,-962.267725
1448.160520,-10732.986159,2374.896044,-2220.617826
1448.160831,-8956.491898,1455.581446,-1924.535449
1448.161142,-8290.306550,766.095498,-518.144159
1448.161454,-9104.533087,766.095498,444.123565
1448.161765,-10288.862594,1225.752797,2072.576638
1448.162076,-10732.986159,1378.971896,2516.700203
1448.162388,-10584.944971,1378.971896,1406.391290
1448.162699,-8512.368333,2145.067394,814.226536
1448.163010,-5773.606348,2911.162892,-444.123565
1448.163321,-4515.256246,1685.410096,-1110.308913
1448.163633,-6143.709319,153.219100,-1110.308913
1448.163944,-8438.347739,0.000000,296.082377
1448.164255,-9992.780217,383.047749,1554.432478
1448.164566,-10510.924376,0.000000,2072.576638
1448.164878,-9474.636058,-1685.410096,2220.617826
1448.165189,-5329.482782,-1149.143247,888.247130
1448.165500,-2738.761985,-383.047749,-0.000000
1448.165812,-3034.844362,-1378.971896,-0.000000
1448.166123,-4441.235652,-1685.410096,1480.411884
1448.166434,-6365.771101,-1685.410096,2664.741391
1448.166745,-8438.347739,-2757.943793,4367.215058
1448.167057,-8882.471304,-4749.792088,4515.256246
1448.167368,-8364.327145,-4366.744339,1628.453072
1448.167679,-7179.997637,-1608.800546,-148.041188
1448.167990,-5477.523971,-995.924147,-1480.411884
1448.168302,-6587.832884,-1455.581446,-1554.432478
1448.168613,-9474.636058,-1762.019645,-814.226536
1448.168924,-12213.398043,-1378.971896,-296.082377
1448.169236,-13027.624579,-1838.629195,1628.453072
1448.169547,-12583.501014,-1762.019645,1776.494261
1448.169858,-12361.439231,-459.657299,1850.514855
1448.170169,-10140.821405,-76.609550,-888.247130
1448.170481,-9326.594869,306.438199,-1924.535449
1448.170792,-9252.574275,1532.190996,-444.123565
1448.171103,-9252.574275,2145.067394,-148.041188
1448.171414,-11695.253884,612.876398,814.226536
1448.171726,-12213.398043,0.000000,1258.350101
1448.172037,-11917.315666,-919.314598,814.226536
1448.172348,-10732.986159,1378.971896,-740.205942
1448.172659,-8586.388927,2374.896044,-1776.494261
1448.172971,-9252.574275,1455.581446,-2738.761985
1448.173282,-10288.862594,995.924147,-1554.432478
1448.173593,-11695.253884,1991.848295,-444.123565
1448.173905,-13027.624579,2068.457845,666.185348
1448.174216,-12731.542202,689.485948,2072.576638
1448.174527,-11325.150913,383.047749,1554.432478
1448.174838,-7772.162391,1225.752797,518.144159
1448.175150,-5033.400406,2298.286494,-444.123565
1448.175461,-5773.606348,1455.581446,-444.123565
1448.175772,-6217.729913,229.828649,1036.288319
1448.176083,-6809.894666,383.047749,1184.329507
1448.176395,-8438.347739,-536.266849,3404.947333
1448.176706,-8660.409521,-1608.800546,3256.906145
1448.177017,-7402.059420,-1302.362347,2368.659014
1448.177329,-3330.926739,0.000000,814.226536
1448.177640,-1924.535449,153.219100,-1480.411884
1448.177951,-3034.844362,-153.219100,-1776.494261
1448.178262,-6809.894666,536.266849,-666.185348
1448.178574,-9474.636058,153.219100,1776.494261
1448.178885,-10732.986159,-1991.848295,3182.885551
1448.179196,-11103.089130,-3370.820191,3256.906145
1448.179507,-9918.759623,-3447.429741,2368.659014
1448.179819,-6883.915261,-1838.629195,444.123565
1448.180130,-5033.400406,-1455.581446,-518.144159
1448.180441,-5477.523971,-1225.752797,-370.102971
1448.180753,-7105.977043,-1149.143247,592.164754
1448.181064,-9918.759623,-1838.629195,1406.391290
1448.181375,-12361.439231,-1685.410096,1554.432478
1448.181686,-10955.047942,-383.047749,1554.432478
1448.181998,-9400.615463,459.657299,-444.123565
1448.182309,-7846.182985,919.314598,-1480.411884
1448.182620,-8438.347739,1532.190996,-2220.617826
1448.182931,-9918.759623,1762.019645,-1776.494261
1448.183243,-12583.501014,2145.067394,-1110.308913
1448.183554,-15248.242405,1915.238745,222.061783
1448.183865,-14582.057057,1915.238745,962.267725
1448.184177,-13397.727550,1072.533697,370.102971
1448.184488,-11177.109724,995.924147,-1036.288319
1448.184799,-8216.285956,1225.752797,-1998.556043
1448.185110,-7846.182985,459.657299,-1110.308913
1448.185422,-8734.430116,-153.219100,-148.041188
1448.185733,-11621.233289,-766.095498,592.164754
1448.186044,-12139.377449,-153.219100,2368.659014
1448.186355,-11991.336260,153.219100,2590.720797
1448.186667,-10807.006753,459.657299,1184.329507
1448.186978,-7105.977043,1455.581446,-296.082377
1448.187289,-4663.297435,1838.629195,-1702.473667
1448.187601,-4441.235652,1072.533697,-518.144159
1448.187912,-6957.935855,383.047749,666.185348
1448.188223,-9844.739029,229.828649,2146.597232
1448.188534,-9770.718434,229.828649,2738.761985
1448.188846,-8734.430116,76.609550,2294.638420
1448.189157,-7179.997637,766.095498,1110.308913
1448.189468,-4515.256246,459.657299,222.061783
1448.189779,-3108.864956,-689.485948,-370.102971
1448.190091,-3552.988522,-2221.676944,1110.308913
1448.190402,-5773.606348,-2145.067394,2368.659014
1448.190713,-8512.368333,-1685.410096,2886.803174
1448.191024,-9178.553681,-2451.505594,3182.885551
1448.191336,-7846.182985,-2451.505594,2516.700203
1448.191647,-6587.832884,-2451.505594,814.226536
1448.191958,-4293.194464,-1532.190996,222.061783
1448.192270,-5477.523971,-1915.238745,-1036.288319
1448.192581,-8512.368333,-1225.752797,-0.000000
1448.192892,-11251.130318,-1149.143247,962.267725
1448.193203,-12435.459826,-1455.581446,1332.370696
1448.193515,-12065.356855,-995.924147,1554.432478
1448.193826,-11399.171507,-1532.190996,888.247130
1448.194137,-9474.636058,-459.657299,-1110.308913
1448.194449,-8882.471304,995.924147,-2590.720797
1448.194760,-9548.656652,1378.971896,-2146.597232
1448.195071,-10732.986159,1762.019645,-370.102971
1448.195383,-12657.521608,766.095498,740.205942
1448.195694,-13545.768739,306.438199,1332.370696
1448.196005,-12213.398043,0.000000,962.267725
1448.196317,-10584.944971,1455.581446,-740.205942
1448.196628,-7624.121203,2451.505594,-1036.288319
1448.196939,-6735.874072,2451.505594,-2294.638420
1448.197251,-8216.285956,766.095498,-1480.411884
1448.197562,-11769.274478,0.000000,-518.144159
1448.197873,-13619.789333,995.924147,888.247130
1448.198185,-13767.830521,1608.800546,962.267725
1448.198496,-12805.562797,1608.800546,370.102971
1448.198808,-10436.903782,1455.581446,-148.041188
1448.199119,-6809.894666,1838.629195,-888.247130
1448.199430,-4367.215058,1991.848295,-592.164754
1448.199742,-5995.668130,1762.019645,666.185348
1448.200053,-7772.162391,612.876398,2442.679609
1448.200364,-8290.306550,153.219100,3108.864956
1448.200676,-9548.656652,459.657299,3034.844362
1448.200987,-8068.244768,1072.533697,1554.432478
1448.201298,-4885.359217,1532.190996,370.102971
1448.201610,-3034.844362,689.485948,-592.164754
1448.201921,-2664.741391,-842.705048,-296.082377
1448.202232,-4885.359217,-2834.553343,-0.000000
1448.202544,-7402.059420,-2221.676944,1110.308913
1448.202855,-9622.677246,-1991.848295,3404.947333
1448.203167,-10436.903782,-4213.525239,3478.967927
1448.203478,-8438.347739,-3447.429741,3330.926739
1448.203789,-7105.977043,-1838.629195,592.164754
1448.204101,-5699.585753,229.828649,-1480.411884
1448.204412,-6291.750507,76.609550,-888.247130
1448.204723,-7624.121203,306.438199,-0.000000
1448.205035,-9474.636058,306.438199,1406.391290
1448.205346,-11991.336260,-1455.581446,1850.514855
1448.205657,-11991.336260,-995.924147,2368.659014
1448.205969,-10436.903782,-153.219100,1036.288319
1448.206280,-7254.018232,383.047749,-444.123565
1448.206591,-6069.688724,0.000000,-1184.329507
1448.206903,-8734.430116,-306.438199,-2146.597232
1448.207214,-11325.150913,612.876398,-1184.329507
1448.207526,-13101.645173,1072.533697,-592.164754
1448.207837,-13619.789333,536.266849,666.185348
1448.208148,-13101.645173,0.000000,962.267725
1448.208460,-12879.583391,-153.219100,-962.267725
1448.208771,-10362.883188,919.314598,-1850.514855
1448.209082,-9474.636058,2451.505594,-1702.473667
1448.209394,-9104.533087,2987.772442,370.102971
1448.209705,-10807.006753,1915.238745,814.226536
1448.210016,-11621.233289,306.438199,2442.679609
1448.210328,-10955.047942,-306.438199,2516.700203
1448.210639,-9844.739029,76.609550,2220.617826
1448.210950,-7179.997637,919.314598,888.247130
1448.211262,-4811.338623,919.314598,-1258.350101
1448.211573,-4589.276840,-459.657299,-2072.576638
1448.211884,-7105.977043,-1302.362347,-814.226536
1448.212196,-9844.739029,-229.828649,666.185348
1448.212507,-10658.965565,0.000000,2146.597232
1448.212819,-11325.150913,-612.876398,3256.906145
1448.213130,-9474.636058,-612.876398,3108.864956
1448.213441,-6217.729913,0.000000,592.164754
1448.213753,-3627.009116,0.000000,592.164754
1448.214064,-2368.659014,0.000000,222.061783
1448.214375,-3256.906145,-536.266849,962.267725
1448.214687,-5551.544565,-306.438199,1332.370696
1448.214998,-8734.430116,-842.705048,2812.782580
1448.215309,-9474.636058,-2145.067394,2886.803174
1448.215621,-8068.244768,-1455.581446,1776.494261
1448.215932,-6291.750507,-1225.752797,370.102971
1448.216243,-5033.400406,-1685.410096,-1110.308913
1448.216555,-7105.977043,-1685.410096,-370.102971
1448.216866,-8956.491898,-919.314598,-0.000000
1448.217178,-11029.068536,-1302.362347,1850.514855
1448.217489,-12139.377449,-2681.334243,2368.659014
1448.217800,-11695.253884,-1302.362347,1850.514855
1448.218112,-11769.274478,383.047749,-148.041188
1448.218423,-8438.347739,1532.190996,-1776.494261
1448.218734,-7031.956449,1608.800546,-1924.535449
1448.219046,-8512.368333,1455.581446,-814.226536
1448.219357,-10807.006753,612.876398,-74.020594
1448.219668,-12805.562797,153.219100,518.144159
1448.219980,-13175.665768,383.047749,518.144159
1448.220291,-12509.480420,1225.752797,-148.041188
1448.220602,-10881.027347,2145.067394,-1406.391290
1448.220914,-8882.471304,2834.553343,-2220.617826
1448.221225,-8364.327145,2221.676944,-2368.659014
1448.221537,-9622.677246,459.657299,-740.205942
1448.221848,-11843.295072,-153.219100,518.144159
1448.222159,-13545.768739,153.219100,1554.432478
1448.222471,-12657.521608,153.219100,2368.659014
1448.222782,-10881.027347,153.219100,1258.350101
1448.223093,-9104.533087,766.095498,296.082377
1448.223405,-5699.585753,842.705048,-222.061783
1448.223716,-3997.112087,383.047749,-740.205942
1448.224027,-5477.523971,919.314598,814.226536
1448.224339,-8364.327145,919.314598,1480.411884
1448.224650,-9844.739029,0.000000,2960.823768
1448.224961,-8808.450710,-459.657299,3182.885551
1448.225273,-6217.729913,-612.876398,2516.700203
1448.225584,-3997.112087,0.000000,814.226536
1448.225895,-4589.276840,-229.828649,-0.000000
1448.226207,-5181.441594,-459.657299,-370.102971
1448.226518,-8290.306550,-1302.362347,814.226536
1448.226830,-8364.327145,-1378.971896,3552.988522
1448.227141,-8956.491898,-2604.724693,3108.864956
1448.227452,-9844.739029,-5056.230287,2516.700203
1448.227764,-6883.915261,-3830.477490,1480.411884
1448.228075,-3923.091493,-1762.019645,-814.226536
1448.228386,-3627.009116,-1762.019645,-1184.329507
1448.228698,-7105.977043,-2451.505594,444.123565
1448.229009,-10881.027347,-2681.334243,1406.391290
1448.229320,-11621.233289,-1149.143247,1924.535449
1448.229632,-12065.356855,0.000000,2368.659014
1448.229943,-12731.542202,-383.047749,370.102971
1448.230254,-10658.965565,536.266849,-1184.329507
1448.230566,-7328.038826,2221.676944,-1924.535449
1448.230877,-7772.162391,766.095498,-2146.597232
1448.231189,-10140.821405,1685.410096,-1036.288319
1448.231500,-11695.253884,2298.286494,444.123565
1448.231811,-12805.562797,229.828649,740.205942
1448.232123,-12139.377449,-1532.190996,1258.350101
1448.232434,-11399.171507,-383.047749,-518.144159
1448.232745,-9326.594869,1762.019645,-2516.700203
1448.233057,-7105.977043,1455.581446,-2146.597232
1448.233368,-8882.471304,-1072.533697,-1554.432478
1448.233679,-12287.418637,-306.438199,-888.247130
1448.233991,-13767.830521,1685.410096,740.205942
1448.234302,-13175.665768,1225.752797,2516.700203
1448.234613,-12213.398043,0.000000,2738.761985
1448.234925,-9844.739029,-306.438199,1776.494261
1448.235236,-5847.626942,1072.533697,-0.000000
1448.235548,-4219.173869,2298.286494,-888.247130
1448.235859,-5403.503377,2834.553343,-296.082377
1448.236170,-7920.203579,3447.429741,444.123565
1448.236482,-9474.636058,2068.457845,1110.308913
1448.236793,-10807.006753,459.657299,2664.741391
1448.237104,-9992.780217,-229.828649,1702.473667
1448.237416,-6513.812290,459.657299,-296.082377
1448.237727,-3404.947333,76.609550,-1184.329507
1448.238038,-2886.803174,-2451.505594,-962.267725
1448.238350,-4663.297435,-3983.696590,666.185348
1448.238661,-7179.997637,-2145.067394,2368.659014
1448.238972,-10584.944971,-1532.190996,2886.803174
1448.239284,-10955.047942,-1378.971896,4219.173869
1448.239595,-9104.533087,-766.095498,3849.070898
1448.239907,-6069.688724,-459.657299,1480.411884
1448.240218,-3627.009116,-306.438199,-444.123565
1448.240529,-4219.173869,-2528.115143,-1110.308913
1448.240841,-5921.647536,-1072.533697,-444.123565
1448.241152,-8882.471304,229.828649,592.164754
1448.241463,-12065.356855,-1455.581446,888.247130
1448.241775,-13175.665768,-3140.991542,2146.597232
1448.242086,-13323.706956,-3217.601092,1406.391290
1448.242397,-11473.192101,-1838.629195,-592.164754
1448.242709,-10510.924376,229.828649,-2294.638420
1448.243020,-10288.862594,2221.676944,-2146.597232
1448.243331,-11103.089130,2681.334243,-888.247130
1448.243643,-11843.295072,2221.676944,-148.041188
1448.243954,-10955.047942,1608.800546,1332.370696
1448.244265,-9104.533087,1915.238745,1554.432478
1448.244577,-6809.894666,2374.896044,666.185348
1448.244888,-6291.750507,1455.581446,-1036.288319
1448.245200,-7476.080014,383.047749,-1850.514855
1448.245511,-9992.780217,383.047749,-2072.576638
1448.245822,-13915.871710,1378.971896,-1406.391290
1448.246134,-16358.551318,1915.238745,740.205942
1448.246445,-15988.448347,76.609550,1258.350101
1448.246756,-13249.686362,-1455.581446,518.144159
1448.247068,-9696.697840,-1302.362347,-0.000000
1448.247379,-4737.318029,229.828649,-222.061783
1448.247690,-4293.194464,689.485948,-518.144159
1448.248002,-6439.791695,459.657299,1332.370696
1448.248313,-6291.750507,842.705048,2368.659014
1448.248624,-7624.121203,1532.190996,2812.782580
1448.248936,-8142.265362,919.314598,3404.947333
1448.249247,-7698.141797,153.219100,2072.576638
1448.249559,-5625.565159,-306.438199,-0.000000
1448.249870,-3775.050304,153.219100,-444.123565
1448.250181,-3849.070898,-459.657299,-1406.391290
1448.250493,-6217.729913,-383.047749,-1036.288319
1448.250804,-9622.677246,-612.876398,740.205942
1448.251115,-9992.780217,-2451.505594,2368.659014
1448.251427,-9474.636058,-2911.162892,2886.803174
1448.251738,-9474.636058,-2451.505594,1850.514855
1448.252049,-7105.977043,-1608.800546,-0.000000
1448.252361,-6143.709319,-2145.067394,-370.102971
1448.252672,-6143.709319,-3217.601092,740.205942
1448.252983,-7328.038826,-1915.238745,1850.514855
1448.253295,-10732.986159,-2068.457845,1998.556043
1448.253606,-11917.315666,-1991.848295,3256.906145
1448.253918,-11621.233289,-612.876398,1702.473667
1448.254229,-9326.594869,612.876398,-0.000000
1448.254540,-7254.018232,1378.971896,-1554.432478
1448.254852,-7624.121203,919.314598,-2664.741391
1448.255163,-9474.636058,1991.848295,-2072.576638
1448.255474,-11547.212695,1762.019645,-1406.391290
1448.255786,-14211.954086,536.266849,222.061783
1448.256097,-15248.242405,-536.266849,1258.350101
1448.256408,-14508.036463,-1225.752797,888.247130
1448.256720,-11251.130318,-1072.533697,-1110.308913
1448.257031,-8142.265362,0.000000,-2072.576638
1448.257342,-7105.977043,612.876398,-1110.308913
1448.257654,-7476.080014,383.047749,592.164754
1448.257965,-9992.780217,459.657299,814.226536
1448.258277,-12139.377449,1072.533697,1702.473667
1448.258588,-11547.212695,1608.800546,2220.617826
1448.258899,-10436.903782,1532.190996,222.061783
1448.259211,-7105.977043,1991.848295,-2294.638420
1448.259522,-5181.441594,3217.601092,-3330.926739
1448.259833,-5921.647536,2528.115143,-3256.906145
1448.260145,-7402.059420,1302.362347,-0.000000
1448.260456,-11177.109724,0.000000,2220.617826
1448.260767,-11917.315666,-2221.676944,4811.338623
1448.261079,-9474.636058,-2451.505594,4071.132681
1448.261390,-7328.038826,-1378.971896,2664.741391
1448.261701,-3330.926739,689.485948,1258.350101
1448.262013,-1776.494261,0.000000,-1036.288319
1448.262324,-2220.617826,-536.266849,-0.000000
1448.262635,-4589.276840,-153.219100,1110.308913
1448.262947,-7846.182985,-919.314598,2220.617826
1448.263258,-9844.739029,-842.705048,3256.906145
1448.263570,-10436.903782,-1225.752797,3404.947333
1448.263881,-7920.203579,-612.876398,1110.308913
1448.264192,-5181.441594,459.657299,-0.000000
1448.264504,-6365.771101,-842.705048,-1406.391290
1448.264815,-8734.430116,-1762.019645,-0.000000
1448.265126,-10214.842000,-1225.752797,1480.411884
1448.265438,-12731.542202,-1378.971896,2590.720797
1448.265749,-12953.603985,-2145.067394,4071.132681
1448.266060,-11843.295072,-2757.943793,1628.453072
1448.266372,-9548.656652,-383.047749,-0.000000
1448.266683,-5847.626942,1762.019645,-1554.432478
1448.266994,-6587.832884,0.000000,-2368.659014
1448.267306,-9252.574275,306.438199,-1924.535449
1448.267617,-11399.171507,919.314598,-370.102971
1448.267929,-12657.521608,689.485948,666.185348
1448.268240,-12805.562797,0.000000,962.267725
1448.268551,-12879.583391,1378.971896,-518.144159
1448.268863,-9770.718434,2451.505594,-1554.432478
1448.269174,-7846.182985,1838.629195,-1628.453072
1448.269485,-8290.306550,919.314598,-148.041188
1448.269797,-11473.192101,459.657299,962.267725
1448.270108,-12953.603985,459.657299,1702.473667
1448.270419,-12953.603985,0.000000,2220.617826
1448.270731,-13249.686362,0.000000,1184.329507
1448.271042,-8586.388927,1608.800546,-370.102971
1448.271353,-6365.771101,1762.019645,-2294.638420
1448.271665,-5551.544565,-689.485948,-592.164754
1448.271976,-3256.906145,-2374.896044,-222.061783
1448.272288,-7476.080014,-842.705048,296.082377
1448.272599,-10214.842000,689.485948,1850.514855
1448.272910,-10881.027347,612.876398,2294.638420
1448.273222,-9548.656652,1608.800546,2220.617826
1448.273533,-5995.668130,3447.429741,592.164754
1448.273844,-3923.091493,2298.286494,-888.247130
1448.274156,-2294.638420,995.924147,-1110.308913
1448.274467,-4811.338623,229.828649,370.102971
1448.274778,-6809.894666,76.609550,1480.411884
1448.275090,-9030.512492,-1378.971896,2072.576638
1448.275401,-10807.006753,-3217.601092,2812.782580
1448.275712,-10584.944971,-2528.115143,1850.514855
1448.276024,-7698.141797,-1455.581446,518.144159
1448.276335,-5551.544565,-1532.190996,-592.164754
1448.276647,-6439.791695,-2068.457845,-518.144159
1448.276958,-8364.327145,-2987.772442,296.082377
1448.277269,-10510.924376,-2221.676944,1406.391290
1448.277581,-10955.047942,-306.438199,2368.659014
1448.277892,-11695.253884,-766.095498,2368.659014
1448.278203,-10807.006753,-1302.362347,1480.411884
1448.278515,-8216.285956,919.314598,-592.164754
1448.278826,-5403.503377,2604.724693,-1628.453072
1448.279137,-6143.709319,766.095498,-1406.391290
1448.279449,-9622.677246,-229.828649,-666.185348
1448.279760,-12287.418637,995.924147,-74.020594
1448.280071,-13693.809927,1532.190996,-222.061783
1448.280383,-14359.995275,383.047749,-0.000000
1448.280694,-13175.665768,1302.362347,-740.205942
1448.281005,-10658.965565,1608.800546,-1998.556043
1448.281317,-8956.491898,-383.047749,-2146.597232
1448.281628,-9400.615463,-919.314598,-1110.308913
1448.281940,-10658.965565,153.219100,-0.000000
1448.282251,-10732.986159,689.485948,1924.535449
1448.282562,-11473.192101,-1149.143247,3552.988522
1448.282874,-12065.356855,-2604.724693,3034.844362
1448.283185,-9400.615463,-689.485948,592.164754
1448.283496,-5403.503377,2987.772442,-74.020594
1448.283808,-4219.173869,1838.629195,-296.082377
1448.284119,-6809.894666,153.219100,-296.082377
1448.284430,-9474.636058,-612.876398,962.267725
1448.284742,-10732.986159,-306.438199,1776.494261
1448.285053,-10214.842000,306.438199,2960.823768
1448.285364,-9918.759623,842.705048,1184.329507
1448.285676,-6587.832884,2528.115143,-148.041188
1448.285987,-2664.741391,1762.019645,-888.247130
1448.286299,-2738.761985,-536.266849,-962.267725
1448.286610,-3997.112087,-766.095498,740.205942
1448.286921,-5477.523971,0.000000,1998.556043
1448.287233,-9400.615463,-1838.629195,3627.009116
1448.287544,-9992.780217,-3600.648841,5329.482782
1448.287855,-8586.388927,-2298.286494,3701.029710
1448.288167,-5921.647536,-1302.362347,1850.514855
1448.288478,-4441.235652,-689.485948,370.102971
1448.288789,-5847.626942,-306.438199,-1702.473667
1448.289101,-7994.224174,1072.533697,-1258.350101
1448.289412,-10140.821405,306.438199,-74.020594
1448.289723,-12213.398043,-1608.800546,1554.432478
1448.290035,-12879.583391,-1762.019645,1702.473667
1448.290346,-12953.603985,-536.266849,592.164754
1448.290658,-10436.903782,1378.971896,-74.020594
1448.290969,-7846.182985,1762.019645,-740.205942
1448.291280,-8068.244768,1532.190996,-962.267725
1448.291592,-10066.800811,1302.362347,-518.144159
1448.291903,-10140.821405,1072.533697,370.102971
1448.292214,-10881.027347,766.095498,1480.411884
1448.292526,-11103.089130,612.876398,1554.432478
1448.292837,-8660.409521,766.095498,-518.144159
1448.293148,-8438.347739,842.705048,-2072.576638
1448.293460,-8512.368333,536.266849,-1998.556043
1448.293771,-10066.800811,0.000000,-1998.556043
1448.294082,-13545.768739,919.314598,-1406.391290
1448.294394,-15248.242405,1149.143247,814.226536
1448.294705,-14878.139434,-229.828649,1480.411884
1448.295016,-13471.748144,-995.924147,962.267725
1448.295328,-10510.924376,689.485948,-0.000000
1448.295639,-5403.503377,1225.752797,-296.082377
1448.295950,-4219.173869,0.000000,814.226536
1448.296262,-6809.894666,229.828649,1924.535449
1448.296573,-7105.977043,-306.438199,2146.597232
1448.296884,-7476.080014,0.000000,2146.597232
1448.297195,-7550.100608,-1455.581446,3034.844362
1448.297507,-6957.935855,-1608.800546,814.226536
1448.297818,-4515.256246,-459.657299,-444.123565
1448.298129,-3182.885551,0.000000,-1554.432478
1448.298441,-4663.297435,-1225.752797,-518.144159
1448.298752,-6143.709319,-1838.629195,1184.329507
1448.299063,-9326.594869,-1378.971896,1702.473667
1448.299375,-11251.130318,-2298.286494,2960.823768
1448.299686,-10807.006753,-2757.943793,2738.761985
1448.299997,-7994.224174,-383.047749,1850.514855
1448.300309,-5699.585753,76.609550,370.102971
1448.300620,-5551.544565,-2374.896044,-592.164754
1448.300931,-6069.688724,-2987.772442,888.247130
1448.301243,-8512.368333,-1608.800546,1554.432478
1448.301554,-9696.697840,-689.485948,2368.659014
1448.301865,-11325.150913,-1991.848295,2220.617826
1448.302177,-12065.356855,-1685.410096,814.226536
1448.302488,-9844.739029,995.924147,-962.267725
1448.302799,-7254.018232,842.705048,-1850.514855
1448.303110,-7772.162391,1455.581446,-2072.576638
1448.303422,-10584.944971,2604.724693,-1110.308913
1448.303733,-12657.521608,1685.410096,-222.061783
1448.304044,-14582.057057,459.657299,1184.329507
1448.304356,-13693.809927,766.095498,2146.597232
1448.304667,-11843.295072,1072.533697,814.226536
1448.304978,-9178.553681,842.705048,-1036.288319
1448.305290,-6513.812290,995.924147,-1480.411884
1448.305601,-8512.368333,-153.219100,-1776.494261
1448.305912,-10510.924376,-459.657299,-1110.308913
1448.306224,-11917.315666,536.266849,592.164754
1448.306535,-13323.706956,612.876398,1554.432478
1448.306846,-13545.768739,1149.143247,2590.720797
1448.307158,-9992.780217,1072.533697,1332.370696
1448.307469,-5921.647536,1838.629195,-1184.329507
1448.307780,-3849.070898,1455.581446,-148.041188
1448.308092,-5181.441594,1378.971896,-296.082377
1448.308403,-7402.059420,1378.971896,-0.000000
1448.308714,-9474.636058,1072.533697,1332.370696
1448.309025,-9696.697840,-306.438199,2368.659014
1448.309337,-8882.471304,-1532.190996,1628.453072
1448.309648,-6957.935855,-153.219100,814.226536
1448.309959,-4441.235652,-1072.533697,222.061783
1448.310271,-4737.318029,-3064.381992,-74.020594
1448.310582,-5107.421000,-2911.162892,1480.411884
1448.310893,-6217.729913,-1762.019645,1998.556043
1448.311205,-8216.285956,-2451.505594,2664.741391
1448.311516,-8216.285956,-4290.134789,3552.988522
1448.311827,-6883.915261,-4979.620737,1924.535449
1448.312139,-5181.441594,-3600.648841,592.164754
1448.312450,-4367.215058,-2451.505594,-370.102971
1448.312761,-4737.318029,-4519.963438,222.061783
1448.313073,-8364.327145,-5898.935335,518.144159
1448.313384,-12065.356855,-5592.497135,1110.308913
1448.313695,-13619.789333,-3677.258390,962.267725
1448.314007,-13027.624579,-2068.457845,1184.329507
1448.314318,-11843.295072,-2451.505594,888.247130
1448.314629,-10510.924376,-3677.258390,-1406.391290
1448.314940,-8364.327145,-1762.019645,-2516.700203
1448.315252,-7179.997637,919.314598,-1850.514855
1448.315563,-9622.677246,0.000000,-962.267725
1448.315874,-13767.830521,-459.657299,296.082377
1448.316186,-13915.871710,-995.924147,740.205942
1448.316497,-12065.356855,-1302.362347,814.226536
1448.316808,-10510.924376,-995.924147,222.061783
1448.317120,-10214.842000,-306.438199,-1924.535449
1448.317431,-8068.244768,689.485948,-3108.864956
1448.317742,-6661.853478,-1455.581446,-2664.741391
1448.318054,-9178.553681,-3983.696590,222.061783
1448.318365,-13323.706956,-3830.477490,1258.350101
1448.318676,-16432.571912,-3217.601092,1480.411884
1448.318988,-13323.706956,-3830.477490,2516.700203
1448.319299,-9696.697840,-4366.744339,2146.597232
1448.319610,-7254.018232,-4519.963438,-74.020594
1448.319922,-5921.647536,-4596.572988,-1480.411884
1448.320233,-4293.194464,-6052.154434,-74.020594
1448.320544,-3627.009116,-5056.230287,370.102971
1448.320855,-7328.038826,-1225.752797,2146.597232
1448.321167,-11251.130318,-1072.533697,2812.782580
1448.321478,-12213.398043,-3600.648841,4145.153275
1448.321789,-8364.327145,-2604.724693,4811.338623
1448.322101,-3552.988522,-383.047749,3034.844362
1448.322412,-3034.844362,-766.095498,-592.164754
1448.322723,-2960.823768,-2604.724693,-1776.494261
1448.323035,-2886.803174,-3217.601092,-1776.494261
1448.323346,-2738.761985,-2451.505594,-1258.350101
1448.323657,-7105.977043,-2757.943793,740.205942
1448.323969,-13027.624579,-5132.839837,1998.556043
1448.324280,-14137.933492,-5515.887586,3108.864956
1448.324591,-11843.295072,-4673.182538,2960.823768
1448.324903,-8216.285956,-3140.991542,2516.700203
1448.325214,-6957.935855,-5439.278036,666.185348
1448.325525,-6883.915261,-7890.783629,-518.144159
1448.325837,-5477.523971,-6205.373534,-1258.350101
1448.326148,-4885.359217,-1915.238745,-1406.391290
1448.326459,-6735.874072,-1302.362347,-222.061783
1448.326770,-11991.336260,-4826.401637,2442.679609
1448.327082,-14211.954086,-7507.735880,2664.741391
1448.327393,-13989.892304,-4826.401637,2368.659014
1448.327704,-13693.809927,-1072.533697,370.102971
1448.328016,-12065.356855,-459.657299,-518.144159
1448.328327,-10955.047942,-2374.896044,-2368.659014
1448.328638,-8660.409521,-3140.991542,-3330.926739
1448.328950,-7328.038826,-1532.190996,-3478.967927
1448.329261,-8438.347739,689.485948,-2812.782580
1448.329572,-10732.986159,1915.238745,148.041188
1448.329884,-11029.068536,-766.095498,1776.494261
1448.330195,-11695.253884,-4903.011187,2368.659014
1448.330506,-12213.398043,-5362.668486,2368.659014
1448.330818,-12213.398043,-2528.115143,962.267725
1448.331129,-10436.903782,-1149.143247,-74.020594
1448.331440,-8216.285956,-2221.676944,-1332.370696
1448.331752,-6587.832884,-3217.601092,-888.247130
1448.332063,-5847.626942,-4366.744339,-2146.597232
1448.332374,-6217.729913,-2221.676944,-814.226536
1448.332685,-7105.977043,-1225.752797,370.102971
1448.332997,-8438.347739,459.657299,1184.329507
1448.333308,-10732.986159,459.657299,1850.514855
1448.333619,-10881.027347,459.657299,2812.782580
1448.333931,-10807.006753,0.000000,2368.659014
1448.334242,-8586.388927,-536.266849,2442.679609
1448.334553,-6217.729913,-919.314598,1776.494261
1448.334865,-4737.318029,-1762.019645,296.082377
1448.335176,-3849.070898,-2221.676944,296.082377
1448.335487,-2516.700203,-3907.087040,-74.020594
1448.335799,-2368.659014,-5975.544884,-222.061783
1448.336110,-4145.153275,-6435.202183,-666.185348
1448.336421,-7179.997637,-4673.182538,-0.000000
1448.336733,-10362.883188,-3140.991542,148.041188
1448.337044,-12139.377449,-2451.505594,1628.453072
1448.337355,-12287.418637,-3753.867940,3849.070898
1448.337667,-12509.480420,-6052.154434,4737.318029
1448.337978,-11917.315666,-6281.983084,4737.318029
1448.338289,-9770.718434,-6281.983084,4293.194464
1448.338600,-6957.935855,-5669.106685,1554.432478
1448.338912,-4515.256246,-5132.839837,-518.144159
1448.339223,-3775.050304,-4673.182538,-2072.576638
1448.339534,-4811.338623,-3830.477490,-3330.926739
1448.339846,-6217.729913,-3140.991542,-2442.679609
1448.340157,-8438.347739,-2528.115143,-1776.494261
1448.340468,-11473.192101,-3064.381992,-296.082377
1448.340780,-13989.892304,-2681.334243,1036.288319
1448.341091,-14730.098246,-2604.724693,2368.659014
1448.341402,-15396.283594,-2451.505594,2368.659014
1448.341714,-13767.830521,-2681.334243,2738.761985
1448.342025,-12139.377449,-3294.210641,2220.617826
1448.342336,-10140.821405,-4136.915689,814.226536
1448.342648,-7105.977043,-5669.106685,740.205942
1448.342959,-4737.318029,-7124.688131,-370.102971
1448.343270,-4367.215058,-7431.126331,-1258.350101
1448.343582,-6143.709319,-6281.983084,-2072.576638
1448.343893,-7105.977043,-3294.210641,-2368.659014
1448.344204,-9770.718434,-1302.362347,-1776.494261
1448.344515,-12657.521608,-612.876398,-666.185348
1448.344827,-14434.015869,-766.095498,888.247130
1448.345138,-14730.098246,-1149.143247,1332.370696
1448.345449,-12139.377449,-1685.410096,1924.535449
1448.345761,-9474.636058,-2451.505594,2220.617826
1448.346072,-5699.585753,-3677.258390,1036.288319
1448.346383,-6217.729913,-3294.210641,74.020594
1448.346695,-6291.750507,-3064.381992,222.061783
1448.347006,-5551.544565,-1455.581446,-444.123565
1448.347317,-6143.709319,306.438199,-0.000000
1448.347629,-6735.874072,76.609550,-1036.288319
1448.347940,-6661.853478,-766.095498,-1036.288319
1448.348251,-5181.441594,-1072.533697,-814.226536
1448.348563,-5625.565159,-995.924147,-740.205942
1448.348874,-7550.100608,-1991.848295,444.123565
1448.349185,-9844.739029,-3600.648841,814.226536
1448.349497,-11695.253884,-3830.477490,2146.597232
1448.349808,-11473.192101,-4290.134789,2664.741391
1448.350119,-10658.965565,-4903.011187,2738.761985
1448.350430,-8882.471304,-4213.525239,2072.576638
1448.350742,-7402.059420,-3217.601092,888.247130
1448.351053,-6217.729913,-3217.601092,-74.020594
1448.351364,-5773.606348,-1762.019645,-962.267725
1448.351676,-5551.544565,459.657299,-740.205942
1448.351987,-5699.585753,-153.219100,-888.247130
1448.352298,-7476.080014,-1378.971896,-592.164754
1448.352610,-8882.471304,-2068.457845,148.041188
1448.352921,-10584.944971,-3294.210641,1480.411884
1448.353232,-12065.356855,-5592.497135,2664.741391
1448.353544,-11991.336260,-6588.421283,3256.906145
1448.353855,-12879.583391,-6052.154434,3034.844362
1448.354166,-12139.377449,-6128.763984,2664.741391
1448.354478,-10881.027347,-3983.696590,1554.432478
1448.354789,-9252.574275,-2068.457845,444.123565
1448.355100,-7772.162391,-612.876398,-74.020594
1448.355412,-7179.997637,0.000000,-296.082377
1448.355723,-6587.832884,459.657299,-148.041188
1448.356034,-7402.059420,-612.876398,148.041188
1448.356345,-8290.306550,-2987.772442,592.164754
1448.356657,-9178.553681,-3294.210641,888.247130
1448.356968,-10066.800811,-3677.258390,1110.308913
1448.357279,-11103.089130,-4136.915689,1332.370696
1448.357591,-11843.295072,-5362.668486,1850.514855
1448.357902,-11251.130318,-6665.030833,1924.535449
1448.358213,-9696.697840,-6205.373534,2220.617826
1448.358525,-8068.244768,-5822.325785,1850.514855
1448.358836,-7624.121203,-3983.696590,666.185348
1448.359147,-6661.853478,-2757.943793,222.061783
1448.359459,-6069.688724,-2221.676944,-888.247130
1448.359770,-6143.709319,-1762.019645,-814.226536
1448.360081,-7031.956449,-612.876398,-1258.350101
1448.360393,-8290.306550,-153.219100,-518.144159
1448.360704,-9400.615463,-2374.896044,-0.000000
1448.361015,-10066.800811,-3907.087040,1184.329507
1448.361327,-9252.574275,-4366.744339,1924.535449
1448.361638,-9918.759623,-3753.867940,962.267725
1448.361949,-7846.182985,-3217.601092,1406.391290
1448.362260,-8882.471304,-3524.039291,-74.020594
1448.362572,-8364.327145,-2604.724693,-222.061783
1448.362883,-6291.750507,-1225.752797,-1036.288319
1448.363194,-7105.977043,-1378.971896,-1554.432478
1448.363506,-8364.327145,-2681.334243,-0.000000
1448.363817,-11177.109724,-2681.334243,-666.185348
1448.364128,-10214.842000,-1915.238745,740.205942
1448.364440,-9696.697840,-1532.190996,1258.350101
1448.364751,-9474.636058,-3064.381992,2442.679609
1448.365062,-9252.574275,-4213.525239,2220.617826
1448.365374,-8956.491898,-4213.525239,1702.473667
1448.365685,-8586.388927,-2604.724693,2368.659014
1448.365996,-9400.615463,-1225.752797,1850.514855
1448.366308,-11917.315666,-536.266849,592.164754
1448.366619,-10955.047942,842.705048,962.267725
1448.366930,-10066.800811,-536.266849,296.082377
1448.367242,-8216.285956,153.219100,1110.308913
1448.367553,-7402.059420,0.000000,888.247130
1448.367864,-8142.265362,-1838.629195,1998.556043
1448.368175,-8586.388927,-4060.306139,3478.967927
1448.368487,-9918.759623,-3983.696590,4367.215058
1448.368798,-9178.553681,-2145.067394,6809.894666
1448.369109,-12361.439231,-2451.505594,5847.626942
1448.369421,-11917.315666,-2757.943793,7105.977043
1448.369732,-8586.388927,-1072.533697,4663.297435
1448.370043,-7402.059420,1072.533697,4145.153275
1448.370355,-6735.874072,1915.238745,3256.906145
1448.370666,-6217.729913,1149.143247,2072.576638
1448.370977,-7254.018232,536.266849,1702.473667
1448.371289,-5329.482782,1532.190996,3849.070898
1448.371600,-8512.368333,459.657299,2738.761985
1448.371911,-10510.924376,0.000000,5699.585753
1448.372223,-10807.006753,-766.095498,7031.956449
1448.372534,-9178.553681,-2834.553343,7031.956449
1448.372845,-7920.203579,-2145.067394,7254.018232
1448.373157,-8438.347739,-612.876398,5773.606348
1448.373468,-7031.956449,229.828649,5551.544565
1448.373779,-6587.832884,689.485948,3256.906145
1448.374090,-5477.523971,1149.143247,3478.967927
1448.374402,-7179.997637,2528.115143,2664.741391
1448.374713,-9030.512492,2528.115143,3627.009116
1448.375024,-8808.450710,1378.971896,3552.988522
1448.375336,-7624.121203,306.438199,4515.256246
1448.375647,-7846.182985,-612.876398,4885.359217
1448.375958,-8586.388927,-1455.581446,5329.482782
1448.376270,-8734.430116,-2068.457845,6069.688724
1448.376581,-8216.285956,-1378.971896,5403.503377
1448.376892,-8438.347739,306.438199,5181.441594
1448.377204,-9474.636058,1225.752797,3627.009116
1448.377515,-10066.800811,1072.533697,3701.029710
1448.377826,-8956.491898,2068.457845,3108.864956
1448.378138,-8068.244768,2681.334243,2368.659014
1448.378449,-8438.347739,995.924147,2368.659014
1448.378760,-7698.141797,-459.657299,2294.638420
1448.379072,-7476.080014,-1072.533697,2294.638420
1448.379383,-6439.791695,-842.705048,2738.761985
1448.379694,-6883.915261,-2068.457845,3108.864956
1448.380005,-8734.430116,-2451.505594,3552.988522
1448.380317,-9844.739029,-1532.190996,3997.112087
1448.380628,-10807.006753,-1532.190996,3997.112087
1448.380939,-10732.986159,-536.266849,3701.029710
1448.381251,-11695.253884,229.828649,3330.926739
1448.381562,-11251.130318,229.828649,2220.617826
1448.381873,-10658.965565,995.924147,1850.514855
1448.382185,-8882.471304,1838.629195,1184.329507
1448.382496,-8734.430116,1378.971896,1332.370696
1448.382807,-9474.636058,0.000000,2072.576638
1448.383119,-9252.574275,-1378.971896,3330.926739
1448.383430,-9400.615463,-2145.067394,3997.112087
1448.383741,-8734.430116,-1685.410096,4589.276840
1448.384053,-8512.368333,-1608.800546,4367.215058
1448.384364,-8290.306550,-1608.800546,3108.864956
1448.384675,-7105.977043,0.000000,2220.617826
1448.384987,-6365.771101,1149.143247,814.226536
1448.385298,-8068.244768,919.314598,-296.082377
1448.385609,-9252.574275,1838.629195,296.082377
1448.385920,-10807.006753,1149.143247,1110.308913
1448.386232,-12361.439231,842.705048,2738.761985
1448.386543,-12287.418637,-153.219100,3923.091493
1448.386854,-12065.356855,-766.095498,4589.276840
1448.387166,-9844.739029,-995.924147,4811.338623
1448.387477,-7105.977043,-1302.362347,4071.132681
1448.387788,-4367.215058,-2145.067394,3108.864956
1448.388100,-3552.988522,-1838.629195,1998.556043
1448.388411,-5033.400406,-995.924147,1184.329507
1448.388722,-7476.080014,0.000000,1702.473667
1448.389034,-10214.842000,2145.067394,3182.885551
1448.389345,-13249.686362,2681.334243,4663.297435
1448.389656,-14730.098246,1762.019645,5995.668130
1448.389968,-12953.603985,76.609550,6291.750507
1448.390279,-9844.739029,459.657299,5181.441594
1448.390590,-6069.688724,153.219100,4071.132681
1448.390902,-4293.194464,689.485948,2368.659014
1448.391213,-3404.947333,459.657299,1776.494261
1448.391524,-3775.050304,0.000000,1702.473667
1448.391835,-6365.771101,-153.219100,2960.823768
1448.392147,-9400.615463,459.657299,4219.173869
1448.392458,-11843.295072,0.000000,4589.276840
1448.392769,-12287.418637,919.314598,5033.400406
1448.393081,-11325.150913,153.219100,5403.503377
1448.393392,-10140.821405,-1455.581446,5403.503377
1448.393703,-8882.471304,-1915.238745,4811.338623
1448.394015,-7846.182985,-1685.410096,4885.359217
1448.394326,-6439.791695,-306.438199,5329.482782
1448.394637,-6883.915261,-306.438199,5699.585753
1448.394949,-8512.368333,-306.438199,5921.647536
1448.395260,-8882.471304,-306.438199,5921.647536
1448.395571,-8882.471304,612.876398,4663.297435
1448.395883,-7402.059420,2451.505594,3034.844362
1448.396194,-7550.100608,3753.867940,1480.411884
1448.396505,-7994.224174,3600.648841,370.102971
1448.396817,-7698.141797,3217.601092,-0.000000
1448.397128,-7846.182985,2528.115143,1036.288319
1448.397439,-8882.471304,1455.581446,2516.700203
1448.397751,-11547.212695,-689.485948,4737.318029
1448.398062,-13619.789333,-2681.334243,6217.729913
1448.398373,-13471.748144,-2834.553343,7772.162391
1448.398685,-12065.356855,-1685.410096,8142.265362
1448.398996,-10214.842000,-995.924147,7254.018232
1448.399307,-7698.141797,-995.924147,5329.482782
1448.399619,-5477.523971,-229.828649,2220.617826
1448.399930,-2368.659014,2221.676944,888.247130
1448.400241,-1702.473667,3294.210641,-74.020594
1448.400553,-4367.215058,3064.381992,666.185348
1448.400864,-7476.080014,1302.362347,2072.576638
1448.401175,-10362.883188,-842.705048,3775.050304
1448.401487,-12953.603985,-1378.971896,5625.565159
1448.401798,-14508.036463,-1532.190996,7105.977043
1448.402109,-14211.954086,-1762.019645,7550.100608
1448.402421,-13619.789333,-2374.896044,7772.162391
1448.402732,-11177.109724,-2451.505594,6809.894666
1448.403043,-8290.306550,-1302.362347,5995.668130
1448.403355,-5033.400406,-689.485948,4441.235652
1448.403666,-1850.514855,-383.047749,2812.782580
1448.403977,-296.082377,459.657299,962.267725
1448.404289,-814.226536,306.438199,222.061783
1448.404600,-3034.844362,1378.971896,666.185348
1448.404911,-6735.874072,76.609550,1258.350101
1448.405223,-12213.398043,-842.705048,1924.535449
1448.405534,-16210.510130,-1149.143247,4811.338623
1448.405845,-19615.457463,-919.314598,6439.791695
1448.406157,-20503.704593,0.000000,7476.080014
1448.406468,-16876.695478,919.314598,6957.935855
1448.406779,-10955.047942,1072.533697,5181.441594
1448.407091,-3849.070898,0.000000,3256.906145
1448.407402,1480.411884,536.266849,592.164754
1448.407713,4515.256246,1302.362347,-2664.741391
1448.408025,3627.009116,2298.286494,-4441.235652
1448.408336,-1110.308913,2068.457845,-3108.864956
1448.408647,-7624.121203,1225.752797,-1332.370696
1448.408959,-15766.386565,766.095498,3330.926739
1448.409270,-22946.384202,76.609550,6957.935855
1448.409581,-24574.837274,-536.266849,9474.636058
1448.409893,-20503.704593,-1762.019645,9474.636058
1448.410204,-14137.933492,-2451.505594,7920.203579
1448.410515,-6513.812290,-2834.553343,5551.544565
1448.410827,-518.144159,-2987.772442,1406.391290
1448.411138,3256.906145,-1302.362347,-1628.453072
1448.411449,3034.844362,1378.971896,-2960.823768
1448.411761,-1554.432478,2757.943793,-1850.514855
1448.412072,-7994.224174,766.095498,-444.123565
1448.412383,-13989.892304,1225.752797,2146.597232
1448.412695,-17838.963202,1149.143247,4959.379811
1448.413006,-19245.354492,995.924147,7105.977043
1448.413317,-16136.489536,-919.314598,7476.080014
1448.413629,-11547.212695,-1685.410096,5995.668130
1448.413940,-7772.162391,-2834.553343,4737.318029
1448.414251,-3552.988522,-689.485948,2886.803174
1448.414563,-2146.597232,919.314598,1924.535449
1448.414874,-4071.132681,1838.629195,2146.597232
1448.415185,-6291.750507,1378.971896,3552.988522
1448.415497,-8512.368333,-229.828649,3552.988522
1448.415808,-7994.224174,0.000000,2812.782580
1448.416119,-6809.894666,2145.067394,2368.659014
1448.416431,-7105.977043,1762.019645,2442.679609
1448.416742,-10066.800811,-1302.362347,3256.906145
1448.417053,-12213.398043,-2528.115143,4589.276840
1448.417365,-12805.562797,-1915.238745,7105.977043
1448.417676,-11991.336260,-766.095498,8142.265362
1448.417987,-10140.821405,306.438199,6883.915261
1448.418299,-8808.450710,76.609550,5107.421000
1448.418610,-6513.812290,459.657299,3849.070898
1448.418921,-2812.782580,1149.143247,1702.473667
1448.419233,-1036.288319,2681.334243,-1480.411884
1448.419544,-2294.638420,3600.648841,-3478.967927
1448.419855,-3478.967927,2757.943793,-3849.070898
1448.420167,-6143.709319,1838.629195,-1998.556043
1448.420478,-10955.047942,612.876398,1332.370696
1448.420789,-16950.716072,-1149.143247,6069.688724
1448.421101,-21021.848753,-3830.477490,9474.636058
1448.421412,-19393.395680,-4060.306139,11325.150913
1448.421723,-14952.160028,-4596.572988,8216.285956
1448.422035,-7920.203579,-3294.210641,4071.132681
1448.422346,-2368.659014,-2145.067394,-296.082377
1448.422657,3182.885551,1072.533697,-5181.441594
1448.422969,4811.338623,3600.648841,-7105.977043
1448.423280,444.123565,3907.087040,-6365.771101
1448.423591,-6735.874072,3524.039291,-3034.844362
1448.423903,-12509.480420,689.485948,444.123565
1448.424214,-17172.777854,-1302.362347,3256.906145
1448.424525,-18061.024985,-1149.143247,4441.235652
1448.424837,-17838.963202,-995.924147,3849.070898
1448.425148,-15544.324782,-995.924147,2368.659014
1448.425459,-11695.253884,-1685.410096,1184.329507
1448.425771,-7846.182985,-1685.410096,-518.144159
1448.426082,-4663.297435,-229.828649,-1628.453072
1448.426393,-4293.194464,76.609550,-2886.803174
1448.426705,-3108.864956,-842.705048,-3478.967927
1448.427016,-3182.885551,-1455.581446,-4367.215058
1448.427327,-5329.482782,0.000000,-3775.050304
1448.427639,-9178.553681,1225.752797,-2368.659014
1448.427950,-14952.160028,0.000000,-666.185348
1448.428261,-17394.839637,-689.485948,1628.453072
1448.428572,-17838.963202,-1685.410096,1850.514855
1448.428884,-15618.345376,-1762.019645,2220.617826
1448.429195,-12213.398043,-1838.629195,1184.329507
1448.429506,-7994.224174,-1762.019645,-148.041188
1448.429818,-4959.379811,-766.095498,-1554.432478
1448.430129,-5403.503377,76.609550,-1998.556043
1448.430440,-6143.709319,1149.143247,-2442.679609
1448.430752,-7698.141797,2451.505594,-2368.659014
1448.431063,-7624.121203,2681.334243,-2812.782580
1448.431374,-6661.853478,842.705048,-2590.720797
1448.431686,-6735.874072,0.000000,-2294.638420
1448.431997,-7476.080014,-612.876398,-370.102971
1448.432308,-9844.739029,-842.705048,1776.494261
1448.432620,-13471.748144,-1762.019645,4663.297435
1448.432931,-15248.242405,-1302.362347,6809.894666
1448.433242,-15100.201217,76.609550,7105.977043
1448.433554,-11917.315666,0.000000,5625.565159
1448.433865,-5181.441594,-1225.752797,1480.411884
1448.434176,1628.453072,-766.095498,-4367.215058
1448.434488,5921.647536,1455.581446,-8290.306550
1448.434799,3849.070898,2911.162892,-7624.121203
1448.435110,-5107.421000,2604.724693,-4515.256246
1448.435422,-14878.139434,459.657299,518.144159
1448.435733,-21910.095883,-1455.581446,5995.668130
1448.436044,-21762.054695,-3294.210641,9548.656652
1448.436356,-16432.571912,-2451.505594,7920.203579
1448.436667,-9696.697840,-1762.019645,3923.091493
1448.436978,-4219.173869,-1608.800546,-0.000000
1448.437290,-1998.556043,-153.219100,-1776.494261
1448.437601,-2368.659014,1915.238745,-2146.597232
1448.437912,-6143.709319,3907.087040,-1480.411884
1448.438224,-9770.718434,3294.210641,-74.020594
1448.438535,-10362.883188,1762.019645,-74.020594
1448.438846,-8882.471304,1608.800546,-2072.576638
1448.439158,-6957.935855,842.705048,-962.267725
1448.439469,-7254.018232,-842.705048,-222.061783
1448.439780,-10732.986159,-2528.115143,962.267725
1448.440092,-13175.665768,-1762.019645,3034.844362
1448.440403,-15322.262999,-919.314598,5107.421000
1448.440714,-13915.871710,-1685.410096,5995.668130
1448.441026,-9696.697840,-1838.629195,4219.173869
1448.441337,-6217.729913,-1302.362347,296.082377
1448.441648,-2294.638420,-689.485948,-1406.391290
1448.441960,-2072.576638,1072.533697,-2960.823768
1448.442271,-5181.441594,2528.115143,-2664.741391
1448.442582,-9622.677246,3140.991542,-2220.617826
1448.442894,-12213.398043,766.095498,-814.226536
1448.443205,-11547.212695,153.219100,2072.576638
1448.443516,-10214.842000,0.000000,1850.514855
1448.443828,-8142.265362,-919.314598,2146.597232
1448.444139,-7624.121203,-3524.039291,2738.761985
1448.444450,-8808.450710,-3677.258390,3330.926739
1448.444762,-11325.150913,-1608.800546,3256.906145
1448.445073,-12657.521608,-612.876398,2812.782580
1448.445384,-11103.089130,-459.657299,814.226536
1448.445696,-8364.327145,536.266849,-1924.535449
1448.446007,-3552.988522,1225.752797,-3923.091493
1448.446318,-1924.535449,766.095498,-5033.400406
1448.446630,-3701.029710,229.828649,-3034.844362
1448.446941,-7624.121203,-536.266849,-74.020594
1448.447252,-11621.233289,-1915.238745,3108.864956
1448.447564,-15100.201217,-2834.553343,4737.318029
1448.447875,-15174.221811,-995.924147,4959.379811
1448.448186,-12065.356855,459.657299,1998.556043
1448.448498,-8364.327145,1149.143247,-1036.288319
1448.448809,-4959.379811,1915.238745,-3775.050304
1448.449120,-4737.318029,2068.457845,-5477.523971
1448.449432,-6809.894666,2298.286494,-4959.379811
1448.449743,-9474.636058,3064.381992,-3404.947333
1448.450054,-11177.109724,2145.067394,-1480.411884
1448.450366,-11621.233289,842.705048,148.041188
1448.450677,-11399.171507,-306.438199,1332.370696
1448.450988,-10066.800811,-1225.752797,2220.617826
1448.451300,-8068.244768,-2681.334243,2072.576638
1448.451611,-4811.338623,-4213.525239,-666.185348
1448.451922,-4663.297435,-2068.457845,-3330.926739
1448.452234,-6217.729913,1608.800546,-1554.432478
1448.452545,-10584.944971,1608.800546,-296.082377
1448.452856,-14582.057057,536.266849,518.144159
1448.453168,-15396.283594,-766.095498,-0.000000
1448.453479,-12213.398043,0.000000,-0.000000
1448.453790,-7550.100608,76.609550,-1184.329507
1448.454102,-5181.441594,-229.828649,-2738.761985
1448.454413,-6217.729913,-612.876398,-2886.803174
1448.454724,-9178.553681,-1149.143247,-740.205942
1448.455036,-12065.356855,-1915.238745,3627.009116
1448.455347,-13027.624579,-1838.629195,5181.441594
1448.455658,-12953.603985,-2068.457845,5107.421000
1448.455970,-10584.944971,-2757.943793,2664.741391
1448.456281,-7031.956449,-1915.238745,962.267725
1448.456592,-3404.947333,0.000000,-1480.411884
1448.456904,-3404.947333,1225.752797,-1702.473667
1448.457215,-6069.688724,1991.848295,-2516.700203
1448.457526,-7402.059420,1378.971896,-148.041188
1448.457838,-10066.800811,995.924147,888.247130
1448.458149,-10955.047942,0.000000,2072.576638
1448.458460,-10362.883188,689.485948,2368.659014
1448.458772,-9178.553681,0.000000,1998.556043
1448.459083,-9992.780217,-842.705048,2220.617826
1448.459394,-11251.130318,-383.047749,2738.761985
1448.459706,-11695.253884,612.876398,3256.906145
1448.460017,-11103.089130,689.485948,2294.638420
1448.460328,-8290.306550,1149.143247,1406.391290
1448.460640,-4219.173869,459.657299,-962.267725
1448.460951,-1258.350101,1302.362347,-2146.597232
1448.461262,-1850.514855,1225.752797,-1184.329507
1448.461574,-5625.565159,0.000000,1110.308913
1448.461885,-9992.780217,0.000000,2886.803174
1448.462196,-13989.892304,536.266849,4145.153275
1448.462508,-13915.871710,229.828649,4589.276840
1448.462819,-11547.212695,-306.438199,2590.720797
1448.463130,-7698.141797,919.314598,-0.000000
1448.463442,-4885.359217,995.924147,-1554.432478
1448.463753,-5255.462188,689.485948,-2072.576638
1448.464064,-8290.306550,689.485948,-148.041188
1448.464376,-11843.295072,766.095498,1554.432478
1448.464687,-13619.789333,-766.095498,2886.803174
1448.464998,-12435.459826,-2221.676944,2960.823768
1448.465310,-9992.780217,-1838.629195,1480.411884
1448.465621,-6217.729913,-1302.362347,-0.000000
1448.465932,-3627.009116,-2068.457845,-962.267725
1448.466244,-5403.503377,-2604.724693,-444.123565
1448.466555,-8660.409521,-2451.505594,1036.288319
1448.466866,-11325.150913,-689.485948,2590.720797
1448.467178,-12657.521608,306.438199,3478.967927
1448.467489,-11621.233289,459.657299,2664.741391
1448.467800,-9400.615463,229.828649,-0.000000
1448.468112,-6365.771101,842.705048,-1406.391290
1448.468423,-5181.441594,1378.971896,-3404.947333
1448.468734,-7624.121203,2221.676944,-3330.926739
1448.469046,-11029.068536,2145.067394,-1332.370696
1448.469357,-13693.809927,995.924147,-74.020594
1448.469668,-14285.974681,-459.657299,2368.659014
1448.469980,-12139.377449,-842.705048,2886.803174
1448.470291,-8660.409521,-2145.067394,1480.411884
1448.470602,-3627.009116,-3370.820191,740.205942
1448.470914,-1924.535449,-4060.306139,-2294.638420
1448.471225,-3997.112087,-1915.238745,-1628.453072
1448.471536,-7254.018232,1225.752797,666.185348
1448.471848,-12435.459826,689.485948,1258.350101
1448.472159,-15766.386565,1378.971896,2220.617826
1448.472470,-13989.892304,1608.800546,1406.391290
1448.472782,-9474.636058,2221.676944,-0.000000
1448.473093,-5181.441594,2528.115143,-1332.370696
1448.473404,-4515.256246,1838.629195,-2738.761985
1448.473716,-5847.626942,842.705048,-2368.659014
1448.474027,-7920.203579,919.314598,-370.102971
1448.474338,-10362.883188,1225.752797,1480.411884
1448.474650,-11991.336260,612.876398,1850.514855
1448.474961,-11029.068536,383.047749,1258.350101
1448.475272,-8216.285956,766.095498,-0.000000
1448.475584,-5847.626942,0.000000,-296.082377
1448.475895,-6513.812290,-1072.533697,-148.041188
1448.476206,-8438.347739,-1225.752797,-0.000000
1448.476518,-9326.594869,-995.924147,592.164754
1448.476829,-9992.780217,-459.657299,1702.473667
1448.477140,-10584.944971,0.000000,1184.329507
1448.477452,-9474.636058,-459.657299,740.205942
1448.477763,-7772.162391,0.000000,740.205942
1448.478074,-7550.100608,0.000000,222.061783
1448.478386,-10214.842000,0.000000,1924.535449
1448.478697,-12583.501014,-995.924147,2886.803174
1448.479008,-13545.768739,-1378.971896,3034.844362
1448.479320,-11917.315666,-1149.143247,2442.679609
1448.479631,-9474.636058,-842.705048,1184.329507
1448.479942,-6069.688724,-229.828649,-148.041188
1448.480254,-4811.338623,-153.219100,-296.082377
1448.480565,-5477.523971,-1762.019645,592.164754
1448.480876,-7698.141797,-2528.115143,2442.679609
1448.481188,-10362.883188,-995.924147,3923.091493
1448.481499,-11621.233289,-306.438199,4367.215058
1448.481810,-10658.965565,229.828649,3849.070898
1448.482122,-7846.182985,229.828649,1776.494261
1448.482433,-5329.482782,1302.362347,-444.123565
1448.482744,-4589.276840,2068.457845,-1480.411884
1448.483056,-6513.812290,1838.629195,-1184.329507
1448.483367,-9474.636058,1991.848295,-0.000000
1448.483678,-11251.130318,1149.143247,1850.514855
1448.483990,-11769.274478,0.000000,2146.597232
1448.484301,-10214.842000,-153.219100,2368.659014
1448.484612,-7105.977043,0.000000,888.247130
1448.484924,-4441.235652,229.828649,-592.164754
1448.485235,-4959.379811,0.000000,-740.205942
1448.485546,-8364.327145,-383.047749,518.144159
1448.485858,-10584.944971,459.657299,1036.288319
1448.486169,-10362.883188,1685.410096,1406.391290
1448.486480,-9622.677246,2145.067394,592.164754
1448.486792,-8364.327145,2451.505594,-1406.391290
1448.487103,-6661.853478,1608.800546,-2294.638420
1448.487414,-6143.709319,842.705048,-2220.617826
1448.487726,-7254.018232,0.000000,-1628.453072
1448.488037,-10288.862594,-459.657299,-0.000000
1448.488348,-13619.789333,-766.095498,518.144159
1448.488660,-13767.830521,-1149.143247,2294.638420
1448.488971,-12065.356855,-2604.724693,1850.514855
1448.489282,-10362.883188,-3294.210641,962.267725
1448.489594,-7550.100608,-2145.067394,370.102971
1448.489905,-5847.626942,-2068.457845,-740.205942
1448.490216,-6735.874072,-1685.410096,-666.185348
1448.490528,-8956.491898,-995.924147,-0.000000
1448.490839,-9844.739029,-383.047749,666.185348
1448.491150,-11325.150913,612.876398,740.205942
1448.491462,-10955.047942,2298.286494,1184.329507
1448.491773,-9400.615463,1225.752797,-592.164754
1448.492084,-7105.977043,536.266849,-1776.494261
1448.492396,-5699.585753,919.314598,-1258.350101
1448.492707,-7698.141797,1532.190996,-370.102971
1448.493018,-11547.212695,612.876398,1406.391290
1448.493330,-13619.789333,229.828649,2516.700203
1448.493641,-13323.706956,-995.924147,2368.659014
1448.493952,-10510.924376,-689.485948,2516.700203
1448.494264,-7994.224174,-383.047749,1406.391290
1448.494575,-5847.626942,-536.266849,-740.205942
1448.494886,-3997.112087,-1072.533697,-888.247130
1448.495198,-5107.421000,-1378.971896,-814.226536
1448.495509,-7476.080014,-842.705048,1258.350101
1448.495820,-9696.697840,-383.047749,2220.617826
1448.496132,-11251.130318,-383.047749,2442.679609
1448.496443,-11177.109724,229.828649,1702.473667
1448.496755,-8660.409521,1532.190996,666.185348
1448.497066,-7179.997637,2451.505594,-0.000000
1448.497377,-6957.935855,1991.848295,-592.164754
1448.497689,-8142.265362,1378.971896,-518.144159
1448.498000,-9030.512492,1608.800546,-0.000000
1448.498312,-9326.594869,1685.410096,444.123565
1448.498623,-9992.780217,1302.362347,888.247130
1448.498934,-9178.553681,536.266849,1110.308913
1448.499246,-7550.100608,-612.876398,370.102971
1448.499557,-6513.812290,-1685.410096,592.164754
1448.499869,-7254.018232,-2451.505594,592.164754
1448.500180,-8438.347739,-2451.505594,740.205942
1448.500492,-7698.141797,-1378.971896,370.102971
1448.500803,-6809.894666,-689.485948,-0.000000
1448.501114,-7476.080014,-2068.457845,-592.164754
1448.501426,-8438.347739,-1149.143247,-1332.370696
1448.501737,-10214.842000,1838.629195,-814.226536
1448.502049,-12065.356855,1915.238745,222.061783
1448.502360,-13841.851115,1149.143247,1406.391290
1448.502672,-14804.118840,919.314598,1258.350101
1448.502983,-12139.377449,612.876398,666.185348
1448.503294,-8142.265362,-306.438199,-592.164754
1448.503606,-5477.523971,-612.876398,-1480.411884
1448.503917,-5921.647536,0.000000,-2072.576638
1448.504229,-5329.482782,-383.047749,-962.267725
1448.504540,-7920.203579,-2911.162892,-296.082377
1448.504852,-10584.944971,-2834.553343,1480.411884
1448.505163,-11843.295072,-1608.800546,1184.329507
1448.505474,-11695.253884,-612.876398,962.267725
1448.505786,-9548.656652,-383.047749,1554.432478
1448.506097,-8660.409521,-1149.143247,-222.061783
1448.506409,-8290.306550,-689.485948,-592.164754
1448.506720,-8216.285956,919.314598,-0.000000
1448.507031,-9474.636058,612.876398,962.267725
1448.507343,-10214.842000,76.609550,1554.432478
1448.507654,-10807.006753,229.828649,1406.391290
1448.507966,-10214.842000,766.095498,1554.432478
1448.508277,-8216.285956,1072.533697,1332.370696
1448.508589,-7624.121203,2528.115143,814.226536
1448.508900,-6735.874072,766.095498,-296.082377
1448.509211,-5921.647536,0.000000,-666.185348
1448.509523,-6217.729913,229.828649,-814.226536
1448.509834,-7105.977043,1762.019645,222.061783
1448.510146,-9030.512492,2604.724693,1184.329507
1448.510457,-10732.986159,1532.190996,2368.659014
1448.510769,-10807.006753,-459.657299,3627.009116
1448.511080,-8956.491898,-1915.238745,2072.576638
1448.511391,-5625.565159,-995.924147,148.041188
1448.511703,-4515.256246,689.485948,-1258.350101
1448.512014,-7105.977043,1302.362347,-0.000000
1448.512326,-10881.027347,-153.219100,-0.000000
1448.512637,-12657.521608,-1378.971896,1332.370696
1448.512949,-11399.171507,-842.705048,1850.514855
1448.513260,-8734.430116,-536.266849,1924.535449
1448.513571,-6957.935855,-612.876398,1924.535449
1448.513883,-6143.709319,-2068.457845,-148.041188
1448.514194,-7105.977043,-2068.457845,-962.267725
1448.514506,-7920.203579,-689.485948,222.061783
1448.514817,-9622.677246,842.705048,1480.411884
1448.515128,-11843.295072,459.657299,2072.576638
1448.515440,-11325.150913,-919.314598,1110.308913
1448.515751,-9474.636058,-459.657299,-296.082377
1448.516063,-6661.853478,1225.752797,-1332.370696
1448.516374,-4737.318029,2068.457845,-888.247130
1448.516686,-7105.977043,306.438199,-888.247130
1448.516997,-9918.759623,-1378.971896,-518.144159
1448.517308,-11399.171507,-842.705048,370.102971
1448.517620,-11769.274478,229.828649,296.082377
1448.517931,-10732.986159,536.266849,592.164754
1448.518243,-9770.718434,0.000000,296.082377
1448.518554,-8882.471304,-2221.676944,-0.000000
1448.518866,-8956.491898,-2298.286494,-296.082377
1448.519177,-9696.697840,-995.924147,-0.000000
1448.519488,-10214.842000,0.000000,444.123565
1448.519800,-9400.615463,536.266849,222.061783
1448.520111,-9252.574275,-459.657299,-222.061783
1448.520423,-9696.697840,76.609550,-0.000000
1448.520734,-8586.388927,766.095498,-1406.391290
1448.521045,-6217.729913,1838.629195,-888.247130
1448.521357,-6291.750507,1685.410096,-888.247130
1448.521668,-8512.368333,0.000000,-0.000000
1448.521980,-10881.027347,-766.095498,888.247130
1448.522291,-11029.068536,306.438199,1628.453072
1448.522603,-9400.615463,842.705048,2146.597232
1448.522914,-7846.182985,0.000000,592.164754
1448.523225,-7179.997637,-1302.362347,-0.000000
1448.523537,-6883.915261,-383.047749,-74.020594
1448.523848,-6587.832884,-536.266849,-888.247130
1448.524160,-7772.162391,0.000000,-222.061783
1448.524471,-8956.491898,842.705048,-0.000000
1448.524783,-9400.615463,229.828649,518.144159
1448.525094,-9548.656652,-229.828649,518.144159
1448.525405,-9178.553681,-306.438199,444.123565
1448.525717,-8660.409521,1072.533697,666.185348
1448.526028,-9030.512492,459.657299,-740.205942
1448.526340,-9030.512492,-153.219100,444.123565
1448.526651,-9548.656652,-536.266849,-296.082377
1448.526963,-10066.800811,536.266849,1258.350101
1448.527274,-11695.253884,995.924147,2664.741391
1448.527585,-11399.171507,-919.314598,2812.782580
1448.527897,-9770.718434,-1608.800546,1554.432478
1448.528208,-5995.668130,-1532.190996,296.082377
1448.528520,-4219.173869,-1149.143247,-444.123565
1448.528831,-6809.894666,383.047749,222.061783
1448.529142,-10214.842000,459.657299,1332.370696
1448.529454,-12139.377449,229.828649,2368.659014
1448.529765,-13027.624579,-1149.143247,3775.050304
1448.530077,-11695.253884,-1225.752797,3182.885551
1448.530388,-9178.553681,-689.485948,1258.350101
1448.530700,-5847.626942,0.000000,-296.082377
1448.531011,-4219.173869,76.609550,-1554.432478
1448.531322,-6661.853478,-153.219100,-666.185348
1448.531634,-10066.800811,536.266849,1628.453072
1448.531945,-12879.583391,1072.533697,3182.885551
1448.532257,-13175.665768,1225.752797,3923.091493
1448.532568,-11251.130318,1762.019645,3182.885551
1448.532880,-7624.121203,1302.362347,1332.370696
1448.533191,-4145.153275,76.609550,-0.000000
1448.533502,-3034.844362,76.609550,-1332.370696
1448.533814,-3775.050304,229.828649,-1258.350101
1448.534125,-6069.688724,1455.581446,-1702.473667
1448.534437,-8808.450710,1685.410096,-814.226536
1448.534748,-11103.089130,1149.143247,962.267725
1448.535060,-12731.542202,306.438199,666.185348
1448.535371,-11991.336260,842.705048,-222.061783
1448.535682,-9400.615463,2221.676944,-296.082377
1448.535994,-8364.327145,306.438199,-0.000000
1448.536305,-7994.224174,-536.266849,-0.000000
1448.536617,-8068.244768,-766.095498,-0.000000
1448.536928,-9252.574275,-995.924147,814.226536
1448.537239,-9918.759623,-842.705048,2220.617826
1448.537551,-9474.636058,-1455.581446,1702.473667
1448.537862,-7624.121203,-1532.190996,1184.329507
1448.538174,-6957.935855,-1915.238745,296.082377
1448.538485,-7920.203579,-2145.067394,-0.000000
1448.538797,-8586.388927,-612.876398,-0.000000
1448.539108,-8956.491898,383.047749,518.144159
1448.539419,-9844.739029,0.000000,148.041188
1448.539731,-10510.924376,-383.047749,518.144159
1448.540042,-10362.883188,766.095498,370.102971
1448.540354,-8734.430116,1532.190996,370.102971
1448.540665,-8364.327145,0.000000,-0.000000
1448.540977,-9696.697840,-919.314598,1110.308913
1448.541288,-11103.089130,-766.095498,1554.432478
1448.541599,-11547.212695,-612.876398,2146.597232
1448.541911,-10066.800811,-995.924147,1924.535449
1448.542222,-9252.574275,-1149.143247,1036.288319
1448.542534,-7254.018232,-1455.581446,962.267725
1448.542845,-6809.894666,-1455.581446,-222.061783
1448.543157,-6661.853478,-766.095498,222.061783
1448.543468,-8068.244768,76.609550,740.205942
1448.543779,-9844.739029,1149.143247,2146.597232
1448.544091,-11843.295072,1378.971896,2516.700203
1448.544402,-11843.295072,1455.581446,2368.659014
1448.544714,-9474.636058,1762.019645,1406.391290
1448.545025,-6217.729913,1455.581446,-222.061783
1448.545336,-3330.926739,995.924147,-2442.679609
1448.545648,-3849.070898,1072.533697,-2516.700203
1448.545959,-7772.162391,1915.238745,-0.000000
1448.546271,-11991.336260,842.705048,1998.556043
1448.546582,-14211.954086,0.000000,3182.885551
1448.546894,-13915.871710,-612.876398,3330.926739
1448.547205,-9770.718434,-1378.971896,2220.617826
1448.547516,-5107.421000,-1225.752797,296.082377
1448.547828,-2590.720797,-1072.533697,-1406.391290
1448.548139,-3923.091493,-1072.533697,-2294.638420
1448.548451,-6439.791695,-153.219100,-1036.288319
1448.548762,-10288.862594,459.657299,1036.288319
1448.549074,-13175.665768,229.828649,2442.679609
1448.549385,-13767.830521,-1072.533697,2294.638420
1448.549696,-11917.315666,0.000000,1258.350101
1448.550008,-7698.141797,2681.334243,-296.082377
1448.550319,-4737.318029,1072.533697,-1184.329507
1448.550631,-5329.482782,-919.314598,-2072.576638
1448.550942,-7328.038826,-919.314598,-1258.350101
1448.551253,-10214.842000,229.828649,-444.123565
1448.551565,-12065.356855,1225.752797,962.267725
1448.551876,-13693.809927,1149.143247,2368.659014
1448.552188,-12065.356855,-1225.752797,1702.473667
1448.552499,-8808.450710,-1532.190996,222.061783
1448.552811,-6439.791695,-1225.752797,-296.082377
1448.553122,-6587.832884,-383.047749,-592.164754
1448.553433,-7846.182985,76.609550,-0.000000
1448.553745,-9770.718434,153.219100,444.123565
1448.554056,-11547.212695,-306.438199,888.247130
1448.554368,-11769.274478,-153.219100,2294.638420
1448.554679,-9992.780217,229.828649,1924.535449
1448.554991,-8734.430116,536.266849,592.164754
1448.555302,-8512.368333,-612.876398,666.185348
1448.555613,-8734.430116,-1225.752797,1554.432478
1448.555925,-8290.306550,-306.438199,1332.370696
1448.556236,-7994.224174,229.828649,1258.350101
1448.556548,-7920.203579,-536.266849,962.267725
1448.556859,-6365.771101,-459.657299,1110.308913
1448.557171,-5625.565159,459.657299,1036.288319
1448.557482,-7105.977043,1302.362347,888.247130
1448.557793,-8142.265362,995.924147,1554.432478
1448.558105,-9400.615463,689.485948,2072.576638
1448.558416,-9844.739029,1072.533697,1332.370696
1448.558728,-9696.697840,1532.190996,296.082377
1448.559039,-8142.265362,1378.971896,-0.000000
1448.559350,-7179.997637,1225.752797,-222.061783
1448.559662,-7254.018232,383.047749,-1258.350101
1448.559973,-7402.059420,-153.219100,-1036.288319
1448.560285,-9622.677246,-689.485948,148.041188
1448.560596,-11399.171507,306.438199,2072.576638
1448.560908,-11991.336260,306.438199,2516.700203
1448.561219,-11843.295072,-1378.971896,2960.823768
1448.561530,-9326.594869,-2681.334243,2294.638420
1448.561842,-5477.523971,-2681.334243,-962.267725
1448.562153,-1998.556043,-229.828649,-1628.453072
1448.562465,-3627.009116,995.924147,-1776.494261
1448.562776,-8882.471304,383.047749,-0.000000
1448.563088,-13471.748144,0.000000,1554.432478
1448.563399,-16062.468941,-153.219100,2738.761985
1448.563710,-14878.139434,1149.143247,3034.844362
1448.564022,-10436.903782,383.047749,1184.329507
1448.564333,-6883.915261,-842.705048,-1998.556043
1448.564645,-3849.070898,-1455.581446,-3997.112087
1448.564956,-3478.967927,-1072.533697,-3849.070898
1448.565268,-7772.162391,-536.266849,-1554.432478
1448.565579,-12509.480420,459.657299,1702.473667
1448.565890,-15840.407159,-1149.143247,3849.070898
1448.566202,-15470.304188,-3370.820191,3923.091493
1448.566513,-10584.944971,-2221.676944,2886.803174
1448.566825,-5773.606348,-612.876398,-0.000000
1448.567136,-2664.741391,-612.876398,-2442.679609
1448.567447,-2664.741391,-1149.143247,-3701.029710
1448.567759,-5107.421000,153.219100,-2516.700203
1448.568070,-9770.718434,2145.067394,-1406.391290
1448.568382,-13619.789333,2298.286494,666.185348
1448.568693,-14211.954086,3217.601092,962.267725
1448.569005,-12139.377449,1915.238745,222.061783
1448.569316,-8438.347739,1915.238745,-1036.288319
1448.569627,-6069.688724,1149.143247,-2664.741391
1448.569939,-6291.750507,766.095498,-2812.782580
1448.570250,-7179.997637,842.705048,-1702.473667
1448.570562,-9474.636058,383.047749,370.102971
1448.570873,-12435.459826,-1072.533697,1998.556043
1448.571185,-12583.501014,-2221.676944,2220.617826
1448.571496,-9030.512492,-2145.067394,1924.535449
1448.571807,-5773.606348,-2145.067394,962.267725
1448.572119,-4515.256246,-1532.190996,-0.000000
1448.572430,-7105.977043,-1532.190996,-148.041188
1448.572742,-9474.636058,-995.924147,666.185348
1448.573053,-10214.842000,0.000000,1480.411884
1448.573365,-9844.739029,842.705048,1184.329507
1448.573676,-9104.533087,612.876398,-0.000000
1448.573987,-7624.121203,995.924147,-296.082377
1448.574299,-7402.059420,919.314598,-740.205942
1448.574610,-8438.347739,76.609550,-296.082377
1448.574922,-11251.130318,76.609550,1258.350101
1448.575233,-12731.542202,153.219100,2368.659014
1448.575544,-12435.459826,-919.314598,2590.720797
1448.575856,-10214.842000,-1532.190996,2442.679609
1448.576167,-7550.100608,-612.876398,1036.288319
1448.576479,-5181.441594,-536.266849,222.061783
1448.576790,-4293.194464,0.000000,-0.000000
1448.577102,-6291.750507,383.047749,888.247130
1448.577413,-9104.533087,306.438199,2516.700203
1448.577724,-11769.274478,153.219100,3034.844362
1448.578036,-12435.459826,0.000000,3256.906145
1448.578347,-9548.656652,-306.438199,1776.494261
1448.578659,-5477.523971,0.000000,-518.144159
1448.578970,-4071.132681,689.485948,-518.144159
1448.579282,-7772.162391,306.438199,-74.020594
1448.579593,-11695.253884,-153.219100,1776.494261
1448.579904,-13027.624579,-229.828649,2590.720797
1448.580216,-12435.459826,0.000000,3404.947333
1448.580527,-9844.739029,-536.266849,2886.803174
1448.580839,-6069.688724,-536.266849,888.247130
1448.581150,-4219.173869,-842.705048,-1036.288319
1448.581462,-2220.617826,-383.047749,-1924.535449
1448.581773,-3330.926739,-459.657299,-1480.411884
1448.582084,-7920.203579,153.219100,-740.205942
1448.582396,-12509.480420,689.485948,1480.411884
1448.582707,-13915.871710,0.000000,1702.473667
1448.583019,-12139.377449,-459.657299,1184.329507
1448.583330,-9178.553681,459.657299,-814.226536
1448.583641,-6661.853478,2145.067394,-1924.535449
1448.583953,-6365.771101,459.657299,-2294.638420
1448.584264,-7328.038826,-306.438199,-2738.761985
1448.584576,-9770.718434,-306.438199,-2516.700203
1448.584887,-11695.253884,689.485948,-1110.308913
1448.585199,-12657.521608,919.314598,666.185348
1448.585510,-11621.233289,-459.657299,-148.041188
1448.585821,-9326.594869,-2374.896044,-1110.308913
1448.586133,-7994.224174,-2221.676944,-1406.391290
1448.586444,-7179.997637,-1149.143247,-1036.288319
1448.586756,-8438.347739,-383.047749,-888.247130
1448.587067,-9622.677246,-1149.143247,-222.061783
1448.587379,-11029.068536,-1532.190996,370.102971
1448.587690,-11251.130318,-766.095498,-0.000000
1448.588001,-9178.553681,612.876398,-148.041188
1448.588313,-8290.306550,1149.143247,-1036.288319
1448.588624,-8364.327145,229.828649,-1258.350101
1448.588936,-9474.636058,306.438199,-592.164754
1448.589247,-11399.171507,-306.438199,74.020594
1448.589558,-12065.356855,-689.485948,1480.411884
1448.589870,-11547.212695,-842.705048,1924.535449
1448.590181,-9326.594869,-2221.676944,1332.370696
1448.590493,-7402.059420,-2451.505594,148.041188
1448.590804,-5773.606348,-1838.629195,814.226536
1448.591116,-5921.647536,-1532.190996,296.082377
1448.591427,-7550.100608,-842.705048,1406.391290
1448.591738,-9474.636058,-766.095498,2368.659014
1448.592050,-10732.986159,-689.485948,2516.700203
1448.592361,-9770.718434,229.828649,2664.741391
1448.592673,-6735.874072,1225.752797,518.144159
1448.592984,-4219.173869,2221.676944,-1332.370696
1448.593296,-4737.318029,2911.162892,-1036.288319
1448.593607,-8438.347739,3064.381992,-296.082377
1448.593918,-12435.459826,3294.210641,1924.535449
1448.594230,-15174.221811,2681.334243,3108.864956
1448.594541,-12953.603985,1762.019645,4219.173869
1448.594853,-8216.285956,-689.485948,1702.473667
1448.595164,-3627.009116,-1149.143247,-1998.556043
1448.595476,-518.144159,459.657299,-2146.597232
1448.595787,-1998.556043,919.314598,-370.102971
1448.596098,-8512.368333,-1149.143247,592.164754
1448.596410,-13989.892304,-2068.457845,3923.091493
1448.596721,-14878.139434,-2221.676944,5477.523971
1448.597033,-11843.295072,-1302.362347,5329.482782
1448.597344,-8364.327145,-612.876398,2516.700203
1448.597656,-4737.318029,-1991.848295,-444.123565
1448.597967,-3404.947333,-1149.143247,-2738.761985
1448.598279,-4367.215058,0.000000,-1702.473667
1448.598590,-8364.327145,459.657299,-296.082377
1448.598902,-14285.974681,0.000000,1776.494261
1448.599214,-17690.922014,0.000000,3627.009116
1448.599525,-15618.345376,-383.047749,3627.009116
1448.599837,-10436.903782,-459.657299,2516.700203
1448.600148,-6809.894666,-153.219100,592.164754
1448.600460,-4737.318029,-306.438199,-518.144159
1448.600771,-2738.761985,-2298.286494,-814.226536
1448.601083,-4737.318029,-1532.190996,-888.247130
1448.601394,-8512.368333,-536.266849,-74.020594
1448.601706,-10658.965565,919.314598,1998.556043
1448.602017,-12583.501014,459.657299,1850.514855
1448.602329,-12509.480420,76.609550,2072.576638
1448.602640,-10214.842000,842.705048,1406.391290
1448.602952,-8586.388927,229.828649,222.061783
1448.603263,-7031.956449,1685.410096,-1036.288319
1448.603575,-7994.224174,1762.019645,-1850.514855
1448.603886,-7846.182985,919.314598,-2220.617826
1448.604198,-8216.285956,1225.752797,-962.267725
1448.604509,-9252.574275,1149.143247,-0.000000
1448.604821,-9696.697840,0.000000,1184.329507
1448.605132,-9400.615463,-153.219100,1184.329507
1448.605444,-8882.471304,-766.095498,1332.370696
1448.605755,-8512.368333,-919.314598,1480.411884
1448.606067,-8142.265362,-766.095498,592.164754
1448.606378,-7402.059420,0.000000,-0.000000
1448.606690,-6809.894666,689.485948,-962.267725
1448.607001,-6439.791695,536.266849,-1184.329507
1448.607313,-7550.100608,919.314598,-1406.391290
1448.607624,-7994.224174,1378.971896,-1184.329507
1448.607936,-8512.368333,1455.581446,-74.020594
1448.608247,-10584.944971,-153.219100,444.123565
1448.608559,-12583.501014,-1149.143247,1184.329507
1448.608870,-12657.521608,-612.876398,1776.494261
1448.609182,-10658.965565,-766.095498,740.205942
1448.609493,-8068.244768,-1378.971896,-0.000000
1448.609805,-7179.997637,-1072.533697,-444.123565
1448.610116,-8290.306550,-536.266849,-222.061783
1448.610428,-8808.450710,-1225.752797,740.205942
1448.610739,-9918.759623,-1302.362347,1998.556043
1448.611051,-9622.677246,-1532.190996,740.205942
1448.611362,-7920.203579,-1225.752797,-148.041188
1448.611674,-7105.977043,-306.438199,-888.247130
1448.611985,-7846.182985,1302.362347,592.164754
1448.612297,-10807.006753,995.924147,-444.123565
1448.612608,-12065.356855,919.314598,740.205942
1448.612920,-11917.315666,536.266849,1258.350101
1448.613231,-10658.965565,383.047749,1480.411884
1448.613543,-9696.697840,766.095498,1850.514855
1448.613854,-9548.656652,-383.047749,814.226536
1448.614166,-9104.533087,-1072.533697,592.164754
1448.614477,-8364.327145,-995.924147,1258.350101
1448.614789,-7105.977043,-995.924147,1554.432478
1448.615100,-7476.080014,-1225.752797,1554.432478
1448.615412,-9030.512492,-1838.629195,962.267725
1448.615723,-8364.327145,-1302.362347,962.267725
1448.616035,-6735.874072,383.047749,1110.308913
1448.616346,-6513.812290,1608.800546,1554.432478
1448.616658,-7328.038826,229.828649,1998.556043
1448.616969,-8438.347739,-919.314598,1554.432478
1448.617281,-7846.182985,-153.219100,518.144159
1448.617592,-7179.997637,2528.115143,-0.000000
1448.617904,-8216.285956,4213.525239,296.082377
1448.618215,-10140.821405,2681.334243,592.164754
1448.618527,-11473.192101,1455.581446,148.041188
1448.618838,-10066.800811,995.924147,1258.350101
1448.619150,-9030.512492,536.266849,1628.453072
1448.619461,-7254.018232,766.095498,814.226536
1448.619773,-5625.565159,-383.047749,444.123565
1448.620084,-5107.421000,-1225.752797,-0.000000
1448.620396,-7105.977043,-1762.019645,740.205942
1448.620707,-9622.677246,-766.095498,1110.308913
1448.621019,-10066.800811,153.219100,1480.411884
1448.621330,-10807.006753,229.828649,1110.308913
1448.621642,-9622.677246,-842.705048,1036.288319
1448.621953,-8216.285956,-536.266849,-592.164754
1448.622265,-7772.162391,0.000000,-1628.453072
1448.622576,-7920.203579,1532.190996,-666.185348
1448.622888,-9474.636058,0.000000,-148.041188
1448.623199,-11621.233289,536.266849,814.226536
1448.623511,-13397.727550,536.266849,2146.597232
1448.623822,-13989.892304,-306.438199,2294.638420
1448.624134,-11695.253884,-919.314598,2516.700203
1448.624445,-8142.265362,-1225.752797,814.226536
1448.624757,-5329.482782,-1149.143247,-814.226536
1448.625068,-4737.318029,-2604.724693,-888.247130
1448.625380,-5995.668130,-1991.848295,-0.000000
1448.625691,-7994.224174,-306.438199,888.247130
1448.626003,-10955.047942,0.000000,1850.514855
1448.626314,-12583.501014,-612.876398,2812.782580
1448.626626,-11251.130318,-1149.143247,2220.617826
1448.626938,-8956.491898,76.609550,592.164754
1448.627249,-7105.977043,1302.362347,-1258.350101
1448.627561,-7105.977043,2528.115143,-740.205942
1448.627872,-9030.512492,3370.820191,-0.000000
1448.628184,-11325.150913,2221.676944,1998.556043
1448.628495,-10955.047942,-229.828649,2590.720797
1448.628807,-7698.141797,-1991.848295,1110.308913
1448.629118,-3627.009116,-306.438199,-814.226536
1448.629430,-1998.556043,1532.190996,-1850.514855
1448.629741,-4293.194464,1378.971896,-1258.350101
1448.630053,-9474.636058,-1302.362347,-0.000000
1448.630364,-12583.501014,-1455.581446,1554.432478
1448.630676,-12879.583391,153.219100,3330.926739
1448.630987,-11695.253884,842.705048,3034.844362
1448.631299,-8956.491898,383.047749,740.205942
1448.631610,-5477.523971,-306.438199,-2146.597232
1448.631922,-3552.988522,-995.924147,-3182.885551
1448.632233,-4737.318029,919.314598,-2146.597232
1448.632545,-8660.409521,2221.676944,-814.226536
1448.632856,-13471.748144,919.314598,740.205942
1448.633168,-15618.345376,-1149.143247,1702.473667
1448.633479,-14063.912898,-842.705048,1702.473667
1448.633791,-10066.800811,536.266849,444.123565
1448.634102,-5995.668130,-459.657299,-962.267725
1448.634414,-3330.926739,-2681.334243,-1924.535449
1448.634725,-4737.318029,-3447.429741,-3552.988522
1448.635037,-8290.306550,-76.609550,-1776.494261
1448.635348,-11843.295072,1149.143247,666.185348
1448.635660,-14804.118840,0.000000,2368.659014
1448.635971,-13767.830521,-995.924147,2146.597232
1448.636283,-11547.212695,-1302.362347,-518.144159
1448.636594,-7402.059420,383.047749,-1776.494261
1448.636906,-5477.523971,1685.410096,-2442.679609
1448.637217,-6587.832884,1302.362347,-2590.720797
1448.637529,-9104.533087,0.000000,-1406.391290
1448.637840,-12065.356855,-1072.533697,1036.288319
1448.638152,-13101.645173,-766.095498,2220.617826
1448.638463,-12509.480420,76.609550,3330.926739
1448.638775,-9104.533087,-1378.971896,2072.576638
1448.639086,-4589.276840,-3140.991542,296.082377
1448.639398,-3034.844362,-2604.724693,-1184.329507
1448.639709,-4219.173869,-1072.533697,-1702.473667
1448.640021,-8068.244768,919.314598,-592.164754
1448.640332,-11251.130318,1991.848295,1332.370696
1448.640644,-13915.871710,1455.581446,2590.720797
1448.640955,-13323.706956,689.485948,2812.782580
1448.641267,-10066.800811,229.828649,1332.370696
1448.641578,-5625.565159,1532.190996,-74.020594
1448.641890,-3627.009116,2221.676944,-1776.494261
1448.642201,-6217.729913,612.876398,-370.102971
1448.642513,-9696.697840,383.047749,1184.329507
1448.642824,-12213.398043,383.047749,2812.782580
1448.643136,-12435.459826,0.000000,3775.050304
1448.643447,-9918.759623,-459.657299,3478.967927
1448.643759,-7476.080014,-689.485948,2146.597232
1448.644070,-4959.379811,-1302.362347,74.020594
1448.644382,-2442.679609,-766.095498,-74.020594
1448.644693,-4811.338623,-536.266849,-296.082377
1448.645005,-8438.347739,1225.752797,1554.432478
1448.645316,-11473.192101,1072.533697,2294.638420
1448.645628,-12287.418637,-306.438199,2738.761985
1448.645939,-11029.068536,76.609550,2146.597232
1448.646251,-8512.368333,1532.190996,1110.308913
1448.646562,-7254.018232,2145.067394,740.205942
1448.646874,-7476.080014,153.219100,1258.350101
1448.647185,-7105.977043,-1608.800546,1184.329507
1448.647497,-7920.203579,-1685.410096,888.247130
1448.647808,-8956.491898,153.219100,1998.556043
1448.648120,-9030.512492,842.705048,2442.679609
1448.648431,-9474.636058,-306.438199,1628.453072
1448.648743,-9474.636058,-1991.848295,1702.473667
1448.649054,-8364.327145,-3064.381992,1924.535449
1448.649366,-8808.450710,-1991.848295,814.226536
1448.649677,-9474.636058,459.657299,1480.411884
1448.649989,-9252.574275,-229.828649,-444.123565
1448.650300,-9030.512492,-1532.190996,-888.247130
1448.650612,-8882.471304,-1225.752797,-888.247130
1448.650923,-9104.533087,689.485948,-1406.391290
1448.651235,-8660.409521,1072.533697,-962.267725
1448.651546,-9474.636058,229.828649,-962.267725
1448.651858,-11029.068536,-383.047749,-222.061783
1448.652169,-11843.295072,229.828649,592.164754
1448.652481,-10955.047942,689.485948,1258.350101
1448.652792,-9474.636058,-306.438199,-0.000000
1448.653104,-7550.100608,-383.047749,-888.247130
1448.653415,-6809.894666,383.047749,-2442.679609
1448.653727,-5847.626942,1225.752797,-2516.700203
1448.654038,-6069.688724,536.266849,-1480.411884
1448.654350,-10066.800811,842.705048,-1110.308913
1448.654662,-11769.274478,689.485948,-0.000000
1448.654973,-11473.192101,1378.971896,-74.020594
1448.655285,-9622.677246,1378.971896,-1036.288319
1448.655596,-6661.853478,612.876398,-1998.556043
1448.655908,-4811.338623,-536.266849,-3775.050304
1448.656219,-4737.318029,-1762.019645,-4663.297435
1448.656531,-7698.141797,-153.219100,-2072.576638
1448.656842,-13027.624579,-612.876398,222.061783
1448.657154,-16654.633695,-766.095498,2886.803174
1448.657465,-17172.777854,-1762.019645,3701.029710
1448.657777,-14137.933492,-2068.457845,2738.761985
1448.658088,-8068.244768,-2451.505594,1036.288319
1448.658400,-3256.906145,-1378.971896,-1702.473667
1448.658711,-1480.411884,-919.314598,-3330.926739
1448.659023,-4071.132681,-1762.019645,-2738.761985
1448.659334,-7846.182985,-153.219100,-296.082377
1448.659646,-11473.192101,995.924147,2368.659014
1448.659957,-14508.036463,919.314598,3330.926739
1448.660269,-14582.057057,-766.095498,3775.050304
1448.660580,-11103.089130,-1225.752797,2220.617826
1448.660892,-5921.647536,766.095498,1110.308913
1448.661203,-3108.864956,612.876398,-444.123565
1448.661515,-4737.318029,-153.219100,370.102971
1448.661826,-8956.491898,-1072.533697,1628.453072
1448.662138,-11029.068536,-1225.752797,2738.761985
1448.662449,-10436.903782,-459.657299,3330.926739
1448.662761,-9622.677246,0.000000,3108.864956
1448.663072,-7994.224174,0.000000,2072.576638
1448.663384,-5403.503377,-306.438199,666.185348
1448.663695,-6217.729913,0.000000,814.226536
1448.664007,-8586.388927,383.047749,1850.514855
1448.664318,-10066.800811,2145.067394,2590.720797
1448.664630,-11399.171507,2451.505594,3701.029710
1448.664941,-10214.842000,689.485948,3478.967927
1448.665253,-7254.018232,-536.266849,740.205942
1448.665564,-3997.112087,1762.019645,-0.000000
1448.665876,-4071.132681,3677.258390,-0.000000
1448.666187,-8364.327145,1149.143247,1258.350101
1448.666499,-12583.501014,-766.095498,2442.679609
1448.666810,-13989.892304,-306.438199,3034.844362
1448.667122,-12657.521608,153.219100,3256.906145
1448.667433,-9104.533087,0.000000,2664.741391
1448.667745,-6513.812290,-383.047749,296.082377
1448.668056,-4811.338623,-995.924147,-1184.329507
1448.668368,-3997.112087,-1532.190996,-1036.288319
1448.668679,-6883.915261,-1455.581446,888.247130
1448.668991,-11251.130318,536.266849,2368.659014
1448.669302,-14063.912898,689.485948,3182.885551
1448.669614,-13841.851115,-1225.752797,2960.823768
1448.669925,-11325.150913,-995.924147,592.164754
1448.670237,-7254.018232,1532.190996,-2146.597232
1448.670548,-3108.864956,3370.820191,-2738.761985
1448.670860,-4145.153275,766.095498,-3182.885551
1448.671171,-7994.224174,-766.095498,-1628.453072
1448.671483,-11325.150913,-306.438199,592.164754
1448.671794,-13471.748144,306.438199,2442.679609
1448.672106,-11991.336260,76.609550,3849.070898
1448.672417,-8512.368333,-2221.676944,740.205942
