#time,accel_x,accel_y,accel_z
1455.749384,-8660.409521,383.047749,1036.288319
1455.749695,-8660.409521,229.828649,444.123565
1455.750007,-8882.471304,0.000000,740.205942
1455.750318,-8808.450710,0.000000,592.164754
1455.750630,-8882.471304,153.219100,592.164754
1455.750941,-8512.368333,-229.828649,518.144159
1455.751253,-8734.430116,-306.438199,370.102971
1455.751564,-9030.512492,76.609550,1110.308913
1455.751876,-8734.430116,383.047749,740.205942
1455.752188,-8660.409521,153.219100,592.164754
1455.752499,-8734.430116,0.000000,666.185348
1455.752811,-8808.450710,0.000000,592.164754
1455.753122,-8956.491898,0.000000,518.144159
1455.753434,-8882.471304,0.000000,666.185348
1455.753745,-8808.450710,0.000000,222.061783
1455.754057,-9178.553681,306.438199,-0.000000
1455.754368,-8734.430116,76.609550,370.102971
1455.754680,-8734.430116,-229.828649,370.102971
1455.754991,-8882.471304,-153.219100,444.123565
1455.755303,-8882.471304,0.000000,518.144159
1455.755614,-8956.491898,-153.219100,666.185348
1455.755926,-8734.430116,-612.876398,740.205942
1455.756238,-8660.409521,-153.219100,296.082377
1455.756549,-8586.388927,0.000000,444.123565
1455.756861,-8734.430116,-153.219100,370.102971
1455.757172,-8956.491898,0.000000,444.123565
1455.757484,-8808.450710,0.000000,740.205942
1455.757795,-9030.512492,0.000000,518.144159
1455.758107,-8956.491898,0.000000,666.185348
1455.758418,-9030.512492,0.000000,592.164754
1455.758730,-9104.533087,0.000000,296.082377
1455.759041,-8808.450710,-306.438199,518.144159
1455.759353,-9104.533087,76.609550,592.164754
1455.759665,-8660.409521,0.000000,592.164754
1455.759976,-8734.430116,76.609550,444.123565
1455.760288,-8734.430116,0.000000,518.144159
1455.760599,-9030.512492,153.219100,740.205942
1455.760911,-8734.430116,153.219100,444.123565
1455.761222,-8438.347739,229.828649,-0.000000
1455.761534,-8882.471304,0.000000,444.123565
1455.761845,-8956.491898,-306.438199,518.144159
1455.762157,-8882.471304,0.000000,592.164754
1455.762468,-9030.512492,0.000000,370.102971
1455.762780,-8956.491898,0.000000,518.144159
1455.763091,-8734.430116,153.219100,814.226536
1455.763403,-8734.430116,153.219100,370.102971
1455.763715,-8808.450710,-153.219100,296.082377
1455.764026,-8808.450710,306.438199,518.144159
1455.764338,-8882.471304,0.000000,518.144159
1455.764649,-8808.450710,0.000000,592.164754
1455.764961,-9030.512492,-153.219100,592.164754
1455.765272,-8882.471304,0.000000,370.102971
1455.765584,-8734.430116,-459.657299,444.123565
1455.765895,-8734.430116,76.609550,444.123565
1455.766207,-8882.471304,0.000000,370.102971
1455.766518,-9252.574275,-229.828649,148.041188
1455.766830,-9252.574275,-153.219100,518.144159
1455.767142,-8956.491898,0.000000,518.144159
1455.767453,-9030.512492,-229.828649,518.144159
1455.767765,-8808.450710,0.000000,518.144159
1455.768076,-9252.574275,-76.609550,592.164754
1455.768388,-9622.677246,153.219100,-0.000000
1455.768699,-8956.491898,76.609550,740.205942
1455.769011,-9104.533087,-536.266849,518.144159
1455.769322,-8882.471304,0.000000,444.123565
1455.769634,-8956.491898,153.219100,666.185348
1455.769945,-8956.491898,0.000000,740.205942
1455.770257,-9030.512492,0.000000,518.144159
1455.770568,-8586.388927,459.657299,666.185348
1455.770880,-8956.491898,-153.219100,370.102971
1455.771192,-8512.368333,0.000000,592.164754
1455.771503,-8808.450710,0.000000,592.164754
1455.771815,-8882.471304,0.000000,444.123565
1455.772126,-8808.450710,0.000000,666.185348
1455.772438,-8882.471304,0.000000,518.144159
1455.772749,-8364.327145,0.000000,444.123565
1455.773061,-9030.512492,-153.219100,-0.000000
1455.773372,-8734.430116,153.219100,444.123565
1455.773684,-8734.430116,-229.828649,444.123565
1455.773995,-8956.491898,153.219100,444.123565
1455.774307,-8882.471304,0.000000,518.144159
1455.774619,-9030.512492,0.000000,518.144159
1455.774930,-8956.491898,-306.438199,592.164754
1455.775242,-8808.450710,-306.438199,370.102971
1455.775553,-8734.430116,0.000000,296.082377
1455.775865,-8882.471304,76.609550,-0.000000
1455.776176,-8586.388927,-229.828649,370.102971
1455.776488,-8882.471304,-153.219100,592.164754
1455.776799,-8882.471304,0.000000,592.164754
1455.777111,-9104.533087,0.000000,666.185348
1455.777422,-9178.553681,-153.219100,740.205942
1455.777734,-9030.512492,0.000000,296.082377
1455.778045,-8808.450710,306.438199,592.164754
1455.778357,-8734.430116,153.219100,592.164754
1455.778669,-8808.450710,0.000000,222.061783
1455.778980,-9030.512492,0.000000,518.144159
1455.779292,-9178.553681,0.000000,666.185348
1455.779603,-8956.491898,0.000000,666.185348
1455.779915,-9030.512492,0.000000,444.123565
1455.780226,-9178.553681,-306.438199,444.123565
1455.780538,-8734.430116,229.828649,-0.000000
1455.780849,-8586.388927,-306.438199,592.164754
1455.781161,-8808.450710,-459.657299,444.123565
1455.781472,-9104.533087,-229.828649,370.102971
1455.781784,-8956.491898,-306.438199,518.144159
1455.782096,-8882.471304,-153.219100,444.123565
1455.782407,-8882.471304,0.000000,444.123565
1455.782719,-8808.450710,76.609550,592.164754
1455.783030,-9030.512492,-612.876398,518.144159
1455.783342,-8512.368333,-229.828649,592.164754
1455.783653,-8956.491898,0.000000,666.185348
1455.783965,-8956.491898,76.609550,592.164754
1455.784276,-9030.512492,-383.047749,370.102971
1455.784588,-8956.491898,76.609550,592.164754
1455.784899,-8734.430116,229.828649,296.082377
1455.785211,-8808.450710,0.000000,222.061783
1455.785522,-8808.450710,0.000000,518.144159
1455.785834,-8882.471304,-229.828649,444.123565
1455.786146,-8882.471304,-306.438199,592.164754
1455.786457,-9030.512492,0.000000,592.164754
1455.786769,-9030.512492,0.000000,444.123565
1455.787080,-10362.883188,229.828649,148.041188
1455.787392,-11843.295072,1455.581446,-0.000000
1455.787703,-9474.636058,4596.572988,814.226536
1455.788015,-7920.203579,4443.353888,592.164754
1455.788326,-6957.935855,2374.896044,1554.432478
1455.788638,-6439.791695,-766.095498,740.205942
1455.788949,-7550.100608,-1608.800546,-148.041188
1455.789261,-7328.038826,-536.266849,-148.041188
1455.789573,-9918.759623,-459.657299,-888.247130
1455.789884,-12583.501014,-1072.533697,-740.205942
1455.790196,-10955.047942,995.924147,-0.000000
1455.790507,-9622.677246,306.438199,888.247130
1455.790819,-9030.512492,-459.657299,2886.803174
1455.791130,-11325.150913,0.000000,2220.617826
1455.791442,-10288.862594,3064.381992,2146.597232
1455.791753,-5107.421000,5209.449386,2368.659014
1455.792065,-5921.647536,3753.867940,1480.411884
1455.792376,-7402.059420,2374.896044,-370.102971
1455.792688,-7031.956449,3524.039291,-1998.556043
1455.792999,-8438.347739,3677.258390,-2146.597232
1455.793311,-9178.553681,4290.134789,-370.102971
1455.793623,-11103.089130,3140.991542,-962.267725
1455.793934,-15174.221811,-229.828649,-74.020594
1455.794246,-10288.862594,-1685.410096,2812.782580
1455.794557,-9400.615463,-229.828649,1332.370696
1455.794869,-9474.636058,4596.572988,1998.556043
1455.795180,-7254.018232,6511.811733,2146.597232
1455.795492,-8068.244768,3217.601092,1480.411884
1455.795803,-6439.791695,3294.210641,2442.679609
1455.796115,-7254.018232,5975.544884,962.267725
1455.796426,-8512.368333,7201.297681,-444.123565
1455.796738,-8734.430116,5669.106685,-1406.391290
1455.797050,-8956.491898,4826.401637,-1332.370696
1455.797361,-10066.800811,4903.011187,-1702.473667
1455.797673,-12139.377449,5362.668486,-222.061783
1455.797984,-12213.398043,5592.497135,814.226536
1455.798296,-10881.027347,4290.134789,2072.576638
1455.798607,-9844.739029,4903.011187,2368.659014
1455.798919,-7920.203579,5592.497135,2146.597232
1455.799230,-5773.606348,6052.154434,-74.020594
1455.799542,-5625.565159,5898.935335,370.102971
1455.799853,-4441.235652,5975.544884,740.205942
1455.800165,-6143.709319,4826.401637,-1406.391290
1455.800476,-7624.121203,3983.696590,-814.226536
1455.800788,-8808.450710,3447.429741,-1110.308913
1455.801100,-9770.718434,2604.724693,814.226536
1455.801411,-10436.903782,536.266849,592.164754
1455.801723,-11029.068536,0.000000,1998.556043
1455.802034,-11251.130318,-459.657299,1702.473667
1455.802346,-10288.862594,2298.286494,2738.761985
1455.802657,-8660.409521,3140.991542,2146.597232
1455.802969,-7105.977043,3600.648841,666.185348
1455.803280,-6143.709319,3217.601092,-0.000000
1455.803592,-6439.791695,3294.210641,-888.247130
1455.803903,-6217.729913,3907.087040,-592.164754
1455.804215,-6883.915261,3140.991542,-1628.453072
1455.804527,-8438.347739,766.095498,-1184.329507
1455.804838,-10436.903782,-1762.019645,-222.061783
1455.805150,-11177.109724,-2221.676944,1332.370696
1455.805461,-13027.624579,-1991.848295,1702.473667
1455.805773,-13175.665768,-1149.143247,1480.411884
1455.806084,-12361.439231,459.657299,1628.453072
1455.806396,-11399.171507,1838.629195,370.102971
1455.806707,-9252.574275,3677.258390,-148.041188
1455.807019,-6809.894666,4213.525239,-0.000000
1455.807330,-6143.709319,4596.572988,518.144159
1455.807642,-6587.832884,4136.915689,444.123565
1455.807953,-7476.080014,3064.381992,444.123565
1455.808265,-9400.615463,1838.629195,-148.041188
1455.808577,-11843.295072,842.705048,-148.041188
1455.808888,-12953.603985,-153.219100,-296.082377
1455.809200,-13989.892304,0.000000,-222.061783
1455.809511,-14508.036463,-306.438199,148.041188
1455.809823,-12213.398043,2221.676944,740.205942
1455.810134,-10214.842000,2987.772442,1184.329507
1455.810446,-8290.306550,3677.258390,1998.556043
1455.810757,-5255.462188,4979.620737,2072.576638
1455.811069,-2886.803174,6205.373534,148.041188
1455.811380,-2072.576638,7048.078582,-148.041188
1455.811692,-1480.411884,5669.106685,-1628.453072
1455.812003,-4811.338623,4136.915689,-2516.700203
1455.812315,-9326.594869,3064.381992,-1332.370696
1455.812627,-12657.521608,3524.039291,-0.000000
1455.812938,-15322.262999,3370.820191,1480.411884
1455.813250,-15914.427753,3217.601092,3478.967927
1455.813561,-13545.768739,2911.162892,3849.070898
1455.813873,-9252.574275,2834.553343,2812.782580
1455.814184,-4959.379811,3753.867940,2072.576638
1455.814496,-2368.659014,5439.278036,888.247130
1455.814807,-1480.411884,6894.859482,-1776.494261
1455.815119,-2812.782580,7660.954980,-2442.679609
1455.815430,-5625.565159,5975.544884,-2146.597232
1455.815742,-7402.059420,3753.867940,-1110.308913
1455.816054,-9696.697840,2374.896044,444.123565
1455.816365,-10955.047942,-229.828649,1776.494261
1455.816677,-12287.418637,-3294.210641,1850.514855
1455.816988,-12287.418637,-3064.381992,2146.597232
1455.817300,-12879.583391,-1225.752797,1406.391290
1455.817611,-12509.480420,1608.800546,1554.432478
1455.817923,-11843.295072,3830.477490,1406.391290
1455.818234,-10288.862594,5669.106685,1850.514855
1455.818546,-7328.038826,6588.421283,1924.535449
1455.818857,-5921.647536,4749.792088,1036.288319
1455.819169,-5699.585753,3064.381992,518.144159
1455.819480,-5699.585753,2604.724693,-1554.432478
1455.819792,-7624.121203,2987.772442,-2590.720797
1455.820104,-9918.759623,3370.820191,-3108.864956
1455.820415,-11547.212695,3447.429741,-1702.473667
1455.820727,-12657.521608,2145.067394,-296.082377
1455.821038,-12953.603985,459.657299,1924.535449
1455.821350,-13027.624579,842.705048,3034.844362
1455.821661,-12583.501014,2604.724693,1998.556043
1455.821973,-11251.130318,5209.449386,2146.597232
1455.822284,-8660.409521,6971.469032,222.061783
1455.822596,-6291.750507,6588.421283,-148.041188
1455.822907,-5403.503377,4749.792088,-1184.329507
1455.823219,-6069.688724,3294.210641,-1036.288319
1455.823531,-7698.141797,2681.334243,-1332.370696
1455.823842,-9252.574275,1991.848295,-296.082377
1455.824154,-8734.430116,1149.143247,1110.308913
1455.824465,-8512.368333,-1225.752797,1554.432478
1455.824777,-7846.182985,-3370.820191,2368.659014
1455.825088,-8290.306550,-2374.896044,1406.391290
1455.825400,-9178.553681,2451.505594,-0.000000
1455.825711,-10807.006753,7431.126331,-740.205942
1455.826023,-10510.924376,10265.679673,-592.164754
1455.826334,-10140.821405,9193.145976,666.185348
1455.826646,-9696.697840,5975.544884,814.226536
1455.826957,-8142.265362,3447.429741,1406.391290
1455.827269,-7698.141797,3217.601092,740.205942
1455.827581,-6439.791695,4826.401637,-0.000000
1455.827892,-5033.400406,4366.744339,518.144159
1455.828204,-4441.235652,1072.533697,518.144159
1455.828515,-5477.523971,-2451.505594,222.061783
1455.828827,-7550.100608,-229.828649,-296.082377
1455.829138,-9252.574275,4519.963438,-888.247130
1455.829450,-12731.542202,6588.421283,-814.226536
1455.829761,-13545.768739,7354.516781,740.205942
1455.830073,-13989.892304,4060.306139,2220.617826
1455.830384,-14285.974681,1455.581446,3034.844362
1455.830696,-11103.089130,3294.210641,3404.947333
1455.831007,-8290.306550,3830.477490,1776.494261
1455.831318,-4959.379811,2987.772442,1184.329507
1455.831629,-3182.885551,-2374.896044,962.267725
1455.831941,-4219.173869,-6358.592633,-222.061783
1455.832252,-5255.462188,-4213.525239,-296.082377
1455.832563,-7031.956449,919.314598,-888.247130
1455.832875,-9844.739029,4443.353888,-444.123565
1455.833186,-14211.954086,3370.820191,592.164754
1455.833497,-17320.819043,2298.286494,1850.514855
1455.833809,-17024.736666,3370.820191,2738.761985
1455.834120,-13249.686362,6358.592633,2442.679609
1455.834431,-9030.512492,7737.564530,1924.535449
1455.834742,-5107.421000,3217.601092,-74.020594
1455.835054,-2294.638420,-1149.143247,-888.247130
1455.835365,0.000000,-995.924147,-1036.288319
1455.835676,-1258.350101,2528.115143,-962.267725
1455.835988,-6513.812290,4979.620737,-518.144159
1455.836299,-12361.439231,2757.943793,-0.000000
1455.836610,-16654.633695,1302.362347,666.185348
1455.836922,-16580.613101,3677.258390,1332.370696
1455.837233,-13545.768739,6128.763984,1332.370696
1455.837544,-11991.336260,4060.306139,-888.247130
1455.837856,-9844.739029,766.095498,-1406.391290
1455.838167,-5773.606348,1225.752797,-1406.391290
1455.838478,-2886.803174,2451.505594,-888.247130
1455.838789,-4663.297435,2451.505594,370.102971
1455.839101,-7105.977043,689.485948,2664.741391
1455.839412,-10955.047942,-1532.190996,3034.844362
1455.839723,-10955.047942,689.485948,3997.112087
1455.840035,-10288.862594,5898.935335,1184.329507
1455.840346,-10955.047942,8733.488677,-1924.535449
1455.840657,-9474.636058,8810.098227,-3478.967927
1455.840969,-6661.853478,7660.954980,-4737.318029
1455.841280,-5847.626942,8350.440928,-3256.906145
1455.841591,-9992.780217,7967.393179,-1036.288319
1455.841903,-13915.871710,6435.202183,1332.370696
1455.842214,-14063.912898,2681.334243,3923.091493
1455.842525,-11177.109724,-612.876398,5107.421000
1455.842836,-7179.997637,-2145.067394,2886.803174
1455.843148,-5033.400406,612.876398,666.185348
1455.843459,-2886.803174,1608.800546,-1036.288319
1455.843770,-296.082377,1149.143247,-1554.432478
1455.844082,-4737.318029,1991.848295,-148.041188
1455.844393,-11917.315666,2604.724693,962.267725
1455.844704,-15692.365970,3447.429741,2738.761985
1455.845016,-14656.077652,3064.381992,5181.441594
1455.845327,-11769.274478,1225.752797,3330.926739
1455.845638,-9030.512492,612.876398,740.205942
1455.845950,-3701.029710,0.000000,-1998.556043
1455.846261,-1332.370696,-1608.800546,-1850.514855
1455.846572,-2886.803174,-3524.039291,444.123565
1455.846883,-6735.874072,-2834.553343,1258.350101
1455.847195,-11029.068536,-3064.381992,3034.844362
1455.847506,-12139.377449,-3600.648841,4071.132681
1455.847817,-11843.295072,-3447.429741,3701.029710
1455.848129,-9474.636058,-1838.629195,1184.329507
1455.848440,-6439.791695,229.828649,-1258.350101
1455.848751,-6217.729913,689.485948,-2738.761985
1455.849063,-8512.368333,229.828649,-1628.453072
1455.849374,-11843.295072,766.095498,-444.123565
1455.849685,-12509.480420,-383.047749,1406.391290
1455.849996,-12435.459826,-1838.629195,3256.906145
1455.850308,-13545.768739,-1915.238745,2368.659014
1455.850619,-9474.636058,1455.581446,888.247130
1455.850930,-6217.729913,1685.410096,-2220.617826
1455.851242,-6365.771101,0.000000,-1184.329507
1455.851553,-7846.182985,1455.581446,-592.164754
1455.851864,-10140.821405,3600.648841,-1628.453072
1455.852176,-13249.686362,2604.724693,-1184.329507
1455.852487,-14211.954086,459.657299,-0.000000
1455.852798,-12435.459826,1915.238745,-1998.556043
1455.853110,-9474.636058,3753.867940,-1998.556043
1455.853421,-8364.327145,1991.848295,-962.267725
1455.853732,-8956.491898,-2911.162892,888.247130
1455.854043,-9696.697840,-3600.648841,2886.803174
1455.854355,-9474.636058,-1149.143247,3923.091493
1455.854666,-8882.471304,-383.047749,3701.029710
1455.854977,-9400.615463,229.828649,222.061783
1455.855289,-4737.318029,2451.505594,-2368.659014
1455.855600,-2294.638420,5056.230287,-5033.400406
1455.855911,-3182.885551,4596.572988,-3404.947333
1455.856223,-8364.327145,2757.943793,-2294.638420
1455.856534,-12065.356855,1455.581446,148.041188
1455.856845,-12139.377449,-1608.800546,3701.029710
1455.857157,-12657.521608,-4903.011187,4515.256246
1455.857468,-9992.780217,-4290.134789,3404.947333
1455.857779,-5403.503377,-766.095498,740.205942
1455.858090,-3404.947333,-1072.533697,740.205942
1455.858402,-4219.173869,-2987.772442,888.247130
1455.858713,-6217.729913,-1225.752797,2294.638420
1455.859024,-7624.121203,612.876398,2516.700203
1455.859336,-8290.306550,-766.095498,3404.947333
1455.859647,-7105.977043,-1608.800546,1258.350101
1455.859958,-6291.750507,76.609550,-1776.494261
1455.860270,-5181.441594,1302.362347,-2516.700203
1455.860581,-6809.894666,842.705048,-2294.638420
1455.860892,-11695.253884,-766.095498,148.041188
1455.861204,-15544.324782,-766.095498,3330.926739
1455.861515,-16506.592507,-3140.991542,5551.544565
1455.861826,-15766.386565,-5745.716235,5255.462188
1455.862137,-10807.006753,-3140.991542,2812.782580
1455.862449,-4737.318029,689.485948,-0.000000
1455.862760,-3034.844362,153.219100,-2220.617826
1455.863071,-4811.338623,-1378.971896,-2738.761985
1455.863383,-8364.327145,1225.752797,-1998.556043
1455.863694,-10807.006753,2681.334243,-592.164754
1455.864005,-13397.727550,1072.533697,740.205942
1455.864317,-14359.995275,-919.314598,296.082377
1455.864628,-11917.315666,306.438199,-370.102971
1455.864939,-9400.615463,1225.752797,-222.061783
1455.865250,-9696.697840,-229.828649,2368.659014
1455.865562,-11843.295072,-306.438199,3182.885551
1455.865873,-13989.892304,919.314598,2516.700203
1455.866184,-13101.645173,1378.971896,3034.844362
1455.866496,-10658.965565,1685.410096,1110.308913
1455.866807,-6143.709319,3907.087040,-2960.823768
1455.867118,-2072.576638,5822.325785,-5329.482782
1455.867430,-1036.288319,3830.477490,-4811.338623
1455.867741,-4589.276840,612.876398,-2960.823768
1455.868052,-9474.636058,2298.286494,-518.144159
1455.868364,-11325.150913,2298.286494,2368.659014
1455.868675,-11843.295072,-689.485948,5255.462188
1455.868986,-11769.274478,-2987.772442,5551.544565
1455.869297,-6883.915261,-536.266849,2442.679609
1455.869609,-1924.535449,1762.019645,-666.185348
1455.869920,-2368.659014,0.000000,-592.164754
1455.870231,-4293.194464,0.000000,-296.082377
1455.870543,-6957.935855,0.000000,444.123565
1455.870854,-9178.553681,-2528.115143,962.267725
1455.871165,-10214.842000,-4979.620737,666.185348
1455.871477,-8142.265362,-3217.601092,-1184.329507
1455.871788,-6809.894666,536.266849,-2442.679609
1455.872099,-6661.853478,-1608.800546,-1332.370696
1455.872411,-9178.553681,-6358.592633,1184.329507
1455.872722,-11769.274478,-3753.867940,4071.132681
1455.873033,-13175.665768,-842.705048,5625.565159
1455.873344,-12657.521608,-2221.676944,4811.338623
1455.873656,-10732.986159,-1991.848295,3404.947333
1455.873967,-5551.544565,1838.629195,-0.000000
1455.874278,-1924.535449,3294.210641,-2590.720797
1455.874590,-3478.967927,995.924147,-3478.967927
1455.874901,-8438.347739,689.485948,-3330.926739
1455.875212,-11029.068536,1455.581446,-2590.720797
1455.875524,-14137.933492,0.000000,-1036.288319
1455.875835,-16432.571912,-2451.505594,592.164754
1455.876146,-15766.386565,-995.924147,-0.000000
1455.876458,-13545.768739,995.924147,-148.041188
1455.876769,-12509.480420,76.609550,1036.288319
1455.877080,-12213.398043,766.095498,2442.679609
1455.877391,-11399.171507,2528.115143,3108.864956
1455.877703,-8808.450710,1991.848295,4515.256246
1455.878014,-7698.141797,-2145.067394,3034.844362
1455.878325,-5773.606348,-1532.190996,-148.041188
1455.878637,-3552.988522,2911.162892,-4293.194464
1455.878948,-3849.070898,3753.867940,-5625.565159
1455.879259,-6291.750507,612.876398,-2960.823768
1455.879571,-12139.377449,-1608.800546,-518.144159
1455.879882,-14952.160028,-766.095498,3108.864956
1455.880193,-16432.571912,-3294.210641,5255.462188
1455.880504,-15914.427753,-4826.401637,5625.565159
1455.880816,-9474.636058,-383.047749,3108.864956
1455.881127,-4071.132681,2987.772442,296.082377
1455.881438,74.020594,1225.752797,-296.082377
1455.881750,0.000000,383.047749,-74.020594
1455.882061,-3256.906145,1532.190996,592.164754
1455.882372,-4219.173869,1455.581446,1850.514855
1455.882684,-6587.832884,-1149.143247,1628.453072
1455.882995,-8142.265362,-1608.800546,-74.020594
1455.883306,-5255.462188,536.266849,-370.102971
1455.883618,-4367.215058,-459.657299,-1258.350101
1455.883929,-6957.935855,-3370.820191,592.164754
1455.884240,-11177.109724,-2604.724693,1554.432478
1455.884551,-13619.789333,766.095498,2516.700203
1455.884863,-14359.995275,1915.238745,3478.967927
1455.885174,-13101.645173,-766.095498,2442.679609
1455.885485,-8512.368333,0.000000,-0.000000
1455.885797,-4441.235652,3064.381992,-2368.659014
1455.886108,-3182.885551,1915.238745,-2886.803174
1455.886419,-4737.318029,1455.581446,-2294.638420
1455.886731,-7476.080014,2911.162892,222.061783
1455.887042,-10807.006753,306.438199,1850.514855
1455.887353,-13841.851115,-4290.134789,1998.556043
1455.887665,-14211.954086,-3140.991542,-0.000000
1455.887976,-11991.336260,2451.505594,-1406.391290
1455.888287,-10362.883188,2298.286494,-1628.453072
1455.888598,-12879.583391,-2221.676944,-370.102971
1455.888910,-15396.283594,-1149.143247,962.267725
1455.889221,-14656.077652,1302.362347,1998.556043
1455.889532,-13767.830521,306.438199,1850.514855
1455.889844,-10807.006753,-1302.362347,888.247130
1455.890155,-6587.832884,766.095498,-1702.473667
1455.890466,-2442.679609,1915.238745,-2442.679609
1455.890778,-4515.256246,-766.095498,-2072.576638
1455.891089,-9030.512492,-995.924147,740.205942
1455.891400,-11695.253884,1378.971896,3256.906145
1455.891712,-12805.562797,-995.924147,5847.626942
1455.892023,-12657.521608,-4443.353888,5403.503377
1455.892334,-9474.636058,-2604.724693,1924.535449
1455.892645,-4071.132681,1762.019645,-1480.411884
1455.892957,-1110.308913,1685.410096,-2294.638420
1455.893268,-5033.400406,-689.485948,-2738.761985
1455.893579,-8216.285956,2145.067394,-1036.288319
1455.893891,-9252.574275,3524.039291,1332.370696
1455.894202,-10881.027347,-459.657299,3478.967927
1455.894513,-8290.306550,-3217.601092,4145.153275
1455.894825,-5551.544565,-1991.848295,1554.432478
1455.895136,-2590.720797,-1455.581446,740.205942
1455.895447,-3627.009116,-3677.258390,666.185348
1455.895758,-7031.956449,-2451.505594,1036.288319
1455.896070,-9696.697840,995.924147,2294.638420
1455.896381,-10955.047942,-995.924147,2664.741391
1455.896692,-10955.047942,-2681.334243,2220.617826
1455.897004,-10732.986159,-1072.533697,-1184.329507
1455.897315,-6365.771101,4060.306139,-2368.659014
1455.897626,-5107.421000,3140.991542,-3256.906145
1455.897938,-7105.977043,0.000000,-1628.453072
1455.898249,-10066.800811,1455.581446,-0.000000
1455.898560,-12361.439231,1762.019645,1184.329507
1455.898872,-12805.562797,306.438199,2368.659014
1455.899183,-12139.377449,-459.657299,1110.308913
1455.899494,-10955.047942,1532.190996,-592.164754
1455.899805,-8956.491898,2374.896044,-1480.411884
1455.900117,-9400.615463,76.609550,-1702.473667
1455.900428,-11991.336260,229.828649,-296.082377
1455.900739,-11917.315666,2911.162892,1036.288319
1455.901051,-12361.439231,1991.848295,962.267725
1455.901362,-12065.356855,-766.095498,592.164754
1455.901673,-8734.430116,1991.848295,-1406.391290
1455.901985,-5107.421000,4979.620737,-2590.720797
1455.902296,-4071.132681,4060.306139,-1110.308913
1455.902607,-8364.327145,-383.047749,592.164754
1455.902919,-12287.418637,-383.047749,1924.535449
1455.903230,-13101.645173,766.095498,3849.070898
1455.903541,-13027.624579,-1685.410096,4663.297435
1455.903852,-11103.089130,-3447.429741,2738.761985
1455.904164,-7254.018232,-1838.629195,-1036.288319
1455.904475,-4293.194464,-995.924147,-2368.659014
1455.904786,-4071.132681,-1455.581446,-1702.473667
1455.905098,-6365.771101,-766.095498,370.102971
1455.905409,-9104.533087,0.000000,2368.659014
1455.905720,-9696.697840,-3064.381992,3182.885551
1455.906032,-7476.080014,-3294.210641,4737.318029
1455.906343,-4959.379811,-2374.896044,2812.782580
1455.906654,-2812.782580,-306.438199,296.082377
1455.906966,-2368.659014,-2145.067394,518.144159
1455.907277,-5995.668130,-3064.381992,592.164754
1455.907588,-10362.883188,153.219100,1036.288319
1455.907899,-12139.377449,1455.581446,1480.411884
1455.908211,-13175.665768,-1149.143247,1406.391290
1455.908522,-11695.253884,-1838.629195,-0.000000
1455.908833,-6957.935855,1302.362347,-1924.535449
1455.909145,-5773.606348,2681.334243,-3034.844362
1455.909456,-8438.347739,1072.533697,-1110.308913
1455.909767,-10362.883188,1149.143247,814.226536
1455.910079,-11769.274478,2374.896044,1998.556043
1455.910390,-11695.253884,689.485948,3627.009116
1455.910701,-10362.883188,-995.924147,1924.535449
1455.911012,-6809.894666,383.047749,-74.020594
1455.911324,-4293.194464,2604.724693,-2368.659014
1455.911635,-5773.606348,459.657299,-1776.494261
1455.911946,-11325.150913,-766.095498,-1554.432478
1455.912258,-16062.468941,2221.676944,-592.164754
1455.912569,-15766.386565,2681.334243,888.247130
1455.912880,-15322.262999,-1378.971896,888.247130
1455.913192,-13767.830521,-1991.848295,-222.061783
1455.913503,-8512.368333,2451.505594,-1110.308913
1455.913814,-5107.421000,2757.943793,-1998.556043
1455.914126,-6661.853478,0.000000,518.144159
1455.914437,-9030.512492,229.828649,3552.988522
1455.914748,-8956.491898,766.095498,3775.050304
1455.915059,-9178.553681,-2528.115143,4219.173869
1455.915371,-8142.265362,-3753.867940,3849.070898
1455.915682,-4737.318029,153.219100,-888.247130
1455.915993,-2442.679609,1915.238745,-2738.761985
1455.916305,-2960.823768,-919.314598,-2738.761985
1455.916616,-8734.430116,-3677.258390,-1036.288319
1455.916927,-11991.336260,-1762.019645,1258.350101
1455.917239,-11843.295072,-995.924147,2886.803174
1455.917550,-12139.377449,-4903.011187,3182.885551
1455.917861,-10436.903782,-4519.963438,1924.535449
1455.918173,-7105.977043,766.095498,-0.000000
1455.918484,-5403.503377,1532.190996,-1480.411884
1455.918795,-5921.647536,-306.438199,-0.000000
1455.919106,-7254.018232,612.876398,1998.556043
1455.919418,-7846.182985,2068.457845,2368.659014
1455.919729,-9104.533087,-612.876398,3182.885551
1455.920040,-8290.306550,-2834.553343,1850.514855
1455.920352,-6661.853478,842.705048,-1480.411884
1455.920663,-4663.297435,3907.087040,-3256.906145
1455.920974,-5403.503377,1915.238745,-3478.967927
1455.921286,-11621.233289,-306.438199,-2368.659014
1455.921597,-14804.118840,1072.533697,-0.000000
1455.921908,-14952.160028,995.924147,1924.535449
1455.922220,-14804.118840,-1455.581446,3034.844362
1455.922531,-12509.480420,-842.705048,2146.597232
1455.922842,-8216.285956,995.924147,-518.144159
1455.923153,-5107.421000,1149.143247,-592.164754
1455.923465,-6587.832884,383.047749,-0.000000
1455.923776,-9030.512492,2834.553343,1258.350101
1455.924087,-11621.233289,3677.258390,1554.432478
1455.924399,-13027.624579,1532.190996,2146.597232
1455.924710,-11843.295072,-689.485948,1406.391290
1455.925021,-7624.121203,1915.238745,-1258.350101
1455.925333,-4145.153275,3677.258390,-1776.494261
1455.925644,-4737.318029,-229.828649,-1258.350101
1455.925955,-9178.553681,-2068.457845,592.164754
1455.926266,-11843.295072,689.485948,2442.679609
1455.926578,-11991.336260,842.705048,4145.153275
1455.926889,-10732.986159,-2145.067394,4515.256246
1455.927200,-7994.224174,-1532.190996,1554.432478
1455.927512,-3701.029710,2451.505594,-740.205942
1455.927823,-2072.576638,1532.190996,-1406.391290
1455.928134,-3627.009116,-995.924147,-370.102971
1455.928446,-6661.853478,0.000000,1554.432478
1455.928757,-8956.491898,-612.876398,3256.906145
1455.929068,-9400.615463,-3830.477490,3701.029710
1455.929380,-9326.594869,-4596.572988,2294.638420
1455.929691,-6883.915261,-995.924147,-814.226536
1455.930002,-3330.926739,1378.971896,-1998.556043
1455.930313,-5107.421000,-3524.039291,-1258.350101
1455.930625,-10584.944971,-4979.620737,296.082377
1455.930936,-13323.706956,-1608.800546,1702.473667
1455.931247,-14211.954086,-1302.362347,2294.638420
1455.931559,-13545.768739,-2987.772442,2738.761985
1455.931870,-11177.109724,-2145.067394,-0.000000
1455.932181,-7031.956449,995.924147,-2368.659014
1455.932493,-5255.462188,1455.581446,-3552.988522
1455.932804,-7698.141797,76.609550,-1924.535449
1455.933115,-9992.780217,1532.190996,-74.020594
1455.933426,-12805.562797,1838.629195,888.247130
1455.933738,-13841.851115,-1608.800546,1628.453072
1455.934049,-12065.356855,-2834.553343,666.185348
1455.934360,-9326.594869,689.485948,-1480.411884
1455.934672,-6735.874072,2911.162892,-2072.576638
1455.934983,-9844.739029,-459.657299,-2960.823768
1455.935294,-12805.562797,-1378.971896,-1184.329507
1455.935606,-12879.583391,2834.553343,518.144159
1455.935917,-13841.851115,153.219100,2368.659014
1455.936228,-11547.212695,-2757.943793,3034.844362
1455.936539,-8512.368333,-1991.848295,740.205942
1455.936851,-3256.906145,1685.410096,-222.061783
1455.937162,-2072.576638,2451.505594,518.144159
1455.937473,-7698.141797,0.000000,740.205942
1455.937785,-8734.430116,1225.752797,1554.432478
1455.938096,-9992.780217,3217.601092,1998.556043
1455.938407,-9770.718434,995.924147,1480.411884
1455.938719,-9326.594869,1378.971896,740.205942
1455.939030,-6661.853478,3370.820191,-1110.308913
1455.939341,-1554.432478,2145.067394,-1480.411884
1455.939653,-2738.761985,-766.095498,370.102971
1455.939964,-5699.585753,-2298.286494,1406.391290
1455.940275,-8586.388927,536.266849,3108.864956
1455.940586,-11473.192101,-2451.505594,4663.297435
1455.940898,-10288.862594,-6665.030833,4219.173869
1455.941209,-8438.347739,-3753.867940,1776.494261
1455.941520,-4293.194464,536.266849,-518.144159
1455.941832,-4885.359217,-766.095498,-1110.308913
1455.942143,-9326.594869,-4290.134789,-74.020594
1455.942454,-10436.903782,-995.924147,2294.638420
1455.942766,-11843.295072,2374.896044,1998.556043
1455.943077,-11769.274478,-383.047749,2516.700203
1455.943388,-10436.903782,-153.219100,1110.308913
1455.943699,-6883.915261,2528.115143,-814.226536
1455.944011,-3775.050304,2757.943793,-1924.535449
1455.944322,-6217.729913,0.000000,-962.267725
1455.944633,-11917.315666,536.266849,-0.000000
1455.944945,-14656.077652,3830.477490,740.205942
1455.945256,-14508.036463,766.095498,1406.391290
1455.945567,-13841.851115,-3677.258390,370.102971
1455.945879,-11917.315666,-919.314598,-1554.432478
1455.946190,-8216.285956,2681.334243,-3552.988522
1455.946501,-7402.059420,1302.362347,-3182.885551
1455.946812,-10362.883188,-306.438199,-1036.288319
1455.947124,-12509.480420,1762.019645,1184.329507
1455.947435,-12879.583391,1455.581446,2960.823768
1455.947746,-11325.150913,-919.314598,2812.782580
1455.948058,-8216.285956,-1225.752797,1628.453072
1455.948369,-4737.318029,1608.800546,-888.247130
1455.948680,-3849.070898,1225.752797,-1998.556043
1455.948992,-6587.832884,-919.314598,-1184.329507
1455.949303,-9696.697840,-459.657299,-0.000000
1455.949614,-12361.439231,1225.752797,1998.556043
1455.949925,-13101.645173,-2145.067394,3108.864956
1455.950237,-10732.986159,-4136.915689,1628.453072
1455.950548,-7179.997637,-2145.067394,-814.226536
1455.950859,-2072.576638,689.485948,-1036.288319
1455.951171,-2664.741391,-536.266849,-1776.494261
1455.951482,-5847.626942,-459.657299,148.041188
1455.951793,-7254.018232,995.924147,2442.679609
1455.952105,-9918.759623,-459.657299,3701.029710
1455.952416,-8956.491898,-1991.848295,5403.503377
1455.952727,-7105.977043,-1608.800546,2442.679609
1455.953039,-3256.906145,153.219100,-74.020594
1455.953350,-666.185348,0.000000,-1554.432478
1455.953661,-5403.503377,-2068.457845,-1628.453072
1455.953972,-10955.047942,-2451.505594,-296.082377
1455.954284,-12805.562797,76.609550,1184.329507
1455.954595,-14730.098246,-1608.800546,1850.514855
1455.954906,-15692.365970,-3140.991542,1480.411884
1455.955218,-11991.336260,-306.438199,-1258.350101
1455.955529,-8882.471304,3217.601092,-3478.967927
1455.955840,-8068.244768,3140.991542,-2368.659014
1455.956152,-9474.636058,2604.724693,-222.061783
1455.956463,-11103.089130,3294.210641,2072.576638
1455.956774,-11103.089130,1685.410096,4145.153275
1455.957085,-9770.718434,-2451.505594,4589.276840
1455.957397,-8882.471304,-2604.724693,1258.350101
1455.957708,-6661.853478,2987.772442,-2368.659014
1455.958019,-5921.647536,2834.553343,-4367.215058
1455.958331,-9104.533087,-612.876398,-3256.906145
1455.958642,-13767.830521,383.047749,-1628.453072
1455.958953,-16580.613101,2757.943793,-222.061783
1455.959265,-16432.571912,0.000000,1998.556043
1455.959576,-14434.015869,-2681.334243,2516.700203
1455.959887,-9400.615463,-536.266849,1480.411884
1455.960198,-2960.823768,1915.238745,148.041188
1455.960510,-1628.453072,536.266849,592.164754
1455.960821,-5551.544565,-995.924147,2368.659014
1455.961132,-7994.224174,-612.876398,3775.050304
1455.961444,-7698.141797,229.828649,2960.823768
1455.961755,-7994.224174,-842.705048,3849.070898
1455.962066,-7772.162391,-1915.238745,296.082377
1455.962378,-4367.215058,842.705048,-1480.411884
1455.962689,-1406.391290,842.705048,-2072.576638
1455.963000,-4663.297435,-2451.505594,-666.185348
1455.963311,-8364.327145,-1915.238745,1258.350101
1455.963623,-12435.459826,229.828649,2368.659014
1455.963934,-14285.974681,-995.924147,3923.091493
1455.964245,-10807.006753,-4060.306139,2886.803174
1455.964557,-6883.915261,0.000000,1110.308913
1455.964868,-2442.679609,2451.505594,-1406.391290
1455.965179,-2960.823768,-842.705048,-1258.350101
1455.965491,-6661.853478,-2528.115143,740.205942
1455.965802,-8882.471304,-459.657299,2516.700203
1455.966113,-11399.171507,-229.828649,3182.885551
1455.966424,-12213.398043,-2374.896044,2590.720797
1455.966736,-11177.109724,-383.047749,-1406.391290
1455.967047,-7179.997637,3830.477490,-2886.803174
1455.967358,-6143.709319,919.314598,-2960.823768
1455.967670,-11177.109724,-1225.752797,-1776.494261
1455.967981,-15174.221811,1378.971896,518.144159
1455.968292,-17246.798449,2681.334243,1332.370696
1455.968604,-16580.613101,-153.219100,2664.741391
1455.968915,-12435.459826,-1225.752797,1480.411884
1455.969226,-7772.162391,1762.019645,-1924.535449
1455.969538,-3034.844362,3447.429741,-2960.823768
1455.969849,-4589.276840,919.314598,-2812.782580
1455.970160,-9622.677246,1378.971896,-444.123565
1455.970471,-12435.459826,2987.772442,814.226536
1455.970783,-14582.057057,1685.410096,2072.576638
1455.971094,-12953.603985,0.000000,2664.741391
1455.971405,-10288.862594,919.314598,-888.247130
1455.971717,-5033.400406,3830.477490,-1554.432478
1455.972028,-2664.741391,1072.533697,-1776.494261
1455.972339,-6513.812290,-1225.752797,-0.000000
1455.972651,-9474.636058,612.876398,2368.659014
1455.972962,-11177.109724,1225.752797,3627.009116
1455.973273,-10955.047942,-2221.676944,4589.276840
1455.973584,-8216.285956,-3447.429741,2516.700203
1455.973896,-3701.029710,306.438199,-148.041188
1455.974207,0.000000,0.000000,-1110.308913
1455.974518,-2590.720797,-2681.334243,-888.247130
1455.974830,-7920.203579,-3370.820191,1702.473667
1455.975141,-10362.883188,-1302.362347,2516.700203
1455.975452,-10732.986159,-1302.362347,3775.050304
1455.975764,-10658.965565,-3753.867940,3478.967927
1455.976075,-8734.430116,-2451.505594,592.164754
1455.976386,-3701.029710,842.705048,-518.144159
1455.976697,-3108.864956,-229.828649,-1776.494261
1455.977009,-6365.771101,-2451.505594,-296.082377
1455.977320,-9844.739029,-306.438199,1850.514855
1455.977631,-12657.521608,76.609550,2368.659014
1455.977943,-13471.748144,-2757.943793,3108.864956
1455.978254,-12139.377449,-3140.991542,1406.391290
1455.978565,-9400.615463,1608.800546,-1480.411884
1455.978877,-6883.915261,3524.039291,-2368.659014
1455.979188,-8660.409521,0.000000,-1998.556043
1455.979499,-11769.274478,153.219100,-444.123565
1455.979810,-13841.851115,2528.115143,740.205942
1455.980122,-13323.706956,2068.457845,2072.576638
1455.980433,-11547.212695,153.219100,1998.556043
1455.980744,-9622.677246,1455.581446,-1554.432478
1455.981056,-5699.585753,4519.963438,-2368.659014
1455.981367,-6217.729913,3370.820191,-2590.720797
1455.981678,-9918.759623,1991.848295,-1110.308913
1455.981990,-13323.706956,2757.943793,740.205942
1455.982301,-14952.160028,1762.019645,1850.514855
1455.982612,-13619.789333,-2298.286494,2442.679609
1455.982924,-11473.192101,-2374.896044,814.226536
1455.983235,-6735.874072,536.266849,-888.247130
1455.983546,-3034.844362,459.657299,-1110.308913
1455.983857,-6365.771101,-1991.848295,-148.041188
1455.984169,-8808.450710,-1532.190996,2886.803174
1455.984480,-9474.636058,1915.238745,2590.720797
1455.984791,-8882.471304,1685.410096,3775.050304
1455.985103,-9326.594869,-383.047749,2368.659014
1455.985414,-6217.729913,306.438199,-444.123565
1455.985725,-1258.350101,2145.067394,-2590.720797
1455.986037,-1628.453072,0.000000,-1480.411884
1455.986348,-5329.482782,-2681.334243,296.082377
1455.986659,-9844.739029,-1378.971896,1998.556043
1455.986970,-11843.295072,-1762.019645,4293.194464
1455.987282,-11251.130318,-5286.058936,4293.194464
1455.987593,-9104.533087,-5975.544884,2960.823768
1455.987904,-4293.194464,-1302.362347,-0.000000
1455.988216,-2516.700203,-306.438199,-2516.700203
1455.988527,-5033.400406,-2145.067394,-1998.556043
1455.988838,-8068.244768,76.609550,-148.041188
1455.989150,-10732.986159,2757.943793,1036.288319
1455.989461,-11769.274478,689.485948,3256.906145
1455.989772,-12213.398043,-2145.067394,3182.885551
1455.990083,-10066.800811,229.828649,592.164754
1455.990395,-6291.750507,3064.381992,-962.267725
1455.990706,-6513.812290,1302.362347,-2072.576638
1455.991017,-10732.986159,689.485948,-1258.350101
1455.991329,-13693.809927,2528.115143,-888.247130
1455.991640,-14804.118840,995.924147,-592.164754
1455.991951,-15544.324782,-2451.505594,444.123565
1455.992263,-13619.789333,-995.924147,-0.000000
1455.992574,-9992.780217,1762.019645,-1628.453072
1455.992885,-7550.100608,842.705048,-1258.350101
1455.993196,-9696.697840,-1762.019645,-370.102971
1455.993508,-11769.274478,995.924147,1628.453072
1455.993819,-10955.047942,3447.429741,2590.720797
1455.994130,-11103.089130,1378.971896,2442.679609
1455.994442,-10584.944971,0.000000,740.205942
1455.994753,-6661.853478,2145.067394,-1406.391290
1455.995064,-2738.761985,3217.601092,-1850.514855
1455.995376,-4663.297435,459.657299,-1776.494261
1455.995687,-9030.512492,-1455.581446,-222.061783
1455.995998,-12435.459826,1532.190996,888.247130
1455.996309,-13027.624579,689.485948,2072.576638
1455.996621,-11695.253884,-689.485948,2590.720797
1455.996932,-9474.636058,-1838.629195,1628.453072
1455.997243,-3627.009116,-919.314598,296.082377
1455.997555,-296.082377,-1225.752797,-0.000000
1455.997866,-3034.844362,-2221.676944,1110.308913
1455.998177,-4959.379811,-995.924147,3923.091493
1455.998489,-6291.750507,459.657299,4663.297435
1455.998800,-7994.224174,-3064.381992,4293.194464
1455.999111,-8142.265362,-4596.572988,2812.782580
1455.999423,-5181.441594,-459.657299,-1036.288319
1455.999734,-2886.803174,2451.505594,-3330.926739
1456.000045,-4737.318029,-612.876398,-2442.679609
1456.000356,-9844.739029,-3677.258390,-1998.556043
1456.000668,-13323.706956,-612.876398,592.164754
1456.000979,-15248.242405,153.219100,1924.535449
1456.001290,-15248.242405,-2451.505594,2960.823768
1456.001602,-12731.542202,-2068.457845,2294.638420
1456.001913,-9252.574275,306.438199,-0.000000
1456.002224,-5921.647536,-153.219100,-0.000000
1456.002536,-7031.956449,-842.705048,-0.000000
1456.002847,-9252.574275,1915.238745,-0.000000
1456.003158,-10436.903782,2604.724693,370.102971
1456.003469,-11843.295072,-1072.533697,444.123565
1456.003781,-12583.501014,-1685.410096,-962.267725
1456.004092,-10140.821405,3370.820191,-2960.823768
1456.004403,-7698.141797,5056.230287,-3552.988522
1456.004715,-9992.780217,612.876398,-2368.659014
1456.005026,-13397.727550,-919.314598,-0.000000
1456.005337,-14878.139434,1762.019645,1480.411884
1456.005649,-14359.995275,2451.505594,2738.761985
1456.005960,-12953.603985,306.438199,2738.761985
1456.006271,-10436.903782,306.438199,444.123565
1456.006582,-4441.235652,2604.724693,-222.061783
1456.006894,-2146.597232,2374.896044,-296.082377
1456.007205,-5921.647536,76.609550,444.123565
1456.007516,-8586.388927,153.219100,1702.473667
1456.007828,-8216.285956,919.314598,2220.617826
1456.008139,-8956.491898,-2068.457845,1850.514855
1456.008450,-8808.450710,-3140.991542,1036.288319
1456.008762,-4515.256246,-306.438199,-1332.370696
1456.009073,-1850.514855,459.657299,-2072.576638
1456.009384,-5329.482782,-2834.553343,-518.144159
1456.009695,-7402.059420,-2451.505594,1702.473667
1456.010007,-11177.109724,1685.410096,2664.741391
1456.010318,-12657.521608,0.000000,5477.523971
1456.010629,-10288.862594,-4060.306139,5847.626942
1456.010941,-7402.059420,-4443.353888,1332.370696
1456.011252,-2960.823768,229.828649,-592.164754
1456.011563,-1554.432478,76.609550,-1924.535449
1456.011875,-4293.194464,-1532.190996,-1850.514855
1456.012186,-7328.038826,-153.219100,-222.061783
1456.012497,-11473.192101,-1608.800546,592.164754
1456.012809,-12583.501014,-3983.696590,1628.453072
1456.013120,-13545.768739,-919.314598,518.144159
1456.013431,-9622.677246,3370.820191,-888.247130
1456.013742,-5921.647536,2374.896044,-2294.638420
1456.014054,-8142.265362,-1225.752797,-814.226536
1456.014365,-9918.759623,229.828649,814.226536
1456.014676,-11843.295072,2604.724693,814.226536
1456.014988,-14434.015869,536.266849,1258.350101
1456.015299,-13767.830521,-689.485948,1554.432478
1456.015610,-12435.459826,1072.533697,-2442.679609
1456.015922,-8660.409521,3217.601092,-3256.906145
1456.016233,-7328.038826,2068.457845,-3108.864956
1456.016544,-10584.944971,-306.438199,-1406.391290
1456.016855,-13027.624579,1225.752797,592.164754
1456.017167,-14878.139434,1302.362347,2368.659014
1456.017478,-14656.077652,-1072.533697,3256.906145
1456.017789,-10955.047942,-612.876398,1850.514855
1456.018101,-5477.523971,2298.286494,-0.000000
1456.018412,-2442.679609,1302.362347,-1924.535449
1456.018723,-4367.215058,-1991.848295,-888.247130
1456.019035,-7846.182985,-842.705048,1184.329507
1456.019346,-10362.883188,1455.581446,1924.535449
1456.019657,-11547.212695,-612.876398,3478.967927
1456.019968,-11917.315666,-4213.525239,3256.906145
1456.020280,-9326.594869,-3140.991542,1628.453072
1456.020591,-3478.967927,1455.581446,-740.205942
1456.020902,-1998.556043,153.219100,-1110.308913
1456.021214,-5329.482782,-1991.848295,148.041188
1456.021525,-7550.100608,-153.219100,2368.659014
1456.021836,-8956.491898,383.047749,3404.947333
1456.022148,-8660.409521,-1225.752797,4737.318029
1456.022459,-7476.080014,-1608.800546,2590.720797
1456.022770,-3256.906145,76.609550,740.205942
1456.023081,-740.205942,-536.266849,-1110.308913
1456.023393,-3404.947333,-3907.087040,-518.144159
1456.023704,-7772.162391,-2681.334243,1258.350101
1456.024015,-12213.398043,-229.828649,1332.370696
1456.024327,-13915.871710,-1685.410096,2442.679609
1456.024638,-13545.768739,-4060.306139,1480.411884
1456.024949,-11843.295072,-1149.143247,-1036.288319
1456.025261,-8364.327145,2987.772442,-2368.659014
1456.025572,-7254.018232,2068.457845,-2590.720797
1456.025883,-9844.739029,76.609550,-0.000000
1456.026194,-12065.356855,2221.676944,1332.370696
1456.026506,-11991.336260,3447.429741,1776.494261
1456.026817,-10658.965565,612.876398,1332.370696
1456.027128,-9252.574275,1072.533697,-962.267725
1456.027440,-5773.606348,3447.429741,-2886.803174
1456.027751,-6143.709319,2298.286494,-3478.967927
1456.028062,-10288.862594,-153.219100,-1924.535449
1456.028374,-14508.036463,1378.971896,-370.102971
1456.028685,-16728.654289,1915.238745,1406.391290
1456.028996,-15692.365970,-1378.971896,2368.659014
1456.029308,-13471.748144,-3524.039291,1110.308913
1456.029619,-10066.800811,0.000000,-1110.308913
1456.029931,-4515.256246,4443.353888,-1702.473667
1456.030242,-3701.029710,2374.896044,-1184.329507
1456.030554,-7698.141797,459.657299,1406.391290
1456.030865,-9770.718434,459.657299,3849.070898
1456.031177,-9548.656652,459.657299,3552.988522
1456.031488,-8290.306550,-842.705048,3923.091493
1456.031800,-6957.935855,-612.876398,296.082377
1456.032111,-3478.967927,1915.238745,-1998.556043
1456.032423,-1628.453072,1225.752797,-2812.782580
1456.032734,-4293.194464,-2221.676944,-740.205942
1456.033046,-8068.244768,-1532.190996,1110.308913
1456.033358,-11029.068536,-536.266849,2960.823768
1456.033669,-12509.480420,-3600.648841,4367.215058
1456.033981,-11177.109724,-4903.011187,3478.967927
1456.034292,-6883.915261,-459.657299,444.123565
1456.034604,-3330.926739,1455.581446,-1628.453072
1456.034915,-4219.173869,-1532.190996,-1184.329507
1456.035227,-5995.668130,-3140.991542,1036.288319
1456.035538,-8956.491898,0.000000,2368.659014
1456.035850,-10140.821405,229.828649,4071.132681
1456.036161,-10214.842000,-2374.896044,4589.276840
1456.036473,-10066.800811,-2068.457845,1036.288319
1456.036785,-6513.812290,1991.848295,-1480.411884
1456.037096,-5255.462188,1378.971896,-3849.070898
1456.037408,-9770.718434,0.000000,-3256.906145
1456.037719,-14063.912898,1685.410096,-1480.411884
1456.038031,-15544.324782,2834.553343,-666.185348
1456.038342,-15470.304188,-229.828649,1332.370696
1456.038654,-14582.057057,-1991.848295,1406.391290
1456.038965,-9918.759623,612.876398,-1036.288319
1456.039277,-6439.791695,2681.334243,-2294.638420
1456.039588,-5255.462188,842.705048,-0.000000
1456.039900,-6883.915261,995.924147,2220.617826
1456.040211,-11177.109724,1149.143247,2664.741391
1456.040523,-13471.748144,0.000000,3627.009116
1456.040835,-13175.665768,-2068.457845,2220.617826
1456.041146,-10436.903782,1302.362347,-1110.308913
1456.041458,-6069.688724,4749.792088,-2886.803174
1456.041769,-5329.482782,1762.019645,-4219.173869
1456.042081,-8216.285956,-2681.334243,-962.267725
1456.042392,-10362.883188,-1072.533697,1036.288319
1456.042704,-12213.398043,1072.533697,3256.906145
1456.043015,-11991.336260,-919.314598,4219.173869
1456.043327,-9548.656652,-1608.800546,3404.947333
1456.043638,-5921.647536,689.485948,666.185348
1456.043950,-1332.370696,1685.410096,-0.000000
1456.044262,-1184.329507,-383.047749,-296.082377
1456.044573,-5477.523971,-689.485948,740.205942
1456.044885,-9030.512492,-153.219100,2738.761985
1456.045196,-9474.636058,-1762.019645,3849.070898
1456.045508,-8956.491898,-3753.867940,2738.761985
1456.045819,-7624.121203,-3064.381992,370.102971
1456.046131,-3108.864956,0.000000,-1776.494261
1456.046442,-3404.947333,-766.095498,-2812.782580
1456.046754,-7624.121203,-2298.286494,-1184.329507
1456.047065,-9918.759623,0.000000,1036.288319
1456.047377,-12509.480420,-536.266849,3775.050304
1456.047688,-15026.180623,-2145.067394,4663.297435
1456.048000,-13693.809927,-3447.429741,3108.864956
1456.048312,-9030.512492,995.924147,-1480.411884
1456.048623,-5033.400406,5209.449386,-1924.535449
1456.048935,-4811.338623,1608.800546,-1998.556043
1456.049246,-8660.409521,-766.095498,-1702.473667
1456.049558,-11991.336260,229.828649,-0.000000
1456.049869,-12213.398043,612.876398,962.267725
1456.050181,-13323.706956,-1072.533697,740.205942
1456.050492,-11621.233289,1455.581446,-814.226536
1456.050804,-8068.244768,4519.963438,-2812.782580
1456.051115,-7994.224174,1302.362347,-3701.029710
1456.051427,-9918.759623,76.609550,-444.123565
1456.051738,-13397.727550,3064.381992,1036.288319
1456.052050,-14434.015869,3294.210641,2220.617826
1456.052362,-13323.706956,-1149.143247,3034.844362
1456.052673,-10807.006753,-2757.943793,666.185348
1456.052985,-6661.853478,2298.286494,-666.185348
1456.053296,-3404.947333,2757.943793,-1184.329507
1456.053608,-4737.318029,-919.314598,-1332.370696
1456.053919,-9030.512492,-1762.019645,74.020594
1456.054231,-10436.903782,612.876398,2146.597232
1456.054542,-11473.192101,-995.924147,3330.926739
1456.054854,-10955.047942,-2451.505594,3182.885551
1456.055165,-7846.182985,-612.876398,740.205942
1456.055477,-2442.679609,1225.752797,-814.226536
1456.055789,0.000000,383.047749,-1036.288319
1456.056100,-5921.647536,-1149.143247,296.082377
1456.056412,-8216.285956,-842.705048,2960.823768
1456.056723,-9178.553681,-1455.581446,4367.215058
1456.057035,-9844.739029,-3907.087040,5181.441594
1456.057346,-9030.512492,-3907.087040,2146.597232
1456.057658,-6513.812290,-689.485948,-1110.308913
1456.057969,-2812.782580,383.047749,-1850.514855
1456.058281,-6069.688724,-2374.896044,-1850.514855
1456.058592,-9770.718434,-2068.457845,444.123565
1456.058904,-11843.295072,2145.067394,1776.494261
1456.059215,-14211.954086,0.000000,3330.926739
1456.059527,-13767.830521,-3753.867940,3404.947333
1456.059839,-9622.677246,-612.876398,-0.000000
1456.060150,-5181.441594,3370.820191,-1702.473667
1456.060462,-4293.194464,919.314598,-2072.576638
1456.060773,-7476.080014,-766.095498,-370.102971
1456.061085,-9474.636058,1608.800546,592.164754
1456.061396,-11991.336260,1608.800546,1184.329507
1456.061708,-14285.974681,-1608.800546,1332.370696
1456.062019,-14211.954086,-76.609550,-1776.494261
1456.062331,-10732.986159,4903.011187,-3701.029710
1456.062642,-7920.203579,3140.991542,-3330.926739
1456.062954,-10436.903782,-1072.533697,-2146.597232
1456.063266,-13175.665768,1149.143247,-0.000000
1456.063577,-14359.995275,4136.915689,1554.432478
1456.063889,-12065.356855,459.657299,3997.112087
1456.064200,-9252.574275,-2145.067394,3182.885551
1456.064512,-7402.059420,-229.828649,814.226536
1456.064823,-2146.597232,995.924147,-1480.411884
1456.065135,-2220.617826,-153.219100,-2220.617826
1456.065446,-7105.977043,-306.438199,-592.164754
1456.065758,-10584.944971,1685.410096,1184.329507
1456.066069,-12805.562797,-612.876398,2368.659014
1456.066381,-12213.398043,-3600.648841,2738.761985
1456.066692,-9992.780217,-2911.162892,1850.514855
1456.067004,-4737.318029,995.924147,-1406.391290
1456.067316,-2146.597232,2451.505594,-1628.453072
1456.067627,-6439.791695,-536.266849,-1258.350101
1456.067939,-8290.306550,689.485948,1110.308913
1456.068250,-7550.100608,3064.381992,3256.906145
1456.068562,-7846.182985,229.828649,4441.235652
1456.068873,-7476.080014,-3064.381992,4219.173869
1456.069185,-4811.338623,-2145.067394,888.247130
1456.069496,-2146.597232,0.000000,-740.205942
1456.069808,-2812.782580,-2834.553343,-1258.350101
1456.070119,-7402.059420,-3677.258390,-0.000000
1456.070431,-13175.665768,-1149.143247,888.247130
1456.070743,-14582.057057,-1302.362347,2146.597232
1456.071054,-14952.160028,-5515.887586,2220.617826
1456.071366,-13249.686362,-3830.477490,592.164754
1456.071677,-9622.677246,2145.067394,-2220.617826
1456.071989,-7920.203579,2528.115143,-2812.782580
1456.072300,-9918.759623,612.876398,-1036.288319
1456.072612,-11399.171507,2298.286494,1332.370696
1456.072923,-10288.862594,3677.258390,2738.761985
1456.073235,-9844.739029,459.657299,3034.844362
1456.073546,-9918.759623,-2987.772442,1184.329507
1456.073858,-6809.894666,2451.505594,-2368.659014
1456.074169,-5921.647536,4519.963438,-4441.235652
1456.074481,-8734.430116,1991.848295,-3404.947333
1456.074793,-13915.871710,76.609550,-1406.391290
1456.075104,-15988.448347,1378.971896,592.164754
1456.075416,-16062.468941,153.219100,2368.659014
1456.075727,-14359.995275,-2221.676944,2516.700203
1456.076039,-9030.512492,-229.828649,814.226536
1456.076350,-5107.421000,1225.752797,-1258.350101
1456.076662,-2442.679609,995.924147,-0.000000
1456.076973,-3775.050304,-536.266849,-0.000000
1456.077285,-7920.203579,1149.143247,2368.659014
1456.077596,-8734.430116,2528.115143,3701.029710
1456.077908,-9770.718434,-995.924147,3478.967927
1456.078220,-9770.718434,-2911.162892,2072.576638
1456.078531,-5107.421000,842.705048,-444.123565
1456.078843,-1258.350101,1991.848295,-2664.741391
1456.079154,-2960.823768,-842.705048,-2590.720797
1456.079466,-7402.059420,-1149.143247,-222.061783
1456.079777,-9844.739029,-536.266849,1184.329507
1456.080089,-11769.274478,-919.314598,4071.132681
1456.080400,-11843.295072,-4596.572988,4441.235652
1456.080712,-9104.533087,-2987.772442,2442.679609
1456.081023,-5551.544565,-306.438199,-370.102971
1456.081335,-2442.679609,-842.705048,-888.247130
1456.081646,-5329.482782,-2911.162892,-296.082377
1456.081958,-8438.347739,-1762.019645,1184.329507
1456.082270,-10288.862594,-995.924147,2516.700203
1456.082581,-12065.356855,-2911.162892,2368.659014
1456.082893,-11695.253884,-2604.724693,1184.329507
1456.083204,-9992.780217,1608.800546,-1850.514855
1456.083516,-8068.244768,2834.553343,-2738.761985
1456.083827,-9548.656652,1685.410096,-2516.700203
1456.084139,-12139.377449,766.095498,-74.020594
1456.084450,-14434.015869,1762.019645,1480.411884
1456.084762,-16062.468941,-383.047749,1628.453072
1456.085073,-14063.912898,-689.485948,888.247130
1456.085385,-9252.574275,1991.848295,-2220.617826
1456.085697,-4885.359217,3600.648841,-2590.720797
1456.086008,-3849.070898,229.828649,-2220.617826
1456.086320,-7920.203579,-1991.848295,-814.226536
1456.086631,-11695.253884,612.876398,888.247130
1456.086943,-13841.851115,1608.800546,2738.761985
1456.087254,-14211.954086,-1302.362347,3108.864956
1456.087566,-11991.336260,-2145.067394,888.247130
1456.087877,-7476.080014,459.657299,-1702.473667
1456.088189,-4515.256246,2145.067394,-1776.494261
1456.088500,-6291.750507,1838.629195,-1036.288319
1456.088812,-10955.047942,2834.553343,-0.000000
1456.089123,-11177.109724,2911.162892,2368.659014
1456.089435,-9992.780217,-995.924147,3478.967927
1456.089747,-7698.141797,-2911.162892,2960.823768
1456.090058,-4515.256246,76.609550,148.041188
1456.090370,-1184.329507,2451.505594,-2072.576638
1456.090681,-518.144159,-459.657299,-1110.308913
1456.090993,-6069.688724,-3370.820191,592.164754
1456.091304,-8660.409521,-1608.800546,2960.823768
1456.091616,-10140.821405,-1072.533697,3775.050304
1456.091927,-10362.883188,-3907.087040,5255.462188
1456.092239,-7994.224174,-3753.867940,2590.720797
1456.092550,-4959.379811,306.438199,-1258.350101
1456.092862,-2886.803174,1302.362347,-1998.556043
1456.093174,-5033.400406,-1302.362347,-592.164754
1456.093485,-9548.656652,-1378.971896,1406.391290
1456.093797,-12287.418637,1149.143247,3182.885551
1456.094108,-13619.789333,-919.314598,4145.153275
1456.094420,-12805.562797,-3524.039291,2738.761985
1456.094731,-9696.697840,-153.219100,1036.288319
1456.095043,-6069.688724,2987.772442,-2516.700203
1456.095354,-6883.915261,1149.143247,-2590.720797
1456.095666,-9992.780217,-1378.971896,-1702.473667
1456.095977,-12657.521608,919.314598,-222.061783
1456.096289,-13841.851115,1915.238745,888.247130
1456.096600,-12583.501014,-1302.362347,1406.391290
1456.096912,-11103.089130,-1685.410096,-0.000000
1456.097224,-7698.141797,1991.848295,-1406.391290
1456.097535,-5847.626942,2757.943793,-2146.597232
1456.097847,-8438.347739,1225.752797,-1036.288319
1456.098158,-11399.171507,995.924147,740.205942
1456.098470,-14508.036463,1991.848295,1776.494261
1456.098781,-14582.057057,0.000000,1776.494261
1456.099093,-13027.624579,-1225.752797,1110.308913
1456.099404,-10584.944971,306.438199,-1332.370696
1456.099716,-6291.750507,1225.752797,-2220.617826
1456.100027,-5329.482782,-536.266849,-1628.453072
1456.100339,-9474.636058,-1532.190996,666.185348
1456.100651,-9474.636058,229.828649,2886.803174
1456.100962,-9400.615463,383.047749,3627.009116
1456.101274,-9474.636058,-1455.581446,3404.947333
1456.101585,-6143.709319,76.609550,1850.514855
1456.101897,-2368.659014,3370.820191,-1110.308913
1456.102208,-888.247130,3064.381992,-2516.700203
1456.102520,-3108.864956,612.876398,-444.123565
1456.102831,-6735.874072,229.828649,666.185348
1456.103143,-8512.368333,612.876398,2146.597232
1456.103454,-11251.130318,-2451.505594,3256.906145
1456.103766,-10807.006753,-5132.839837,2960.823768
1456.104077,-7105.977043,-2298.286494,666.185348
1456.104389,-4811.338623,153.219100,-1554.432478
1456.104701,-5921.647536,-1838.629195,-1998.556043
1456.105012,-8734.430116,-3524.039291,-444.123565
1456.105324,-9918.759623,1378.971896,1184.329507
1456.105635,-11177.109724,229.828649,2812.782580
1456.105947,-12139.377449,-3524.039291,3775.050304
1456.106258,-10658.965565,-1762.019645,1998.556043
1456.106570,-6809.894666,2068.457845,-1036.288319
1456.106881,-4959.379811,1302.362347,-1998.556043
1456.107193,-6809.894666,306.438199,-1628.453072
1456.107504,-10288.862594,2298.286494,-962.267725
1456.107816,-13693.809927,1838.629195,-222.061783
1456.108128,-13841.851115,-1072.533697,1554.432478
1456.108439,-14285.974681,-2221.676944,814.226536
1456.108751,-12657.521608,842.705048,-814.226536
1456.109062,-9770.718434,1991.848295,-2812.782580
1456.109374,-10288.862594,-153.219100,-3034.844362
1456.109685,-11547.212695,766.095498,-518.144159
1456.109997,-12139.377449,2757.943793,814.226536
1456.110308,-11473.192101,383.047749,2516.700203
1456.110620,-10436.903782,-2528.115143,3627.009116
1456.110931,-9770.718434,-1915.238745,2146.597232
1456.111243,-5181.441594,1072.533697,-74.020594
1456.111554,-3997.112087,1762.019645,-2072.576638
1456.111866,-7179.997637,-306.438199,-666.185348
1456.112178,-10140.821405,153.219100,666.185348
1456.112489,-13027.624579,766.095498,1998.556043
1456.112801,-12879.583391,-689.485948,2516.700203
1456.113112,-9992.780217,-919.314598,2738.761985
1456.113424,-7254.018232,153.219100,-222.061783
1456.113735,-3627.009116,2528.115143,-1702.473667
1456.114047,-2590.720797,766.095498,-888.247130
1456.114358,-5107.421000,-229.828649,222.061783
1456.114670,-6143.709319,1225.752797,3627.009116
1456.114981,-6439.791695,-766.095498,4737.318029
1456.115293,-8438.347739,-4979.620737,4589.276840
1456.115604,-7402.059420,-3064.381992,2738.761985
1456.115916,-2664.741391,1302.362347,222.061783
1456.116228,-2368.659014,306.438199,-1702.473667
1456.116539,-6661.853478,-1915.238745,-666.185348
1456.116851,-10955.047942,-1685.410096,-74.020594
1456.117162,-12139.377449,0.000000,1406.391290
1456.117474,-12731.542202,-1149.143247,3034.844362
1456.117785,-13471.748144,-2298.286494,2294.638420
1456.118097,-10066.800811,-76.609550,-222.061783
1456.118408,-6291.750507,2068.457845,-592.164754
1456.118720,-5995.668130,0.000000,-74.020594
1456.119031,-7698.141797,459.657299,592.164754
1456.119343,-9474.636058,3294.210641,1850.514855
1456.119655,-10732.986159,1608.800546,1036.288319
1456.119966,-11029.068536,-766.095498,370.102971
1456.120278,-10584.944971,1991.848295,-2368.659014
1456.120589,-8438.347739,5286.058936,-4293.194464
1456.120901,-8956.491898,2528.115143,-4071.132681
1456.121212,-12361.439231,-612.876398,-2072.576638
1456.121524,-15470.304188,229.828649,148.041188
1456.121835,-16876.695478,1532.190996,1998.556043
1456.122147,-15618.345376,-1225.752797,4145.153275
1456.122458,-12435.459826,-2681.334243,1480.411884
1456.122770,-7772.162391,76.609550,-148.041188
1456.123081,-3182.885551,1685.410096,-1036.288319
1456.123393,-5625.565159,-306.438199,-1184.329507
1456.123705,-8216.285956,0.000000,962.267725
1456.124016,-9104.533087,612.876398,1850.514855
1456.124328,-9770.718434,-1455.581446,2812.782580
1456.124639,-10807.006753,-4596.572988,2738.761985
1456.124951,-8142.265362,-1685.410096,592.164754
1456.125262,-2886.803174,1608.800546,-1776.494261
1456.125574,-2442.679609,0.000000,-1924.535449
1456.125885,-6365.771101,-2451.505594,-296.082377
1456.126197,-9474.636058,612.876398,1406.391290
1456.126508,-10584.944971,1532.190996,3627.009116
1456.126820,-9844.739029,-612.876398,3997.112087
1456.127132,-8068.244768,-3064.381992,3478.967927
1456.127443,-4219.173869,-1072.533697,-0.000000
1456.127755,-2220.617826,-689.485948,-666.185348
1456.128066,-4515.256246,-2528.115143,-222.061783
1456.128378,-7328.038826,-2068.457845,814.226536
1456.128689,-9770.718434,459.657299,2072.576638
1456.129001,-11029.068536,-2451.505594,3108.864956
1456.129312,-11177.109724,-4136.915689,2072.576638
1456.129624,-9918.759623,689.485948,-592.164754
1456.129935,-6439.791695,4060.306139,-1628.453072
1456.130247,-6883.915261,1685.410096,-1776.494261
1456.130558,-11103.089130,-383.047749,-518.144159
1456.130870,-13175.665768,3217.601092,888.247130
1456.131181,-13249.686362,3677.258390,1258.350101
1456.131493,-12805.562797,-919.314598,1110.308913
1456.131804,-10066.800811,-766.095498,296.082377
1456.132116,-7254.018232,1072.533697,-2516.700203
1456.132427,-5995.668130,1532.190996,-2664.741391
1456.132739,-8882.471304,-612.876398,-888.247130
1456.133050,-12139.377449,0.000000,1036.288319
1456.133362,-14137.933492,689.485948,1998.556043
1456.133673,-14878.139434,-536.266849,3256.906145
1456.133985,-13693.809927,-842.705048,1924.535449
1456.134296,-9474.636058,3677.258390,-1406.391290
1456.134608,-4589.276840,5745.716235,-2516.700203
1456.134919,-3330.926739,1608.800546,-2294.638420
1456.135230,-7105.977043,-1378.971896,-0.000000
1456.135542,-11399.171507,306.438199,1850.514855
1456.135853,-10436.903782,689.485948,3404.947333
1456.136165,-9474.636058,-3370.820191,3923.091493
1456.136476,-7624.121203,-7048.078582,2664.741391
1456.136788,-3330.926739,-6205.373534,518.144159
1456.137099,-1776.494261,-6588.421283,-666.185348
1456.137411,-3701.029710,-5745.716235,-0.000000
1456.137722,-7772.162391,-3677.258390,666.185348
1456.138034,-11769.274478,-3140.991542,1628.453072
1456.138345,-12139.377449,-4443.353888,2812.782580
1456.138657,-9770.718434,-4366.744339,2516.700203
1456.138968,-6513.812290,-612.876398,962.267725
1456.139280,-3775.050304,-383.047749,-296.082377
1456.139591,-3108.864956,-2451.505594,-666.185348
1456.139903,-5477.523971,-4596.572988,-0.000000
1456.140214,-9104.533087,-2451.505594,1850.514855
1456.140526,-9178.553681,-1378.971896,2368.659014
1456.140837,-11029.068536,-3753.867940,740.205942
1456.141149,-11473.192101,-4673.182538,-666.185348
1456.141460,-8808.450710,-1149.143247,-2590.720797
1456.141772,-8512.368333,1608.800546,-4071.132681
1456.142083,-11251.130318,-459.657299,-1406.391290
1456.142395,-14211.954086,-1915.238745,962.267725
1456.142706,-15988.448347,-2528.115143,1702.473667
1456.143018,-13545.768739,-2298.286494,2960.823768
1456.143329,-7920.203579,-2834.553343,2664.741391
1456.143641,-5477.523971,-3830.477490,-222.061783
1456.143952,-3478.967927,-2451.505594,-2294.638420
1456.144264,-2516.700203,-2987.772442,-2442.679609
1456.144575,-8216.285956,-4826.401637,-1554.432478
1456.144887,-15174.221811,-3064.381992,370.102971
1456.145198,-19319.375086,-2298.286494,740.205942
1456.145509,-18801.230927,-3524.039291,1554.432478
1456.145821,-13841.851115,-3524.039291,1924.535449
1456.146132,-9992.780217,-4673.182538,-518.144159
1456.146444,-5847.626942,-3064.381992,-1924.535449
1456.146755,-1850.514855,-2834.553343,-962.267725
1456.147067,-2220.617826,-1762.019645,-0.000000
1456.147378,-6143.709319,-2528.115143,2738.761985
1456.147690,-8660.409521,-2911.162892,2960.823768
1456.148001,-9474.636058,-3140.991542,4219.173869
1456.148313,-8660.409521,-3064.381992,3182.885551
1456.148624,-5107.421000,-2374.896044,2294.638420
1456.148936,-4737.318029,-2374.896044,-1036.288319
1456.149247,-6143.709319,-3983.696590,-2960.823768
1456.149559,-6217.729913,-4060.306139,-1702.473667
1456.149870,-6735.874072,-2451.505594,-1480.411884
1456.150182,-10436.903782,-1455.581446,592.164754
1456.150493,-13915.871710,-3753.867940,2664.741391
1456.150805,-12435.459826,-4673.182538,3552.988522
1456.151116,-8882.471304,-3064.381992,3627.009116
1456.151428,-3701.029710,-2374.896044,3552.988522
1456.151739,-2738.761985,-5669.106685,1110.308913
1456.152051,-3478.967927,-8810.098227,-962.267725
1456.152362,-2960.823768,-7890.783629,-1628.453072
1456.152674,-4367.215058,-4826.401637,-1924.535449
1456.152985,-8734.430116,-2068.457845,-1110.308913
1456.153297,-14434.015869,-2911.162892,962.267725
1456.153608,-17246.798449,-6358.592633,2812.782580
1456.153920,-17098.757260,-6205.373534,4219.173869
1456.154231,-15100.201217,-1455.581446,3182.885551
1456.154543,-13027.624579,995.924147,962.267725
1456.154854,-8882.471304,-612.876398,-1628.453072
1456.155166,-5255.462188,-2451.505594,-2738.761985
1456.155477,-2590.720797,-1608.800546,-3330.926739
1456.155788,-3034.844362,76.609550,-3182.885551
1456.156100,-8290.306550,-612.876398,-1702.473667
1456.156411,-12065.356855,-1532.190996,1850.514855
1456.156723,-15544.324782,-3830.477490,2590.720797
1456.157034,-17542.880825,-4903.011187,2516.700203
1456.157346,-15618.345376,-2451.505594,2072.576638
1456.157657,-12583.501014,76.609550,-0.000000
1456.157969,-7550.100608,1532.190996,-1850.514855
1456.158280,-4737.318029,229.828649,-2738.761985
1456.158592,-3849.070898,-2451.505594,-3478.967927
1456.158903,-3108.864956,-1685.410096,-1480.411884
1456.159215,-4145.153275,-689.485948,222.061783
1456.159526,-7550.100608,-306.438199,1480.411884
1456.159838,-11029.068536,-1685.410096,1998.556043
1456.160149,-11621.233289,-2451.505594,2812.782580
1456.160461,-11251.130318,-3140.991542,2368.659014
1456.160772,-10140.821405,-2757.943793,2812.782580
1456.161084,-10140.821405,-2298.286494,1480.411884
1456.161395,-8808.450710,-3447.429741,1184.329507
1456.161707,-6883.915261,-3600.648841,666.185348
1456.162018,-3701.029710,-3447.429741,592.164754
1456.162330,-1776.494261,-4060.306139,-74.020594
1456.162641,-2368.659014,-5898.935335,-370.102971
1456.162953,-4367.215058,-5056.230287,-74.020594
1456.163264,-7179.997637,-4213.525239,-370.102971
1456.163576,-9104.533087,-2451.505594,1258.350101
1456.163887,-11621.233289,-3677.258390,2664.741391
1456.164199,-12879.583391,-5209.449386,3849.070898
1456.164510,-13175.665768,-6205.373534,3997.112087
1456.164822,-12435.459826,-6281.983084,3256.906145
1456.165133,-9770.718434,-4826.401637,1702.473667
1456.165445,-8290.306550,-2834.553343,-962.267725
1456.165756,-6661.853478,-2451.505594,-2368.659014
1456.166068,-5255.462188,-2451.505594,-2886.803174
1456.166379,-5921.647536,-2604.724693,-2886.803174
1456.166690,-6439.791695,-2528.115143,-1998.556043
1456.167002,-7624.121203,-3217.601092,-74.020594
1456.167313,-10732.986159,-4443.353888,592.164754
1456.167625,-12805.562797,-4136.915689,1924.535449
1456.167936,-14508.036463,-4136.915689,2368.659014
1456.168248,-15174.221811,-4443.353888,2664.741391
1456.168559,-14730.098246,-4519.963438,2368.659014
1456.168871,-13101.645173,-4290.134789,1628.453072
1456.169182,-10066.800811,-5592.497135,518.144159
1456.169494,-6661.853478,-6435.202183,444.123565
1456.169805,-4737.318029,-6281.983084,-814.226536
1456.170117,-4515.256246,-5209.449386,-1702.473667
1456.170428,-4737.318029,-2604.724693,-3108.864956
1456.170740,-6587.832884,-1685.410096,-2368.659014
1456.171051,-10214.842000,-842.705048,-1036.288319
1456.171363,-12731.542202,-1532.190996,1036.288319
1456.171674,-13471.748144,-1608.800546,1924.535449
1456.171986,-12731.542202,-2374.896044,2590.720797
1456.172297,-10881.027347,-2987.772442,2590.720797
1456.172609,-9178.553681,-2911.162892,1184.329507
1456.172920,-7550.100608,-2374.896044,-222.061783
1456.173232,-7328.038826,-995.924147,-592.164754
1456.173543,-6143.709319,229.828649,-592.164754
1456.173855,-5773.606348,1608.800546,-1036.288319
1456.174166,-4959.379811,459.657299,-1184.329507
1456.174478,-4515.256246,-1608.800546,-814.226536
1456.174789,-3997.112087,-1991.848295,-74.020594
1456.175101,-4737.318029,-2221.676944,222.061783
1456.175412,-8068.244768,-3217.601092,444.123565
1456.175724,-11251.130318,-3907.087040,1258.350101
1456.176035,-13619.789333,-4366.744339,2442.679609
1456.176347,-14137.933492,-3600.648841,2442.679609
1456.176658,-12435.459826,-3140.991542,2442.679609
1456.176969,-9992.780217,-2374.896044,1776.494261
1456.177281,-7476.080014,-2528.115143,444.123565
1456.177592,-4737.318029,-2528.115143,-148.041188
1456.177904,-3034.844362,-1149.143247,-518.144159
1456.178215,-3552.988522,-383.047749,-1110.308913
1456.178527,-4071.132681,-612.876398,-740.205942
1456.178838,-6217.729913,-2374.896044,-0.000000
1456.179150,-9104.533087,-3907.087040,666.185348
1456.179461,-11177.109724,-4673.182538,2072.576638
1456.179773,-13175.665768,-6281.983084,3034.844362
1456.180084,-13397.727550,-6971.469032,3923.091493
1456.180396,-13619.789333,-6435.202183,3627.009116
1456.180707,-13323.706956,-5439.278036,2368.659014
1456.181019,-11769.274478,-3217.601092,1110.308913
1456.181330,-9178.553681,-229.828649,-0.000000
1456.181642,-7105.977043,1685.410096,-666.185348
1456.181953,-5699.585753,1302.362347,-888.247130
1456.182265,-5033.400406,153.219100,-592.164754
1456.182576,-4737.318029,-229.828649,-0.000000
1456.182888,-6291.750507,-2145.067394,148.041188
1456.183199,-8142.265362,-3677.258390,962.267725
1456.183511,-10436.903782,-5439.278036,1036.288319
1456.183822,-12435.459826,-5975.544884,1554.432478
1456.184134,-13397.727550,-5822.325785,1776.494261
1456.184445,-13397.727550,-5209.449386,1332.370696
1456.184757,-12361.439231,-5745.716235,1406.391290
1456.185068,-9918.759623,-5439.278036,1184.329507
1456.185380,-7476.080014,-4290.134789,148.041188
1456.185691,-5403.503377,-2604.724693,-74.020594
1456.186003,-4515.256246,-1915.238745,-1036.288319
1456.186314,-4811.338623,-1915.238745,-888.247130
1456.186626,-5255.462188,-995.924147,-666.185348
1456.186937,-7402.059420,-1149.143247,222.061783
1456.187248,-8808.450710,-2298.286494,666.185348
1456.187560,-10881.027347,-3753.867940,1036.288319
1456.187871,-10584.944971,-4213.525239,1406.391290
1456.188183,-11399.171507,-3830.477490,370.102971
1456.188494,-9326.594869,-2681.334243,444.123565
1456.188806,-8512.368333,-2451.505594,-370.102971
1456.189117,-8956.491898,-2604.724693,-1184.329507
1456.189429,-6513.812290,-1378.971896,-592.164754
1456.189740,-6365.771101,-995.924147,-1924.535449
1456.190052,-7105.977043,-1915.238745,296.082377
1456.190363,-9696.697840,-3217.601092,-296.082377
1456.190675,-9622.677246,-2681.334243,1258.350101
1456.190986,-9696.697840,-1838.629195,1702.473667
1456.191298,-9918.759623,-2757.943793,2664.741391
1456.191609,-11399.171507,-4213.525239,2220.617826
1456.191921,-10214.842000,-3983.696590,2146.597232
1456.192232,-9992.780217,-2757.943793,2146.597232
1456.192544,-9770.718434,-1455.581446,1702.473667
1456.192855,-12065.356855,0.000000,962.267725
1456.193167,-11399.171507,1302.362347,814.226536
1456.193478,-9400.615463,383.047749,592.164754
1456.193790,-7476.080014,0.000000,962.267725
1456.194101,-5403.503377,766.095498,1258.350101
1456.194413,-7550.100608,-1225.752797,1332.370696
1456.194724,-7105.977043,-3294.210641,4219.173869
1456.195036,-9474.636058,-4290.134789,4293.194464
1456.195347,-9548.656652,-2528.115143,6291.750507
1456.195659,-12361.439231,-2221.676944,5921.647536
1456.195970,-13323.706956,-2374.896044,6661.853478
1456.196282,-9622.677246,-1225.752797,4885.359217
1456.196593,-7105.977043,1302.362347,3108.864956
1456.196905,-6069.688724,1072.533697,2294.638420
1456.197216,-4737.318029,1532.190996,1258.350101
1456.197527,-6883.915261,76.609550,1258.350101
1456.197839,-5255.462188,919.314598,3775.050304
1456.198150,-7698.141797,0.000000,3478.967927
1456.198462,-11251.130318,-842.705048,5033.400406
1456.198773,-11547.212695,-766.095498,7476.080014
1456.199085,-10214.842000,-1762.019645,6143.709319
1456.199396,-7772.162391,-2451.505594,7105.977043
1456.199708,-8364.327145,-1455.581446,4515.256246
1456.200019,-7698.141797,536.266849,4885.359217
1456.200331,-6587.832884,1378.971896,3404.947333
1456.200642,-6143.709319,1685.410096,3182.885551
1456.200954,-6883.915261,3064.381992,3034.844362
1456.201265,-9030.512492,2451.505594,3849.070898
1456.201577,-8808.450710,1302.362347,4219.173869
1456.201888,-8216.285956,229.828649,4589.276840
1456.202200,-7772.162391,0.000000,5107.421000
1456.202511,-8068.244768,-1762.019645,5551.544565
1456.202823,-8808.450710,-3447.429741,5995.668130
1456.203134,-8808.450710,-2757.943793,5255.462188
1456.203446,-9104.533087,-689.485948,5847.626942
1456.203757,-9474.636058,1072.533697,4589.276840
1456.204069,-11103.089130,919.314598,4515.256246
1456.204380,-10362.883188,2298.286494,4441.235652
1456.204692,-8216.285956,2451.505594,3849.070898
1456.205003,-7476.080014,1762.019645,3478.967927
1456.205315,-5921.647536,153.219100,3108.864956
1456.205626,-6069.688724,-383.047749,2516.700203
1456.205938,-5181.441594,-306.438199,2590.720797
1456.206249,-5551.544565,-995.924147,3108.864956
1456.206561,-8142.265362,-1685.410096,3552.988522
1456.206872,-9918.759623,-1838.629195,4811.338623
1456.207184,-11843.295072,-1302.362347,5181.441594
1456.207495,-11991.336260,-459.657299,5033.400406
1456.207806,-11917.315666,842.705048,4959.379811
1456.208118,-11251.130318,919.314598,3182.885551
1456.208429,-9400.615463,1608.800546,2072.576638
1456.208741,-7254.018232,2221.676944,518.144159
1456.209052,-6069.688724,2145.067394,666.185348
1456.209364,-6957.935855,536.266849,1628.453072
1456.209675,-8438.347739,-1991.848295,2368.659014
1456.209987,-9696.697840,-2757.943793,3997.112087
1456.210298,-10436.903782,-2681.334243,5107.421000
1456.210610,-10288.862594,-2911.162892,5107.421000
1456.210921,-10288.862594,-3600.648841,3775.050304
1456.211233,-8586.388927,-2221.676944,2146.597232
1456.211544,-6587.832884,0.000000,222.061783
1456.211856,-6069.688724,919.314598,-962.267725
1456.212167,-7402.059420,1685.410096,-1332.370696
1456.212479,-9918.759623,2068.457845,-444.123565
1456.212790,-12065.356855,2145.067394,1110.308913
1456.213102,-13101.645173,1149.143247,2738.761985
1456.213413,-13249.686362,306.438199,3478.967927
1456.213725,-11843.295072,-306.438199,3182.885551
1456.214036,-8290.306550,-1072.533697,2294.638420
1456.214348,-5033.400406,-1532.190996,592.164754
1456.214659,-3108.864956,-766.095498,-222.061783
1456.214971,-4959.379811,-1072.533697,-222.061783
1456.215282,-8216.285956,-842.705048,296.082377
1456.215594,-11177.109724,306.438199,2442.679609
1456.215905,-14211.954086,1685.410096,4367.215058
1456.216217,-15692.365970,1532.190996,5033.400406
1456.216528,-14359.995275,306.438199,5329.482782
1456.216840,-10510.924376,153.219100,4589.276840
1456.217151,-5921.647536,-306.438199,2960.823768
1456.217463,-3478.967927,-612.876398,1332.370696
1456.217774,-2442.679609,-306.438199,444.123565
1456.218086,-3034.844362,0.000000,888.247130
1456.218397,-6365.771101,0.000000,1924.535449
1456.218708,-10362.883188,-229.828649,4515.256246
1456.219020,-14730.098246,459.657299,6069.688724
1456.219331,-14952.160028,536.266849,7476.080014
1456.219643,-11769.274478,0.000000,6439.791695
1456.219954,-8734.430116,-1378.971896,4959.379811
1456.220266,-6365.771101,-1225.752797,4145.153275
1456.220577,-4663.297435,-459.657299,3182.885551
1456.220889,-4589.276840,0.000000,4145.153275
1456.221200,-6587.832884,383.047749,6143.709319
1456.221512,-10288.862594,0.000000,7402.059420
1456.221823,-11843.295072,-76.609550,9104.533087
1456.222135,-11251.130318,153.219100,8290.306550
1456.222446,-8364.327145,1225.752797,6069.688724
1456.222758,-5625.565159,2987.772442,3108.864956
1456.223069,-4589.276840,3600.648841,1110.308913
1456.223381,-4367.215058,2681.334243,666.185348
1456.223692,-6587.832884,2681.334243,1628.453072
1456.224004,-9918.759623,1685.410096,4663.297435
1456.224315,-12583.501014,153.219100,6809.894666
1456.224627,-14359.995275,-2145.067394,8660.409521
1456.224938,-13471.748144,-3217.601092,9992.780217
1456.225250,-10807.006753,-2681.334243,9844.739029
1456.225561,-8068.244768,-1378.971896,8808.450710
1456.225873,-5625.565159,-995.924147,5551.544565
1456.226184,-3923.091493,76.609550,3182.885551
1456.226496,-2516.700203,1532.190996,1184.329507
1456.226807,-2664.741391,3524.039291,-74.020594
1456.227119,-4811.338623,3677.258390,-0.000000
1456.227430,-7846.182985,2374.896044,1850.514855
1456.227742,-10955.047942,229.828649,3627.009116
1456.228053,-13545.768739,-1685.410096,4959.379811
1456.228365,-15396.283594,-1608.800546,6587.832884
1456.228676,-13989.892304,-1532.190996,6661.853478
1456.228987,-12213.398043,-1225.752797,5477.523971
1456.229299,-9400.615463,-1225.752797,4737.318029
1456.229610,-7402.059420,-1608.800546,3923.091493
1456.229922,-6365.771101,-995.924147,3552.988522
1456.230233,-4515.256246,459.657299,3330.926739
1456.230545,-3108.864956,0.000000,2960.823768
1456.230856,-3701.029710,-153.219100,1184.329507
1456.231168,-4515.256246,0.000000,-148.041188
1456.231479,-4811.338623,0.000000,-1184.329507
1456.231791,-8512.368333,-153.219100,-518.144159
1456.232102,-13175.665768,153.219100,1554.432478
1456.232414,-17987.004391,0.000000,3997.112087
1456.232725,-21539.992912,-995.924147,5921.647536
1456.233037,-18875.251521,229.828649,7920.203579
1456.233348,-14063.912898,612.876398,6143.709319
1456.233660,-7105.977043,-766.095498,4219.173869
1456.233971,-888.247130,-383.047749,1702.473667
1456.234283,2294.638420,153.219100,-2368.659014
1456.234594,3478.967927,1225.752797,-4811.338623
1456.234906,0.000000,1149.143247,-4737.318029
1456.235217,-6587.832884,536.266849,-3256.906145
1456.235529,-12213.398043,612.876398,518.144159
1456.235841,-19097.313304,-153.219100,4145.153275
1456.236152,-22798.343014,-995.924147,8142.265362
1456.236464,-23094.425390,-1378.971896,9326.594869
1456.236775,-18283.086767,-1991.848295,8512.368333
1456.237087,-11029.068536,-1149.143247,6735.874072
1456.237398,-4663.297435,0.000000,2368.659014
1456.237710,1850.514855,1378.971896,-1036.288319
1456.238021,5181.441594,1532.190996,-3923.091493
1456.238333,2738.761985,1915.238745,-3997.112087
1456.238644,-3108.864956,1072.533697,-2146.597232
1456.238956,-10807.006753,1685.410096,1110.308913
1456.239267,-18135.045579,1991.848295,5625.565159
1456.239579,-22206.178260,76.609550,8512.368333
1456.239890,-20281.642811,-2374.896044,9622.677246
1456.240202,-15248.242405,-2987.772442,8660.409521
1456.240513,-8956.491898,-2604.724693,6217.729913
1456.240825,-2220.617826,-1991.848295,3330.926739
1456.241136,2368.659014,-689.485948,592.164754
1456.241448,2516.700203,306.438199,-0.000000
1456.241759,-2072.576638,536.266849,1184.329507
1456.242071,-9030.512492,842.705048,3775.050304
1456.242382,-12657.521608,995.924147,4811.338623
1456.242694,-13545.768739,2451.505594,4811.338623
1456.243005,-11769.274478,1302.362347,3997.112087
1456.243317,-9326.594869,-919.314598,3923.091493
1456.243628,-9178.553681,-2451.505594,3256.906145
1456.243940,-8512.368333,-1532.190996,4441.235652
1456.244251,-9400.615463,842.705048,6143.709319
1456.244563,-11399.171507,1532.190996,7698.141797
1456.244874,-12287.418637,612.876398,8438.347739
1456.245186,-9918.759623,-383.047749,8956.491898
1456.245497,-5403.503377,76.609550,7402.059420
1456.245809,-1554.432478,1302.362347,2146.597232
1456.246120,-296.082377,3294.210641,-1036.288319
1456.246432,-962.267725,2757.943793,-2368.659014
1456.246743,-4441.235652,1072.533697,-1184.329507
1456.247055,-9252.574275,459.657299,2368.659014
1456.247367,-15692.365970,-459.657299,6513.812290
1456.247678,-19615.457463,-1838.629195,9770.718434
1456.247990,-18283.086767,-3140.991542,10807.006753
1456.248301,-12953.603985,-4366.744339,9992.780217
1456.248613,-6439.791695,-4136.915689,6143.709319
1456.248924,-2294.638420,-1532.190996,1702.473667
1456.249236,370.102971,1685.410096,-2294.638420
1456.249547,74.020594,4366.744339,-4071.132681
1456.249859,-3182.885551,5515.887586,-2590.720797
1456.250170,-7624.121203,3600.648841,-1332.370696
1456.250482,-10584.944971,1838.629195,296.082377
1456.250793,-11621.233289,-383.047749,2294.638420
1456.251105,-10732.986159,-1378.971896,2738.761985
1456.251416,-10955.047942,-2451.505594,2442.679609
1456.251728,-11917.315666,-2451.505594,2072.576638
1456.252039,-13323.706956,-1225.752797,1332.370696
1456.252351,-13101.645173,-306.438199,2294.638420
1456.252662,-11695.253884,536.266849,370.102971
1456.252974,-9326.594869,995.924147,-1110.308913
1456.253285,-6513.812290,76.609550,-3256.906145
1456.253597,-3923.091493,-842.705048,-3997.112087
1456.253908,-2072.576638,-459.657299,-5255.462188
1456.254220,-4071.132681,-153.219100,-5181.441594
1456.254531,-8660.409521,-1225.752797,-3256.906145
1456.254843,-13027.624579,-2298.286494,-1776.494261
1456.255154,-15766.386565,-1072.533697,-888.247130
1456.255466,-17542.880825,-383.047749,962.267725
1456.255777,-18061.024985,-919.314598,1628.453072
1456.256089,-17024.736666,-919.314598,1406.391290
1456.256400,-13471.748144,-689.485948,-0.000000
1456.256712,-8068.244768,-459.657299,-2220.617826
1456.257023,-5107.421000,1302.362347,-3923.091493
1456.257335,-5403.503377,2987.772442,-4959.379811
1456.257646,-4367.215058,1455.581446,-4441.235652
1456.257958,-4515.256246,-1302.362347,-5107.421000
1456.258269,-4515.256246,-2451.505594,-3923.091493
1456.258581,-6217.729913,-1685.410096,-2368.659014
1456.258893,-10288.862594,-536.266849,370.102971
1456.259204,-13989.892304,-1762.019645,2960.823768
1456.259516,-17024.736666,-3064.381992,4811.338623
1456.259827,-17024.736666,-2604.724693,6513.812290
1456.260139,-12509.480420,-689.485948,4367.215058
1456.260450,-6587.832884,842.705048,444.123565
1456.260762,-1850.514855,842.705048,-3701.029710
1456.261073,74.020594,1608.800546,-5329.482782
1456.261385,-592.164754,2451.505594,-5033.400406
1456.261696,-4737.318029,2604.724693,-2738.761985
1456.262008,-9770.718434,1225.752797,1776.494261
1456.262319,-12139.377449,-1378.971896,4145.153275
1456.262631,-13397.727550,-2681.334243,4811.338623
1456.262942,-10362.883188,-1991.848295,3849.070898
1456.263254,-7698.141797,-306.438199,2590.720797
1456.263565,-6957.935855,1685.410096,740.205942
1456.263877,-6587.832884,2911.162892,1776.494261
1456.264188,-9622.677246,1608.800546,370.102971
1456.264500,-10066.800811,2757.943793,1702.473667
1456.264811,-9548.656652,3830.477490,222.061783
1456.265123,-7920.203579,2911.162892,-222.061783
1456.265434,-6143.709319,842.705048,-1258.350101
1456.265746,-7328.038826,-1149.143247,-1998.556043
1456.266057,-9030.512492,-1762.019645,222.061783
1456.266369,-11621.233289,-1915.238745,3034.844362
1456.266680,-14434.015869,-1762.019645,5403.503377
1456.266992,-15470.304188,-3140.991542,7402.059420
1456.267303,-13989.892304,-3983.696590,6587.832884
1456.267615,-9844.739029,-2145.067394,5699.585753
1456.267926,-5847.626942,0.000000,3478.967927
1456.268238,-3404.947333,1838.629195,1258.350101
1456.268549,-3182.885551,2298.286494,444.123565
1456.268861,-5847.626942,1685.410096,296.082377
1456.269172,-7328.038826,1302.362347,518.144159
1456.269484,-7624.121203,2374.896044,-0.000000
1456.269795,-7105.977043,1532.190996,-0.000000
1456.270107,-7328.038826,-536.266849,444.123565
1456.270419,-8438.347739,-1302.362347,962.267725
1456.270730,-8734.430116,-1455.581446,1702.473667
1456.271042,-11029.068536,-1685.410096,3108.864956
1456.271353,-12879.583391,-2068.457845,5329.482782
1456.271665,-13619.789333,-2298.286494,4737.318029
1456.271976,-11769.274478,-1762.019645,2368.659014
1456.272288,-6365.771101,-1455.581446,-296.082377
1456.272599,-2812.782580,919.314598,-2516.700203
1456.272911,-1702.473667,1838.629195,-3478.967927
1456.273222,-4145.153275,536.266849,-2442.679609
1456.273534,-6883.915261,-1991.848295,-1258.350101
1456.273845,-8142.265362,-2451.505594,-740.205942
1456.274157,-9548.656652,-919.314598,-148.041188
1456.274468,-10066.800811,1455.581446,518.144159
1456.274780,-11621.233289,536.266849,-370.102971
1456.275091,-12731.542202,995.924147,-1258.350101
1456.275403,-12879.583391,2604.724693,-1332.370696
1456.275714,-11991.336260,2374.896044,-1554.432478
1456.276026,-9622.677246,2145.067394,-2072.576638
1456.276337,-7105.977043,1072.533697,-3775.050304
1456.276649,-5329.482782,-306.438199,-4811.338623
1456.276960,-4441.235652,-766.095498,-5773.606348
1456.277272,-5329.482782,0.000000,-4737.318029
1456.277583,-9400.615463,995.924147,-3256.906145
1456.277895,-12213.398043,-229.828649,148.041188
1456.278206,-15396.283594,-2451.505594,1258.350101
1456.278518,-16062.468941,-2068.457845,1702.473667
1456.278829,-13397.727550,-153.219100,296.082377
1456.279141,-10214.842000,306.438199,-1554.432478
1456.279452,-7772.162391,689.485948,-3330.926739
1456.279764,-7476.080014,1455.581446,-3849.070898
1456.280075,-8660.409521,1225.752797,-3034.844362
1456.280387,-11621.233289,-1072.533697,-370.102971
1456.280698,-12287.418637,-1991.848295,1258.350101
1456.281010,-11917.315666,-2451.505594,740.205942
1456.281321,-10140.821405,-2604.724693,666.185348
1456.281633,-9030.512492,-3217.601092,1702.473667
1456.281945,-7994.224174,-2911.162892,1998.556043
1456.282256,-6883.915261,-1532.190996,962.267725
1456.282568,-7550.100608,0.000000,1776.494261
1456.282879,-9548.656652,-306.438199,3034.844362
1456.283191,-10066.800811,-383.047749,4589.276840
1456.283502,-8882.471304,0.000000,2812.782580
1456.283814,-6735.874072,0.000000,962.267725
1456.284125,-5033.400406,995.924147,740.205942
1456.284437,-6439.791695,1762.019645,296.082377
1456.284748,-7846.182985,1762.019645,1258.350101
1456.285060,-9326.594869,76.609550,2812.782580
1456.285371,-9252.574275,-842.705048,4663.297435
1456.285683,-7698.141797,-1302.362347,5773.606348
1456.285994,-7254.018232,-612.876398,3552.988522
1456.286306,-5107.421000,536.266849,2738.761985
1456.286617,-3330.926739,536.266849,1332.370696
1456.286929,-4515.256246,1838.629195,666.185348
1456.287240,-7402.059420,3447.429741,740.205942
1456.287552,-10362.883188,2757.943793,1480.411884
1456.287863,-10214.842000,1685.410096,1924.535449
1456.288175,-9696.697840,995.924147,1332.370696
1456.288486,-8882.471304,689.485948,518.144159
1456.288798,-7328.038826,306.438199,-0.000000
1456.289109,-7772.162391,229.828649,-148.041188
1456.289421,-9400.615463,612.876398,1332.370696
1456.289732,-12065.356855,-689.485948,2368.659014
1456.290044,-13471.748144,-1991.848295,2516.700203
1456.290355,-11547.212695,-2221.676944,2368.659014
1456.290667,-8512.368333,-2145.067394,296.082377
1456.290978,-5107.421000,-1455.581446,-2146.597232
1456.291290,-5551.544565,306.438199,-3256.906145
1456.291601,-7994.224174,689.485948,-1924.535449
1456.291913,-10362.883188,842.705048,1184.329507
1456.292224,-13027.624579,76.609550,2516.700203
1456.292536,-12731.542202,-766.095498,2738.761985
1456.292847,-9918.759623,-1915.238745,222.061783
1456.293159,-6291.750507,-612.876398,-1702.473667
1456.293471,-4441.235652,1915.238745,-1850.514855
1456.293782,-7698.141797,1302.362347,-1924.535449
1456.294094,-13397.727550,612.876398,-148.041188
1456.294405,-16802.674883,-1762.019645,2368.659014
1456.294717,-15544.324782,-1915.238745,3701.029710
1456.295028,-10658.965565,-2145.067394,2294.638420
1456.295340,-5329.482782,-2451.505594,-1036.288319
1456.295651,-2294.638420,-1685.410096,-3330.926739
1456.295963,-1258.350101,-1378.971896,-3108.864956
1456.296274,-3552.988522,-153.219100,-1110.308913
1456.296586,-9844.739029,-536.266849,1776.494261
1456.296897,-15544.324782,-383.047749,4219.173869
1456.297209,-15914.427753,1149.143247,4515.256246
1456.297520,-12287.418637,2068.457845,2664.741391
1456.297832,-7476.080014,2068.457845,-740.205942
1456.298143,-3775.050304,2145.067394,-3034.844362
1456.298455,-3330.926739,2757.943793,-3997.112087
1456.298766,-4293.194464,3140.991542,-3552.988522
1456.299078,-8512.368333,2604.724693,-370.102971
1456.299389,-12287.418637,0.000000,1924.535449
1456.299701,-12139.377449,-612.876398,2886.803174
1456.300012,-9400.615463,-1225.752797,1554.432478
1456.300324,-6069.688724,-383.047749,1406.391290
1456.300635,-6513.812290,-383.047749,1036.288319
1456.300947,-6439.791695,-1072.533697,814.226536
1456.301258,-8364.327145,76.609550,740.205942
1456.301570,-11177.109724,-689.485948,1554.432478
1456.301881,-10807.006753,689.485948,2368.659014
1456.302193,-9474.636058,-153.219100,592.164754
1456.302504,-7402.059420,-842.705048,-1702.473667
1456.302816,-5107.421000,76.609550,-2146.597232
1456.303127,-6809.894666,766.095498,-1924.535449
1456.303439,-11251.130318,1302.362347,592.164754
1456.303750,-15914.427753,-1915.238745,2886.803174
1456.304062,-16580.613101,-3294.210641,3701.029710
1456.304373,-12583.501014,-1991.848295,2590.720797
1456.304685,-7402.059420,-1149.143247,444.123565
1456.304997,-3849.070898,-1685.410096,-1036.288319
1456.305308,-3997.112087,-1455.581446,-1850.514855
1456.305620,-6661.853478,-995.924147,370.102971
1456.305931,-10955.047942,-1685.410096,2368.659014
1456.306243,-14211.954086,-2145.067394,3997.112087
1456.306554,-13693.809927,-1072.533697,3923.091493
1456.306866,-9474.636058,-1378.971896,-0.000000
1456.307177,-4589.276840,-842.705048,-2368.659014
1456.307489,-3182.885551,766.095498,-3108.864956
1456.307800,-6069.688724,2068.457845,-2516.700203
1456.308112,-9400.615463,2298.286494,148.041188
1456.308423,-13989.892304,766.095498,2368.659014
1456.308735,-14878.139434,0.000000,4589.276840
1456.309046,-12435.459826,-153.219100,2590.720797
1456.309358,-8142.265362,1225.752797,370.102971
1456.309669,-3034.844362,2604.724693,-1258.350101
1456.309981,-2368.659014,2298.286494,-2368.659014
1456.310292,-4959.379811,1762.019645,-1702.473667
1456.310604,-8586.388927,919.314598,592.164754
1456.310915,-9474.636058,459.657299,1554.432478
1456.311227,-8808.450710,1225.752797,2516.700203
1456.311538,-8142.265362,1608.800546,814.226536
1456.311850,-8142.265362,766.095498,-222.061783
1456.312161,-8142.265362,153.219100,888.247130
1456.312473,-8586.388927,306.438199,1554.432478
1456.312784,-10214.842000,842.705048,2368.659014
1456.313096,-12731.542202,229.828649,2960.823768
1456.313407,-12805.562797,-1608.800546,2442.679609
1456.313719,-9622.677246,-2528.115143,1406.391290
1456.314030,-5107.421000,-2221.676944,-0.000000
1456.314342,-4145.153275,-919.314598,-740.205942
1456.314653,-5477.523971,0.000000,-518.144159
1456.314965,-7994.224174,-383.047749,1924.535449
1456.315276,-11695.253884,-1608.800546,3034.844362
1456.315588,-12213.398043,-1149.143247,5255.462188
1456.315899,-11917.315666,0.000000,3923.091493
1456.316211,-9474.636058,1455.581446,1480.411884
1456.316523,-7328.038826,2374.896044,740.205942
1456.316834,-5995.668130,842.705048,-74.020594
1456.317146,-5995.668130,-383.047749,-222.061783
1456.317457,-7105.977043,383.047749,1184.329507
1456.317769,-10658.965565,-306.438199,3256.906145
1456.318080,-11769.274478,-1072.533697,3775.050304
1456.318392,-10140.821405,-2681.334243,1850.514855
1456.318703,-8216.285956,-2374.896044,222.061783
1456.319015,-5847.626942,-1149.143247,518.144159
1456.319326,-6661.853478,306.438199,148.041188
1456.319638,-8512.368333,76.609550,-0.000000
1456.319949,-11251.130318,-1455.581446,296.082377
1456.320261,-11621.233289,-1072.533697,-0.000000
1456.320572,-8364.327145,306.438199,518.144159
1456.320884,-7179.997637,1072.533697,-1628.453072
1456.321195,-7698.141797,1149.143247,-2294.638420
1456.321507,-9252.574275,459.657299,-1406.391290
1456.321818,-10658.965565,1608.800546,-592.164754
1456.322130,-11843.295072,2451.505594,1332.370696
1456.322441,-11843.295072,-306.438199,2294.638420
1456.322753,-9178.553681,-1225.752797,296.082377
1456.323064,-6291.750507,-919.314598,-2368.659014
1456.323376,-4811.338623,-536.266849,-4293.194464
1456.323687,-4737.318029,-689.485948,-4367.215058
1456.323999,-7179.997637,383.047749,-3404.947333
1456.324310,-9992.780217,229.828649,-1850.514855
1456.324622,-14063.912898,-1225.752797,-444.123565
1456.324933,-13397.727550,-995.924147,1480.411884
1456.325245,-11177.109724,919.314598,-370.102971
1456.325556,-8364.327145,1455.581446,-2146.597232
1456.325868,-6735.874072,689.485948,-1924.535449
1456.326179,-7402.059420,383.047749,-2738.761985
1456.326491,-9030.512492,1685.410096,-1702.473667
1456.326802,-10732.986159,1302.362347,518.144159
1456.327114,-12213.398043,-842.705048,1850.514855
1456.327425,-11177.109724,-1762.019645,1480.411884
1456.327737,-9548.656652,-1225.752797,-592.164754
1456.328049,-6217.729913,-919.314598,-370.102971
1456.328360,-5403.503377,-1915.238745,-148.041188
1456.328672,-7105.977043,-1378.971896,-0.000000
1456.328983,-8808.450710,-1455.581446,1406.391290
1456.329295,-11029.068536,-1762.019645,2664.741391
1456.329606,-11103.089130,-1072.533697,3849.070898
1456.329918,-9918.759623,-383.047749,2812.782580
1456.330229,-8734.430116,-459.657299,1480.411884
1456.330541,-7476.080014,-153.219100,1110.308913
1456.330852,-8068.244768,995.924147,222.061783
1456.331164,-8808.450710,1532.190996,1776.494261
1456.331475,-10214.842000,383.047749,2368.659014
1456.331785,-11251.130318,-459.657299,3478.967927
1456.332096,-9474.636058,306.438199,4885.359217
1456.332408,-8882.471304,-689.485948,3627.009116
1456.332719,-6661.853478,153.219100,3775.050304
1456.333030,-4737.318029,-995.924147,1998.556043
1456.333342,-3701.029710,76.609550,666.185348
1456.333653,-3478.967927,1608.800546,1628.453072
1456.333965,-7105.977043,1762.019645,2738.761985
1456.334276,-9844.739029,1302.362347,3034.844362
1456.334587,-10436.903782,919.314598,1628.453072
1456.334899,-9474.636058,919.314598,814.226536
1456.335210,-9252.574275,2298.286494,1110.308913
1456.335522,-9622.677246,2068.457845,740.205942
1456.335833,-9918.759623,919.314598,-74.020594
1456.336144,-9918.759623,-612.876398,-148.041188
1456.336456,-8956.491898,-612.876398,740.205942
1456.336767,-6291.750507,306.438199,1036.288319
1456.337079,-7328.038826,-1225.752797,-1184.329507
1456.337390,-7994.224174,-1149.143247,222.061783
1456.337701,-8808.450710,-1838.629195,-666.185348
1456.338013,-10214.842000,-536.266849,-1184.329507
1456.338324,-10288.862594,536.266849,814.226536
1456.338636,-11695.253884,-1685.410096,592.164754
1456.338947,-10955.047942,-2298.286494,666.185348
1456.339258,-9844.739029,-1302.362347,-1110.308913
1456.339570,-8364.327145,-766.095498,-2220.617826
1456.339881,-7772.162391,229.828649,-2442.679609
1456.340193,-8364.327145,1991.848295,-2368.659014
1456.340504,-8660.409521,383.047749,-1702.473667
1456.340815,-10955.047942,-766.095498,-1036.288319
1456.341127,-12361.439231,-459.657299,296.082377
1456.341438,-11695.253884,1072.533697,1036.288319
1456.341750,-10436.903782,229.828649,-0.000000
1456.342061,-8882.471304,-1532.190996,-1110.308913
1456.342372,-7254.018232,-1608.800546,-2220.617826
1456.342684,-6957.935855,-383.047749,-2368.659014
1456.342995,-6661.853478,0.000000,-74.020594
1456.343307,-8290.306550,-1378.971896,-0.000000
1456.343618,-10510.924376,-1225.752797,1480.411884
1456.343929,-11177.109724,-229.828649,1332.370696
1456.344241,-10214.842000,383.047749,296.082377
1456.344552,-8290.306550,919.314598,-0.000000
1456.344864,-7772.162391,2451.505594,-1406.391290
1456.345175,-7179.997637,1915.238745,-1628.453072
1456.345486,-7698.141797,919.314598,-148.041188
1456.345798,-8512.368333,-153.219100,296.082377
1456.346109,-8142.265362,0.000000,962.267725
1456.346421,-9400.615463,-689.485948,1258.350101
1456.346732,-9178.553681,-995.924147,1628.453072
1456.347043,-8068.244768,-383.047749,1332.370696
1456.347355,-8216.285956,153.219100,-74.020594
1456.347666,-8142.265362,612.876398,148.041188
1456.347978,-8956.491898,76.609550,1258.350101
1456.348289,-9844.739029,383.047749,1850.514855
1456.348600,-9770.718434,459.657299,1258.350101
1456.348912,-7698.141797,-689.485948,-888.247130
1456.349223,-5551.544565,689.485948,-1258.350101
1456.349535,-5551.544565,1685.410096,-1110.308913
1456.349846,-8290.306550,1762.019645,296.082377
1456.350157,-11843.295072,-1072.533697,2590.720797
1456.350469,-14211.954086,-2528.115143,3108.864956
1456.350780,-12953.603985,-1225.752797,4071.132681
1456.351092,-10436.903782,-229.828649,2294.638420
1456.351403,-7402.059420,842.705048,666.185348
1456.351714,-6957.935855,689.485948,-1850.514855
1456.352026,-6809.894666,0.000000,-2072.576638
1456.352337,-7254.018232,76.609550,-1110.308913
1456.352649,-8438.347739,459.657299,444.123565
1456.352960,-10807.006753,-612.876398,740.205942
1456.353271,-12065.356855,-2298.286494,888.247130
1456.353583,-11695.253884,-1991.848295,518.144159
1456.353894,-10214.842000,-306.438199,444.123565
1456.354206,-9252.574275,919.314598,518.144159
1456.354517,-9992.780217,-1532.190996,1332.370696
1456.354828,-9770.718434,-1532.190996,2072.576638
1456.355140,-9104.533087,-689.485948,2368.659014
1456.355451,-7846.182985,0.000000,1554.432478
1456.355763,-7179.997637,-153.219100,1480.411884
1456.356074,-6365.771101,689.485948,444.123565
1456.356385,-5551.544565,1378.971896,-1406.391290
1456.356697,-6365.771101,2451.505594,-1628.453072
1456.357008,-7920.203579,2068.457845,-518.144159
1456.357320,-8660.409521,1302.362347,222.061783
1456.357631,-8142.265362,383.047749,592.164754
1456.357942,-8216.285956,0.000000,-0.000000
1456.358254,-7772.162391,536.266849,-0.000000
1456.358565,-8660.409521,2221.676944,592.164754
1456.358877,-9178.553681,1838.629195,1702.473667
1456.359188,-9178.553681,919.314598,2072.576638
1456.359499,-11917.315666,0.000000,2220.617826
1456.359811,-10362.883188,-153.219100,3923.091493
1456.360122,-7772.162391,-612.876398,1702.473667
1456.360433,-5477.523971,-2145.067394,-148.041188
1456.360745,-3627.009116,-1685.410096,-518.144159
1456.361056,-4959.379811,-1225.752797,-1258.350101
1456.361368,-7550.100608,536.266849,962.267725
1456.361679,-11103.089130,-536.266849,2368.659014
1456.361990,-13471.748144,-1455.581446,4293.194464
1456.362302,-13841.851115,-1455.581446,4737.318029
1456.362613,-11917.315666,-536.266849,2886.803174
1456.362925,-8068.244768,76.609550,1332.370696
1456.363236,-5847.626942,153.219100,-74.020594
1456.363547,-6587.832884,459.657299,-740.205942
1456.363859,-9030.512492,-459.657299,-0.000000
1456.364170,-11251.130318,689.485948,1998.556043
1456.364482,-12953.603985,536.266849,4071.132681
1456.364793,-12361.439231,-1991.848295,4441.235652
1456.365104,-8586.388927,-4290.134789,888.247130
1456.365416,-4071.132681,-2604.724693,-1258.350101
1456.365727,-2738.761985,1225.752797,-1258.350101
1456.366039,-5107.421000,1608.800546,-518.144159
1456.366350,-9400.615463,-612.876398,-740.205942
1456.366661,-13249.686362,-459.657299,1036.288319
1456.366973,-14878.139434,766.095498,2516.700203
1456.367284,-12953.603985,1915.238745,2220.617826
1456.367596,-10214.842000,2604.724693,-370.102971
1456.367907,-7624.121203,1149.143247,-3034.844362
1456.368218,-5699.585753,229.828649,-3627.009116
1456.368530,-4441.235652,612.876398,-3552.988522
1456.368841,-5995.668130,2757.943793,-2368.659014
1456.369153,-10436.903782,1378.971896,-666.185348
1456.369464,-11769.274478,-1991.848295,148.041188
1456.369775,-11177.109724,-1762.019645,-74.020594
1456.370087,-8438.347739,536.266849,-74.020594
1456.370398,-7846.182985,1378.971896,-444.123565
1456.370710,-8438.347739,-689.485948,-1184.329507
1456.371021,-7920.203579,-842.705048,-740.205942
1456.371332,-9400.615463,-919.314598,-888.247130
1456.371644,-9548.656652,-842.705048,296.082377
1456.371955,-9622.677246,-689.485948,-888.247130
1456.372267,-7105.977043,-459.657299,-1110.308913
1456.372578,-7105.977043,-995.924147,-2442.679609
1456.372889,-9770.718434,0.000000,-1480.411884
1456.373201,-11547.212695,2145.067394,592.164754
1456.373512,-12953.603985,1225.752797,2220.617826
1456.373824,-12509.480420,-766.095498,2960.823768
1456.374135,-10807.006753,-1762.019645,1554.432478
1456.374446,-8586.388927,-1072.533697,-0.000000
1456.374758,-4811.338623,919.314598,-296.082377
1456.375069,-4589.276840,153.219100,-814.226536
1456.375381,-6439.791695,-306.438199,444.123565
1456.375692,-10140.821405,-1378.971896,2442.679609
1456.376003,-13471.748144,-2451.505594,4367.215058
1456.376315,-12805.562797,-1455.581446,4737.318029
1456.376626,-11473.192101,-229.828649,3108.864956
1456.376938,-7994.224174,-153.219100,1406.391290
1456.377249,-5921.647536,0.000000,888.247130
1456.377560,-6439.791695,153.219100,-0.000000
1456.377872,-7179.997637,1149.143247,1480.411884
1456.378183,-9474.636058,1149.143247,2738.761985
1456.378495,-10214.842000,153.219100,3701.029710
1456.378806,-10436.903782,0.000000,4441.235652
1456.379117,-8882.471304,-459.657299,3404.947333
1456.379429,-5625.565159,229.828649,2146.597232
1456.379740,-4367.215058,1608.800546,740.205942
1456.380052,-5107.421000,1991.848295,740.205942
1456.380363,-6957.935855,1762.019645,1332.370696
1456.380674,-8808.450710,306.438199,1776.494261
1456.380986,-8438.347739,536.266849,2368.659014
1456.381297,-8438.347739,1225.752797,444.123565
1456.381609,-8364.327145,1685.410096,222.061783
1456.381920,-8808.450710,1455.581446,296.082377
1456.382231,-8882.471304,229.828649,-370.102971
1456.382543,-9326.594869,0.000000,444.123565
1456.382854,-9918.759623,-383.047749,814.226536
1456.383166,-9770.718434,-1685.410096,740.205942
1456.383477,-8142.265362,-1915.238745,-222.061783
1456.383788,-7328.038826,-842.705048,-296.082377
1456.384100,-8068.244768,-536.266849,222.061783
1456.384411,-9252.574275,-306.438199,592.164754
1456.384723,-11695.253884,-689.485948,740.205942
1456.385034,-12139.377449,-842.705048,1776.494261
1456.385345,-11399.171507,-383.047749,1554.432478
1456.385657,-10140.821405,-383.047749,-814.226536
1456.385968,-7328.038826,612.876398,-2368.659014
1456.386280,-5995.668130,383.047749,-3552.988522
1456.386591,-6439.791695,-766.095498,-3256.906145
1456.386902,-9474.636058,0.000000,-1850.514855
1456.387214,-12731.542202,153.219100,962.267725
1456.387525,-14952.160028,-1455.581446,2960.823768
1456.387837,-13693.809927,-2604.724693,3108.864956
1456.388148,-9548.656652,-2221.676944,1998.556043
1456.388459,-7402.059420,-383.047749,-1406.391290
1456.388771,-4441.235652,-229.828649,-2294.638420
1456.389082,-5699.585753,459.657299,-2886.803174
1456.389394,-7624.121203,1072.533697,-1258.350101
1456.389705,-9844.739029,229.828649,740.205942
1456.390016,-12287.418637,-766.095498,740.205942
1456.390328,-11177.109724,919.314598,1184.329507
1456.390639,-8068.244768,2298.286494,-888.247130
1456.390951,-6809.894666,1455.581446,-1998.556043
1456.391262,-7476.080014,1685.410096,-2368.659014
1456.391573,-9030.512492,2374.896044,-1998.556043
1456.391885,-9992.780217,1838.629195,-74.020594
1456.392196,-11695.253884,995.924147,2664.741391
1456.392508,-11621.233289,-612.876398,2590.720797
1456.392819,-9992.780217,-1685.410096,962.267725
1456.393130,-6513.812290,-1532.190996,518.144159
1456.393442,-2590.720797,-459.657299,-888.247130
1456.393753,-4737.318029,0.000000,-1776.494261
1456.394065,-8142.265362,0.000000,-0.000000
1456.394376,-10584.944971,-1149.143247,444.123565
1456.394687,-11547.212695,-995.924147,1554.432478
1456.394999,-9474.636058,1149.143247,2146.597232
1456.395310,-8068.244768,459.657299,-0.000000
1456.395622,-7402.059420,-383.047749,-740.205942
1456.395933,-8660.409521,-612.876398,148.041188
1456.396244,-9474.636058,383.047749,296.082377
1456.396556,-11325.150913,383.047749,2294.638420
1456.396867,-12435.459826,-153.219100,3404.947333
1456.397179,-11325.150913,-2221.676944,2220.617826
1456.397490,-8512.368333,-2604.724693,814.226536
1456.397801,-4515.256246,-1149.143247,-148.041188
1456.398113,-4293.194464,0.000000,-592.164754
1456.398424,-7402.059420,1072.533697,740.205942
1456.398736,-11547.212695,306.438199,3404.947333
1456.399047,-12361.439231,-1608.800546,4219.173869
1456.399358,-10362.883188,-2757.943793,2664.741391
1456.399670,-6439.791695,-612.876398,296.082377
1456.399981,-3182.885551,1838.629195,-1184.329507
1456.400293,-4219.173869,2068.457845,-2368.659014
1456.400604,-8808.450710,612.876398,-888.247130
1456.400915,-14359.995275,919.314598,1480.411884
1456.401227,-16950.716072,766.095498,4589.276840
1456.401538,-15026.180623,153.219100,5921.647536
1456.401850,-9844.739029,-1302.362347,2664.741391
1456.402161,-4959.379811,-1072.533697,-1554.432478
1456.402472,740.205942,0.000000,-3182.885551
1456.402784,1110.308913,459.657299,-3775.050304
1456.403095,-4959.379811,1685.410096,-1480.411884
1456.403407,-11547.212695,383.047749,1776.494261
1456.403718,-15470.304188,-612.876398,3256.906145
1456.404029,-15100.201217,536.266849,3701.029710
1456.404341,-10881.027347,2374.896044,2072.576638
1456.404652,-6069.688724,612.876398,-888.247130
1456.404964,-3997.112087,-1072.533697,-2368.659014
1456.405275,-5181.441594,76.609550,-2664.741391
1456.405586,-8216.285956,1225.752797,-2442.679609
1456.405898,-11103.089130,689.485948,814.226536
1456.406209,-13545.768739,-1378.971896,2590.720797
1456.406521,-13027.624579,-2681.334243,1998.556043
1456.406832,-10362.883188,-2221.676944,-444.123565
1456.407143,-6291.750507,-306.438199,-1702.473667
1456.407455,-5181.441594,306.438199,-1628.453072
1456.407766,-7105.977043,-153.219100,-1850.514855
1456.408078,-9474.636058,-1302.362347,-296.082377
1456.408389,-12583.501014,-689.485948,1628.453072
1456.408700,-13619.789333,0.000000,3849.070898
1456.409012,-11695.253884,766.095498,1924.535449
1456.409323,-8068.244768,1149.143247,-222.061783
1456.409635,-6143.709319,0.000000,-1258.350101
1456.409946,-6439.791695,-766.095498,-1036.288319
1456.410257,-8438.347739,612.876398,-740.205942
1456.410569,-11251.130318,-383.047749,370.102971
1456.410880,-11621.233289,-2145.067394,1628.453072
1456.411192,-10584.944971,-3217.601092,1776.494261
1456.411503,-8216.285956,-2451.505594,296.082377
1456.411814,-4663.297435,-766.095498,-666.185348
1456.412126,-4145.153275,-919.314598,-814.226536
1456.412437,-7328.038826,0.000000,-0.000000
1456.412749,-9992.780217,153.219100,1702.473667
1456.413060,-12657.521608,0.000000,2146.597232
1456.413371,-12287.418637,383.047749,3256.906145
1456.413683,-9770.718434,1225.752797,1332.370696
1456.413994,-7402.059420,2451.505594,-1184.329507
1456.414306,-6217.729913,2528.115143,-1332.370696
1456.414617,-6661.853478,2757.943793,-1184.329507
1456.414928,-7402.059420,1149.143247,-444.123565
1456.415240,-7402.059420,-612.876398,-222.061783
1456.415551,-7105.977043,-612.876398,592.164754
1456.415863,-8438.347739,0.000000,888.247130
1456.416174,-9178.553681,-383.047749,370.102971
1456.416485,-7994.224174,-1072.533697,148.041188
1456.416797,-8882.471304,-1532.190996,-0.000000
1456.417108,-10510.924376,153.219100,1110.308913
1456.417420,-9696.697840,842.705048,1406.391290
1456.417731,-10362.883188,-459.657299,296.082377
1456.418042,-10140.821405,-1149.143247,666.185348
1456.418354,-8290.306550,-919.314598,-518.144159
1456.418665,-8142.265362,-306.438199,-1184.329507
1456.418976,-7846.182985,383.047749,-444.123565
1456.419288,-9992.780217,-536.266849,-518.144159
1456.419599,-11991.336260,-459.657299,74.020594
1456.419911,-11399.171507,-153.219100,1406.391290
1456.420222,-11399.171507,-536.266849,2146.597232
1456.420533,-10288.862594,-1532.190996,2146.597232
1456.420845,-9178.553681,-1991.848295,296.082377
1456.421156,-6439.791695,-689.485948,-296.082377
1456.421468,-6439.791695,153.219100,-518.144159
1456.421779,-8068.244768,153.219100,888.247130
1456.422090,-9696.697840,-612.876398,888.247130
1456.422402,-11399.171507,-842.705048,962.267725
1456.422713,-10510.924376,-229.828649,1258.350101
1456.423025,-8882.471304,153.219100,148.041188
1456.423336,-7179.997637,76.609550,-962.267725
1456.423647,-6735.874072,536.266849,-1480.411884
1456.423959,-7698.141797,0.000000,-1702.473667
1456.424270,-8956.491898,536.266849,-0.000000
1456.424582,-10658.965565,1072.533697,2442.679609
1456.424893,-11695.253884,-153.219100,3108.864956
1456.425204,-11621.233289,-1378.971896,3330.926739
1456.425516,-9178.553681,-995.924147,2738.761985
1456.425827,-6661.853478,0.000000,1332.370696
1456.426139,-4885.359217,306.438199,-592.164754
1456.426450,-3923.091493,1225.752797,-1332.370696
1456.426761,-4589.276840,842.705048,-1258.350101
1456.427073,-5921.647536,76.609550,-370.102971
1456.427384,-8512.368333,919.314598,518.144159
1456.427696,-10732.986159,1302.362347,74.020594
1456.428007,-9696.697840,612.876398,1036.288319
1456.428318,-8808.450710,76.609550,518.144159
1456.428630,-9178.553681,1532.190996,-222.061783
1456.428941,-10510.924376,2528.115143,518.144159
1456.429253,-12805.562797,229.828649,2442.679609
1456.429564,-13323.706956,-2298.286494,3034.844362
1456.429875,-12213.398043,-1838.629195,2590.720797
1456.430187,-9474.636058,-842.705048,888.247130
1456.430498,-5773.606348,-689.485948,518.144159
1456.430810,-3552.988522,-2298.286494,-1258.350101
1456.431121,-4071.132681,-1991.848295,-2664.741391
1456.431432,-6143.709319,-536.266849,-666.185348
1456.431744,-10140.821405,1302.362347,2294.638420
1456.432055,-14211.954086,1072.533697,4441.235652
1456.432367,-16136.489536,-306.438199,3775.050304
1456.432678,-12953.603985,-536.266849,1776.494261
1456.432990,-8438.347739,383.047749,814.226536
1456.433301,-4515.256246,2145.067394,-74.020594
1456.433612,-3775.050304,1455.581446,-1184.329507
1456.433924,-6957.935855,-1685.410096,-888.247130
1456.434235,-7920.203579,-2834.553343,1184.329507
1456.434547,-9844.739029,-1991.848295,2220.617826
1456.434858,-11843.295072,-1225.752797,2812.782580
1456.435170,-10732.986159,-919.314598,2368.659014
1456.435481,-10288.862594,-1685.410096,740.205942
1456.435792,-8364.327145,-306.438199,740.205942
1456.436104,-6587.832884,536.266849,814.226536
1456.436415,-7179.997637,-1225.752797,1184.329507
1456.436727,-7105.977043,-842.705048,1184.329507
1456.437038,-8068.244768,-306.438199,-1036.288319
1456.437350,-7846.182985,1608.800546,-814.226536
1456.437661,-8364.327145,3447.429741,148.041188
1456.437972,-10658.965565,2681.334243,740.205942
1456.438284,-11843.295072,919.314598,666.185348
1456.438595,-11473.192101,76.609550,592.164754
1456.438907,-9770.718434,919.314598,370.102971
1456.439218,-7105.977043,1838.629195,-1184.329507
1456.439530,-5921.647536,919.314598,-2442.679609
1456.439841,-5551.544565,0.000000,-1998.556043
1456.440152,-7846.182985,-536.266849,-2294.638420
1456.440464,-9400.615463,459.657299,148.041188
1456.440775,-10214.842000,1302.362347,1554.432478
1456.441087,-11843.295072,-229.828649,1998.556043
1456.441398,-10658.965565,-1991.848295,2442.679609
1456.441710,-9178.553681,-2145.067394,-222.061783
1456.442021,-7254.018232,-153.219100,-1702.473667
1456.442332,-7105.977043,1378.971896,-2072.576638
1456.442644,-8216.285956,1302.362347,-1776.494261
1456.442955,-10140.821405,0.000000,-0.000000
1456.443267,-11917.315666,-766.095498,2072.576638
1456.443578,-11547.212695,-1455.581446,3108.864956
1456.443890,-10732.986159,-459.657299,1998.556043
1456.444201,-8882.471304,-766.095498,740.205942
1456.444512,-5921.647536,-1378.971896,-814.226536
1456.444824,-4811.338623,-1685.410096,-1406.391290
1456.445135,-5699.585753,-612.876398,-1406.391290
1456.445447,-8364.327145,153.219100,148.041188
1456.445758,-11325.150913,-919.314598,1332.370696
1456.446070,-13027.624579,-1225.752797,2738.761985
1456.446381,-13545.768739,-766.095498,3701.029710
1456.446692,-10510.924376,-689.485948,3034.844362
1456.447004,-8290.306550,-1302.362347,1702.473667
1456.447315,-5773.606348,-612.876398,-296.082377
1456.447627,-6069.688724,1685.410096,592.164754
1456.447938,-9474.636058,2298.286494,1924.535449
1456.448250,-10658.965565,766.095498,3478.967927
1456.448561,-10955.047942,-766.095498,2442.679609
1456.448872,-8660.409521,-1225.752797,1776.494261
1456.449184,-4367.215058,229.828649,518.144159
1456.449495,-3849.070898,1302.362347,-1702.473667
1456.449807,-5699.585753,1608.800546,-1258.350101
1456.450118,-8142.265362,536.266849,-962.267725
1456.450430,-9400.615463,995.924147,1184.329507
1456.450741,-10732.986159,2298.286494,2516.700203
1456.451052,-11843.295072,1685.410096,1258.350101
1456.451364,-10436.903782,612.876398,1110.308913
1456.451675,-7105.977043,459.657299,-444.123565
1456.451987,-5107.421000,995.924147,-2072.576638
1456.452298,-5625.565159,842.705048,-1036.288319
1456.452610,-9252.574275,-229.828649,-0.000000
1456.452921,-12139.377449,-1685.410096,74.020594
1456.453232,-13323.706956,-1072.533697,1406.391290
1456.453544,-12731.542202,-1378.971896,666.185348
1456.453855,-9548.656652,76.609550,592.164754
1456.454167,-7920.203579,-459.657299,-1258.350101
1456.454478,-6809.894666,-1149.143247,-1406.391290
1456.454790,-7772.162391,-459.657299,-222.061783
1456.455101,-10362.883188,459.657299,1480.411884
1456.455412,-11547.212695,153.219100,2368.659014
1456.455724,-12139.377449,-842.705048,1480.411884
1456.456035,-9992.780217,-1455.581446,592.164754
1456.456347,-7550.100608,0.000000,-814.226536
1456.456658,-6735.874072,842.705048,-1628.453072
1456.456970,-6217.729913,76.609550,-666.185348
1456.457281,-7624.121203,-2451.505594,296.082377
1456.457592,-8808.450710,-3140.991542,1998.556043
1456.457904,-10066.800811,-2604.724693,2886.803174
1456.458215,-10510.924376,-2145.067394,2368.659014
1456.458527,-8882.471304,-1532.190996,2738.761985
1456.458838,-9178.553681,-766.095498,814.226536
1456.459150,-7254.018232,76.609550,666.185348
1456.459461,-7105.977043,842.705048,666.185348
1456.459772,-7476.080014,766.095498,1036.288319
1456.460084,-7476.080014,536.266849,-518.144159
1456.460395,-8216.285956,536.266849,-1332.370696
1456.460707,-7105.977043,2145.067394,-666.185348
1456.461018,-7476.080014,2604.724693,-814.226536
1456.461330,-10214.842000,2221.676944,-296.082377
1456.461641,-10881.027347,1991.848295,962.267725
1456.461952,-12509.480420,2145.067394,1924.535449
1456.462264,-11843.295072,1915.238745,3775.050304
1456.462575,-9400.615463,0.000000,1776.494261
1456.462887,-5699.585753,-2221.676944,-1184.329507
1456.463198,-1776.494261,-383.047749,-1258.350101
1456.463510,-4071.132681,919.314598,-1850.514855
1456.463821,-8882.471304,919.314598,-148.041188
1456.464132,-12657.521608,-1072.533697,1998.556043
1456.464444,-14804.118840,-2757.943793,2738.761985
1456.464755,-13027.624579,-1915.238745,3182.885551
1456.465067,-11103.089130,-1072.533697,-0.000000
1456.465378,-7328.038826,1225.752797,-1036.288319
1456.465690,-6439.791695,536.266849,-2442.679609
1456.466001,-6809.894666,459.657299,-1998.556043
1456.466312,-8660.409521,536.266849,370.102971
1456.466624,-11621.233289,536.266849,2294.638420
1456.466935,-11991.336260,-153.219100,4145.153275
1456.467247,-10881.027347,-1685.410096,2220.617826
1456.467558,-6143.709319,-1915.238745,148.041188
1456.467870,-2738.761985,-1455.581446,-1554.432478
1456.468181,-2960.823768,-536.266849,-3775.050304
1456.468492,-5551.544565,-459.657299,-2294.638420
1456.468804,-10288.862594,-612.876398,-444.123565
1456.469115,-15100.201217,-1455.581446,2072.576638
1456.469427,-16876.695478,-1838.629195,3404.947333
1456.469738,-13989.892304,-1455.581446,1776.494261
1456.470050,-8364.327145,459.657299,-0.000000
1456.470361,-4959.379811,689.485948,-1924.535449
1456.470672,-4885.359217,229.828649,-2664.741391
1456.470984,-8290.306550,1991.848295,-444.123565
1456.471295,-11843.295072,1685.410096,1924.535449
1456.471607,-12361.439231,-229.828649,3552.988522
1456.471918,-11991.336260,-1838.629195,4293.194464
1456.472230,-9400.615463,-1378.971896,1924.535449
1456.472541,-3775.050304,1072.533697,-740.205942
1456.472852,-2812.782580,2221.676944,-2738.761985
1456.473164,-3330.926739,919.314598,-1554.432478
1456.473475,-6587.832884,0.000000,-296.082377
1456.473787,-9770.718434,-153.219100,666.185348
1456.474098,-11029.068536,842.705048,1258.350101
1456.474410,-10732.986159,995.924147,814.226536
1456.474721,-8660.409521,1915.238745,814.226536
1456.475032,-9178.553681,1915.238745,370.102971
1456.475344,-10584.944971,536.266849,-0.000000
1456.475655,-10955.047942,-383.047749,1776.494261
1456.475967,-10881.027347,-1838.629195,2072.576638
1456.476278,-9400.615463,-1455.581446,1480.411884
1456.476590,-8364.327145,-2374.896044,-222.061783
1456.476901,-5995.668130,-2528.115143,-74.020594
1456.477212,-5921.647536,-1532.190996,-518.144159
1456.477524,-8364.327145,-1378.971896,-0.000000
1456.477835,-9252.574275,-1149.143247,1480.411884
1456.478147,-11843.295072,0.000000,1036.288319
1456.478458,-11991.336260,1149.143247,2294.638420
1456.478770,-10214.842000,1302.362347,740.205942
1456.479081,-8586.388927,995.924147,-518.144159
1456.479392,-7105.977043,1378.971896,-444.123565
1456.479704,-6513.812290,153.219100,-1258.350101
1456.480015,-6587.832884,-459.657299,-814.226536
1456.480327,-8438.347739,153.219100,1184.329507
1456.480638,-11843.295072,-536.266849,3478.967927
1456.480950,-12361.439231,-2681.334243,2664.741391
1456.481261,-11029.068536,-3140.991542,1036.288319
1456.481572,-6883.915261,-1149.143247,592.164754
1456.481884,-4293.194464,0.000000,-444.123565
1456.482195,-5551.544565,459.657299,-740.205942
1456.482507,-7254.018232,0.000000,-592.164754
1456.482818,-9474.636058,76.609550,370.102971
1456.483130,-9696.697840,612.876398,2368.659014
1456.483441,-10436.903782,1149.143247,1776.494261
1456.483752,-9918.759623,1302.362347,148.041188
1456.484064,-7254.018232,1455.581446,-1628.453072
1456.484375,-6883.915261,1685.410096,-2516.700203
1456.484687,-8660.409521,2834.553343,-1554.432478
1456.484998,-11547.212695,2298.286494,296.082377
1456.485310,-13693.809927,383.047749,1702.473667
1456.485621,-10807.006753,-842.705048,2368.659014
1456.485932,-8956.491898,-1685.410096,-296.082377
1456.486244,-6291.750507,-306.438199,-1258.350101
1456.486555,-4219.173869,229.828649,-1628.453072
1456.486867,-7624.121203,0.000000,-814.226536
1456.487178,-11473.192101,-1455.581446,814.226536
1456.487490,-15618.345376,-1685.410096,2442.679609
1456.487801,-15026.180623,-1302.362347,3997.112087
1456.488112,-11695.253884,-1608.800546,1924.535449
1456.488424,-7920.203579,-995.924147,-518.144159
1456.488735,-4663.297435,-842.705048,-2294.638420
1456.489047,-4515.256246,-383.047749,-2368.659014
1456.489358,-7328.038826,612.876398,-1258.350101
1456.489670,-9844.739029,1302.362347,1258.350101
1456.489981,-11251.130318,0.000000,3330.926739
1456.490292,-10362.883188,-1225.752797,2886.803174
1456.490604,-8660.409521,-2145.067394,962.267725
1456.490915,-4663.297435,-153.219100,296.082377
1456.491227,-3256.906145,919.314598,-518.144159
1456.491538,-6143.709319,229.828649,-666.185348
1456.491850,-8290.306550,-1225.752797,1332.370696
1456.492161,-11547.212695,-2068.457845,1184.329507
1456.492472,-10436.903782,612.876398,2812.782580
1456.492784,-8734.430116,612.876398,1110.308913
1456.493095,-7994.224174,0.000000,-444.123565
1456.493407,-7624.121203,306.438199,-222.061783
1456.493718,-9030.512492,536.266849,-74.020594
1456.494030,-10066.800811,459.657299,1184.329507
1456.494341,-11029.068536,766.095498,1332.370696
1456.494652,-11399.171507,459.657299,1258.350101
1456.494964,-9326.594869,153.219100,1554.432478
1456.495275,-8068.244768,-612.876398,1332.370696
1456.495587,-6809.894666,383.047749,1110.308913
1456.495898,-6957.935855,76.609550,222.061783
1456.496210,-7846.182985,-153.219100,592.164754
1456.496521,-8438.347739,383.047749,1110.308913
1456.496832,-11029.068536,1225.752797,2368.659014
1456.497144,-11399.171507,1149.143247,2072.576638
1456.497455,-10584.944971,689.485948,222.061783
1456.497767,-9918.759623,689.485948,-444.123565
1456.498078,-7031.956449,766.095498,-74.020594
1456.498390,-7179.997637,-153.219100,-666.185348
1456.498701,-9622.677246,-612.876398,-1110.308913
1456.499012,-10732.986159,-842.705048,962.267725
1456.499324,-10214.842000,-1532.190996,1850.514855
1456.499635,-8290.306550,-1915.238745,2220.617826
1456.499947,-7698.141797,-2145.067394,296.082377
1456.500258,-7105.977043,-1991.848295,-888.247130
1456.500570,-7846.182985,689.485948,148.041188
1456.500881,-9770.718434,2374.896044,740.205942
1456.501192,-12139.377449,1915.238745,1702.473667
1456.501504,-12435.459826,0.000000,2220.617826
1456.501815,-9400.615463,-383.047749,1850.514855
1456.502127,-5699.585753,229.828649,-1554.432478
1456.502438,-3034.844362,1149.143247,-2960.823768
1456.502750,-3701.029710,689.485948,-2738.761985
1456.503061,-6809.894666,229.828649,-1480.411884
1456.503372,-10955.047942,0.000000,1776.494261
1456.503684,-14582.057057,-536.266849,3849.070898
1456.503995,-14878.139434,-2068.457845,5255.462188
1456.504307,-11177.109724,-1378.971896,4663.297435
1456.504618,-7179.997637,-1915.238745,1702.473667
1456.504930,-3923.091493,-1302.362347,-0.000000
1456.505241,-2886.803174,-919.314598,-1036.288319
1456.505552,-5181.441594,0.000000,-518.144159
1456.505864,-8068.244768,0.000000,1406.391290
1456.506175,-11103.089130,-306.438199,1850.514855
1456.506487,-10881.027347,383.047749,1258.350101
1456.506798,-8882.471304,766.095498,592.164754
1456.507110,-7920.203579,842.705048,-444.123565
1456.507421,-8068.244768,1532.190996,-1702.473667
1456.507732,-9252.574275,1915.238745,-666.185348
1456.508044,-10881.027347,1991.848295,-0.000000
1456.508355,-13397.727550,1378.971896,1850.514855
1456.508667,-12953.603985,459.657299,2294.638420
1456.508978,-10362.883188,-766.095498,444.123565
