#time,accel_x,accel_y,accel_z
1423.682404,-8438.347739,0.000000,518.144159
1423.682716,-8956.491898,-153.219100,592.164754
1423.683027,-8956.491898,0.000000,518.144159
1423.683338,-9030.512492,0.000000,444.123565
1423.683649,-8882.471304,76.609550,518.144159
1423.683961,-9030.512492,0.000000,518.144159
1423.684272,-8512.368333,0.000000,444.123565
1423.684583,-8808.450710,76.609550,888.247130
1423.684894,-8660.409521,-153.219100,148.041188
1423.685206,-8956.491898,0.000000,740.205942
1423.685517,-8882.471304,0.000000,592.164754
1423.685828,-9030.512492,0.000000,592.164754
1423.686140,-8808.450710,0.000000,592.164754
1423.686451,-8956.491898,0.000000,962.267725
1423.686762,-8734.430116,0.000000,444.123565
1423.687073,-8290.306550,-306.438199,592.164754
1423.687385,-8734.430116,76.609550,592.164754
1423.687696,-8808.450710,0.000000,370.102971
1423.688007,-9104.533087,-229.828649,370.102971
1423.688318,-9104.533087,-153.219100,592.164754
1423.688630,-9104.533087,0.000000,444.123565
1423.688941,-8660.409521,76.609550,740.205942
1423.689252,-8660.409521,229.828649,370.102971
1423.689563,-8586.388927,0.000000,296.082377
1423.689875,-9030.512492,0.000000,592.164754
1423.690186,-8808.450710,0.000000,518.144159
1423.690497,-8882.471304,0.000000,740.205942
1423.690808,-9030.512492,0.000000,518.144159
1423.691120,-8882.471304,76.609550,666.185348
1423.691431,-8364.327145,-306.438199,444.123565
1423.691742,-8808.450710,459.657299,296.082377
1423.692053,-8734.430116,-229.828649,296.082377
1423.692365,-8882.471304,0.000000,444.123565
1423.692676,-8808.450710,0.000000,592.164754
1423.692987,-8956.491898,0.000000,666.185348
1423.693298,-8956.491898,76.609550,592.164754
1423.693610,-8956.491898,76.609550,518.144159
1423.693921,-8956.491898,306.438199,592.164754
1423.694232,-8808.450710,0.000000,518.144159
1423.694544,-9030.512492,0.000000,296.082377
1423.694855,-9104.533087,0.000000,518.144159
1423.695166,-8882.471304,0.000000,518.144159
1423.695477,-8882.471304,-229.828649,592.164754
1423.695789,-8808.450710,-153.219100,518.144159
1423.696100,-8660.409521,459.657299,444.123565
1423.696411,-8882.471304,-383.047749,666.185348
1423.696722,-8512.368333,-383.047749,666.185348
1423.697034,-8956.491898,0.000000,592.164754
1423.697345,-8956.491898,0.000000,370.102971
1423.697656,-9104.533087,-229.828649,592.164754
1423.697967,-9030.512492,-229.828649,518.144159
1423.698279,-8882.471304,-306.438199,740.205942
1423.698590,-9178.553681,76.609550,370.102971
1423.698901,-8512.368333,0.000000,592.164754
1423.699212,-8882.471304,766.095498,370.102971
1423.699524,-8956.491898,-153.219100,518.144159
1423.699835,-8956.491898,76.609550,370.102971
1423.700146,-9030.512492,0.000000,370.102971
1423.700457,-8808.450710,0.000000,592.164754
1423.700769,-8956.491898,0.000000,518.144159
1423.701080,-9104.533087,229.828649,222.061783
1423.701391,-8956.491898,-153.219100,222.061783
1423.701702,-8734.430116,0.000000,888.247130
1423.702014,-9104.533087,-229.828649,-0.000000
1423.702325,-9030.512492,-153.219100,592.164754
1423.702636,-8956.491898,-229.828649,518.144159
1423.702948,-9030.512492,-229.828649,592.164754
1423.703259,-8956.491898,0.000000,518.144159
1423.703570,-8882.471304,153.219100,444.123565
1423.703881,-8734.430116,-306.438199,370.102971
1423.704193,-9030.512492,153.219100,370.102971
1423.704504,-8808.450710,0.000000,518.144159
1423.704815,-9030.512492,-153.219100,518.144159
1423.705126,-8956.491898,-153.219100,666.185348
1423.705438,-8882.471304,-153.219100,444.123565
1423.705749,-8956.491898,76.609550,444.123565
1423.706060,-8882.471304,229.828649,444.123565
1423.706371,-8956.491898,-612.876398,444.123565
1423.706683,-8882.471304,76.609550,814.226536
1423.706994,-9030.512492,-612.876398,444.123565
1423.707305,-9030.512492,-153.219100,592.164754
1423.707616,-9030.512492,-229.828649,518.144159
1423.707928,-8956.491898,76.609550,370.102971
1423.708239,-8808.450710,-536.266849,370.102971
1423.708550,-9104.533087,0.000000,222.061783
1423.708861,-8660.409521,0.000000,444.123565
1423.709173,-9030.512492,-536.266849,222.061783
1423.709484,-8956.491898,0.000000,666.185348
1423.709795,-8956.491898,0.000000,370.102971
1423.710107,-8808.450710,0.000000,370.102971
1423.710418,-8808.450710,-229.828649,518.144159
1423.710729,-8882.471304,0.000000,518.144159
1423.711040,-8808.450710,0.000000,370.102971
1423.711352,-8956.491898,0.000000,370.102971
1423.711663,-9030.512492,153.219100,666.185348
1423.711974,-11103.089130,459.657299,-0.000000
1423.712285,-11547.212695,2528.115143,296.082377
1423.712597,-9178.553681,4826.401637,592.164754
1423.712908,-7698.141797,4366.744339,592.164754
1423.713219,-6291.750507,1532.190996,1628.453072
1423.713530,-6291.750507,-995.924147,444.123565
1423.713842,-7254.018232,-1302.362347,296.082377
1423.714153,-7105.977043,-459.657299,-0.000000
1423.714464,-11029.068536,-919.314598,-1036.288319
1423.714775,-12953.603985,-612.876398,-592.164754
1423.715087,-10732.986159,1072.533697,370.102971
1423.715398,-9178.553681,0.000000,1258.350101
1423.715709,-8808.450710,-842.705048,2738.761985
1423.716020,-11843.295072,0.000000,1702.473667
1423.716332,-8956.491898,3983.696590,2146.597232
1423.716643,-5107.421000,5209.449386,2072.576638
1423.716954,-7105.977043,3600.648841,1258.350101
1423.717265,-7476.080014,2681.334243,-0.000000
1423.717577,-7031.956449,2987.772442,-2072.576638
1423.717888,-8290.306550,3370.820191,-1628.453072
1423.718199,-9030.512492,4290.134789,-296.082377
1423.718511,-11991.336260,2757.943793,-814.226536
1423.718822,-14211.954086,-153.219100,740.205942
1423.719133,-9548.656652,-1225.752797,2442.679609
1423.719444,-10140.821405,153.219100,740.205942
1423.719756,-8882.471304,4673.182538,2590.720797
1423.720067,-7698.141797,5898.935335,1702.473667
1423.720378,-7328.038826,2987.772442,2146.597232
1423.720689,-5773.606348,3830.477490,2368.659014
1423.721001,-7476.080014,7124.688131,888.247130
1423.721312,-8512.368333,7124.688131,-1258.350101
1423.721623,-9030.512492,5745.716235,-1554.432478
1423.721934,-9474.636058,5056.230287,-1628.453072
1423.722246,-10288.862594,5669.106685,-1480.411884
1423.722557,-11917.315666,5515.887586,-0.000000
1423.722868,-12065.356855,4673.182538,962.267725
1423.723179,-11399.171507,3983.696590,1924.535449
1423.723491,-9474.636058,5286.058936,2442.679609
1423.723802,-7105.977043,5975.544884,1776.494261
1423.724113,-5255.462188,5898.935335,222.061783
1423.724424,-5551.544565,5056.230287,518.144159
1423.724736,-4885.359217,4979.620737,-0.000000
1423.725047,-6069.688724,4903.011187,-1036.288319
1423.725358,-7550.100608,4060.306139,-740.205942
1423.725669,-9104.533087,3294.210641,-666.185348
1423.725981,-10881.027347,1685.410096,814.226536
1423.726292,-10436.903782,383.047749,888.247130
1423.726603,-10955.047942,-153.219100,1924.535449
1423.726915,-10732.986159,612.876398,1776.494261
1423.727226,-10214.842000,2604.724693,1998.556043
1423.727537,-8438.347739,3600.648841,2590.720797
1423.727848,-6143.709319,3064.381992,592.164754
1423.728160,-5551.544565,3907.087040,-0.000000
1423.728471,-7105.977043,3524.039291,-1184.329507
1423.728782,-6883.915261,3753.867940,-814.226536
1423.729093,-7402.059420,2145.067394,-1036.288319
1423.729405,-9178.553681,-383.047749,-296.082377
1423.729716,-10807.006753,-2451.505594,222.061783
1423.730027,-12139.377449,-1685.410096,888.247130
1423.730338,-13175.665768,-1991.848295,1480.411884
1423.730650,-12657.521608,-995.924147,1406.391290
1423.730961,-12213.398043,689.485948,962.267725
1423.731272,-11769.274478,1838.629195,222.061783
1423.731583,-8956.491898,4290.134789,-222.061783
1423.731895,-6439.791695,4826.401637,-74.020594
1423.732206,-6291.750507,4673.182538,518.144159
1423.732517,-6735.874072,4443.353888,888.247130
1423.732828,-7254.018232,2757.943793,-0.000000
1423.733140,-9400.615463,1991.848295,-518.144159
1423.733451,-11843.295072,1532.190996,-592.164754
1423.733762,-13175.665768,536.266849,-518.144159
1423.734073,-14137.933492,-153.219100,-518.144159
1423.734385,-14063.912898,536.266849,370.102971
1423.734696,-12361.439231,2068.457845,888.247130
1423.735007,-10140.821405,3217.601092,1702.473667
1423.735319,-7846.182985,4136.915689,2294.638420
1423.735630,-4441.235652,4903.011187,2146.597232
1423.735941,-2072.576638,5898.935335,666.185348
1423.736252,-1702.473667,6358.592633,-296.082377
1423.736564,-2812.782580,4903.011187,-1776.494261
1423.736875,-6069.688724,3907.087040,-2146.597232
1423.737186,-10214.842000,3524.039291,-1332.370696
1423.737497,-13323.706956,3370.820191,-0.000000
1423.737809,-15840.407159,3524.039291,1332.370696
1423.738120,-15100.201217,3370.820191,3182.885551
1423.738431,-12361.439231,2528.115143,4219.173869
1423.738742,-7920.203579,3064.381992,3182.885551
1423.739054,-4071.132681,3753.867940,1850.514855
1423.739365,-1850.514855,5592.497135,-148.041188
1423.739676,-1998.556043,7584.345430,-1924.535449
1423.739987,-3034.844362,7890.783629,-1776.494261
1423.740299,-5551.544565,5975.544884,-2368.659014
1423.740610,-8142.265362,3907.087040,-888.247130
1423.740921,-10955.047942,383.047749,222.061783
1423.741232,-12139.377449,-1762.019645,1480.411884
1423.741544,-12213.398043,-3370.820191,2072.576638
1423.741855,-13249.686362,-2757.943793,1998.556043
1423.742166,-12213.398043,-383.047749,1924.535449
1423.742478,-12065.356855,2145.067394,962.267725
1423.742789,-11029.068536,4903.011187,2294.638420
1423.743100,-8512.368333,6205.373534,1850.514855
1423.743411,-7179.997637,6205.373534,1924.535449
1423.743723,-7179.997637,4826.401637,740.205942
1423.744034,-5921.647536,3064.381992,222.061783
1423.744345,-7031.956449,2451.505594,-2220.617826
1423.744656,-8438.347739,3600.648841,-3256.906145
1423.744968,-10214.842000,4366.744339,-2886.803174
1423.745279,-11843.295072,3600.648841,-1406.391290
1423.745590,-12805.562797,995.924147,740.205942
1423.745901,-13101.645173,229.828649,2590.720797
1423.746213,-13323.706956,76.609550,2960.823768
1423.746524,-12435.459826,2374.896044,2812.782580
1423.746835,-10436.903782,5822.325785,1776.494261
1423.747146,-7402.059420,7507.735880,-0.000000
1423.747458,-6735.874072,6052.154434,-1480.411884
1423.747769,-6069.688724,4290.134789,-1406.391290
1423.748080,-7105.977043,3907.087040,-1702.473667
1423.748391,-8068.244768,3830.477490,-1110.308913
1423.748703,-8808.450710,2757.943793,222.061783
1423.749014,-9030.512492,229.828649,592.164754
1423.749325,-8068.244768,-2374.896044,1332.370696
1423.749636,-6661.853478,-2604.724693,2072.576638
1423.749948,-7179.997637,-1302.362347,1776.494261
1423.750259,-9104.533087,3447.429741,148.041188
1423.750570,-10584.944971,7890.783629,-296.082377
1423.750882,-11177.109724,9882.631924,-0.000000
1423.751193,-11029.068536,8197.221829,962.267725
1423.751504,-9992.780217,5975.544884,740.205942
1423.751815,-8216.285956,4290.134789,888.247130
1423.752127,-6809.894666,4366.744339,296.082377
1423.752438,-6143.709319,3217.601092,148.041188
1423.752749,-4367.215058,2221.676944,370.102971
1423.753060,-4737.318029,-383.047749,444.123565
1423.753372,-6957.935855,-1915.238745,814.226536
1423.753683,-8586.388927,153.219100,-148.041188
1423.753994,-10732.986159,5439.278036,-814.226536
1423.754306,-11991.336260,6818.249932,-740.205942
1423.754617,-13323.706956,6281.983084,518.144159
1423.754928,-14211.954086,3677.258390,2738.761985
1423.755240,-13619.789333,1608.800546,3034.844362
1423.755551,-10955.047942,2834.553343,3034.844362
1423.755863,-7402.059420,2911.162892,2072.576638
1423.756174,-4811.338623,1149.143247,1258.350101
1423.756485,-2368.659014,-3217.601092,814.226536
1423.756797,-3627.009116,-7201.297681,-962.267725
1423.757108,-4959.379811,-3677.258390,-518.144159
1423.757420,-6883.915261,2987.772442,-1554.432478
1423.757731,-11325.150913,5592.497135,-592.164754
1423.758042,-15692.365970,3677.258390,1184.329507
1423.758354,-18727.210333,1532.190996,2220.617826
1423.758665,-17764.942608,3753.867940,2960.823768
1423.758976,-13397.727550,7737.564530,2886.803174
1423.759288,-7624.121203,7584.345430,1702.473667
1423.759599,-3849.070898,2374.896044,296.082377
1423.759911,-814.226536,-1685.410096,-888.247130
1423.760222,740.205942,-1685.410096,-1480.411884
1423.760533,-962.267725,1762.019645,-814.226536
1423.760845,-6217.729913,2757.943793,-222.061783
1423.761156,-12805.562797,0.000000,518.144159
1423.761468,-16802.674883,-689.485948,814.226536
1423.761779,-16136.489536,1685.410096,962.267725
1423.762090,-13545.768739,3830.477490,518.144159
1423.762402,-12435.459826,2604.724693,-740.205942
1423.762713,-10140.821405,0.000000,-1628.453072
1423.763025,-6291.750507,0.000000,-2368.659014
1423.763336,-3552.988522,1225.752797,-518.144159
1423.763647,-3552.988522,1149.143247,2146.597232
1423.763959,-5551.544565,-1608.800546,4219.173869
1423.764270,-10214.842000,-4519.963438,3701.029710
1423.764582,-10584.944971,-612.876398,3997.112087
1423.764893,-8882.471304,5515.887586,814.226536
1423.765204,-10362.883188,7737.564530,-1850.514855
1423.765516,-9474.636058,4673.182538,-4737.318029
1423.765827,-8142.265362,2528.115143,-6143.709319
1423.766138,-7254.018232,5439.278036,-4885.359217
1423.766450,-9548.656652,7354.516781,-2220.617826
1423.766761,-14434.015869,4290.134789,222.061783
1423.767073,-15692.365970,-995.924147,3997.112087
1423.767384,-12361.439231,-3907.087040,5995.668130
1423.767695,-6735.874072,-3217.601092,5921.647536
1423.768007,-3108.864956,-1149.143247,3627.009116
1423.768318,-3108.864956,-2374.896044,-518.144159
1423.768630,-222.061783,-3447.429741,-2590.720797
1423.768941,-1258.350101,0.000000,-3108.864956
1423.769252,-8586.388927,1302.362347,-2146.597232
1423.769564,-16210.510130,2374.896044,592.164754
1423.769875,-20207.622217,-306.438199,2960.823768
1423.770187,-16728.654289,-1378.971896,4367.215058
1423.770498,-12287.418637,-919.314598,4367.215058
1423.770809,-9252.574275,-2068.457845,1554.432478
1423.771121,-5107.421000,-3294.210641,-370.102971
1423.771432,222.061783,-2451.505594,-666.185348
1423.771744,1628.453072,-1302.362347,-74.020594
1423.772055,-4071.132681,-383.047749,518.144159
1423.772366,-9918.759623,-1455.581446,1406.391290
1423.772678,-11325.150913,-1991.848295,3552.988522
1423.772989,-10436.903782,-1991.848295,4515.256246
1423.773300,-11103.089130,-3217.601092,2368.659014
1423.773612,-11251.130318,-3907.087040,-1406.391290
1423.773923,-9770.718434,-2911.162892,-4219.173869
1423.774235,-7328.038826,-689.485948,-3256.906145
1423.774546,-8586.388927,-842.705048,-1184.329507
1423.774857,-13175.665768,-2911.162892,1184.329507
1423.775169,-15840.407159,-3524.039291,3478.967927
1423.775480,-13619.789333,-995.924147,5921.647536
1423.775792,-9992.780217,1532.190996,5329.482782
1423.776103,-5551.544565,2987.772442,1628.453072
1423.776414,-3627.009116,2068.457845,-2886.803174
1423.776726,-518.144159,2068.457845,-4441.235652
1423.777037,-740.205942,4673.182538,-5551.544565
1423.777349,-8734.430116,5592.497135,-4885.359217
1423.777660,-17468.860231,4136.915689,-2664.741391
1423.777971,-21317.931130,1225.752797,1332.370696
1423.778283,-19245.354492,383.047749,4811.338623
1423.778594,-13841.851115,153.219100,4737.318029
1423.778905,-10214.842000,-2834.553343,1776.494261
1423.779217,-4441.235652,-4519.963438,-0.000000
1423.779528,1184.329507,-1532.190996,-1184.329507
1423.779840,1258.350101,3370.820191,-2294.638420
1423.780151,-4219.173869,4443.353888,-2516.700203
1423.780462,-10955.047942,2681.334243,-1480.411884
1423.780774,-12583.501014,2145.067394,1480.411884
1423.781085,-11695.253884,2374.896044,3627.009116
1423.781397,-12435.459826,459.657299,2664.741391
1423.781708,-12213.398043,-1532.190996,148.041188
1423.782019,-8290.306550,-1225.752797,-1184.329507
1423.782331,-4441.235652,0.000000,-666.185348
1423.782642,-4219.173869,1532.190996,-0.000000
1423.782954,-7920.203579,995.924147,296.082377
1423.783265,-10807.006753,1532.190996,1480.411884
1423.783576,-9622.677246,1302.362347,3701.029710
1423.783888,-7254.018232,2987.772442,4219.173869
1423.784199,-5773.606348,1378.971896,1184.329507
1423.784511,-4959.379811,-1455.581446,-962.267725
1423.784822,-2146.597232,-2834.553343,-1184.329507
1423.785133,-3404.947333,-2604.724693,-1036.288319
1423.785445,-8216.285956,-2374.896044,-0.000000
1423.785756,-13619.789333,-3447.429741,2368.659014
1423.786067,-16506.592507,-5362.668486,4515.256246
1423.786379,-15914.427753,-4903.011187,6957.935855
1423.786690,-13619.789333,-1991.848295,4219.173869
1423.787002,-9548.656652,-1455.581446,1110.308913
1423.787313,-5329.482782,-1225.752797,-1480.411884
1423.787624,-592.164754,153.219100,-2886.803174
1423.787936,-518.144159,1685.410096,-2368.659014
1423.788247,-5181.441594,766.095498,-2442.679609
1423.788559,-11695.253884,-1455.581446,-888.247130
1423.788870,-14730.098246,-1302.362347,2072.576638
1423.789181,-14878.139434,-1149.143247,3701.029710
1423.789493,-14434.015869,-2911.162892,2738.761985
1423.789804,-13915.871710,-4673.182538,1258.350101
1423.790116,-10066.800811,-4213.525239,518.144159
1423.790427,-5699.585753,-2068.457845,-0.000000
1423.790738,-6661.853478,0.000000,-296.082377
1423.791050,-9696.697840,0.000000,-962.267725
1423.791361,-11621.233289,1378.971896,-814.226536
1423.791672,-10658.965565,3294.210641,296.082377
1423.791984,-9474.636058,5898.935335,444.123565
1423.792295,-9474.636058,5439.278036,-1850.514855
1423.792607,-9252.574275,3294.210641,-3330.926739
1423.792918,-6587.832884,2221.676944,-2442.679609
1423.793229,-5107.421000,2604.724693,-814.226536
1423.793541,-8808.450710,2451.505594,666.185348
1423.793852,-13249.686362,689.485948,888.247130
1423.794164,-15100.201217,0.000000,2146.597232
1423.794475,-11103.089130,1608.800546,4071.132681
1423.794786,-7254.018232,3140.991542,1850.514855
1423.795098,-5551.544565,1685.410096,-1554.432478
1423.795409,-2812.782580,-306.438199,-3849.070898
1423.795721,-370.102971,0.000000,-2368.659014
1423.796032,-1332.370696,306.438199,-2220.617826
1423.796343,-6587.832884,-459.657299,-888.247130
1423.796655,-13027.624579,-2374.896044,666.185348
1423.796966,-15026.180623,-2987.772442,4145.153275
1423.797278,-13249.686362,-1225.752797,6513.812290
1423.797589,-11325.150913,0.000000,4811.338623
1423.797900,-8734.430116,-1072.533697,1850.514855
1423.798212,-6217.729913,-1991.848295,-0.000000
1423.798523,-2146.597232,153.219100,-222.061783
1423.798834,-2220.617826,2681.334243,-2072.576638
1423.799146,-6365.771101,1991.848295,-2146.597232
1423.799457,-9400.615463,-536.266849,-592.164754
1423.799769,-10214.842000,-1149.143247,1924.535449
1423.800080,-9844.739029,-919.314598,2960.823768
1423.800391,-9992.780217,-2834.553343,1702.473667
1423.800703,-9622.677246,-5209.449386,1406.391290
1423.801014,-7698.141797,-6052.154434,296.082377
1423.801326,-7698.141797,-4213.525239,962.267725
1423.801637,-9178.553681,-2451.505594,814.226536
1423.801948,-13027.624579,-2221.676944,1332.370696
1423.802260,-14804.118840,-1838.629195,2146.597232
1423.802571,-12953.603985,76.609550,3701.029710
1423.802883,-12065.356855,1302.362347,2072.576638
1423.803194,-9844.739029,1532.190996,-1628.453072
1423.803505,-7698.141797,1685.410096,-3552.988522
1423.803817,-4737.318029,1455.581446,-2738.761985
1423.804128,-4219.173869,2068.457845,-2146.597232
1423.804440,-9474.636058,1072.533697,-666.185348
1423.804751,-14508.036463,-153.219100,1480.411884
1423.805062,-16432.571912,-842.705048,4515.256246
1423.805374,-14804.118840,689.485948,5477.523971
1423.805685,-12139.377449,842.705048,3330.926739
1423.805996,-10288.862594,0.000000,-1110.308913
1423.806308,-5699.585753,536.266849,-2590.720797
1423.806619,-1480.411884,2681.334243,-3182.885551
1423.806931,-2368.659014,3600.648841,-3701.029710
1423.807242,-7698.141797,2298.286494,-2368.659014
1423.807553,-12361.439231,306.438199,-0.000000
1423.807865,-11547.212695,1225.752797,3923.091493
1423.808176,-9844.739029,3753.867940,4367.215058
1423.808488,-10214.842000,2068.457845,1998.556043
1423.808799,-8068.244768,0.000000,-444.123565
1423.809110,-4811.338623,689.485948,-740.205942
1423.809422,-2146.597232,2911.162892,-888.247130
1423.809733,-3701.029710,3524.039291,-1480.411884
1423.810045,-8364.327145,2681.334243,-814.226536
1423.810356,-9992.780217,459.657299,740.205942
1423.810667,-10732.986159,1838.629195,1628.453072
1423.810979,-9104.533087,2451.505594,2146.597232
1423.811290,-8068.244768,306.438199,-370.102971
1423.811601,-7179.997637,-2221.676944,-1036.288319
1423.811913,-3108.864956,-3600.648841,-222.061783
1423.812224,-2368.659014,-2528.115143,-518.144159
1423.812536,-6365.771101,-4136.915689,592.164754
1423.812847,-9992.780217,-5286.058936,2664.741391
1423.813158,-13027.624579,-4979.620737,4737.318029
1423.813470,-13323.706956,-3140.991542,5329.482782
1423.813781,-12213.398043,-1762.019645,3997.112087
1423.814093,-11029.068536,-2451.505594,-0.000000
1423.814404,-7624.121203,-2451.505594,-1998.556043
1423.814715,-4145.153275,-842.705048,-3108.864956
1423.815027,-3701.029710,-229.828649,-3552.988522
1423.815338,-8216.285956,-1225.752797,-1110.308913
1423.815650,-13027.624579,-3064.381992,888.247130
1423.815961,-14878.139434,-3447.429741,3182.885551
1423.816272,-14804.118840,-1072.533697,5033.400406
1423.816584,-14359.995275,-1225.752797,2812.782580
1423.816895,-13397.727550,-1991.848295,592.164754
1423.817207,-9992.780217,0.000000,-1480.411884
1423.817518,-6957.935855,2757.943793,-1702.473667
1423.817829,-7550.100608,2757.943793,-2516.700203
1423.818141,-10140.821405,1685.410096,-1702.473667
1423.818452,-11843.295072,1225.752797,518.144159
1423.818763,-10955.047942,1532.190996,2886.803174
1423.819075,-9696.697840,2068.457845,2812.782580
1423.819386,-10510.924376,689.485948,592.164754
1423.819698,-9252.574275,689.485948,-888.247130
1423.820009,-6365.771101,1915.238745,-1554.432478
1423.820320,-5403.503377,2604.724693,-1998.556043
1423.820632,-8660.409521,2451.505594,-1036.288319
1423.820943,-12509.480420,1149.143247,296.082377
1423.821255,-13397.727550,612.876398,2516.700203
1423.821566,-10288.862594,2298.286494,3701.029710
1423.821877,-6513.812290,2604.724693,2220.617826
1423.822189,-5995.668130,1455.581446,-0.000000
1423.822500,-5477.523971,306.438199,-592.164754
1423.822812,518.144159,995.924147,-1406.391290
1423.823123,1628.453072,3753.867940,-1554.432478
1423.823434,-4811.338623,1532.190996,-0.000000
1423.823746,-10881.027347,-459.657299,1776.494261
1423.824057,-11917.315666,-612.876398,4737.318029
1423.824368,-9400.615463,1608.800546,5329.482782
1423.824680,-9030.512492,919.314598,3923.091493
1423.824991,-8364.327145,-1225.752797,-296.082377
1423.825303,-5625.565159,536.266849,-2442.679609
1423.825614,-2442.679609,1532.190996,-2812.782580
1423.825925,-2220.617826,1455.581446,-2516.700203
1423.826237,-8882.471304,-383.047749,-0.000000
1423.826548,-12287.418637,-2604.724693,1110.308913
1423.826860,-11843.295072,-2757.943793,3701.029710
1423.827171,-10955.047942,-2145.067394,4737.318029
1423.827482,-10510.924376,-2604.724693,3256.906145
1423.827794,-10066.800811,-5515.887586,814.226536
1423.828105,-7179.997637,-5515.887586,296.082377
1423.828417,-6513.812290,-2374.896044,-1036.288319
1423.828728,-9030.512492,-383.047749,-444.123565
1423.829039,-13545.768739,-1302.362347,-148.041188
1423.829351,-15470.304188,-2068.457845,592.164754
1423.829662,-13323.706956,-536.266849,2072.576638
1423.829974,-11917.315666,1072.533697,1332.370696
1423.830285,-11103.089130,-919.314598,-962.267725
1423.830596,-9844.739029,-1378.971896,-2220.617826
1423.830908,-5847.626942,459.657299,-1924.535449
1423.831219,-5477.523971,1608.800546,-1850.514855
1423.831530,-10807.006753,459.657299,-518.144159
1423.831842,-15248.242405,-1532.190996,1184.329507
1423.832153,-15100.201217,-1378.971896,2960.823768
1423.832465,-12805.562797,1072.533697,3849.070898
1423.832776,-11843.295072,766.095498,1628.453072
1423.833087,-11621.233289,-1072.533697,-1258.350101
1423.833399,-6809.894666,-383.047749,-2146.597232
1423.833710,-2368.659014,1685.410096,-2294.638420
1423.834022,-3997.112087,2911.162892,-1554.432478
1423.834333,-9474.636058,995.924147,-888.247130
1423.834644,-12361.439231,0.000000,1258.350101
1423.834956,-9696.697840,2298.286494,3775.050304
1423.835267,-7476.080014,4060.306139,4145.153275
1423.835579,-6365.771101,2911.162892,888.247130
1423.835890,-7105.977043,1302.362347,-962.267725
1423.836201,-4737.318029,1149.143247,-814.226536
1423.836513,-740.205942,4136.915689,-2220.617826
1423.836824,-3701.029710,4749.792088,-1998.556043
1423.837135,-8586.388927,2068.457845,-148.041188
1423.837447,-12287.418637,-1685.410096,2368.659014
1423.837758,-8290.306550,-1762.019645,4515.256246
1423.838070,-4737.318029,0.000000,3108.864956
1423.838381,-6809.894666,-2681.334243,592.164754
1423.838692,-6513.812290,-5056.230287,-962.267725
1423.839004,-4441.235652,-3217.601092,-1036.288319
1423.839315,-4145.153275,-1991.848295,-666.185348
1423.839627,-8660.409521,-1608.800546,2590.720797
1423.839938,-13323.706956,-3753.867940,3330.926739
1423.840249,-15100.201217,-3140.991542,3849.070898
1423.840561,-11991.336260,-1915.238745,4145.153275
1423.840872,-8956.491898,-766.095498,1258.350101
1423.841184,-9178.553681,0.000000,-1480.411884
1423.841495,-6735.874072,536.266849,-3478.967927
1423.841806,-4663.297435,995.924147,-3997.112087
1423.842118,-6957.935855,1991.848295,-1628.453072
1423.842429,-11473.192101,1915.238745,-0.000000
1423.842741,-14878.139434,-612.876398,1776.494261
1423.843052,-14508.036463,-689.485948,3034.844362
1423.843363,-11843.295072,-229.828649,4071.132681
1423.843675,-10362.883188,-1532.190996,962.267725
1423.843986,-10362.883188,-2987.772442,-2146.597232
1423.844297,-8586.388927,-842.705048,-2072.576638
1423.844609,-6661.853478,919.314598,-1628.453072
1423.844920,-9696.697840,0.000000,-0.000000
1423.845232,-14878.139434,-2374.896044,1258.350101
1423.845543,-16802.674883,-2911.162892,3552.988522
1423.845854,-12509.480420,0.000000,4145.153275
1423.846166,-8808.450710,1915.238745,3034.844362
1423.846477,-10362.883188,0.000000,-814.226536
1423.846789,-7402.059420,536.266849,-2220.617826
1423.847100,-2590.720797,2834.553343,-2368.659014
1423.847411,-4589.276840,3830.477490,-1480.411884
1423.847723,-8660.409521,3447.429741,-0.000000
1423.848034,-13175.665768,1072.533697,222.061783
1423.848346,-13027.624579,0.000000,3552.988522
1423.848657,-7031.956449,842.705048,5329.482782
1423.848968,-5329.482782,689.485948,444.123565
1423.849280,-6809.894666,306.438199,-1406.391290
1423.849591,-3627.009116,-612.876398,-1702.473667
1423.849903,-444.123565,76.609550,-2294.638420
1423.850214,-2220.617826,3830.477490,-1332.370696
1423.850525,-7772.162391,4060.306139,962.267725
1423.850837,-12361.439231,-995.924147,3108.864956
1423.851148,-11251.130318,-2374.896044,5477.523971
1423.851459,-8364.327145,689.485948,4811.338623
1423.851771,-7105.977043,383.047749,1776.494261
1423.852082,-7031.956449,-1532.190996,-1110.308913
1423.852394,-5181.441594,-1225.752797,-2294.638420
1423.852705,-1702.473667,153.219100,-3034.844362
1423.853016,-5033.400406,-689.485948,-1036.288319
1423.853328,-11473.192101,-3217.601092,518.144159
1423.853639,-14359.995275,-3447.429741,1480.411884
1423.853951,-13175.665768,-3447.429741,3923.091493
1423.854262,-9918.759623,-2374.896044,3108.864956
1423.854573,-9844.739029,-3830.477490,370.102971
1423.854885,-8586.388927,-3600.648841,-1702.473667
1423.855196,-6587.832884,-2068.457845,-2294.638420
1423.855507,-6513.812290,-1072.533697,-2220.617826
1423.855819,-10362.883188,-1072.533697,-0.000000
1423.856130,-15840.407159,-2604.724693,1036.288319
1423.856442,-16358.551318,-1608.800546,2664.741391
1423.856753,-14211.954086,459.657299,2886.803174
1423.857064,-12139.377449,995.924147,1406.391290
1423.857376,-10807.006753,229.828649,-1998.556043
1423.857687,-8660.409521,76.609550,-3478.967927
1423.857998,-5181.441594,2068.457845,-2516.700203
1423.858310,-6069.688724,2604.724693,-1480.411884
1423.858621,-10584.944971,383.047749,-74.020594
1423.858933,-15322.262999,-1838.629195,1554.432478
1423.859244,-14359.995275,-919.314598,2738.761985
1423.859555,-10214.842000,2145.067394,3849.070898
1423.859867,-10436.903782,1149.143247,-0.000000
1423.860178,-8512.368333,-995.924147,-1036.288319
1423.860489,-5551.544565,0.000000,-1924.535449
1423.860801,-4589.276840,2374.896044,-1110.308913
1423.861112,-5033.400406,3600.648841,-296.082377
1423.861424,-8882.471304,2451.505594,1332.370696
1423.861735,-11991.336260,689.485948,3627.009116
1423.862046,-9918.759623,1302.362347,6291.750507
1423.862358,-6439.791695,2604.724693,3330.926739
1423.862669,-7254.018232,2834.553343,148.041188
1423.862980,-5551.544565,2221.676944,-518.144159
1423.863292,-3256.906145,1915.238745,-2886.803174
1423.863603,-2442.679609,3370.820191,-1110.308913
1423.863915,-5625.565159,2451.505594,-0.000000
1423.864226,-10584.944971,-612.876398,2294.638420
1423.864537,-11029.068536,-1225.752797,4441.235652
1423.864849,-9030.512492,842.705048,4885.359217
1423.865160,-6661.853478,-306.438199,3256.906145
1423.865471,-5995.668130,-1685.410096,814.226536
1423.865783,-4515.256246,-2374.896044,-518.144159
1423.866094,-1628.453072,-383.047749,-2442.679609
1423.866406,-3627.009116,-1149.143247,-370.102971
1423.866717,-8956.491898,-1532.190996,814.226536
1423.867028,-13989.892304,-3524.039291,2220.617826
1423.867340,-14656.077652,-3983.696590,3849.070898
1423.867651,-11843.295072,-1915.238745,4737.318029
1423.867962,-10881.027347,-1378.971896,1480.411884
1423.868274,-9992.780217,-1991.848295,-1406.391290
1423.868585,-6661.853478,-1915.238745,-3182.885551
1423.868897,-4737.318029,766.095498,-3256.906145
1423.869208,-6661.853478,919.314598,-1110.308913
1423.869519,-12805.562797,-1149.143247,-1480.411884
1423.869831,-16062.468941,-2374.896044,888.247130
1423.870142,-14508.036463,-1302.362347,2072.576638
1423.870453,-12361.439231,-612.876398,1850.514855
1423.870765,-11991.336260,-1762.019645,-1184.329507
1423.871076,-11399.171507,-2604.724693,-2442.679609
1423.871388,-8586.388927,-1915.238745,-3182.885551
1423.871699,-7031.956449,-383.047749,-2738.761985
1423.872010,-10510.924376,153.219100,-370.102971
1423.872322,-15248.242405,-1225.752797,222.061783
1423.872633,-14434.015869,-995.924147,2664.741391
1423.872944,-11029.068536,1302.362347,4219.173869
1423.873256,-9992.780217,2451.505594,2146.597232
1423.873567,-9548.656652,995.924147,-814.226536
1423.873879,-6513.812290,1072.533697,-2886.803174
1423.874190,-3478.967927,2451.505594,-2590.720797
1423.874501,-5625.565159,2604.724693,-2368.659014
1423.874813,-11843.295072,1915.238745,-1480.411884
1423.875124,-14582.057057,459.657299,962.267725
1423.875435,-12583.501014,459.657299,4145.153275
1423.875747,-7550.100608,1149.143247,5847.626942
1423.876058,-6143.709319,0.000000,2442.679609
1423.876370,-5699.585753,-919.314598,148.041188
1423.876681,-666.185348,-459.657299,-962.267725
1423.876992,2516.700203,2528.115143,-1628.453072
1423.877304,-740.205942,4673.182538,-370.102971
1423.877615,-8956.491898,2451.505594,-222.061783
1423.877926,-12213.398043,-1072.533697,3108.864956
1423.878238,-10066.800811,1072.533697,4959.379811
1423.878549,-8364.327145,2451.505594,4293.194464
1423.878861,-8142.265362,689.485948,1850.514855
1423.879172,-7772.162391,-1302.362347,-74.020594
1423.879483,-4145.153275,-2221.676944,-1184.329507
1423.879795,-2072.576638,229.828649,-1554.432478
1423.880106,-5403.503377,1149.143247,-0.000000
1423.880417,-11917.315666,-766.095498,444.123565
1423.880729,-14211.954086,-3830.477490,3330.926739
1423.881040,-10807.006753,-3600.648841,4959.379811
1423.881352,-8734.430116,-2834.553343,4219.173869
1423.881663,-9252.574275,-4979.620737,1110.308913
1423.881974,-8512.368333,-5209.449386,-814.226536
1423.882286,-6217.729913,-2528.115143,-1628.453072
1423.882597,-5107.421000,459.657299,-2516.700203
1423.882908,-10140.821405,0.000000,-0.000000
1423.883220,-15914.427753,-2298.286494,74.020594
1423.883531,-16358.551318,-1072.533697,1998.556043
1423.883843,-13545.768739,2451.505594,2590.720797
1423.884154,-12213.398043,2145.067394,222.061783
1423.884465,-12139.377449,229.828649,-1702.473667
1423.884777,-8438.347739,383.047749,-3182.885551
1423.885088,-5255.462188,2528.115143,-3256.906145
1423.885399,-6957.935855,1608.800546,-2146.597232
1423.885711,-13249.686362,536.266849,-666.185348
1423.886022,-16506.592507,-842.705048,1406.391290
1423.886334,-14211.954086,-229.828649,2738.761985
1423.886645,-11621.233289,612.876398,3256.906145
1423.886956,-10881.027347,-689.485948,148.041188
1423.887268,-8364.327145,-1685.410096,-1702.473667
1423.887579,-4145.153275,689.485948,-2960.823768
1423.887890,-3330.926739,2604.724693,-2664.741391
1423.888202,-7698.141797,3294.210641,-962.267725
1423.888513,-11843.295072,2221.676944,518.144159
1423.888825,-13619.789333,689.485948,2664.741391
1423.889136,-10214.842000,2681.334243,4885.359217
1423.889447,-6661.853478,3677.258390,2886.803174
1423.889759,-6809.894666,2298.286494,-666.185348
1423.890070,-4515.256246,1378.971896,-1480.411884
1423.890381,-518.144159,1302.362347,-1554.432478
1423.890693,-370.102971,3524.039291,-1184.329507
1423.891004,-6365.771101,3064.381992,-0.000000
1423.891316,-11695.253884,612.876398,1480.411884
1423.891627,-10436.903782,-919.314598,4145.153275
1423.891938,-6957.935855,383.047749,4737.318029
1423.892250,-5995.668130,-1225.752797,2072.576638
1423.892561,-7254.018232,-3753.867940,-370.102971
1423.892872,-4737.318029,-3677.258390,-888.247130
1423.893184,-1628.453072,-2374.896044,-592.164754
1423.893495,-4515.256246,-2221.676944,592.164754
1423.893807,-10362.883188,-3524.039291,2146.597232
1423.894118,-14730.098246,-3600.648841,3256.906145
1423.894429,-13619.789333,-3064.381992,4885.359217
1423.894741,-10658.965565,0.000000,4589.276840
1423.895052,-10066.800811,153.219100,1332.370696
1423.895363,-9178.553681,-1302.362347,-1406.391290
1423.895675,-5477.523971,-1072.533697,-2442.679609
1423.895986,-4959.379811,689.485948,-2516.700203
1423.896298,-9178.553681,995.924147,-814.226536
1423.896609,-13989.892304,-1762.019645,222.061783
1423.896920,-16506.592507,-2834.553343,1776.494261
1423.897232,-14730.098246,-536.266849,2442.679609
1423.897543,-12139.377449,76.609550,1702.473667
1423.897854,-11473.192101,-2451.505594,-1184.329507
1423.898166,-9992.780217,-3447.429741,-1924.535449
1423.898477,-6809.894666,-229.828649,-2146.597232
1423.898789,-7105.977043,2604.724693,-2442.679609
1423.899100,-12065.356855,1991.848295,-888.247130
1423.899411,-15248.242405,536.266849,814.226536
1423.899723,-13693.809927,689.485948,2442.679609
1423.900034,-10362.883188,2987.772442,3627.009116
1423.900345,-9770.718434,2068.457845,814.226536
1423.900657,-9474.636058,0.000000,-1998.556043
1423.900968,-6143.709319,0.000000,-2590.720797
1423.901280,-3701.029710,1991.848295,-2220.617826
1423.901591,-7105.977043,2757.943793,-1184.329507
1423.901902,-11917.315666,1915.238745,-0.000000
1423.902214,-14063.912898,0.000000,2442.679609
1423.902525,-10807.006753,1149.143247,3923.091493
1423.902836,-5921.647536,2451.505594,3034.844362
1423.903148,-6365.771101,1302.362347,-0.000000
1423.903459,-5699.585753,-766.095498,-1036.288319
1423.903771,-740.205942,689.485948,-2368.659014
1423.904082,148.041188,3600.648841,-2516.700203
1423.904393,-3775.050304,3753.867940,296.082377
1423.904705,-10807.006753,306.438199,1184.329507
1423.905016,-12361.439231,-1072.533697,4737.318029
1423.905327,-8068.244768,153.219100,5699.585753
1423.905639,-5995.668130,919.314598,3849.070898
1423.905950,-6587.832884,0.000000,148.041188
1423.906262,-6291.750507,-1225.752797,-1406.391290
1423.906573,-2294.638420,0.000000,-1702.473667
1423.906884,-1924.535449,612.876398,-2072.576638
1423.907196,-8586.388927,-689.485948,444.123565
1423.907507,-14359.995275,-2528.115143,2368.659014
1423.907818,-15914.427753,-4519.963438,4589.276840
1423.908130,-12065.356855,-4213.525239,5403.503377
1423.908441,-9696.697840,-4060.306139,3256.906145
1423.908753,-9400.615463,-4290.134789,-296.082377
1423.909064,-7698.141797,-3600.648841,-2812.782580
1423.909375,-5625.565159,-1225.752797,-2664.741391
1423.909687,-7179.997637,229.828649,-740.205942
1423.909998,-12509.480420,-306.438199,518.144159
1423.910309,-16876.695478,-1378.971896,2072.576638
1423.910621,-15322.262999,-153.219100,3256.906145
1423.910932,-12361.439231,1608.800546,2442.679609
1423.911244,-10881.027347,1532.190996,-222.061783
1423.911555,-9992.780217,919.314598,-2664.741391
1423.911866,-7105.977043,1532.190996,-3627.009116
1423.912178,-5921.647536,2451.505594,-2590.720797
1423.912489,-9400.615463,1685.410096,-666.185348
1423.912800,-15322.262999,-689.485948,222.061783
1423.913112,-16950.716072,-919.314598,2664.741391
1423.913423,-13175.665768,536.266849,4219.173869
1423.913735,-10436.903782,459.657299,2738.761985
1423.914046,-9844.739029,-1302.362347,-0.000000
1423.914357,-5921.647536,-1225.752797,-2368.659014
1423.914669,-3108.864956,612.876398,-1998.556043
1423.914980,-4959.379811,2298.286494,-666.185348
1423.915291,-8216.285956,2221.676944,-740.205942
1423.915603,-12213.398043,1072.533697,1258.350101
1423.915914,-12065.356855,153.219100,3701.029710
1423.916226,-8586.388927,1532.190996,4515.256246
1423.916537,-5033.400406,2911.162892,1184.329507
1423.916848,-6143.709319,2145.067394,-1110.308913
1423.917160,-2368.659014,766.095498,-1924.535449
1423.917471,518.144159,1991.848295,-2590.720797
1423.917782,-3182.885551,4290.134789,-2146.597232
1423.918094,-8660.409521,3217.601092,-518.144159
1423.918405,-12361.439231,-153.219100,2294.638420
1423.918717,-10362.883188,-766.095498,4885.359217
1423.919028,-7179.997637,0.000000,4145.153275
1423.919339,-7772.162391,-2911.162892,962.267725
1423.919651,-7550.100608,-4366.744339,518.144159
1423.919962,-3923.091493,-3217.601092,-666.185348
1423.920273,-2664.741391,-2068.457845,-1702.473667
1423.920585,-5773.606348,-1608.800546,-592.164754
1423.920896,-11399.171507,-2374.896044,740.205942
1423.921208,-14063.912898,-4749.792088,2812.782580
1423.921519,-12213.398043,-4060.306139,3775.050304
1423.921830,-10584.944971,153.219100,3330.926739
1423.922142,-11029.068536,-1302.362347,370.102971
1423.922453,-10436.903782,-3140.991542,-1850.514855
1423.922764,-7624.121203,-995.924147,-2146.597232
1423.923076,-6217.729913,2221.676944,-2516.700203
1423.923387,-10584.944971,1072.533697,-666.185348
1423.923699,-15100.201217,-1685.410096,444.123565
1423.924010,-16062.468941,-1302.362347,1776.494261
1423.924321,-13545.768739,306.438199,2738.761985
1423.924633,-11029.068536,536.266849,1480.411884
1423.924944,-12139.377449,-1225.752797,-1036.288319
1423.925255,-9474.636058,0.000000,-2368.659014
1423.925567,-5699.585753,1302.362347,-2294.638420
1423.925878,-7994.224174,766.095498,-740.205942
1423.926190,-12065.356855,76.609550,370.102971
1423.926501,-15766.386565,-1072.533697,1702.473667
1423.926812,-14211.954086,-383.047749,3108.864956
1423.927124,-10955.047942,1685.410096,3182.885551
1423.927435,-10362.883188,2298.286494,148.041188
1423.927746,-8142.265362,1608.800546,-1110.308913
1423.928058,-4367.215058,1225.752797,-1628.453072
1423.928369,-3256.906145,2451.505594,-1110.308913
1423.928681,-5403.503377,3524.039291,-666.185348
1423.928992,-8956.491898,3524.039291,814.226536
1423.929303,-11843.295072,1838.629195,1998.556043
1423.929615,-9474.636058,1455.581446,3404.947333
1423.929926,-4589.276840,3294.210641,2590.720797
1423.930237,-4737.318029,995.924147,-0.000000
1423.930549,-4293.194464,-2221.676944,-0.000000
1423.930860,-1110.308913,-1685.410096,-592.164754
1423.931172,-1924.535449,153.219100,-444.123565
1423.931483,-6587.832884,995.924147,-0.000000
1423.931794,-12213.398043,-612.876398,1480.411884
1423.932106,-12583.501014,153.219100,2072.576638
1423.932417,-8364.327145,1762.019645,3256.906145
1423.932728,-5181.441594,-612.876398,1554.432478
1423.933040,-6365.771101,-1608.800546,-148.041188
1423.933351,-5921.647536,-1455.581446,-888.247130
1423.933663,-3034.844362,-2068.457845,-1776.494261
1423.933974,-4441.235652,-1991.848295,-0.000000
1423.934285,-9918.759623,-2221.676944,1184.329507
1423.934597,-13915.871710,-3983.696590,1258.350101
1423.934908,-14359.995275,-4903.011187,3552.988522
1423.935219,-11399.171507,-3294.210641,3923.091493
1423.935531,-10658.965565,-2604.724693,2220.617826
1423.935842,-10658.965565,-4749.792088,-444.123565
1423.936154,-8438.347739,-4596.572988,-1850.514855
1423.936465,-7624.121203,-919.314598,-2442.679609
1423.936776,-8512.368333,919.314598,-1998.556043
1423.937088,-13175.665768,-306.438199,-740.205942
1423.937399,-16062.468941,-919.314598,666.185348
1423.937710,-14359.995275,842.705048,3034.844362
1423.938022,-11843.295072,1608.800546,2664.741391
1423.938333,-12657.521608,-306.438199,-0.000000
1423.938645,-11917.315666,-383.047749,-1184.329507
1423.938956,-6883.915261,1149.143247,-2072.576638
1423.939267,-6069.688724,2757.943793,-3034.844362
1423.939579,-10214.842000,2757.943793,-1406.391290
1423.939890,-13693.809927,919.314598,-148.041188
1423.940201,-14285.974681,-536.266849,1850.514855
1423.940513,-11621.233289,153.219100,3404.947333
1423.940824,-10214.842000,1149.143247,1850.514855
1423.941136,-8586.388927,153.219100,-1924.535449
1423.941447,-6439.791695,153.219100,-1776.494261
1423.941758,-4589.276840,153.219100,-148.041188
1423.942070,-3701.029710,1608.800546,-1406.391290
1423.942381,-7698.141797,3140.991542,-0.000000
1423.942692,-12139.377449,1915.238745,1480.411884
1423.943004,-11399.171507,1455.581446,4737.318029
1423.943315,-6957.935855,3140.991542,4219.173869
1423.943627,-5551.544565,4213.525239,1480.411884
1423.943938,-5551.544565,1838.629195,-1406.391290
1423.944249,-1480.411884,1915.238745,-2738.761985
1423.944561,592.164754,5745.716235,-2368.659014
1423.944872,-2590.720797,4673.182538,-2516.700203
1423.945183,-8438.347739,536.266849,1036.288319
1423.945495,-11991.336260,-2145.067394,2516.700203
1423.945806,-9844.739029,-536.266849,4219.173869
1423.946118,-8068.244768,-1225.752797,4293.194464
1423.946429,-8142.265362,-4366.744339,1924.535449
1423.946740,-5847.626942,-4673.182538,370.102971
1423.947052,-4293.194464,-4673.182538,-1628.453072
1423.947363,-2294.638420,-3140.991542,-370.102971
1423.947674,-6365.771101,-1685.410096,518.144159
1423.947986,-14656.077652,-3140.991542,1850.514855
1423.948297,-15248.242405,-4903.011187,3701.029710
1423.948609,-12287.418637,-2681.334243,4367.215058
1423.948920,-11621.233289,-919.314598,2368.659014
1423.949231,-10955.047942,-1915.238745,222.061783
1423.949543,-9400.615463,-3064.381992,-2590.720797
1423.949854,-6587.832884,229.828649,-2886.803174
1423.950165,-7105.977043,2528.115143,-1702.473667
1423.950477,-11621.233289,-689.485948,-1332.370696
1423.950788,-15692.365970,-2374.896044,518.144159
1423.951100,-16506.592507,-1608.800546,2368.659014
1423.951411,-12879.583391,0.000000,2146.597232
1423.951722,-11843.295072,229.828649,370.102971
1423.952034,-12361.439231,-919.314598,-1554.432478
1423.952345,-8142.265362,-919.314598,-1480.411884
1423.952656,-5921.647536,-306.438199,-2590.720797
1423.952968,-8290.306550,1378.971896,-0.000000
1423.953279,-12657.521608,1302.362347,222.061783
1423.953591,-14730.098246,-612.876398,2590.720797
1423.953902,-12361.439231,612.876398,3849.070898
1423.954213,-10362.883188,2068.457845,2738.761985
1423.954525,-9696.697840,1378.971896,-0.000000
1423.954836,-7254.018232,1455.581446,-1776.494261
1423.955147,-5033.400406,3370.820191,-2442.679609
1423.955459,-4441.235652,4673.182538,-1924.535449
1423.955770,-6439.791695,3907.087040,-2220.617826
1423.956082,-9770.718434,2451.505594,666.185348
1423.956393,-11695.253884,612.876398,2812.782580
1423.956704,-7772.162391,1455.581446,4367.215058
1423.957016,-4959.379811,2681.334243,2960.823768
1423.957327,-6217.729913,229.828649,518.144159
1423.957639,-3034.844362,-689.485948,-222.061783
1423.957950,-666.185348,766.095498,-1554.432478
1423.958262,-1110.308913,2451.505594,-1406.391290
1423.958573,-6439.791695,1302.362347,-148.041188
1423.958885,-11251.130318,-689.485948,1258.350101
1423.959196,-10436.903782,-536.266849,3775.050304
1423.959508,-8142.265362,-229.828649,4367.215058
1423.959819,-7994.224174,-1532.190996,2516.700203
1423.960131,-7772.162391,-1455.581446,370.102971
1423.960442,-5699.585753,-1991.848295,-1850.514855
1423.960754,-2664.741391,-995.924147,-2368.659014
1423.961065,-5107.421000,0.000000,-2220.617826
1423.961377,-10807.006753,-1225.752797,-592.164754
1423.961688,-14804.118840,-4060.306139,1702.473667
1423.962000,-14804.118840,-4673.182538,3108.864956
1423.962311,-12213.398043,-1149.143247,4367.215058
1423.962623,-11843.295072,-1915.238745,1480.411884
1423.962934,-11103.089130,-3677.258390,-1110.308913
1423.963246,-7254.018232,-2528.115143,-1776.494261
1423.963557,-5995.668130,0.000000,-1850.514855
1423.963868,-8512.368333,0.000000,-814.226536
1423.964180,-13397.727550,-1149.143247,-222.061783
1423.964491,-15618.345376,-689.485948,1776.494261
1423.964803,-13397.727550,1149.143247,3330.926739
1423.965114,-11991.336260,612.876398,1628.453072
1423.965426,-12657.521608,-536.266849,-370.102971
1423.965737,-10658.965565,-459.657299,-2072.576638
1423.966049,-7105.977043,1302.362347,-2590.720797
1423.966360,-7550.100608,2298.286494,-1332.370696
1423.966672,-11399.171507,1838.629195,-0.000000
1423.966983,-14804.118840,-306.438199,1110.308913
1423.967295,-13619.789333,0.000000,2886.803174
1423.967606,-9474.636058,1762.019645,3849.070898
1423.967918,-7476.080014,1455.581446,1776.494261
1423.968229,-8512.368333,-1072.533697,-444.123565
1423.968541,-5847.626942,-1608.800546,-518.144159
1423.968852,-1924.535449,1762.019645,-1776.494261
1423.969164,-3627.009116,4519.963438,148.041188
1423.969475,-9104.533087,2987.772442,962.267725
1423.969787,-12731.542202,766.095498,2368.659014
1423.970098,-9326.594869,2528.115143,3923.091493
1423.970409,-4885.359217,4596.572988,3552.988522
1423.970721,-5329.482782,2528.115143,-0.000000
1423.971032,-6143.709319,2145.067394,-1776.494261
1423.971344,-2442.679609,2374.896044,-1850.514855
1423.971655,74.020594,2451.505594,-2146.597232
1423.971967,-3775.050304,2221.676944,592.164754
1423.972278,-9400.615463,0.000000,962.267725
1423.972590,-11843.295072,-1685.410096,2368.659014
1423.972901,-9844.739029,-1608.800546,4589.276840
1423.973213,-7476.080014,-1149.143247,4071.132681
1423.973524,-7698.141797,-1915.238745,888.247130
1423.973836,-6809.894666,-3753.867940,-518.144159
1423.974147,-3701.029710,-3447.429741,-592.164754
1423.974459,-2812.782580,-1302.362347,-1258.350101
1423.974770,-7624.121203,-1302.362347,370.102971
1423.975082,-13915.871710,-4443.353888,1998.556043
1423.975393,-15766.386565,-4979.620737,3330.926739
1423.975705,-12583.501014,-2068.457845,3775.050304
1423.976016,-11769.274478,-1072.533697,1258.350101
1423.976328,-12435.459826,-2528.115143,-888.247130
1423.976639,-8586.388927,-1915.238745,-2294.638420
1423.976950,-6291.750507,-229.828649,-2886.803174
1423.977262,-7328.038826,1302.362347,-2220.617826
1423.977573,-11103.089130,153.219100,-74.020594
1423.977885,-15174.221811,-1838.629195,962.267725
1423.978196,-14211.954086,-1608.800546,2886.803174
1423.978508,-11325.150913,0.000000,2294.638420
1423.978819,-11843.295072,-536.266849,-666.185348
1423.979131,-11547.212695,-1149.143247,-1628.453072
1423.979442,-8586.388927,-1378.971896,-2220.617826
1423.979754,-6735.874072,-766.095498,-2072.576638
1423.980065,-9104.533087,229.828649,-74.020594
1423.980377,-13767.830521,-842.705048,1184.329507
1423.980688,-15026.180623,-689.485948,2812.782580
1423.981000,-12139.377449,995.924147,4441.235652
1423.981311,-8586.388927,2604.724693,2886.803174
1423.981623,-6661.853478,2451.505594,-814.226536
1423.981934,-7254.018232,2911.162892,-2590.720797
1423.982246,-3701.029710,3370.820191,-2072.576638
1423.982557,-2738.761985,4749.792088,-3627.009116
1423.982869,-6587.832884,4903.011187,-888.247130
1423.983180,-11917.315666,2145.067394,666.185348
1423.983492,-13767.830521,766.095498,3330.926739
1423.983803,-7920.203579,1838.629195,5107.421000
1423.984114,-5625.565159,1991.848295,2442.679609
1423.984426,-5403.503377,-1149.143247,370.102971
1423.984737,-3330.926739,229.828649,-2220.617826
1423.985049,-222.061783,3064.381992,-1554.432478
1423.985360,-1776.494261,3447.429741,-1850.514855
1423.985672,-7994.224174,1378.971896,1110.308913
1423.985983,-12435.459826,-995.924147,2664.741391
1423.986295,-11695.253884,-536.266849,4811.338623
1423.986606,-9548.656652,-153.219100,4737.318029
1423.986918,-8216.285956,0.000000,1332.370696
1423.987229,-6883.915261,-766.095498,-222.061783
1423.987541,-4663.297435,-2834.553343,-2220.617826
1423.987852,-1776.494261,-2451.505594,-1332.370696
1423.988164,-4663.297435,-1149.143247,-962.267725
1423.988475,-11103.089130,-2221.676944,1184.329507
1423.988787,-13175.665768,-4290.134789,3034.844362
1423.989098,-12583.501014,-4060.306139,3775.050304
1423.989410,-11695.253884,-2604.724693,2960.823768
1423.989721,-10288.862594,-3140.991542,-148.041188
1423.990033,-8956.491898,-3677.258390,-2368.659014
1423.990344,-7254.018232,-2068.457845,-2146.597232
1423.990655,-7179.997637,-536.266849,-2294.638420
1423.990967,-10732.986159,-1991.848295,-444.123565
1423.991278,-15766.386565,-3217.601092,1258.350101
1423.991590,-17246.798449,-2221.676944,3404.947333
1423.991901,-13693.809927,459.657299,3923.091493
1423.992213,-12361.439231,536.266849,1184.329507
1423.992524,-11177.109724,-76.609550,-1184.329507
1423.992836,-6883.915261,612.876398,-2886.803174
1423.993147,-4145.153275,1762.019645,-3330.926739
1423.993459,-6291.750507,2221.676944,-1924.535449
1423.993770,-11917.315666,842.705048,-1332.370696
1423.994082,-15692.365970,-995.924147,740.205942
1423.994393,-15026.180623,0.000000,3108.864956
1423.994705,-13027.624579,995.924147,3034.844362
1423.995016,-10658.965565,-919.314598,814.226536
1423.995328,-8290.306550,-1762.019645,-444.123565
1423.995639,-5773.606348,-766.095498,-444.123565
1423.995951,-3330.926739,1608.800546,-814.226536
1423.996262,-4737.318029,4596.572988,-444.123565
1423.996574,-9400.615463,2604.724693,814.226536
1423.996885,-11769.274478,842.705048,2590.720797
1423.997197,-8660.409521,2834.553343,4219.173869
1423.997508,-6291.750507,4673.182538,2072.576638
1423.997819,-6217.729913,2757.943793,-0.000000
1423.998131,-4071.132681,689.485948,-1258.350101
1423.998442,-962.267725,1915.238745,-2072.576638
1423.998754,-1110.308913,2451.505594,-1702.473667
1423.999065,-5625.565159,919.314598,-148.041188
1423.999377,-9918.759623,-919.314598,1998.556043
1423.999688,-10732.986159,-306.438199,2738.761985
1424.000000,-9030.512492,-383.047749,3849.070898
1424.000311,-7994.224174,-1302.362347,2590.720797
1424.000623,-7550.100608,-1915.238745,1036.288319
1424.000934,-4737.318029,-2298.286494,-1036.288319
1424.001246,-2812.782580,-3064.381992,-1628.453072
1424.001557,-4219.173869,-2068.457845,-962.267725
1424.001869,-9104.533087,-2068.457845,518.144159
1424.002180,-13915.871710,-4596.572988,3182.885551
1424.002492,-13915.871710,-5132.839837,4885.359217
1424.002803,-13175.665768,-2068.457845,4811.338623
1424.003115,-11917.315666,-766.095498,2072.576638
1424.003426,-10658.965565,-1455.581446,-1628.453072
1424.003738,-7920.203579,-919.314598,-3404.947333
1424.004049,-4737.318029,1838.629195,-3552.988522
1424.004360,-7328.038826,0.000000,-2220.617826
1424.004672,-12805.562797,-1608.800546,-1554.432478
1424.004983,-15766.386565,-995.924147,814.226536
1424.005295,-14656.077652,153.219100,2590.720797
1424.005606,-12731.542202,-612.876398,2738.761985
1424.005918,-13027.624579,-2604.724693,-148.041188
1424.006229,-11103.089130,-2451.505594,-1258.350101
1424.006541,-7402.059420,-229.828649,-2220.617826
1424.006852,-6513.812290,995.924147,-1480.411884
1424.007164,-10436.903782,229.828649,-296.082377
1424.007475,-14137.933492,-459.657299,370.102971
1424.007787,-13841.851115,0.000000,2442.679609
1424.008098,-11177.109724,2145.067394,3034.844362
1424.008410,-10066.800811,2451.505594,814.226536
1424.008721,-8956.491898,1455.581446,-1184.329507
1424.009033,-7105.977043,1532.190996,-2664.741391
1424.009344,-4145.153275,2451.505594,-1332.370696
1424.009656,-4589.276840,3907.087040,-1406.391290
1424.009967,-8512.368333,2681.334243,-0.000000
1424.010279,-13175.665768,1302.362347,2072.576638
1424.010590,-12287.418637,1072.533697,5107.421000
1424.010902,-5921.647536,2834.553343,3923.091493
1424.011213,-5255.462188,2451.505594,1850.514855
1424.011524,-4885.359217,-536.266849,-592.164754
1424.011836,-1332.370696,0.000000,-2886.803174
1424.012147,1184.329507,3524.039291,-1998.556043
1424.012459,-2960.823768,2834.553343,-1628.453072
1424.012770,-9696.697840,-229.828649,2146.597232
1424.013082,-12879.583391,-1685.410096,3182.885551
1424.013393,-10807.006753,-919.314598,5921.647536
1424.013705,-8290.306550,-536.266849,4959.379811
1424.014016,-7698.141797,-1225.752797,2664.741391
1424.014328,-6661.853478,-1302.362347,-370.102971
1424.014639,-3701.029710,-1685.410096,-1998.556043
1424.014951,-2072.576638,-536.266849,-1924.535449
1424.015262,-6587.832884,76.609550,-666.185348
1424.015574,-12435.459826,-1072.533697,1702.473667
1424.015885,-13471.748144,-4903.011187,2812.782580
1424.016197,-11843.295072,-3753.867940,5329.482782
1424.016508,-9918.759623,-2604.724693,3923.091493
1424.016820,-11103.089130,-4749.792088,518.144159
1424.017131,-9622.677246,-5745.716235,-888.247130
1424.017443,-6587.832884,-2681.334243,-1628.453072
1424.017754,-7105.977043,383.047749,-1776.494261
1424.018065,-11325.150913,-612.876398,-296.082377
1424.018377,-16876.695478,-2451.505594,-0.000000
1424.018688,-16284.530724,459.657299,1924.535449
1424.019000,-12953.603985,2451.505594,2294.638420
1424.019311,-12361.439231,1455.581446,222.061783
1424.019623,-11621.233289,0.000000,-2072.576638
1424.019934,-8290.306550,766.095498,-3923.091493
1424.020246,-4515.256246,2987.772442,-3478.967927
1424.020557,-7105.977043,2911.162892,-1850.514855
1424.020869,-12879.583391,689.485948,-296.082377
1424.021180,-15174.221811,-1532.190996,3108.864956
1424.021492,-11917.315666,-2221.676944,4737.318029
1424.021803,-9252.574275,-1455.581446,4367.215058
1424.022115,-10584.944971,-1149.143247,-0.000000
1424.022426,-10436.903782,-995.924147,-2146.597232
1424.022738,-5625.565159,1225.752797,-2960.823768
1424.023049,-2516.700203,4826.401637,-2442.679609
1424.023361,-5625.565159,3524.039291,-1332.370696
1424.023672,-12139.377449,459.657299,-222.061783
1424.023984,-13841.851115,-306.438199,4737.318029
1424.024295,-7994.224174,2451.505594,4811.338623
1424.024607,-6439.791695,5362.668486,2812.782580
1424.024918,-6809.894666,4213.525239,-148.041188
1424.025229,-4515.256246,2987.772442,-2368.659014
1424.025541,74.020594,3600.648841,-2516.700203
1424.025852,74.020594,5056.230287,-1924.535449
1424.026164,-6735.874072,3370.820191,-666.185348
1424.026475,-11843.295072,153.219100,1184.329507
1424.026787,-11917.315666,-995.924147,4071.132681
1424.027098,-8290.306550,-1378.971896,4959.379811
1424.027410,-6957.935855,-1685.410096,2146.597232
1424.027721,-6661.853478,-3447.429741,148.041188
1424.028033,-4219.173869,-3447.429741,-2220.617826
1424.028344,-1332.370696,-2221.676944,-1628.453072
1424.028656,-4367.215058,-1225.752797,-444.123565
1424.028967,-11177.109724,-3294.210641,2146.597232
1424.029279,-15840.407159,-6052.154434,4959.379811
1424.029590,-15544.324782,-4366.744339,6365.771101
1424.029902,-13249.686362,-153.219100,4367.215058
1424.030213,-10955.047942,76.609550,1036.288319
1424.030525,-9104.533087,-842.705048,-888.247130
1424.030836,-6661.853478,-1378.971896,-2442.679609
1424.031148,-2960.823768,306.438199,-2664.741391
1424.031459,-6661.853478,-306.438199,-1924.535449
1424.031770,-11843.295072,-1608.800546,-0.000000
1424.032082,-14359.995275,-1991.848295,1850.514855
1424.032393,-13767.830521,-1072.533697,2886.803174
1424.032705,-12139.377449,-689.485948,2442.679609
1424.033016,-13767.830521,-3830.477490,-0.000000
1424.033328,-11325.150913,-2528.115143,-1628.453072
1424.033639,-8586.388927,536.266849,-3182.885551
1424.033951,-8512.368333,1762.019645,-3108.864956
1424.034262,-11621.233289,842.705048,-1258.350101
1424.034574,-14359.995275,-536.266849,444.123565
1424.034885,-12879.583391,-153.219100,3701.029710
1424.035197,-9400.615463,1302.362347,4589.276840
1424.035508,-9400.615463,842.705048,1628.453072
1424.035820,-8068.244768,1608.800546,-1036.288319
1424.036131,-7105.977043,2681.334243,-2368.659014
1424.036443,-5033.400406,3524.039291,-2146.597232
1424.036754,-6957.935855,4673.182538,-2442.679609
1424.037066,-10881.027347,2911.162892,-1184.329507
1424.037377,-13323.706956,1455.581446,1998.556043
1424.037689,-12361.439231,995.924147,4737.318029
1424.038000,-6883.915261,1532.190996,3034.844362
1424.038312,-5255.462188,842.705048,1110.308913
1424.038623,-2960.823768,-919.314598,-148.041188
1424.038934,0.000000,612.876398,-1924.535449
1424.039246,222.061783,3524.039291,-2368.659014
1424.039557,-3849.070898,3447.429741,-888.247130
1424.039869,-9400.615463,1225.752797,1628.453072
1424.040180,-11843.295072,-306.438199,2738.761985
1424.040492,-10288.862594,1455.581446,4885.359217
1424.040803,-8734.430116,995.924147,2960.823768
1424.041115,-7920.203579,-842.705048,666.185348
1424.041426,-5255.462188,-1225.752797,-888.247130
1424.041738,-1628.453072,-1225.752797,-2664.741391
1424.042049,-2738.761985,-842.705048,-2146.597232
1424.042361,-8586.388927,-1608.800546,592.164754
1424.042672,-12509.480420,-3140.991542,2516.700203
1424.042984,-14211.954086,-4673.182538,4219.173869
1424.043295,-12065.356855,-3830.477490,4737.318029
1424.043607,-10807.006753,-3217.601092,2738.761985
1424.043918,-11399.171507,-4596.572988,-0.000000
1424.044230,-8586.388927,-4060.306139,-1110.308913
1424.044541,-5699.585753,-1838.629195,-1924.535449
1424.044853,-7994.224174,76.609550,-1406.391290
1424.045164,-12583.501014,383.047749,296.082377
1424.045475,-15618.345376,-842.705048,1480.411884
1424.045787,-14508.036463,306.438199,2812.782580
1424.046098,-11917.315666,1762.019645,2738.761985
1424.046410,-11251.130318,1225.752797,-370.102971
1424.046721,-9474.636058,612.876398,-3330.926739
1424.047033,-6883.915261,1378.971896,-4589.276840
1424.047344,-6291.750507,1685.410096,-3775.050304
1424.047656,-10288.862594,1072.533697,-2812.782580
1424.047967,-15544.324782,612.876398,-740.205942
1424.048279,-16950.716072,-995.924147,1998.556043
1424.048590,-14137.933492,-1762.019645,3923.091493
1424.048902,-11325.150913,-2987.772442,3330.926739
1424.049213,-9104.533087,-2221.676944,1554.432478
1424.049525,-6587.832884,-689.485948,-0.000000
1424.049836,-2960.823768,536.266849,-1332.370696
1424.050148,-3330.926739,4136.915689,-1554.432478
1424.050459,-7254.018232,2987.772442,-1258.350101
1424.050771,-12731.542202,1455.581446,-0.000000
1424.051082,-13989.892304,1685.410096,2960.823768
1424.051394,-8882.471304,4443.353888,2886.803174
1424.051705,-8142.265362,3907.087040,1036.288319
1424.052017,-6143.709319,919.314598,-370.102971
1424.052328,-2812.782580,842.705048,-1554.432478
1424.052639,888.247130,2757.943793,-1258.350101
1424.052951,-222.061783,3753.867940,-592.164754
1424.053262,-6143.709319,1532.190996,1332.370696
1424.053574,-9400.615463,383.047749,2146.597232
1424.053885,-8068.244768,995.924147,3997.112087
1424.054197,-5847.626942,459.657299,3256.906145
1424.054508,-5995.668130,-1838.629195,1110.308913
1424.054820,-7772.162391,-3140.991542,-666.185348
1424.055131,-4737.318029,-2298.286494,-1258.350101
1424.055443,-4071.132681,-842.705048,-1184.329507
1424.055754,-8142.265362,-1685.410096,666.185348
1424.056066,-12879.583391,-4596.572988,3478.967927
1424.056377,-15618.345376,-6665.030833,4071.132681
1424.056688,-13101.645173,-2757.943793,4737.318029
1424.057000,-10955.047942,0.000000,3330.926739
1424.057311,-11325.150913,-306.438199,-74.020594
1424.057623,-9178.553681,-842.705048,-1480.411884
1424.057934,-5995.668130,229.828649,-1628.453072
1424.058246,-5107.421000,766.095498,-740.205942
1424.058557,-10362.883188,0.000000,-592.164754
1424.058868,-14656.077652,-919.314598,444.123565
1424.059180,-14211.954086,-1149.143247,2146.597232
1424.059491,-12879.583391,-1149.143247,2368.659014
1424.059803,-11843.295072,-1225.752797,962.267725
1424.060114,-12657.521608,-2221.676944,-2294.638420
1424.060425,-9622.677246,-1378.971896,-2368.659014
1424.060737,-6291.750507,-383.047749,-2146.597232
1424.061048,-8956.491898,-306.438199,-1184.329507
1424.061360,-12805.562797,-842.705048,-74.020594
1424.061671,-14656.077652,-1532.190996,740.205942
1424.061983,-12879.583391,153.219100,1998.556043
1424.062294,-9918.759623,2451.505594,2738.761985
1424.062605,-8956.491898,842.705048,370.102971
1424.062917,-6809.894666,0.000000,-962.267725
1424.063228,-5181.441594,536.266849,-1184.329507
1424.063540,-4219.173869,1991.848295,444.123565
1424.063851,-6439.791695,3600.648841,-296.082377
1424.064162,-11399.171507,2068.457845,-222.061783
1424.064474,-13989.892304,2221.676944,2146.597232
1424.064785,-10658.965565,2374.896044,3256.906145
1424.065097,-6439.791695,4290.134789,444.123565
1424.065408,-6513.812290,2068.457845,-518.144159
1424.065720,-3849.070898,-689.485948,-1702.473667
1424.066031,296.082377,229.828649,-1628.453072
1424.066342,-148.041188,2145.067394,-740.205942
1424.066654,-5403.503377,153.219100,-0.000000
1424.066965,-11029.068536,-2068.457845,2368.659014
1424.067277,-11251.130318,-306.438199,3701.029710
1424.067588,-8882.471304,1378.971896,3404.947333
1424.067899,-8364.327145,1532.190996,666.185348
1424.068211,-7920.203579,1149.143247,-962.267725
1424.068522,-6513.812290,306.438199,-2368.659014
1424.068834,-2886.803174,0.000000,-1554.432478
1424.069145,-4663.297435,153.219100,-740.205942
1424.069457,-10214.842000,-153.219100,740.205942
1424.069768,-13767.830521,-3983.696590,2368.659014
1424.070079,-13693.809927,-4136.915689,4071.132681
1424.070391,-11769.274478,-1225.752797,3404.947333
1424.070702,-9992.780217,-995.924147,1480.411884
1424.071014,-9696.697840,-4519.963438,-222.061783
1424.071325,-8216.285956,-4136.915689,-740.205942
1424.071636,-7105.977043,-1608.800546,-148.041188
1424.071948,-10584.944971,-536.266849,-1554.432478
1424.072259,-14508.036463,-1378.971896,-444.123565
1424.072571,-15692.365970,689.485948,1036.288319
1424.072882,-12509.480420,2298.286494,3108.864956
1424.073194,-9992.780217,459.657299,1332.370696
1424.073505,-10881.027347,-766.095498,-962.267725
1424.073816,-8956.491898,-153.219100,-1554.432478
1424.074128,-5107.421000,2145.067394,-2442.679609
1424.074439,-6069.688724,1762.019645,-1406.391290
1424.074751,-9844.739029,229.828649,-888.247130
1424.075062,-13175.665768,-1991.848295,962.267725
1424.075373,-12953.603985,-1838.629195,2368.659014
1424.075685,-11621.233289,306.438199,3108.864956
1424.075996,-10584.944971,229.828649,1924.535449
1424.076308,-11103.089130,-1608.800546,148.041188
1424.076619,-8438.347739,-3600.648841,592.164754
1424.076931,-2886.803174,-1685.410096,666.185348
1424.077242,-3552.988522,1225.752797,296.082377
1424.077553,-8734.430116,229.828649,1332.370696
1424.077865,-12731.542202,-766.095498,1924.535449
1424.078176,-10510.924376,1838.629195,3478.967927
1424.078488,-7328.038826,5669.106685,3775.050304
1424.078799,-7328.038826,3600.648841,444.123565
1424.079110,-7031.956449,1838.629195,-1924.535449
1424.079422,-3256.906145,2987.772442,-2368.659014
1424.079733,148.041188,4519.963438,-2368.659014
1424.080045,-2516.700203,3064.381992,-1258.350101
1424.080356,-8808.450710,-229.828649,1110.308913
1424.080668,-12583.501014,-2298.286494,2294.638420
1424.080979,-9918.759623,-1302.362347,4071.132681
1424.081290,-7179.997637,459.657299,2368.659014
1424.081602,-8364.327145,306.438199,-148.041188
1424.081913,-7846.182985,-1302.362347,-1998.556043
1424.082225,-4219.173869,-1455.581446,-2220.617826
1424.082536,-3256.906145,-306.438199,-1628.453072
1424.082847,-7698.141797,-536.266849,148.041188
1424.083159,-13693.809927,-2451.505594,2294.638420
1424.083470,-14656.077652,-3524.039291,3330.926739
1424.083782,-13101.645173,-1378.971896,3552.988522
1424.084093,-11769.274478,-383.047749,2146.597232
1424.084405,-10214.842000,-1072.533697,-0.000000
1424.084716,-7846.182985,-1072.533697,-1776.494261
1424.085027,-4737.318029,-383.047749,-1776.494261
1424.085339,-5921.647536,-689.485948,-1480.411884
1424.085650,-10732.986159,-766.095498,-888.247130
1424.085962,-14063.912898,-612.876398,1628.453072
1424.086273,-14285.974681,-689.485948,1850.514855
1424.086584,-12509.480420,-306.438199,2590.720797
1424.086896,-11695.253884,0.000000,296.082377
1424.087207,-10436.903782,-1378.971896,-1258.350101
1424.087519,-6587.832884,-612.876398,-888.247130
1424.087830,-5625.565159,229.828649,-1406.391290
1424.088142,-8142.265362,306.438199,-148.041188
1424.088453,-12065.356855,-1378.971896,592.164754
1424.088764,-14137.933492,-1762.019645,1924.535449
1424.089076,-12509.480420,-612.876398,3330.926739
1424.089387,-11177.109724,1532.190996,2590.720797
1424.089699,-10510.924376,995.924147,-148.041188
1424.090010,-8290.306550,0.000000,-74.020594
1424.090321,-4219.173869,919.314598,-518.144159
1424.090633,-3108.864956,2528.115143,-1258.350101
1424.090944,-6661.853478,2681.334243,-888.247130
1424.091256,-11621.233289,1685.410096,-74.020594
1424.091567,-10955.047942,2221.676944,2516.700203
1424.091879,-7994.224174,4136.915689,2590.720797
1424.092190,-7994.224174,2757.943793,1554.432478
1424.092501,-8956.491898,229.828649,-296.082377
1424.092813,-5625.565159,842.705048,-148.041188
1424.093124,-296.082377,2604.724693,-444.123565
1424.093436,-1110.308913,2374.896044,-1406.391290
1424.093747,-6735.874072,459.657299,814.226536
1424.094058,-11177.109724,-2451.505594,1554.432478
1424.094370,-9622.677246,-995.924147,3701.029710
1424.094681,-7846.182985,919.314598,3330.926739
1424.094993,-9252.574275,306.438199,592.164754
1424.095304,-9326.594869,-1608.800546,-962.267725
1424.095615,-5625.565159,-2528.115143,-1332.370696
1424.095927,-2664.741391,-766.095498,-1702.473667
1424.096238,-5033.400406,-306.438199,-222.061783
1424.096550,-11621.233289,-2604.724693,962.267725
1424.096861,-14878.139434,-4749.792088,2368.659014
1424.097173,-13101.645173,-2834.553343,3701.029710
1424.097484,-10732.986159,-459.657299,2960.823768
1424.097795,-9474.636058,-995.924147,888.247130
1424.098107,-9474.636058,-3524.039291,-1406.391290
1424.098418,-6513.812290,-2757.943793,-1332.370696
1424.098730,-5403.503377,-1225.752797,-1110.308913
1424.099041,-10436.903782,-383.047749,-814.226536
1424.099352,-14656.077652,-842.705048,1554.432478
1424.099664,-15988.448347,-995.924147,1998.556043
1424.099975,-12879.583391,306.438199,2960.823768
1424.100287,-10807.006753,919.314598,518.144159
1424.100598,-10140.821405,0.000000,-740.205942
1424.100910,-7105.977043,383.047749,-2220.617826
1424.101221,-4885.359217,612.876398,-2368.659014
1424.101532,-7254.018232,919.314598,-888.247130
1424.101844,-11177.109724,0.000000,-0.000000
1424.102155,-15396.283594,-1302.362347,1406.391290
1424.102467,-14285.974681,-383.047749,3034.844362
1424.102778,-10288.862594,1302.362347,2590.720797
1424.103089,-8956.491898,153.219100,1036.288319
1424.103401,-9400.615463,-1608.800546,-370.102971
1424.103712,-5255.462188,-1378.971896,-148.041188
1424.104024,-2294.638420,842.705048,-740.205942
1424.104335,-4219.173869,2451.505594,296.082377
1424.104647,-10807.006753,1072.533697,814.226536
1424.104958,-13693.809927,383.047749,2516.700203
1424.105269,-9770.718434,3677.258390,3552.988522
1424.105581,-6809.894666,5592.497135,2072.576638
1424.105892,-7328.038826,3294.210641,-666.185348
1424.106204,-7105.977043,1762.019645,-1480.411884
1424.106515,-2146.597232,2451.505594,-1184.329507
1424.106826,0.000000,2911.162892,-1628.453072
1424.107138,-4515.256246,1915.238745,518.144159
1424.107449,-10807.006753,0.000000,1480.411884
1424.107761,-11843.295072,-1225.752797,3182.885551
1424.108072,-8808.450710,-612.876398,4145.153275
1424.108384,-7105.977043,-536.266849,2368.659014
1424.108695,-7550.100608,-2834.553343,-0.000000
1424.109006,-6069.688724,-3753.867940,-1406.391290
1424.109318,-3404.947333,-3217.601092,-1924.535449
1424.109629,-4145.153275,-1608.800546,-444.123565
1424.109941,-9696.697840,-1608.800546,1036.288319
1424.110252,-14582.057057,-3907.087040,2220.617826
1424.110563,-14211.954086,-3370.820191,3330.926739
1424.110875,-10807.006753,-536.266849,3701.029710
1424.111186,-10066.800811,-612.876398,1036.288319
1424.111498,-10214.842000,-536.266849,-1924.535449
1424.111809,-8216.285956,0.000000,-2812.782580
1424.112121,-5847.626942,1149.143247,-1702.473667
1424.112432,-8660.409521,0.000000,-1184.329507
1424.112743,-14508.036463,-536.266849,-0.000000
1424.113055,-16580.613101,-1762.019645,814.226536
1424.113366,-14137.933492,-229.828649,1628.453072
1424.113678,-10510.924376,1302.362347,1628.453072
1424.113989,-9548.656652,-766.095498,-962.267725
1424.114300,-7772.162391,-3217.601092,-2812.782580
1424.114612,-6439.791695,-2451.505594,-1554.432478
1424.114923,-6291.750507,383.047749,-0.000000
1424.115235,-10288.862594,689.485948,222.061783
1424.115546,-15692.365970,-1378.971896,1924.535449
1424.115858,-14804.118840,-2221.676944,3108.864956
1424.116169,-10510.924376,0.000000,3404.947333
1424.116480,-8512.368333,1532.190996,1776.494261
1424.116792,-8364.327145,0.000000,-740.205942
1424.117103,-5847.626942,-1302.362347,-1924.535449
1424.117415,-1554.432478,306.438199,-1480.411884
1424.117726,-2368.659014,2145.067394,-592.164754
1424.118037,-9252.574275,-459.657299,222.061783
1424.118349,-14211.954086,-2528.115143,3552.988522
1424.118660,-12657.521608,-1762.019645,4219.173869
1424.118972,-7698.141797,995.924147,3849.070898
1424.119283,-5625.565159,229.828649,1406.391290
1424.119595,-5625.565159,-1991.848295,-148.041188
1424.119906,-3330.926739,-4290.134789,-962.267725
1424.120217,444.123565,-1378.971896,-814.226536
1424.120529,-1480.411884,612.876398,-222.061783
1424.120840,-9400.615463,-383.047749,296.082377
1424.121152,-14211.954086,-2834.553343,3552.988522
1424.121463,-12213.398043,-3370.820191,4663.297435
1424.121774,-8808.450710,-995.924147,3997.112087
1424.122086,-7179.997637,-459.657299,1184.329507
1424.122397,-7698.141797,-1991.848295,-1998.556043
1424.122709,-4737.318029,-2451.505594,-2146.597232
1424.123020,-1406.391290,-2604.724693,-2368.659014
1424.123332,-2368.659014,-3600.648841,-222.061783
1424.123643,-8882.471304,-6588.421283,1110.308913
1424.123954,-15100.201217,-9346.365076,3182.885551
1424.124266,-15322.262999,-8120.612279,4219.173869
1424.124577,-12287.418637,-6205.373534,2960.823768
1424.124889,-11473.192101,-6435.202183,962.267725
1424.125200,-11251.130318,-8656.879127,-1110.308913
1424.125511,-9400.615463,-8656.879127,-3404.947333
1424.125823,-8438.347739,-5056.230287,-3923.091493
1424.126134,-8808.450710,-1685.410096,-2368.659014
1424.126446,-11621.233289,-995.924147,-0.000000
1424.126757,-14656.077652,-2911.162892,2516.700203
1424.127069,-13545.768739,-4366.744339,3552.988522
1424.127380,-12657.521608,-3907.087040,2072.576638
1424.127691,-11103.089130,-383.047749,888.247130
1424.128003,-9474.636058,229.828649,-962.267725
1424.128314,-7179.997637,-995.924147,-3849.070898
1424.128626,-6587.832884,-2987.772442,-4811.338623
1424.128937,-7624.121203,-2451.505594,-4293.194464
1424.129248,-10362.883188,-1149.143247,-2590.720797
1424.129560,-13101.645173,383.047749,-444.123565
1424.129871,-13767.830521,0.000000,2368.659014
1424.130183,-13915.871710,-2987.772442,2516.700203
1424.130494,-11251.130318,-3983.696590,4663.297435
1424.130806,-6217.729913,-2145.067394,3552.988522
1424.131117,-4071.132681,-1608.800546,1554.432478
1424.131428,-2220.617826,-3064.381992,962.267725
1424.131740,-1628.453072,-3370.820191,-1258.350101
1424.132051,-3627.009116,-2757.943793,-1702.473667
1424.132363,-6587.832884,-2451.505594,-740.205942
1424.132674,-9918.759623,-2604.724693,148.041188
1424.132985,-11473.192101,-1838.629195,1702.473667
1424.133297,-12509.480420,-1225.752797,2590.720797
1424.133608,-10362.883188,-1685.410096,3256.906145
1424.133920,-8882.471304,-1762.019645,2442.679609
1424.134231,-7179.997637,-1225.752797,2738.761985
1424.134543,-4811.338623,-1225.752797,2220.617826
1424.134854,-2812.782580,0.000000,1110.308913
1424.135165,-2368.659014,766.095498,-1036.288319
1424.135477,-2220.617826,-1149.143247,-1036.288319
1424.135788,-3256.906145,-4979.620737,-888.247130
1424.136100,-5255.462188,-5669.106685,-296.082377
1424.136411,-8586.388927,-5362.668486,-0.000000
1424.136722,-13915.871710,-3600.648841,-370.102971
1424.137034,-16654.633695,-1762.019645,888.247130
1424.137345,-16654.633695,-1072.533697,2368.659014
1424.137657,-15026.180623,-3217.601092,3627.009116
1424.137968,-13249.686362,-4213.525239,4367.215058
1424.138279,-10362.883188,-2834.553343,2590.720797
1424.138591,-5995.668130,-2528.115143,1036.288319
1424.138902,-2664.741391,-3217.601092,-518.144159
1424.139214,-2220.617826,-4443.353888,-1332.370696
1424.139525,-1628.453072,-5132.839837,-2294.638420
1424.139837,-4145.153275,-6052.154434,-3034.844362
1424.140148,-7994.224174,-6588.421283,-1702.473667
1424.140459,-12731.542202,-6052.154434,-518.144159
1424.140771,-16654.633695,-5286.058936,1480.411884
1424.141082,-18579.169144,-5669.106685,2738.761985
1424.141394,-18431.127956,-5822.325785,3997.112087
1424.141705,-15988.448347,-4979.620737,4367.215058
1424.142016,-11843.295072,-3447.429741,1406.391290
1424.142328,-8364.327145,-3983.696590,444.123565
1424.142639,-4071.132681,-4903.011187,-370.102971
1424.142951,-1332.370696,-6435.202183,-666.185348
1424.143262,-1702.473667,-6205.373534,-1998.556043
1424.143574,-5107.421000,-5132.839837,-2072.576638
1424.143885,-7994.224174,-3753.867940,-2368.659014
1424.144196,-10955.047942,-995.924147,-1184.329507
1424.144508,-14359.995275,-536.266849,-0.000000
1424.144819,-16062.468941,0.000000,1406.391290
1424.145131,-15470.304188,536.266849,1850.514855
1424.145442,-11843.295072,536.266849,1850.514855
1424.145753,-8068.244768,153.219100,518.144159
1424.146065,-4737.318029,0.000000,-1110.308913
1424.146376,-3478.967927,0.000000,-1628.453072
1424.146688,-3997.112087,-995.924147,-962.267725
1424.146999,-3552.988522,-2298.286494,-740.205942
1424.147311,-5995.668130,-1608.800546,-0.000000
1424.147622,-7624.121203,-3294.210641,592.164754
1424.147933,-8438.347739,-4749.792088,592.164754
1424.148245,-9030.512492,-3983.696590,740.205942
1424.148556,-9030.512492,-2604.724693,370.102971
1424.148868,-9178.553681,-3217.601092,1332.370696
1424.149179,-10584.944971,-3064.381992,1110.308913
1424.149490,-11399.171507,-2298.286494,1332.370696
1424.149802,-10584.944971,-2145.067394,1480.411884
1424.150113,-8882.471304,-3294.210641,1406.391290
1424.150425,-7179.997637,-3447.429741,1110.308913
1424.150736,-6143.709319,-3140.991542,-148.041188
1424.151048,-5773.606348,-3140.991542,-518.144159
1424.151359,-5625.565159,-3064.381992,-740.205942
1424.151670,-6513.812290,-2374.896044,-888.247130
1424.151982,-7476.080014,-2451.505594,-74.020594
1424.152293,-9474.636058,-3600.648841,444.123565
1424.152605,-10881.027347,-3753.867940,1480.411884
1424.152916,-11251.130318,-3294.210641,1998.556043
1424.153227,-11473.192101,-4519.963438,2072.576638
1424.153539,-11399.171507,-5209.449386,2072.576638
1424.153850,-11029.068536,-3753.867940,1554.432478
1424.154162,-10584.944971,-2374.896044,296.082377
1424.154473,-9548.656652,-995.924147,-74.020594
1424.154785,-8512.368333,0.000000,222.061783
1424.155096,-8290.306550,-153.219100,370.102971
1424.155407,-7698.141797,-1149.143247,740.205942
1424.155719,-7254.018232,-1685.410096,1332.370696
1424.156030,-7328.038826,-2528.115143,1850.514855
1424.156342,-8660.409521,-3753.867940,1850.514855
1424.156653,-10214.842000,-4673.182538,1702.473667
1424.156964,-10658.965565,-4979.620737,1554.432478
1424.157276,-11621.233289,-5209.449386,740.205942
1424.157587,-11547.212695,-5669.106685,1036.288319
1424.157898,-10510.924376,-5745.716235,888.247130
1424.158210,-9918.759623,-5822.325785,1110.308913
1424.158521,-8364.327145,-5669.106685,2072.576638
1424.158833,-7179.997637,-4903.011187,1554.432478
1424.159144,-6883.915261,-3370.820191,1554.432478
1424.159455,-6587.832884,-1762.019645,1554.432478
1424.159767,-6069.688724,-1225.752797,666.185348
1424.160078,-6069.688724,0.000000,888.247130
1424.160389,-7550.100608,0.000000,-148.041188
1424.160701,-8660.409521,-842.705048,-74.020594
1424.161012,-10066.800811,-1838.629195,-666.185348
1424.161324,-10288.862594,-2068.457845,-148.041188
1424.161635,-9844.739029,-2145.067394,-1036.288319
1424.161946,-7698.141797,-1685.410096,-518.144159
1424.162258,-8438.347739,-3600.648841,-1110.308913
1424.162569,-7698.141797,-3983.696590,-0.000000
1424.162880,-6217.729913,-2987.772442,-0.000000
1424.163192,-7476.080014,-3447.429741,296.082377
1424.163503,-8734.430116,-3907.087040,1924.535449
1424.163815,-11177.109724,-3983.696590,1332.370696
1424.164126,-10881.027347,-2528.115143,666.185348
1424.164437,-9844.739029,-919.314598,814.226536
1424.164749,-9622.677246,-1302.362347,444.123565
1424.165060,-9992.780217,-2451.505594,-0.000000
1424.165371,-9400.615463,-3064.381992,-444.123565
1424.165683,-9474.636058,-2451.505594,370.102971
1424.165994,-10288.862594,-1455.581446,666.185348
1424.166306,-12435.459826,-612.876398,1184.329507
1424.166617,-11325.150913,383.047749,2368.659014
1424.166928,-10658.965565,-1225.752797,1924.535449
1424.167240,-8142.265362,-1225.752797,2960.823768
1424.167551,-7402.059420,-459.657299,2368.659014
1424.167862,-8364.327145,-2145.067394,2516.700203
1424.168174,-8216.285956,-4136.915689,3478.967927
1424.168485,-8882.471304,-4136.915689,2812.782580
1424.168797,-8734.430116,-1225.752797,4737.318029
1424.169108,-11547.212695,-1608.800546,3775.050304
1424.169419,-11325.150913,-2451.505594,5255.462188
1424.169731,-8438.347739,-1685.410096,3701.029710
1424.170042,-7476.080014,536.266849,4589.276840
1424.170353,-6957.935855,612.876398,3849.070898
1424.170665,-7254.018232,-689.485948,3256.906145
1424.170976,-8512.368333,-536.266849,3627.009116
1424.171288,-6143.709319,842.705048,5033.400406
1424.171599,-8438.347739,153.219100,3849.070898
1424.171910,-10140.821405,689.485948,5477.523971
1424.172222,-9992.780217,612.876398,5847.626942
1424.172533,-8216.285956,-766.095498,5033.400406
1424.172844,-6587.832884,-383.047749,5477.523971
1424.173156,-7624.121203,76.609550,4145.153275
1424.173467,-7179.997637,1072.533697,4737.318029
1424.173779,-6291.750507,536.266849,3775.050304
1424.174090,-6291.750507,612.876398,5033.400406
1424.174401,-7920.203579,1838.629195,4515.256246
1424.174713,-9770.718434,1532.190996,5329.482782
1424.175024,-9474.636058,459.657299,5255.462188
1424.175335,-8216.285956,-612.876398,5107.421000
1424.175647,-7105.977043,-995.924147,4071.132681
1424.175958,-7550.100608,-1915.238745,4071.132681
1424.176270,-8364.327145,-2068.457845,4219.173869
1424.176581,-8068.244768,-1225.752797,4737.318029
1424.176892,-8290.306550,229.828649,5181.441594
1424.177204,-9474.636058,612.876398,4811.338623
1424.177515,-11103.089130,689.485948,5107.421000
1424.177826,-10436.903782,2528.115143,5033.400406
1424.178138,-8734.430116,2987.772442,4219.173869
1424.178449,-8290.306550,1838.629195,3923.091493
1424.178761,-6883.915261,995.924147,2886.803174
1424.179072,-6513.812290,919.314598,1998.556043
1424.179383,-4885.359217,1072.533697,2220.617826
1424.179695,-5773.606348,-229.828649,2146.597232
1424.180006,-8142.265362,-612.876398,2664.741391
1424.180317,-9844.739029,-536.266849,3552.988522
1424.180629,-11177.109724,-612.876398,4219.173869
1424.180940,-11621.233289,-842.705048,4663.297435
1424.181252,-11621.233289,0.000000,5107.421000
1424.181563,-11103.089130,-229.828649,3478.967927
1424.181874,-9474.636058,-229.828649,2368.659014
1424.182186,-7698.141797,306.438199,1258.350101
1424.182497,-7402.059420,383.047749,1480.411884
1424.182809,-8808.450710,-995.924147,2220.617826
1424.183120,-9844.739029,-2298.286494,2738.761985
1424.183431,-10510.924376,-1915.238745,3552.988522
1424.183743,-9918.759623,-2374.896044,3997.112087
1424.184054,-8882.471304,-2068.457845,3627.009116
1424.184365,-8364.327145,-1608.800546,2442.679609
1424.184677,-7254.018232,-306.438199,1480.411884
1424.184988,-6735.874072,1072.533697,-74.020594
1424.185300,-8216.285956,919.314598,-0.000000
1424.185611,-10066.800811,2221.676944,-0.000000
1424.185922,-11621.233289,2528.115143,1480.411884
1424.186234,-13323.706956,2221.676944,2368.659014
1424.186545,-12953.603985,1302.362347,3034.844362
1424.186856,-11843.295072,689.485948,3330.926739
1424.187168,-9622.677246,-229.828649,3701.029710
1424.187479,-6809.894666,-1532.190996,2590.720797
1424.187791,-4071.132681,-2834.553343,1850.514855
1424.188102,-3775.050304,-2757.943793,1184.329507
1424.188413,-5033.400406,-2145.067394,1406.391290
1424.188725,-8142.265362,-1532.190996,2368.659014
1424.189036,-11547.212695,-229.828649,3923.091493
1424.189347,-14137.933492,459.657299,5255.462188
1424.189659,-15174.221811,459.657299,6661.853478
1424.189970,-13101.645173,-612.876398,6069.688724
1424.190282,-9696.697840,-229.828649,4663.297435
1424.190593,-5403.503377,0.000000,3404.947333
1424.190904,-2812.782580,153.219100,1332.370696
1424.191216,-1628.453072,383.047749,592.164754
1424.191527,-2664.741391,612.876398,962.267725
1424.191838,-6217.729913,612.876398,2368.659014
1424.192150,-10510.924376,1072.533697,4293.194464
1424.192461,-13693.809927,1072.533697,5329.482782
1424.192773,-13249.686362,1455.581446,6217.729913
1424.193084,-10584.944971,229.828649,5033.400406
1424.193395,-8364.327145,-689.485948,4071.132681
1424.193707,-6143.709319,-536.266849,3404.947333
1424.194018,-5403.503377,0.000000,3182.885551
1424.194329,-6883.915261,153.219100,4885.359217
1424.194641,-9400.615463,0.000000,6143.709319
1424.194952,-11103.089130,536.266849,7920.203579
1424.195264,-11177.109724,-766.095498,7920.203579
1424.195575,-10066.800811,0.000000,5921.647536
1424.195886,-7328.038826,1685.410096,3849.070898
1424.196198,-5625.565159,2528.115143,1776.494261
1424.196509,-5181.441594,2911.162892,592.164754
1424.196820,-6365.771101,2068.457845,888.247130
1424.197132,-8882.471304,2145.067394,2516.700203
1424.197443,-11399.171507,1072.533697,4515.256246
1424.197755,-12805.562797,-536.266849,6883.915261
1424.198066,-14211.954086,-2374.896044,8142.265362
1424.198377,-12805.562797,-2834.553343,9474.636058
1424.198689,-10510.924376,-2298.286494,8586.388927
1424.199000,-7772.162391,-1608.800546,6957.935855
1424.199311,-4737.318029,-459.657299,4737.318029
1424.199623,-2664.741391,1072.533697,2220.617826
1424.199934,-2220.617826,1762.019645,962.267725
1424.200246,-4589.276840,2604.724693,962.267725
1424.200557,-7624.121203,2451.505594,2442.679609
1424.200868,-9918.759623,995.924147,3997.112087
1424.201180,-11917.315666,-383.047749,5033.400406
1424.201491,-12657.521608,-2374.896044,5699.585753
1424.201802,-12361.439231,-3217.601092,5551.544565
1424.202114,-11251.130318,-1915.238745,4959.379811
1424.202425,-9622.677246,-842.705048,4515.256246
1424.202737,-9178.553681,0.000000,4441.235652
1424.203048,-9252.574275,0.000000,4441.235652
1424.203359,-7698.141797,689.485948,4959.379811
1424.203671,-4737.318029,1302.362347,3849.070898
1424.203982,-2368.659014,1991.848295,2294.638420
1424.204293,-1332.370696,1532.190996,370.102971
1424.204605,-1776.494261,995.924147,-1406.391290
1424.204916,-4737.318029,842.705048,-1702.473667
1424.205228,-9770.718434,306.438199,444.123565
1424.205539,-16062.468941,536.266849,3478.967927
1424.205850,-20133.601622,-1149.143247,6291.750507
1424.206162,-20281.642811,-2145.067394,7031.956449
1424.206473,-14952.160028,-2221.676944,6069.688724
1424.206784,-8586.388927,-995.924147,5329.482782
1424.207096,-4663.297435,-153.219100,3849.070898
1424.207407,-2442.679609,-383.047749,1850.514855
1424.207719,-1480.411884,-766.095498,-592.164754
1424.208030,-1554.432478,76.609550,-2368.659014
1424.208341,-3404.947333,1608.800546,-2072.576638
1424.208653,-7402.059420,612.876398,-1702.473667
1424.208964,-12657.521608,-229.828649,814.226536
1424.209275,-18505.148550,-1915.238745,3775.050304
1424.209587,-21391.951724,-1915.238745,7254.018232
1424.209898,-20873.807564,-1608.800546,9030.512492
1424.210210,-18061.024985,-1302.362347,8142.265362
1424.210521,-11399.171507,-1455.581446,6291.750507
1424.210832,-2812.782580,-1302.362347,1258.350101
1424.211144,4515.256246,919.314598,-2442.679609
1424.211455,7179.997637,2987.772442,-5921.647536
1424.211767,4219.173869,3140.991542,-4589.276840
1424.212078,-4811.338623,2298.286494,-2368.659014
1424.212389,-14063.912898,1915.238745,1258.350101
1424.212701,-21984.116477,1608.800546,4885.359217
1424.213012,-23686.590144,1149.143247,7179.997637
1424.213323,-18949.272115,-306.438199,7328.038826
1424.213635,-12065.356855,-2451.505594,5255.462188
1424.213946,-5921.647536,-3753.867940,2368.659014
1424.214258,-518.144159,-2221.676944,-444.123565
1424.214569,2812.782580,459.657299,-1480.411884
1424.214880,1554.432478,1838.629195,-1184.329507
1424.215192,-3997.112087,919.314598,814.226536
1424.215503,-10732.986159,0.000000,1850.514855
1424.215814,-13989.892304,1225.752797,3034.844362
1424.216126,-13027.624579,2681.334243,3182.885551
1424.216437,-11473.192101,2221.676944,2072.576638
1424.216749,-10066.800811,-229.828649,962.267725
1424.217060,-9252.574275,-2451.505594,518.144159
1424.217371,-7920.203579,-2451.505594,1628.453072
1424.217683,-8216.285956,-766.095498,3034.844362
1424.217994,-9696.697840,383.047749,4071.132681
1424.218305,-11103.089130,76.609550,4441.235652
1424.218617,-10066.800811,-306.438199,4145.153275
1424.218928,-6883.915261,383.047749,2294.638420
1424.219240,-3775.050304,1608.800546,-740.205942
1424.219551,-2072.576638,2451.505594,-3997.112087
1424.219862,-4959.379811,459.657299,-4811.338623
1424.220174,-5699.585753,-766.095498,-3552.988522
1424.220485,-7328.038826,-1685.410096,-1554.432478
1424.220796,-13915.871710,-2451.505594,2368.659014
1424.221108,-20281.642811,-3753.867940,7179.997637
1424.221419,-23686.590144,-3600.648841,9770.718434
1424.221731,-20355.663405,-1991.848295,9918.759623
1424.222042,-14285.974681,-1225.752797,7105.977043
1424.222353,-7031.956449,-919.314598,1406.391290
1424.222665,2072.576638,1225.752797,-4737.318029
1424.222976,8216.285956,4136.915689,-9400.615463
1424.223287,8068.244768,5209.449386,-9548.656652
1424.223599,-592.164754,5286.058936,-6217.729913
1424.223910,-13101.645173,2757.943793,-74.020594
1424.224222,-22798.343014,612.876398,7031.956449
1424.224533,-26203.290347,-1608.800546,11399.171507
1424.224844,-22798.343014,-3370.820191,10140.821405
1424.225156,-14063.912898,-3983.696590,4811.338623
1424.225467,-1776.494261,-3294.210641,-2146.597232
1424.225778,7254.018232,-1455.581446,-5181.441594
1424.226090,7254.018232,536.266849,-5329.482782
1424.226401,-1554.432478,1838.629195,-3701.029710
1424.226713,-12065.356855,612.876398,-518.144159
1424.227024,-15988.448347,1455.581446,3627.009116
1424.227335,-13989.892304,1378.971896,4737.318029
1424.227647,-9252.574275,459.657299,1110.308913
1424.227958,-5921.647536,-1455.581446,-2886.803174
1424.228269,-4219.173869,-2681.334243,-4219.173869
1424.228581,-4441.235652,-2681.334243,-3701.029710
1424.228892,-9178.553681,153.219100,-518.144159
1424.229204,-16654.633695,76.609550,2516.700203
1424.229515,-19467.416275,-2145.067394,4663.297435
1424.229826,-15544.324782,-766.095498,4367.215058
1424.230138,-6513.812290,995.924147,666.185348
1424.230449,-222.061783,1991.848295,-4663.297435
1424.230760,962.267725,2145.067394,-8216.285956
1424.231072,-222.061783,1532.190996,-8216.285956
1424.231383,-5107.421000,1302.362347,-7254.018232
1424.231695,-12805.562797,153.219100,-2812.782580
1424.232006,-20133.601622,-995.924147,962.267725
1424.232317,-21910.095883,-2221.676944,3775.050304
1424.232629,-18727.210333,-3600.648841,5181.441594
1424.232940,-13841.851115,-4826.401637,4885.359217
1424.233251,-10214.842000,-4979.620737,1776.494261
1424.233563,-7254.018232,-3907.087040,-592.164754
1424.233874,-4145.153275,0.000000,-3182.885551
1424.234186,-3108.864956,2757.943793,-5107.421000
1424.234497,-5033.400406,3907.087040,-5329.482782
1424.234808,-7920.203579,3907.087040,-4219.173869
1424.235120,-9770.718434,3447.429741,-2146.597232
1424.235431,-10140.821405,1608.800546,1702.473667
1424.235742,-11177.109724,-1072.533697,2072.576638
1424.236054,-11917.315666,-3064.381992,2516.700203
1424.236365,-11843.295072,-3830.477490,2220.617826
1424.236677,-10214.842000,-3447.429741,1628.453072
1424.236988,-8438.347739,0.000000,1332.370696
1424.237299,-8512.368333,919.314598,962.267725
1424.237611,-9104.533087,689.485948,296.082377
1424.237922,-7328.038826,2068.457845,1036.288319
1424.238234,-4441.235652,2145.067394,-0.000000
1424.238545,-2590.720797,1378.971896,-666.185348
1424.238856,-3849.070898,-536.266849,-888.247130
1424.239168,-5551.544565,-995.924147,-1998.556043
1424.239479,-6143.709319,0.000000,-1184.329507
1424.239790,-8808.450710,1685.410096,222.061783
1424.240102,-13767.830521,1455.581446,3182.885551
1424.240413,-17616.901420,0.000000,5773.606348
1424.240725,-16728.654289,-2145.067394,6365.771101
1424.241036,-11621.233289,-459.657299,5033.400406
1424.241347,-6439.791695,459.657299,1110.308913
1424.241659,-1554.432478,766.095498,-2368.659014
1424.241970,888.247130,1455.581446,-5255.462188
1424.242281,0.000000,1532.190996,-4959.379811
1424.242593,-5403.503377,1915.238745,-2812.782580
1424.242904,-13101.645173,842.705048,592.164754
1424.243216,-17987.004391,306.438199,4959.379811
1424.243527,-18949.272115,-2145.067394,7105.977043
1424.243838,-14730.098246,-4136.915689,8216.285956
1424.244150,-9770.718434,-5286.058936,5847.626942
1424.244461,-5403.503377,-5515.887586,1554.432478
1424.244772,-740.205942,-3064.381992,-2294.638420
1424.245084,-1184.329507,919.314598,-1998.556043
1424.245395,-6439.791695,3677.258390,-1258.350101
1424.245707,-13767.830521,3524.039291,-0.000000
1424.246018,-17246.798449,2911.162892,2220.617826
1424.246329,-14656.077652,2451.505594,3256.906145
1424.246641,-8290.306550,1532.190996,814.226536
1424.246952,-3997.112087,153.219100,-962.267725
1424.247263,-1628.453072,-1838.629195,-2442.679609
1424.247575,-2220.617826,-3447.429741,-2220.617826
1424.247886,-5699.585753,-2757.943793,592.164754
1424.248198,-12583.501014,-1302.362347,3034.844362
1424.248509,-17320.819043,-612.876398,4737.318029
1424.248820,-17542.880825,-306.438199,5107.421000
1424.249132,-12731.542202,-459.657299,2368.659014
1424.249443,-5699.585753,536.266849,-1628.453072
1424.249754,-1702.473667,1838.629195,-4811.338623
1424.250066,0.000000,2451.505594,-5329.482782
1424.250377,-2072.576638,1532.190996,-4663.297435
1424.250689,-7402.059420,0.000000,-2738.761985
1424.251000,-13619.789333,76.609550,444.123565
1424.251311,-17098.757260,0.000000,4293.194464
1424.251623,-15692.365970,0.000000,4737.318029
1424.251934,-11991.336260,-612.876398,2516.700203
1424.252245,-8882.471304,-1302.362347,-444.123565
1424.252557,-6143.709319,0.000000,-2516.700203
1424.252868,-4811.338623,919.314598,-3849.070898
1424.253180,-4589.276840,3064.381992,-3552.988522
1424.253491,-8290.306550,2451.505594,-3330.926739
1424.253802,-11103.089130,995.924147,-1998.556043
1424.254114,-11029.068536,919.314598,-518.144159
1424.254425,-8660.409521,229.828649,1554.432478
1424.254736,-7772.162391,-1378.971896,740.205942
1424.255048,-8660.409521,-3830.477490,592.164754
1424.255356,-9992.780217,-3830.477490,-0.000000
1424.255667,-9992.780217,-1838.629195,444.123565
1424.255979,-10362.883188,919.314598,148.041188
1424.256290,-11917.315666,1302.362347,-148.041188
1424.256601,-12657.521608,689.485948,-444.123565
1424.256913,-10658.965565,1225.752797,-814.226536
1424.257224,-7105.977043,1991.848295,-962.267725
1424.257536,-5107.421000,1302.362347,-2072.576638
1424.257847,-5329.482782,-689.485948,-2442.679609
1424.258158,-5699.585753,-1838.629195,-2812.782580
1424.258470,-6069.688724,-1455.581446,-1480.411884
1424.258781,-9400.615463,766.095498,370.102971
1424.259093,-14582.057057,-229.828649,2590.720797
1424.259404,-17246.798449,-1455.581446,5403.503377
1424.259716,-14582.057057,-2451.505594,6069.688724
1424.260027,-10658.965565,-2757.943793,4293.194464
1424.260338,-7254.018232,-1838.629195,888.247130
1424.260650,-3627.009116,-536.266849,-2442.679609
1424.260961,-1258.350101,1072.533697,-3478.967927
1424.261273,-2220.617826,1532.190996,-2294.638420
1424.261584,-7994.224174,1762.019645,-0.000000
1424.261895,-14137.933492,842.705048,2960.823768
1424.262207,-16358.551318,76.609550,6291.750507
1424.262518,-13323.706956,0.000000,6735.874072
1424.262830,-9030.512492,-1225.752797,4737.318029
1424.263141,-5403.503377,-1225.752797,1406.391290
1424.263452,-3108.864956,-842.705048,-814.226536
1424.263764,-2812.782580,612.876398,-1258.350101
1424.264075,-6513.812290,2451.505594,296.082377
1424.264387,-11399.171507,3677.258390,2146.597232
1424.264698,-13619.789333,2068.457845,3552.988522
1424.265009,-10510.924376,-153.219100,3627.009116
1424.265321,-5255.462188,-383.047749,2590.720797
1424.265632,-3182.885551,306.438199,1702.473667
1424.265944,-4071.132681,-612.876398,592.164754
1424.266255,-6809.894666,-995.924147,1184.329507
1424.266567,-8290.306550,-306.438199,2442.679609
1424.266878,-10510.924376,229.828649,3404.947333
1424.267189,-12657.521608,536.266849,3627.009116
1424.267501,-13101.645173,842.705048,2960.823768
1424.267812,-11103.089130,2145.067394,1998.556043
1424.268124,-7105.977043,1455.581446,740.205942
1424.268435,-5699.585753,383.047749,-740.205942
1424.268746,-6217.729913,-229.828649,-962.267725
1424.269058,-7328.038826,383.047749,-444.123565
1424.269369,-8068.244768,766.095498,-518.144159
1424.269681,-9770.718434,1072.533697,444.123565
1424.269992,-12361.439231,-153.219100,2072.576638
1424.270303,-11621.233289,-1608.800546,2812.782580
1424.270615,-9474.636058,-2451.505594,3404.947333
1424.270926,-7994.224174,-3677.258390,2368.659014
1424.271238,-8290.306550,-3447.429741,814.226536
1424.271549,-8364.327145,-1685.410096,-444.123565
1424.271860,-7179.997637,153.219100,-666.185348
1424.272172,-7994.224174,1378.971896,-2072.576638
1424.272483,-11103.089130,766.095498,-1184.329507
1424.272795,-13323.706956,1915.238745,444.123565
1424.273106,-10881.027347,1532.190996,1480.411884
1424.273418,-7994.224174,383.047749,1998.556043
1424.273729,-7105.977043,-229.828649,148.041188
1424.274040,-7698.141797,-995.924147,-1184.329507
1424.274352,-6809.894666,-1302.362347,-666.185348
1424.274663,-6883.915261,0.000000,-444.123565
1424.274975,-10214.842000,306.438199,296.082377
1424.275286,-13545.768739,306.438199,888.247130
1424.275597,-13841.851115,-612.876398,1628.453072
1424.275909,-9474.636058,-1302.362347,1776.494261
1424.276220,-5551.544565,-1302.362347,-148.041188
1424.276532,-3997.112087,-1378.971896,-2960.823768
1424.276843,-3701.029710,-766.095498,-3849.070898
1424.277154,-4737.318029,306.438199,-2368.659014
1424.277466,-8216.285956,1225.752797,-888.247130
1424.277777,-13841.851115,1838.629195,1184.329507
1424.278089,-17616.901420,995.924147,1702.473667
1424.278400,-15766.386565,1378.971896,2590.720797
1424.278712,-10362.883188,1991.848295,1406.391290
1424.279023,-5551.544565,1302.362347,-1924.535449
1424.279334,-4663.297435,766.095498,-4737.318029
1424.279646,-5107.421000,153.219100,-3627.009116
1424.279957,-6957.935855,919.314598,-2886.803174
1424.280269,-9474.636058,995.924147,-518.144159
1424.280580,-12731.542202,689.485948,1110.308913
1424.280891,-14285.974681,-1532.190996,1850.514855
1424.281203,-10955.047942,-1991.848295,2368.659014
1424.281514,-6661.853478,-1838.629195,1850.514855
1424.281826,-4959.379811,-2911.162892,-222.061783
1424.282137,-6291.750507,-2911.162892,-814.226536
1424.282448,-8438.347739,-1838.629195,-1036.288319
1424.282760,-9844.739029,76.609550,222.061783
1424.283071,-11917.315666,1072.533697,1554.432478
1424.283383,-13915.871710,612.876398,2072.576638
1424.283694,-12583.501014,0.000000,1924.535449
1424.284005,-8142.265362,459.657299,1110.308913
1424.284317,-5551.544565,1991.848295,1332.370696
1424.284628,-7254.018232,383.047749,592.164754
1424.284940,-8956.491898,-612.876398,1332.370696
1424.285251,-8438.347739,-306.438199,1702.473667
1424.285563,-8216.285956,229.828649,2368.659014
1424.285874,-9178.553681,1302.362347,2812.782580
1424.286185,-10955.047942,766.095498,3256.906145
1424.286497,-10732.986159,-766.095498,4219.173869
1424.286808,-8142.265362,-1149.143247,4219.173869
1424.287120,-6661.853478,-1991.848295,3034.844362
1424.287431,-6661.853478,-1225.752797,1628.453072
1424.287742,-5847.626942,-1378.971896,1332.370696
1424.288054,-5107.421000,-995.924147,1036.288319
1424.288365,-6883.915261,766.095498,1776.494261
1424.288677,-10140.821405,1302.362347,2664.741391
1424.288988,-12583.501014,612.876398,4441.235652
1424.289299,-12065.356855,306.438199,5477.523971
1424.289611,-9104.533087,0.000000,4071.132681
1424.289922,-6291.750507,153.219100,1924.535449
1424.290234,-4811.338623,-153.219100,-444.123565
1424.290545,-3627.009116,1762.019645,-666.185348
1424.290856,-3849.070898,2604.724693,-222.061783
1424.291168,-7254.018232,1991.848295,-0.000000
1424.291479,-11843.295072,2221.676944,1850.514855
1424.291791,-13471.748144,1225.752797,3034.844362
1424.292102,-10214.842000,612.876398,3552.988522
1424.292414,-7254.018232,76.609550,2072.576638
1424.292725,-5921.647536,-1378.971896,-148.041188
1424.293036,-4737.318029,-1915.238745,-2220.617826
1424.293348,-4219.173869,-383.047749,-1998.556043
1424.293659,-5625.565159,842.705048,-1406.391290
1424.293971,-10955.047942,153.219100,-592.164754
1424.294282,-15766.386565,-1149.143247,740.205942
1424.294593,-15840.407159,-1455.581446,1332.370696
1424.294905,-11029.068536,-1302.362347,148.041188
1424.295216,-7105.977043,-689.485948,-2146.597232
1424.295528,-5995.668130,-919.314598,-3923.091493
1424.295839,-6957.935855,-1685.410096,-4589.276840
1424.296150,-8660.409521,-459.657299,-3182.885551
1424.296462,-12287.418637,-306.438199,-1702.473667
1424.296773,-15914.427753,536.266849,-1110.308913
1424.297085,-15914.427753,-153.219100,148.041188
1424.297396,-11991.336260,-1378.971896,-888.247130
1424.297708,-7772.162391,-919.314598,-2146.597232
1424.298019,-6069.688724,-995.924147,-3775.050304
1424.298330,-6143.709319,-1685.410096,-4293.194464
1424.298642,-8290.306550,-919.314598,-3775.050304
1424.298953,-9178.553681,-153.219100,-2294.638420
1424.299265,-11695.253884,306.438199,-1776.494261
1424.299576,-13545.768739,0.000000,-740.205942
1424.299887,-12657.521608,-153.219100,222.061783
1424.300199,-9770.718434,-229.828649,-1110.308913
1424.300510,-7402.059420,-383.047749,-1406.391290
1424.300822,-5995.668130,-612.876398,-2368.659014
1424.301133,-7254.018232,-1455.581446,-2220.617826
1424.301444,-7476.080014,0.000000,-962.267725
1424.301756,-7698.141797,1225.752797,-1258.350101
1424.302067,-9844.739029,2145.067394,-444.123565
1424.302379,-12361.439231,1532.190996,666.185348
1424.302690,-11991.336260,842.705048,2516.700203
1424.303001,-8956.491898,995.924147,2516.700203
1424.303313,-7550.100608,459.657299,1850.514855
1424.303624,-6883.915261,-459.657299,1406.391290
1424.303936,-4811.338623,-2221.676944,-74.020594
1424.304247,-3330.926739,-1149.143247,-74.020594
1424.304559,-3478.967927,306.438199,222.061783
1424.304870,-8882.471304,689.485948,2146.597232
1424.305181,-13989.892304,0.000000,4145.153275
1424.305493,-14285.974681,-306.438199,5551.544565
1424.305804,-11325.150913,-612.876398,5403.503377
1424.306116,-7846.182985,-153.219100,3849.070898
1424.306427,-6587.832884,-689.485948,1554.432478
1424.306738,-4663.297435,-153.219100,-74.020594
1424.307050,-3404.947333,306.438199,518.144159
1424.307361,-6069.688724,1072.533697,1998.556043
1424.307673,-11843.295072,1149.143247,3701.029710
1424.307984,-14952.160028,229.828649,5181.441594
1424.308295,-12953.603985,-76.609550,5995.668130
1424.308607,-9104.533087,-229.828649,3701.029710
1424.308918,-6069.688724,0.000000,1702.473667
1424.309230,-4145.153275,-306.438199,-148.041188
1424.309541,-3849.070898,-919.314598,-1110.308913
1424.309852,-4367.215058,536.266849,-0.000000
1424.310164,-7698.141797,1838.629195,222.061783
1424.310475,-12731.542202,1532.190996,1258.350101
1424.310787,-13915.871710,459.657299,3478.967927
1424.311098,-10955.047942,229.828649,3108.864956
1424.311410,-7328.038826,-766.095498,1776.494261
1424.311721,-6291.750507,-1378.971896,-444.123565
1424.312032,-6143.709319,-1149.143247,-2368.659014
1424.312344,-5477.523971,0.000000,-2294.638420
1424.312655,-7105.977043,1455.581446,-1406.391290
1424.312967,-11991.336260,1685.410096,-0.000000
1424.313278,-16062.468941,306.438199,1702.473667
1424.313589,-14359.995275,-459.657299,1776.494261
1424.313901,-9844.739029,-612.876398,1036.288319
1424.314212,-6291.750507,-1225.752797,-888.247130
1424.314524,-5921.647536,-1991.848295,-2146.597232
1424.314835,-6735.874072,-2374.896044,-2960.823768
1424.315146,-7105.977043,-995.924147,-2294.638420
1424.315458,-9178.553681,842.705048,-1850.514855
1424.315769,-12657.521608,1455.581446,-592.164754
1424.316081,-13989.892304,459.657299,444.123565
1424.316392,-11769.274478,0.000000,222.061783
1424.316704,-8364.327145,-383.047749,-518.144159
1424.317015,-6957.935855,-383.047749,-2146.597232
1424.317326,-7328.038826,-306.438199,-3256.906145
1424.317638,-7550.100608,-153.219100,-2812.782580
1424.317949,-6883.915261,459.657299,-2664.741391
1424.318261,-8882.471304,612.876398,-2220.617826
1424.318572,-11621.233289,995.924147,-296.082377
1424.318883,-12361.439231,-229.828649,592.164754
1424.319195,-11251.130318,-383.047749,1036.288319
1424.319506,-9252.574275,-842.705048,592.164754
1424.319818,-8438.347739,-1762.019645,-1184.329507
1424.320129,-6735.874072,-1455.581446,-2072.576638
1424.320440,-5329.482782,229.828649,-3034.844362
1424.320752,-5329.482782,2528.115143,-2146.597232
1424.321063,-9326.594869,1455.581446,-1924.535449
1424.321375,-12139.377449,1608.800546,296.082377
1424.321686,-13101.645173,766.095498,1850.514855
1424.321997,-11399.171507,229.828649,3034.844362
1424.322309,-9622.677246,-153.219100,1776.494261
1424.322620,-9104.533087,76.609550,148.041188
1424.322932,-7846.182985,0.000000,-0.000000
1424.323243,-5699.585753,-766.095498,-148.041188
1424.323555,-4071.132681,-919.314598,-1036.288319
1424.323866,-7550.100608,-612.876398,-962.267725
1424.324177,-11325.150913,689.485948,3108.864956
1424.324489,-13767.830521,-919.314598,4515.256246
1424.324800,-13027.624579,-1608.800546,4811.338623
1424.325112,-11177.109724,-2911.162892,3108.864956
1424.325423,-8734.430116,-3294.210641,2368.659014
1424.325734,-4811.338623,-2374.896044,1332.370696
1424.326046,-3997.112087,-383.047749,-370.102971
1424.326357,-6143.709319,919.314598,-0.000000
1424.326669,-10807.006753,0.000000,1628.453072
1424.326980,-12879.583391,0.000000,4515.256246
1424.327291,-11695.253884,919.314598,5551.544565
1424.327603,-9622.677246,153.219100,4885.359217
1424.327914,-7846.182985,-766.095498,2442.679609
1424.328226,-5625.565159,153.219100,518.144159
1424.328537,-2664.741391,2451.505594,370.102971
1424.328848,-2590.720797,1915.238745,370.102971
1424.329160,-8068.244768,842.705048,1702.473667
1424.329471,-12435.459826,306.438199,2368.659014
1424.329783,-13323.706956,919.314598,3997.112087
1424.330094,-10510.924376,1225.752797,4515.256246
1424.330406,-7698.141797,689.485948,2442.679609
1424.330717,-6513.812290,0.000000,740.205942
1424.331028,-5255.462188,-1455.581446,222.061783
1424.331340,-5477.523971,-229.828649,-0.000000
1424.331651,-5773.606348,1991.848295,222.061783
1424.331963,-8142.265362,2451.505594,-0.000000
1424.332274,-10436.903782,689.485948,296.082377
1424.332585,-10510.924376,0.000000,1406.391290
1424.332897,-9474.636058,306.438199,2072.576638
1424.333208,-8956.491898,0.000000,740.205942
1424.333520,-9104.533087,-383.047749,-296.082377
1424.333831,-7994.224174,-1532.190996,-148.041188
1424.334142,-6513.812290,-1378.971896,-740.205942
1424.334454,-7994.224174,-612.876398,-1850.514855
1424.334765,-11103.089130,919.314598,-962.267725
1424.335077,-12953.603985,995.924147,222.061783
1424.335388,-11843.295072,153.219100,1332.370696
1424.335700,-9326.594869,229.828649,962.267725
1424.336011,-8808.450710,-1762.019645,-370.102971
1424.336322,-7772.162391,-2451.505594,-1110.308913
1424.336634,-7179.997637,-919.314598,-1702.473667
1424.336945,-7328.038826,76.609550,-1850.514855
1424.337257,-9918.759623,383.047749,-1776.494261
1424.337568,-13545.768739,0.000000,-296.082377
1424.337879,-14434.015869,-1149.143247,962.267725
1424.338191,-12065.356855,-842.705048,1184.329507
1424.338502,-9918.759623,-1378.971896,-666.185348
1424.338814,-8142.265362,-766.095498,-2368.659014
1424.339125,-5847.626942,-153.219100,-2886.803174
1424.339436,-5329.482782,229.828649,-2664.741391
1424.339748,-7994.224174,1149.143247,-1110.308913
1424.340059,-12287.418637,1685.410096,-0.000000
1424.340371,-14952.160028,1378.971896,2294.638420
1424.340682,-12953.603985,1302.362347,3478.967927
1424.340993,-8660.409521,0.000000,2516.700203
1424.341305,-5847.626942,-1225.752797,-74.020594
1424.341616,-4293.194464,-1685.410096,-1850.514855
1424.341928,-3923.091493,-1072.533697,-1702.473667
1424.342239,-6217.729913,-536.266849,-148.041188
1424.342551,-10288.862594,766.095498,814.226536
1424.342862,-13915.871710,766.095498,2220.617826
1424.343173,-13841.851115,0.000000,3552.988522
1424.343485,-10732.986159,-306.438199,3256.906145
1424.343796,-6587.832884,-306.438199,1258.350101
1424.344108,-4293.194464,-689.485948,-666.185348
1424.344419,-3997.112087,-1149.143247,-962.267725
1424.344730,-4737.318029,-766.095498,-0.000000
1424.345042,-7698.141797,0.000000,1480.411884
1424.345353,-11251.130318,766.095498,2590.720797
1424.345665,-15396.283594,919.314598,3775.050304
1424.345976,-15100.201217,1302.362347,5625.565159
1424.346287,-10436.903782,1378.971896,4811.338623
1424.346599,-6291.750507,-612.876398,2886.803174
1424.346910,-3330.926739,-2298.286494,-0.000000
1424.347222,-1554.432478,-995.924147,-1554.432478
1424.347533,-2516.700203,1838.629195,-370.102971
1424.347844,-6291.750507,1915.238745,888.247130
1424.348156,-12953.603985,689.485948,2368.659014
1424.348467,-16358.551318,-459.657299,4811.338623
1424.348779,-14285.974681,-842.705048,6217.729913
1424.349090,-8882.471304,-1149.143247,3404.947333
1424.349402,-5033.400406,-1455.581446,-74.020594
1424.349713,-4071.132681,-1455.581446,-2886.803174
1424.350024,-2738.761985,-1455.581446,-3256.906145
1424.350336,-4811.338623,0.000000,-2146.597232
1424.350647,-9104.533087,612.876398,-888.247130
1424.350959,-14878.139434,1378.971896,1332.370696
1424.351270,-17024.736666,1072.533697,3997.112087
1424.351581,-15026.180623,459.657299,4145.153275
1424.351893,-10510.924376,383.047749,3034.844362
1424.352204,-6809.894666,-536.266849,-444.123565
1424.352516,-4145.153275,-995.924147,-2664.741391
1424.352827,-2294.638420,459.657299,-4071.132681
1424.353138,-4441.235652,1762.019645,-3552.988522
1424.353450,-9474.636058,2681.334243,-2368.659014
1424.353761,-14285.974681,1762.019645,1258.350101
1424.354073,-16802.674883,76.609550,3701.029710
1424.354384,-14878.139434,-1378.971896,3923.091493
1424.354696,-11103.089130,-1532.190996,1702.473667
1424.355007,-7105.977043,-995.924147,-1480.411884
1424.355318,-3849.070898,-1149.143247,-3182.885551
1424.355630,-2294.638420,-1532.190996,-3775.050304
1424.355941,-5477.523971,-1225.752797,-1702.473667
1424.356253,-11547.212695,-919.314598,592.164754
1424.356564,-15248.242405,-842.705048,3997.112087
1424.356875,-14656.077652,-995.924147,5033.400406
1424.357187,-11251.130318,-1302.362347,3849.070898
1424.357498,-7550.100608,-2298.286494,666.185348
1424.357810,-4219.173869,-1685.410096,-1776.494261
1424.358121,-1776.494261,76.609550,-3775.050304
1424.358432,-3404.947333,3064.381992,-4145.153275
1424.358744,-7105.977043,3907.087040,-2072.576638
1424.359055,-12583.501014,3294.210641,-518.144159
1424.359367,-15100.201217,1225.752797,2960.823768
1424.359678,-13101.645173,1302.362347,3627.009116
1424.359990,-8734.430116,1608.800546,1850.514855
1424.360301,-5625.565159,842.705048,-1036.288319
1424.360612,-4515.256246,-536.266849,-3182.885551
1424.360924,-3775.050304,-689.485948,-2812.782580
1424.361235,-5847.626942,-153.219100,-1776.494261
1424.361547,-10807.006753,153.219100,-296.082377
1424.361858,-15248.242405,-536.266849,1702.473667
1424.362169,-15840.407159,-1149.143247,3330.926739
1424.362481,-11473.192101,-919.314598,3923.091493
1424.362792,-7994.224174,-1762.019645,1776.494261
1424.363104,-6957.935855,-2834.553343,222.061783
1424.363415,-6291.750507,-1838.629195,-1406.391290
1424.363726,-5847.626942,0.000000,-1776.494261
1424.364038,-7179.997637,1378.971896,-1110.308913
1424.364349,-11399.171507,1838.629195,-370.102971
1424.364661,-14582.057057,919.314598,1924.535449
1424.364972,-13545.768739,1149.143247,3108.864956
1424.365284,-11399.171507,459.657299,2960.823768
1424.365595,-8956.491898,153.219100,2368.659014
1424.365906,-7328.038826,-1532.190996,666.185348
1424.366218,-3478.967927,-2528.115143,-1554.432478
1424.366529,-1332.370696,-1608.800546,-2368.659014
1424.366841,-4367.215058,76.609550,-1036.288319
1424.367152,-11399.171507,536.266849,1628.453072
1424.367463,-15914.427753,-612.876398,3923.091493
1424.367775,-15840.407159,-2451.505594,5551.544565
1424.368086,-11103.089130,-2757.943793,5107.421000
1424.368398,-6661.853478,-2451.505594,2072.576638
1424.368709,-4071.132681,-1608.800546,-962.267725
1424.369021,-2442.679609,-689.485948,-2664.741391
1424.369332,-2590.720797,842.705048,-3478.967927
1424.369643,-7031.956449,2911.162892,-2220.617826
1424.369955,-13397.727550,3140.991542,888.247130
1424.370266,-16950.716072,2374.896044,4293.194464
1424.370578,-15100.201217,1302.362347,4071.132681
1424.370889,-9622.677246,1685.410096,2368.659014
1424.371200,-4737.318029,1072.533697,-888.247130
1424.371512,-1036.288319,153.219100,-2738.761985
1424.371823,0.000000,0.000000,-3701.029710
1424.372135,-2960.823768,-229.828649,-3034.844362
1424.372446,-10066.800811,919.314598,-592.164754
1424.372758,-15840.407159,459.657299,2812.782580
1424.373069,-15840.407159,306.438199,4071.132681
1424.373380,-12139.377449,-1149.143247,3034.844362
1424.373692,-8142.265362,-2604.724693,740.205942
1424.374003,-5477.523971,-2221.676944,-1184.329507
1424.374315,-4219.173869,-1225.752797,-2664.741391
1424.374626,-4811.338623,229.828649,-2294.638420
1424.374937,-9474.636058,842.705048,-1258.350101
1424.375249,-14804.118840,842.705048,-0.000000
1424.375560,-16432.571912,612.876398,2516.700203
1424.375872,-14359.995275,612.876398,2442.679609
1424.376183,-9844.739029,229.828649,1258.350101
1424.376495,-5329.482782,-612.876398,-2294.638420
1424.376806,-3775.050304,-842.705048,-2960.823768
1424.377117,-4885.359217,-766.095498,-2738.761985
1424.377429,-7105.977043,-612.876398,-1258.350101
1424.377740,-10881.027347,536.266849,-444.123565
1424.378052,-14582.057057,842.705048,518.144159
1424.378363,-14804.118840,842.705048,2516.700203
1424.378674,-10658.965565,229.828649,2590.720797
1424.378986,-7402.059420,-995.924147,666.185348
1424.379297,-6735.874072,-2221.676944,-1184.329507
1424.379609,-6883.915261,-2451.505594,-1776.494261
1424.379920,-7402.059420,76.609550,-1184.329507
1424.380232,-8586.388927,919.314598,-444.123565
1424.380543,-11621.233289,0.000000,296.082377
1424.380854,-13989.892304,-842.705048,1554.432478
1424.381166,-12583.501014,0.000000,2886.803174
1424.381477,-9548.656652,536.266849,2294.638420
1424.381789,-6587.832884,0.000000,592.164754
1424.382100,-5773.606348,-1225.752797,-740.205942
1424.382411,-4441.235652,-1608.800546,-1480.411884
1424.382723,-4589.276840,-842.705048,-814.226536
1424.383034,-7179.997637,612.876398,740.205942
1424.383346,-10584.944971,2145.067394,1258.350101
1424.383657,-13175.665768,612.876398,2738.761985
1424.383968,-11547.212695,-383.047749,3923.091493
1424.384280,-8290.306550,-1455.581446,2664.741391
1424.384591,-6587.832884,-1302.362347,888.247130
1424.384903,-4663.297435,-536.266849,-666.185348
1424.385214,-5255.462188,0.000000,-1776.494261
1424.385526,-6809.894666,1302.362347,-0.000000
1424.385837,-10066.800811,1991.848295,1924.535449
1424.386148,-12805.562797,1455.581446,3108.864956
1424.386460,-12287.418637,-153.219100,3330.926739
1424.386771,-9030.512492,-153.219100,1480.411884
1424.387083,-5033.400406,76.609550,296.082377
1424.387394,-3256.906145,-995.924147,-1184.329507
1424.387705,-4219.173869,-1838.629195,-1850.514855
1424.388017,-7105.977043,-1762.019645,-1702.473667
1424.388328,-10140.821405,76.609550,370.102971
1424.388640,-13323.706956,229.828649,1480.411884
1424.388951,-15322.262999,536.266849,2960.823768
1424.389263,-13693.809927,689.485948,2960.823768
1424.389574,-9326.594869,-383.047749,1036.288319
1424.389885,-4959.379811,-1149.143247,-1110.308913
1424.390197,-3552.988522,-1072.533697,-2738.761985
1424.390508,-4737.318029,229.828649,-2664.741391
1424.390820,-8290.306550,1455.581446,-1702.473667
1424.391131,-11621.233289,1532.190996,-148.041188
1424.391442,-15322.262999,766.095498,888.247130
1424.391754,-15618.345376,0.000000,2738.761985
1424.392065,-12435.459826,0.000000,1406.391290
1424.392377,-7846.182985,-306.438199,-0.000000
1424.392688,-5995.668130,-766.095498,-1776.494261
1424.393000,-5329.482782,-995.924147,-2738.761985
1424.393311,-6291.750507,-1915.238745,-1998.556043
1424.393622,-7698.141797,-536.266849,-296.082377
1424.393934,-11473.192101,0.000000,740.205942
1424.394245,-14730.098246,0.000000,2442.679609
1424.394557,-13693.809927,-459.657299,3330.926739
1424.394868,-10066.800811,-689.485948,2146.597232
1424.395179,-6439.791695,-1915.238745,1480.411884
1424.395491,-6439.791695,-1991.848295,-148.041188
1424.395802,-6143.709319,-1225.752797,-296.082377
1424.396114,-5995.668130,536.266849,-0.000000
1424.396425,-7105.977043,1762.019645,518.144159
1424.396737,-10066.800811,1685.410096,1406.391290
1424.397048,-12657.521608,1455.581446,2812.782580
1424.397359,-11103.089130,689.485948,3849.070898
1424.397671,-8808.450710,689.485948,2368.659014
1424.397982,-7031.956449,1378.971896,1110.308913
1424.398294,-5625.565159,229.828649,-1110.308913
1424.398605,-4515.256246,-383.047749,-1776.494261
1424.398916,-4145.153275,153.219100,-740.205942
1424.399228,-6735.874072,383.047749,296.082377
1424.399539,-10807.006753,1149.143247,1776.494261
1424.399851,-13175.665768,153.219100,3849.070898
1424.400162,-11917.315666,-612.876398,4515.256246
1424.400473,-8438.347739,-1608.800546,3701.029710
1424.400785,-6439.791695,-1608.800546,1258.350101
1424.401096,-5921.647536,-229.828649,-1110.308913
1424.401408,-5329.482782,229.828649,-1406.391290
1424.401719,-5329.482782,1302.362347,-740.205942
1424.402031,-8364.327145,1149.143247,-592.164754
1424.402342,-12361.439231,383.047749,666.185348
1424.402653,-13915.871710,842.705048,2516.700203
1424.402965,-12879.583391,1378.971896,2442.679609
1424.403276,-9844.739029,1149.143247,1332.370696
1424.403588,-8364.327145,76.609550,-518.144159
1424.403899,-7105.977043,-1302.362347,-1184.329507
1424.404210,-7105.977043,-383.047749,-666.185348
1424.404522,-8808.450710,1378.971896,-148.041188
1424.404833,-12509.480420,1838.629195,962.267725
1424.405145,-14508.036463,229.828649,2590.720797
1424.405456,-10807.006753,-2834.553343,2220.617826
1424.405768,-5181.441594,-3907.087040,666.185348
1424.406079,-3552.988522,-3600.648841,-1406.391290
1424.406390,-4811.338623,-2604.724693,-1702.473667
1424.406702,-8438.347739,-1762.019645,-1258.350101
1424.407013,-12509.480420,-1225.752797,222.061783
1424.407325,-15544.324782,-459.657299,2442.679609
1424.407636,-16802.674883,306.438199,3182.885551
1424.407947,-14359.995275,1532.190996,2664.741391
1424.408259,-8734.430116,919.314598,-0.000000
1424.408570,-3256.906145,612.876398,-1850.514855
1424.408882,-1702.473667,689.485948,-3627.009116
1424.409193,-3034.844362,689.485948,-3034.844362
1424.409505,-6735.874072,689.485948,-740.205942
1424.409816,-10436.903782,995.924147,592.164754
1424.410127,-12805.562797,1378.971896,1776.494261
1424.410439,-13397.727550,459.657299,1850.514855
1424.410750,-11325.150913,76.609550,3182.885551
1424.411062,-7179.997637,-1302.362347,2442.679609
1424.411373,-3997.112087,-2298.286494,444.123565
1424.411684,-4145.153275,-2451.505594,-1480.411884
1424.411996,-4737.318029,-1838.629195,-1258.350101
1424.412307,-6513.812290,229.828649,-296.082377
1424.412619,-8068.244768,1915.238745,-0.000000
1424.412930,-11547.212695,1072.533697,518.144159
1424.413242,-14730.098246,459.657299,1998.556043
1424.413553,-13989.892304,1532.190996,3552.988522
1424.413864,-9992.780217,1838.629195,2738.761985
1424.414176,-7328.038826,306.438199,518.144159
1424.414487,-6513.812290,-689.485948,-370.102971
1424.414799,-5995.668130,-1149.143247,-1480.411884
1424.415110,-4737.318029,76.609550,-370.102971
1424.415421,-7105.977043,995.924147,-0.000000
1424.415733,-11325.150913,1225.752797,1406.391290
1424.416044,-13915.871710,0.000000,3108.864956
1424.416356,-12435.459826,-1149.143247,3182.885551
1424.416667,-9104.533087,-919.314598,2738.761985
1424.416978,-7698.141797,-1532.190996,444.123565
1424.417290,-5847.626942,-1302.362347,-1406.391290
1424.417601,-4737.318029,-459.657299,-2072.576638
1424.417913,-5995.668130,766.095498,-1776.494261
1424.418224,-9400.615463,1149.143247,444.123565
1424.418536,-13693.809927,766.095498,1924.535449
1424.418847,-16210.510130,0.000000,3552.988522
1424.419158,-14434.015869,229.828649,4367.215058
1424.419470,-10362.883188,-306.438199,2368.659014
1424.419781,-6439.791695,306.438199,-814.226536
1424.420093,-4367.215058,-306.438199,-2368.659014
1424.420404,-3627.009116,0.000000,-2590.720797
1424.420715,-5551.544565,459.657299,-1258.350101
1424.421027,-9844.739029,1378.971896,370.102971
1424.421338,-14211.954086,842.705048,2664.741391
1424.421650,-15248.242405,-153.219100,4663.297435
1424.421961,-11473.192101,-919.314598,4145.153275
1424.422273,-6957.935855,-1455.581446,1702.473667
1424.422584,-4737.318029,-1915.238745,-370.102971
1424.422895,-4367.215058,-919.314598,-1258.350101
1424.423207,-5329.482782,1149.143247,-1554.432478
1424.423518,-8438.347739,1378.971896,222.061783
1424.423830,-11103.089130,-612.876398,1850.514855
1424.424141,-11843.295072,-1838.629195,2072.576638
1424.424452,-8586.388927,-612.876398,1850.514855
1424.424764,-5847.626942,2068.457845,666.185348
1424.425075,-5329.482782,459.657299,-222.061783
1424.425387,-7846.182985,-842.705048,-222.061783
1424.425698,-10066.800811,-1072.533697,222.061783
1424.426010,-9696.697840,-229.828649,-148.041188
1424.426321,-9844.739029,2374.896044,148.041188
1424.426632,-10658.965565,2757.943793,-148.041188
1424.426944,-9622.677246,1225.752797,-0.000000
1424.427255,-6587.832884,-612.876398,-74.020594
1424.427567,-5551.544565,-459.657299,-444.123565
1424.427878,-7328.038826,842.705048,-666.185348
1424.428189,-8808.450710,229.828649,-666.185348
1424.428501,-9400.615463,-689.485948,-814.226536
1424.428812,-9104.533087,0.000000,-444.123565
1424.429124,-10436.903782,1072.533697,-592.164754
1424.429435,-11177.109724,1685.410096,148.041188
1424.429747,-9918.759623,1302.362347,666.185348
1424.430058,-9918.759623,-229.828649,370.102971
1424.430369,-8290.306550,-1532.190996,666.185348
1424.430681,-8142.265362,-2298.286494,-518.144159
1424.430992,-8512.368333,-919.314598,-1110.308913
1424.431304,-8216.285956,383.047749,-666.185348
1424.431615,-9918.759623,0.000000,-740.205942
1424.431926,-11843.295072,-229.828649,-0.000000
1424.432238,-13619.789333,0.000000,1998.556043
1424.432549,-12139.377449,-1149.143247,2664.741391
1424.432861,-8364.327145,-1762.019645,2442.679609
1424.433172,-6439.791695,-2451.505594,740.205942
1424.433484,-5995.668130,-2145.067394,-740.205942
1424.433795,-5847.626942,-1762.019645,-814.226536
1424.434106,-6587.832884,153.219100,-74.020594
1424.434418,-8808.450710,612.876398,370.102971
1424.434729,-12583.501014,919.314598,814.226536
1424.435041,-14656.077652,1072.533697,2294.638420
1424.435352,-12361.439231,1072.533697,2368.659014
1424.435663,-7994.224174,1072.533697,1850.514855
1424.435975,-5773.606348,-306.438199,-148.041188
1424.436286,-5625.565159,-612.876398,-1850.514855
1424.436598,-4441.235652,842.705048,-1258.350101
1424.436909,-5255.462188,1149.143247,-888.247130
1424.437220,-9030.512492,1915.238745,1332.370696
1424.437532,-13545.768739,995.924147,3552.988522
1424.437843,-14359.995275,306.438199,3923.091493
1424.438155,-10214.842000,-536.266849,3923.091493
1424.438466,-6217.729913,-689.485948,1998.556043
1424.438778,-4293.194464,-1532.190996,-666.185348
1424.439089,-3701.029710,-919.314598,-2294.638420
1424.439400,-4515.256246,0.000000,-1702.473667
1424.439712,-5921.647536,0.000000,-814.226536
1424.440023,-11029.068536,842.705048,-0.000000
1424.440335,-14730.098246,1302.362347,2368.659014
1424.440646,-14359.995275,612.876398,3701.029710
