#time,accel_x,accel_y,accel_z
1110.154627,-7698.141797,3830.477490,-592.164754
1110.154938,-11917.315666,3064.381992,-74.020594
1110.155249,-15470.304188,3217.601092,222.061783
1110.155561,-15026.180623,3064.381992,1628.453072
1110.155872,-11547.212695,3524.039291,1036.288319
1110.156183,-9622.677246,2451.505594,518.144159
1110.156495,-8068.244768,2604.724693,-74.020594
1110.156806,-6735.874072,766.095498,-0.000000
1110.157117,-8290.306550,842.705048,-740.205942
1110.157429,-10066.800811,3830.477490,370.102971
1110.157740,-9918.759623,5975.544884,-0.000000
1110.158051,-9918.759623,2528.115143,-148.041188
1110.158363,-9178.553681,-2604.724693,592.164754
1110.158674,-8956.491898,-4060.306139,-1036.288319
1110.158985,-8068.244768,-1838.629195,-370.102971
1110.159297,-9400.615463,-459.657299,-148.041188
1110.159608,-11103.089130,-2451.505594,1480.411884
1110.159919,-11621.233289,-4060.306139,3478.967927
1110.160231,-10214.842000,-1838.629195,4589.276840
1110.160542,-9474.636058,919.314598,3997.112087
1110.160853,-10066.800811,2604.724693,2516.700203
1110.161165,-7846.182985,2911.162892,740.205942
1110.161476,-5477.523971,2451.505594,-222.061783
1110.161787,-4885.359217,2068.457845,-1110.308913
1110.162099,-3701.029710,1762.019645,-2590.720797
1110.162410,-7698.141797,1072.533697,-2960.823768
1110.162722,-8216.285956,2451.505594,-666.185348
1110.163033,-6809.894666,2221.676944,666.185348
1110.163344,-12213.398043,766.095498,2294.638420
1110.163656,-11251.130318,1149.143247,6069.688724
1110.163967,-10807.006753,-766.095498,4737.318029
1110.164278,-9918.759623,-919.314598,3330.926739
1110.164590,-4737.318029,3217.601092,2516.700203
1110.164901,-7550.100608,3524.039291,-1628.453072
1110.165212,-5847.626942,3830.477490,-1480.411884
1110.165524,-8364.327145,2298.286494,-2590.720797
1110.165835,-9400.615463,1838.629195,-1480.411884
1110.166146,-10510.924376,3217.601092,-296.082377
1110.166458,-11695.253884,3294.210641,666.185348
1110.166769,-9844.739029,306.438199,1554.432478
1110.167080,-8956.491898,-2757.943793,2812.782580
1110.167392,-7550.100608,-1762.019645,3627.009116
1110.167703,-9104.533087,689.485948,2368.659014
1110.168014,-9474.636058,2911.162892,1184.329507
1110.168326,-10732.986159,2834.553343,1184.329507
1110.168637,-9622.677246,1149.143247,-148.041188
1110.168948,-9622.677246,919.314598,-1184.329507
1110.169260,-8512.368333,1685.410096,-740.205942
1110.169571,-7994.224174,1838.629195,-2146.597232
1110.169882,-8438.347739,766.095498,-0.000000
1110.170194,-7624.121203,-306.438199,-222.061783
1110.170505,-8290.306550,-1149.143247,1924.535449
1110.170817,-9400.615463,-1378.971896,1776.494261
1110.171128,-9252.574275,612.876398,3701.029710
1110.171439,-9770.718434,0.000000,2072.576638
1110.171751,-9992.780217,1378.971896,1850.514855
1110.172062,-9400.615463,1455.581446,518.144159
1110.172373,-8586.388927,2145.067394,-148.041188
1110.172685,-7031.956449,1302.362347,-1184.329507
1110.172996,-7624.121203,689.485948,-1480.411884
1110.173307,-7920.203579,-383.047749,-2442.679609
1110.173619,-7624.121203,306.438199,-962.267725
1110.173930,-9326.594869,0.000000,-1702.473667
1110.174241,-9622.677246,-842.705048,666.185348
1110.174553,-9104.533087,-2221.676944,222.061783
1110.174864,-9992.780217,-1455.581446,2146.597232
1110.175175,-9844.739029,-689.485948,-0.000000
1110.175487,-9696.697840,153.219100,2146.597232
1110.175798,-9474.636058,-919.314598,-888.247130
1110.176109,-8882.471304,-766.095498,1036.288319
1110.176421,-8438.347739,-1915.238745,-1998.556043
1110.176732,-8216.285956,-842.705048,-592.164754
1110.177043,-8808.450710,-1378.971896,-2220.617826
1110.177355,-8882.471304,-1378.971896,222.061783
1110.177666,-9400.615463,-3217.601092,-74.020594
1110.177977,-10362.883188,-2374.896044,2294.638420
1110.178289,-10140.821405,-1762.019645,1036.288319
1110.178600,-10140.821405,0.000000,1628.453072
1110.178912,-9178.553681,0.000000,666.185348
1110.179223,-8586.388927,995.924147,814.226536
1110.179534,-8364.327145,766.095498,-814.226536
1110.179846,-8068.244768,2068.457845,-148.041188
1110.180157,-7846.182985,1225.752797,-1036.288319
1110.180468,-8290.306550,459.657299,296.082377
1110.180780,-8512.368333,-383.047749,222.061783
1110.181091,-8882.471304,-842.705048,1184.329507
1110.181402,-8586.388927,-2068.457845,1036.288319
1110.181714,-9030.512492,-1455.581446,2442.679609
1110.182025,-9400.615463,-1378.971896,1184.329507
1110.182336,-9548.656652,383.047749,1628.453072
1110.182648,-9178.553681,689.485948,148.041188
1110.182959,-9178.553681,2145.067394,1332.370696
1110.183270,-8808.450710,1149.143247,-0.000000
1110.183582,-8808.450710,2221.676944,666.185348
1110.183893,-8734.430116,766.095498,-740.205942
1110.184204,-8438.347739,612.876398,1036.288319
1110.184516,-8808.450710,-306.438199,-222.061783
1110.184827,-8438.347739,536.266849,1110.308913
1110.185138,-8216.285956,-306.438199,296.082377
1110.185450,-7920.203579,306.438199,1998.556043
1110.185761,-8586.388927,-536.266849,296.082377
1110.186073,-8660.409521,766.095498,2072.576638
1110.186384,-8660.409521,-842.705048,666.185348
1110.186695,-8364.327145,459.657299,2220.617826
1110.187007,-8808.450710,0.000000,296.082377
1110.187318,-8956.491898,1072.533697,1184.329507
1110.187629,-9030.512492,153.219100,-740.205942
1110.187941,-8734.430116,459.657299,1184.329507
1110.188252,-8808.450710,0.000000,-962.267725
1110.188563,-8586.388927,229.828649,666.185348
1110.188875,-8438.347739,-1072.533697,-962.267725
1110.189186,-8142.265362,0.000000,1332.370696
1110.189497,-8808.450710,-1149.143247,-296.082377
1110.189809,-8956.491898,229.828649,1776.494261
1110.190120,-9622.677246,-612.876398,-0.000000
1110.190431,-9326.594869,689.485948,1998.556043
1110.190743,-9548.656652,-306.438199,-222.061783
1110.191054,-9252.574275,536.266849,666.185348
1110.191365,-8586.388927,-766.095498,-1036.288319
1110.191677,-8068.244768,0.000000,222.061783
1110.191988,-8216.285956,-1302.362347,-1110.308913
1110.192299,-7994.224174,0.000000,518.144159
1110.192611,-8512.368333,-1378.971896,-814.226536
1110.192922,-8734.430116,-306.438199,1036.288319
1110.193233,-9326.594869,-1072.533697,-592.164754
1110.193545,-9474.636058,919.314598,1480.411884
1110.193856,-10288.862594,-612.876398,-518.144159
1110.194168,-9918.759623,689.485948,1628.453072
1110.194479,-10436.903782,-689.485948,-666.185348
1110.194790,-9326.594869,1072.533697,1110.308913
1110.195102,-9030.512492,-153.219100,-1480.411884
1110.195413,-8068.244768,919.314598,518.144159
1110.195724,-8660.409521,-995.924147,-1184.329507
1110.196036,-8216.285956,459.657299,962.267725
1110.196347,-8660.409521,-612.876398,-888.247130
1110.196658,-8068.244768,766.095498,1554.432478
1110.196970,-9474.636058,-306.438199,-296.082377
1110.197281,-9474.636058,1302.362347,1850.514855
1110.197592,-9770.718434,229.828649,-222.061783
1110.197904,-8882.471304,1225.752797,1924.535449
1110.198215,-9474.636058,383.047749,-666.185348
1110.198526,-8586.388927,1225.752797,1258.350101
1110.198838,-9178.553681,-689.485948,-1110.308913
1110.199149,-7920.203579,153.219100,1258.350101
1110.199460,-8808.450710,-1455.581446,-888.247130
1110.199772,-8586.388927,76.609550,1480.411884
1110.200083,-9030.512492,-1455.581446,-370.102971
1110.200394,-8438.347739,-306.438199,2220.617826
1110.200706,-9770.718434,-1608.800546,444.123565
1110.201017,-8734.430116,306.438199,2812.782580
1110.201328,-9104.533087,-1072.533697,518.144159
1110.201640,-7994.224174,306.438199,2368.659014
1110.201951,-8216.285956,-995.924147,148.041188
1110.202263,-7179.997637,536.266849,1702.473667
1110.202574,-7772.162391,-995.924147,-518.144159
1110.202885,-7476.080014,536.266849,1184.329507
1110.203197,-8586.388927,-1072.533697,-296.082377
1110.203508,-8290.306550,383.047749,1332.370696
1110.203819,-9400.615463,-919.314598,-0.000000
1110.204131,-8882.471304,153.219100,2368.659014
1110.204442,-9918.759623,-995.924147,222.061783
1110.204753,-8586.388927,995.924147,2146.597232
1110.205065,-9326.594869,-689.485948,-0.000000
1110.205376,-7846.182985,383.047749,1850.514855
1110.205687,-9030.512492,-919.314598,-888.247130
1110.205999,-8290.306550,689.485948,962.267725
1110.206310,-9178.553681,-689.485948,-888.247130
1110.206621,-8512.368333,689.485948,1480.411884
1110.206933,-9474.636058,-612.876398,-518.144159
1110.207244,-8734.430116,995.924147,1702.473667
1110.207555,-9474.636058,-1762.019645,-444.123565
1110.207867,-7920.203579,76.609550,1850.514855
1110.208178,-9474.636058,-766.095498,-666.185348
1110.208489,-8734.430116,919.314598,1406.391290
1110.208801,-9400.615463,-766.095498,-740.205942
1110.209112,-8586.388927,459.657299,1110.308913
1110.209424,-9770.718434,-766.095498,-666.185348
1110.209735,-9030.512492,766.095498,666.185348
1110.210046,-9992.780217,-612.876398,-1184.329507
1110.210358,-8882.471304,995.924147,444.123565
1110.210669,-9474.636058,-1149.143247,-1036.288319
1110.210980,-8438.347739,689.485948,814.226536
1110.211292,-9178.553681,-689.485948,-592.164754
1110.211603,-8512.368333,689.485948,1554.432478
1110.211914,-9548.656652,-459.657299,-444.123565
1110.212226,-8882.471304,766.095498,1110.308913
1110.212537,-9400.615463,-229.828649,-296.082377
1110.212848,-8808.450710,995.924147,888.247130
1110.213160,-10066.800811,0.000000,-888.247130
1110.213471,-8808.450710,1225.752797,1036.288319
1110.213782,-9770.718434,0.000000,-740.205942
1110.214094,-8660.409521,1072.533697,1480.411884
1110.214405,-9622.677246,-536.266849,-296.082377
1110.214716,-8290.306550,842.705048,1480.411884
1110.215028,-8586.388927,153.219100,-592.164754
1110.215339,-7476.080014,919.314598,1850.514855
1110.215650,-8734.430116,-1072.533697,-444.123565
1110.215962,-8068.244768,229.828649,1702.473667
1110.216273,-9474.636058,-1225.752797,-0.000000
1110.216584,-8660.409521,153.219100,2072.576638
1110.216896,-10362.883188,-1072.533697,-0.000000
1110.217207,-8438.347739,536.266849,2072.576638
1110.217519,-9030.512492,-842.705048,-0.000000
1110.217830,-7476.080014,-153.219100,1776.494261
1110.218141,-8364.327145,-1532.190996,-0.000000
1110.218453,-7031.956449,229.828649,1554.432478
1110.218764,-8364.327145,-1225.752797,-222.061783
1110.219075,-7698.141797,383.047749,1702.473667
1110.219387,-9178.553681,-1302.362347,-222.061783
1110.219698,-8586.388927,306.438199,1332.370696
1110.220009,-9548.656652,-919.314598,-444.123565
1110.220321,-9030.512492,459.657299,1554.432478
1110.220632,-9770.718434,-1302.362347,296.082377
1110.220943,-8882.471304,0.000000,1702.473667
1110.221255,-9474.636058,-1532.190996,-74.020594
1110.221566,-8364.327145,-153.219100,1480.411884
1110.221877,-8660.409521,-612.876398,-296.082377
1110.222189,-7994.224174,766.095498,888.247130
1110.222500,-9030.512492,-612.876398,-518.144159
1110.222811,-8734.430116,766.095498,1110.308913
1110.223123,-10140.821405,-306.438199,-370.102971
1110.223434,-9474.636058,1072.533697,1258.350101
1110.223746,-10732.986159,0.000000,-148.041188
1110.224057,-9696.697840,536.266849,1110.308913
1110.224368,-10584.944971,-689.485948,-444.123565
1110.224680,-8438.347739,766.095498,1036.288319
1110.224991,-9178.553681,-919.314598,-814.226536
1110.225302,-7772.162391,766.095498,1184.329507
1110.225614,-8734.430116,-766.095498,-148.041188
1110.225925,-8068.244768,0.000000,1406.391290
1110.226237,-9104.533087,-919.314598,-222.061783
1110.226548,-8364.327145,306.438199,1332.370696
1110.226859,-9400.615463,-689.485948,-370.102971
1110.227171,-8586.388927,459.657299,1184.329507
1110.227482,-9548.656652,-1915.238745,-0.000000
1110.227794,-8512.368333,0.000000,962.267725
1110.228105,-9326.594869,-766.095498,-0.000000
1110.228416,-8068.244768,459.657299,1184.329507
1110.228728,-8956.491898,-766.095498,-222.061783
1110.229039,-7624.121203,153.219100,888.247130
1110.229350,-7994.224174,-689.485948,-0.000000
1110.229662,-8438.347739,1455.581446,666.185348
1110.229973,-9178.553681,-153.219100,-74.020594
1110.230285,-8290.306550,1225.752797,888.247130
1110.230596,-9326.594869,0.000000,370.102971
1110.230907,-8438.347739,536.266849,1036.288319
1110.231219,-9252.574275,-612.876398,-0.000000
1110.231530,-7920.203579,612.876398,1110.308913
1110.231841,-9030.512492,-995.924147,-0.000000
1110.232153,-8216.285956,383.047749,888.247130
1110.232464,-8956.491898,-229.828649,-222.061783
1110.232776,-8734.430116,689.485948,740.205942
1110.233087,-10214.842000,-306.438199,-0.000000
1110.233398,-9474.636058,1072.533697,814.226536
1110.233710,-10066.800811,153.219100,-0.000000
1110.234021,-9104.533087,689.485948,1184.329507
1110.234333,-9622.677246,-612.876398,740.205942
1110.234644,-8512.368333,536.266849,1332.370696
1110.234955,-9326.594869,-383.047749,296.082377
1110.235267,-8438.347739,229.828649,1184.329507
1110.235578,-9252.574275,-919.314598,296.082377
1110.235889,-8660.409521,-229.828649,888.247130
1110.236201,-9622.677246,-536.266849,222.061783
1110.236512,-8808.450710,383.047749,814.226536
1110.236824,-9474.636058,153.219100,444.123565
1110.237135,-8882.471304,689.485948,740.205942
1110.237446,-9696.697840,-689.485948,444.123565
1110.237758,-8660.409521,76.609550,814.226536
1110.238069,-8660.409521,76.609550,444.123565
1110.238380,-7994.224174,1072.533697,666.185348
1110.238692,-8808.450710,-306.438199,296.082377
1110.239003,-7846.182985,-612.876398,888.247130
1110.239315,-8734.430116,-995.924147,296.082377
1110.239626,-8586.388927,0.000000,740.205942
1110.239937,-9696.697840,-842.705048,-0.000000
1110.240249,-9252.574275,0.000000,518.144159
1110.240560,-9474.636058,-612.876398,666.185348
1110.240872,-8882.471304,0.000000,592.164754
1110.241183,-8956.491898,0.000000,370.102971
1110.241494,-7920.203579,459.657299,888.247130
1110.241806,-8660.409521,-842.705048,592.164754
1110.242117,-7846.182985,-229.828649,888.247130
1110.242428,-8512.368333,-766.095498,592.164754
1110.242740,-7772.162391,0.000000,888.247130
1110.243051,-9400.615463,-689.485948,296.082377
1110.243363,-8956.491898,0.000000,666.185348
1110.243674,-10140.821405,229.828649,-148.041188
1110.243985,-9474.636058,536.266849,666.185348
1110.244297,-9918.759623,-383.047749,148.041188
1110.244608,-8882.471304,76.609550,148.041188
1110.244919,-9178.553681,-383.047749,296.082377
1110.245231,-7920.203579,0.000000,740.205942
1110.245542,-8734.430116,-153.219100,444.123565
1110.245854,-8512.368333,459.657299,370.102971
1110.246165,-9178.553681,-612.876398,666.185348
1110.246476,-8734.430116,229.828649,444.123565
1110.246788,-9400.615463,-383.047749,740.205942
1110.247099,-9104.533087,76.609550,370.102971
1110.247411,-9474.636058,-306.438199,370.102971
1110.247722,-8734.430116,0.000000,222.061783
1110.248033,-8808.450710,-383.047749,592.164754
1110.248345,-8586.388927,0.000000,-222.061783
1110.248656,-9178.553681,76.609550,-0.000000
1110.248967,-8734.430116,76.609550,-0.000000
1110.249279,-9992.780217,-383.047749,296.082377
1110.249590,-9400.615463,229.828649,296.082377
1110.249902,-9918.759623,0.000000,592.164754
1110.250213,-9252.574275,0.000000,370.102971
1110.250524,-9474.636058,0.000000,962.267725
1110.250836,-9104.533087,229.828649,222.061783
1110.251147,-8882.471304,919.314598,740.205942
1110.251458,-7994.224174,0.000000,-0.000000
1110.251770,-8956.491898,229.828649,518.144159
1110.252081,-8438.347739,536.266849,222.061783
1110.252393,-8734.430116,612.876398,444.123565
1110.252704,-8290.306550,383.047749,296.082377
1110.253015,-9400.615463,229.828649,592.164754
1110.253327,-9030.512492,76.609550,740.205942
1110.253638,-9252.574275,612.876398,888.247130
1110.253950,-8660.409521,383.047749,370.102971
1110.254261,-9030.512492,76.609550,1036.288319
1110.254572,-8364.327145,-153.219100,222.061783
1110.254884,-8512.368333,153.219100,592.164754
1110.255195,-7772.162391,0.000000,370.102971
1110.255506,-7994.224174,0.000000,740.205942
1110.255818,-8438.347739,-383.047749,-592.164754
1110.256129,-8586.388927,383.047749,740.205942
1110.256441,-8734.430116,-536.266849,222.061783
1110.256752,-8660.409521,-459.657299,1036.288319
1110.257063,-9252.574275,-383.047749,296.082377
1110.257375,-9474.636058,-459.657299,1406.391290
1110.257686,-8734.430116,-689.485948,296.082377
1110.257998,-8956.491898,-229.828649,1480.411884
1110.258309,-7920.203579,76.609550,-0.000000
1110.258620,-8068.244768,76.609550,592.164754
1110.258932,-7994.224174,-383.047749,-0.000000
1110.259243,-8882.471304,-153.219100,1110.308913
1110.259554,-9326.594869,-306.438199,-74.020594
1110.259866,-9770.718434,0.000000,1036.288319
1110.260177,-9918.759623,-612.876398,-0.000000
1110.260489,-9844.739029,-153.219100,962.267725
1110.260800,-9252.574275,0.000000,444.123565
1110.261111,-9400.615463,612.876398,740.205942
1110.261423,-8512.368333,-995.924147,-0.000000
1110.261734,-8660.409521,-459.657299,1332.370696
1110.262045,-8808.450710,-536.266849,74.020594
1110.262357,-8734.430116,229.828649,1110.308913
1110.262668,-8808.450710,0.000000,-222.061783
1110.262980,-9474.636058,0.000000,740.205942
1110.263291,-9474.636058,-383.047749,-370.102971
1110.263602,-9844.739029,306.438199,370.102971
1110.263914,-9474.636058,0.000000,-0.000000
1110.264225,-9622.677246,229.828649,1184.329507
1110.264537,-9548.656652,-153.219100,222.061783
1110.264848,-9104.533087,459.657299,1110.308913
1110.265159,-8512.368333,0.000000,-0.000000
1110.265471,-7920.203579,1302.362347,1036.288319
1110.265782,-8290.306550,0.000000,-148.041188
1110.266093,-8512.368333,689.485948,814.226536
1110.266405,-8512.368333,0.000000,-370.102971
1110.266716,-8216.285956,383.047749,1184.329507
1110.267028,-8438.347739,0.000000,-148.041188
1110.267339,-8734.430116,0.000000,1036.288319
1110.267650,-8734.430116,-995.924147,-74.020594
1110.267962,-8438.347739,-306.438199,1406.391290
1110.268273,-8290.306550,-536.266849,-74.020594
1110.268584,-8882.471304,459.657299,1258.350101
1110.268896,-8882.471304,-995.924147,-444.123565
1110.269207,-8290.306550,0.000000,1332.370696
1110.269519,-9030.512492,-1149.143247,-222.061783
1110.269830,-9104.533087,612.876398,1110.308913
1110.270141,-9030.512492,153.219100,-222.061783
1110.270453,-9030.512492,0.000000,962.267725
1110.270764,-9474.636058,-766.095498,-74.020594
1110.271076,-9104.533087,536.266849,592.164754
1110.271387,-9104.533087,-383.047749,-0.000000
1110.271698,-8660.409521,383.047749,1406.391290
1110.272010,-9400.615463,-459.657299,-296.082377
1110.272321,-9030.512492,689.485948,1184.329507
1110.272632,-9178.553681,-153.219100,-444.123565
1110.272944,-8882.471304,1225.752797,1110.308913
1110.273255,-9918.759623,536.266849,-814.226536
1110.273567,-9622.677246,1838.629195,740.205942
1110.273878,-9696.697840,76.609550,-370.102971
1110.274189,-9030.512492,612.876398,1332.370696
1110.274501,-9474.636058,-612.876398,-222.061783
1110.274812,-8660.409521,383.047749,1184.329507
1110.275123,-9252.574275,0.000000,-518.144159
1110.275435,-8290.306550,536.266849,1258.350101
1110.275746,-8512.368333,-1072.533697,-148.041188
1110.276058,-8956.491898,0.000000,1480.411884
1110.276369,-9474.636058,-1072.533697,-148.041188
1110.276680,-9030.512492,229.828649,1998.556043
1110.276992,-9400.615463,-459.657299,-222.061783
1110.277303,-8808.450710,766.095498,1702.473667
1110.277615,-8660.409521,-842.705048,-444.123565
1110.277926,-7772.162391,306.438199,1702.473667
1110.278237,-8290.306550,-766.095498,-222.061783
1110.278549,-7994.224174,536.266849,1480.411884
1110.278860,-8586.388927,-842.705048,-222.061783
1110.279171,-8364.327145,229.828649,1702.473667
1110.279483,-9030.512492,-1072.533697,-0.000000
1110.279794,-8586.388927,229.828649,1480.411884
1110.280106,-9252.574275,-306.438199,-222.061783
1110.280417,-9252.574275,-689.485948,1702.473667
1110.280728,-9104.533087,-383.047749,-0.000000
1110.281040,-8882.471304,306.438199,1702.473667
1110.281351,-8956.491898,-995.924147,-0.000000
1110.281662,-8142.265362,76.609550,1850.514855
1110.281974,-8216.285956,-995.924147,-74.020594
1110.282285,-7994.224174,612.876398,1480.411884
1110.282597,-8734.430116,-1302.362347,-518.144159
1110.282908,-8586.388927,153.219100,962.267725
1110.283219,-9474.636058,-536.266849,-592.164754
1110.283531,-9104.533087,689.485948,1184.329507
1110.283842,-9770.718434,-459.657299,-148.041188
1110.284154,-9178.553681,459.657299,1258.350101
1110.284465,-9770.718434,-766.095498,-222.061783
1110.284776,-8512.368333,612.876398,1480.411884
1110.285088,-8956.491898,76.609550,-74.020594
1110.285399,-8216.285956,842.705048,1628.453072
1110.285710,-8586.388927,-612.876398,-444.123565
1110.286022,-8734.430116,306.438199,1554.432478
1110.286333,-9474.636058,-383.047749,-444.123565
1110.286645,-8660.409521,689.485948,1406.391290
1110.286956,-9548.656652,-383.047749,-518.144159
1110.287267,-8734.430116,919.314598,1184.329507
1110.287579,-9548.656652,-1685.410096,-444.123565
1110.287890,-8068.244768,766.095498,1406.391290
1110.288201,-8956.491898,-689.485948,-888.247130
1110.288513,-8438.347739,536.266849,1332.370696
1110.288824,-9252.574275,-1072.533697,-592.164754
1110.289136,-8808.450710,459.657299,1406.391290
1110.289447,-9400.615463,-919.314598,-222.061783
1110.289758,-8956.491898,459.657299,1480.411884
1110.290070,-9104.533087,-536.266849,-0.000000
1110.290381,-8216.285956,766.095498,1554.432478
1110.290693,-9252.574275,-995.924147,-0.000000
1110.291004,-8290.306550,536.266849,1406.391290
1110.291315,-8882.471304,-383.047749,-370.102971
1110.291627,-7994.224174,306.438199,1406.391290
1110.291938,-8734.430116,-689.485948,-148.041188
1110.292249,-7846.182985,612.876398,1258.350101
1110.292561,-9252.574275,-383.047749,-444.123565
1110.292872,-8808.450710,995.924147,1332.370696
1110.293184,-9622.677246,-536.266849,-296.082377
1110.293495,-9030.512492,842.705048,1332.370696
1110.293806,-9474.636058,-153.219100,-222.061783
1110.294118,-8660.409521,1072.533697,1480.411884
1110.294429,-9030.512492,-612.876398,-148.041188
1110.294740,-8068.244768,536.266849,1332.370696
1110.295052,-8660.409521,-229.828649,-592.164754
1110.295363,-7624.121203,229.828649,1628.453072
1110.295675,-8956.491898,-1149.143247,-444.123565
1110.295986,-8290.306550,-76.609550,1480.411884
1110.296297,-9548.656652,-1532.190996,-296.082377
1110.296609,-8660.409521,-153.219100,1850.514855
1110.296920,-9474.636058,-1072.533697,-0.000000
1110.297232,-8734.430116,229.828649,1776.494261
1110.297543,-9696.697840,-1378.971896,-0.000000
1110.297854,-8438.347739,0.000000,1924.535449
1110.298166,-9104.533087,-1149.143247,-0.000000
1110.298477,-7920.203579,383.047749,1184.329507
1110.298788,-8882.471304,-1149.143247,-444.123565
1110.299100,-8068.244768,229.828649,1184.329507
1110.299411,-9622.677246,-842.705048,-592.164754
1110.299723,-9474.636058,919.314598,740.205942
1110.300034,-9992.780217,-612.876398,-518.144159
1110.300345,-9104.533087,383.047749,1332.370696
1110.300657,-9844.739029,-766.095498,-0.000000
1110.300968,-8734.430116,229.828649,1332.370696
1110.301279,-9326.594869,-689.485948,-0.000000
1110.301591,-8216.285956,1072.533697,1850.514855
1110.301902,-8438.347739,-842.705048,-0.000000
1110.302214,-8216.285956,689.485948,1258.350101
1110.302525,-8808.450710,0.000000,-148.041188
1110.302836,-8364.327145,766.095498,1406.391290
1110.303148,-9992.780217,-383.047749,-444.123565
1110.303459,-9252.574275,1072.533697,814.226536
1110.303771,-10066.800811,0.000000,-666.185348
1110.304082,-8660.409521,766.095498,1258.350101
1110.304393,-9548.656652,-229.828649,-148.041188
1110.304705,-8216.285956,612.876398,1036.288319
1110.305016,-8808.450710,-153.219100,-0.000000
1110.305327,-7254.018232,919.314598,1924.535449
1110.305639,-8512.368333,-459.657299,-148.041188
1110.305950,-7920.203579,153.219100,1406.391290
1110.306262,-8734.430116,-842.705048,-0.000000
1110.306573,-7772.162391,612.876398,1406.391290
1110.306884,-9252.574275,-536.266849,-592.164754
1110.307196,-8734.430116,383.047749,1258.350101
1110.307507,-9178.553681,-1915.238745,-74.020594
1110.307818,-8216.285956,0.000000,1332.370696
1110.308130,-9030.512492,-995.924147,-0.000000
1110.308441,-7994.224174,306.438199,1184.329507
1110.308753,-9474.636058,-919.314598,-444.123565
1110.309064,-7698.141797,229.828649,962.267725
1110.309375,-9030.512492,-995.924147,-148.041188
1110.309687,-8660.409521,612.876398,888.247130
1110.309998,-9474.636058,-306.438199,-222.061783
1110.310310,-8882.471304,459.657299,814.226536
1110.310621,-9474.636058,-766.095498,-0.000000
1110.310932,-8586.388927,229.828649,1036.288319
1110.311244,-9474.636058,-612.876398,-370.102971
1110.311555,-8512.368333,0.000000,1258.350101
1110.311866,-9770.718434,-536.266849,-222.061783
1110.312178,-8808.450710,459.657299,888.247130
1110.312489,-9548.656652,-306.438199,-222.061783
1110.312801,-9104.533087,689.485948,962.267725
1110.313112,-10288.862594,-459.657299,-148.041188
1110.313423,-9326.594869,766.095498,1184.329507
1110.313735,-10288.862594,306.438199,-74.020594
1110.314046,-8438.347739,1149.143247,962.267725
1110.314357,-9548.656652,-383.047749,148.041188
1110.314669,-7772.162391,612.876398,962.267725
1110.314980,-9252.574275,-612.876398,-222.061783
1110.315292,-7920.203579,229.828649,962.267725
1110.315603,-9104.533087,-689.485948,-148.041188
1110.315914,-8808.450710,229.828649,962.267725
1110.316226,-9548.656652,-383.047749,296.082377
1110.316537,-8808.450710,0.000000,1110.308913
1110.316849,-9474.636058,-306.438199,666.185348
1110.317160,-8586.388927,842.705048,1332.370696
1110.317471,-9030.512492,-306.438199,296.082377
1110.317783,-7698.141797,459.657299,1184.329507
1110.318094,-8512.368333,-459.657299,148.041188
1110.318405,-7476.080014,842.705048,1036.288319
1110.318717,-8586.388927,-383.047749,-0.000000
1110.319028,-7624.121203,0.000000,1036.288319
1110.319340,-9104.533087,-459.657299,-148.041188
1110.319651,-8808.450710,229.828649,888.247130
1110.319962,-9548.656652,-689.485948,222.061783
1110.320274,-8808.450710,76.609550,962.267725
1110.320585,-9622.677246,-612.876398,222.061783
1110.320896,-8512.368333,766.095498,1258.350101
1110.321208,-9104.533087,-153.219100,148.041188
1110.321519,-8216.285956,383.047749,962.267725
1110.321831,-8512.368333,-383.047749,444.123565
1110.322142,-7550.100608,229.828649,888.247130
1110.322453,-8586.388927,-306.438199,-0.000000
1110.322765,-8068.244768,306.438199,814.226536
1110.323076,-9770.718434,-766.095498,-148.041188
1110.323388,-9474.636058,306.438199,444.123565
1110.323699,-10584.944971,0.000000,-222.061783
1110.324010,-9030.512492,459.657299,666.185348
1110.324322,-10584.944971,76.609550,-148.041188
1110.324633,-8808.450710,306.438199,888.247130
1110.324945,-9326.594869,-383.047749,-148.041188
1110.325256,-8068.244768,383.047749,962.267725
1110.325567,-9104.533087,-153.219100,-0.000000
1110.325879,-8438.347739,383.047749,592.164754
1110.326190,-9252.574275,-229.828649,-0.000000
1110.326502,-8512.368333,229.828649,666.185348
1110.326813,-8956.491898,-689.485948,296.082377
1110.327124,-9104.533087,229.828649,444.123565
1110.327436,-9474.636058,-612.876398,-0.000000
1110.327747,-8808.450710,-459.657299,592.164754
1110.328059,-9400.615463,-842.705048,518.144159
1110.328370,-8512.368333,0.000000,592.164754
1110.328681,-9030.512492,-689.485948,296.082377
1110.328993,-8438.347739,0.000000,148.041188
1110.329304,-9400.615463,0.000000,-0.000000
1110.329616,-8586.388927,306.438199,444.123565
1110.329927,-9252.574275,-153.219100,296.082377
1110.330238,-8734.430116,0.000000,740.205942
1110.330550,-9178.553681,0.000000,962.267725
1110.330861,-8290.306550,0.000000,740.205942
1110.331173,-8808.450710,-229.828649,148.041188
1110.331484,-7846.182985,153.219100,592.164754
1110.331795,-8882.471304,-383.047749,-0.000000
1110.332107,-8290.306550,76.609550,592.164754
1110.332418,-9252.574275,0.000000,370.102971
1110.332730,-8586.388927,612.876398,740.205942
1110.333041,-9622.677246,536.266849,370.102971
1110.333352,-8660.409521,0.000000,962.267725
1110.333664,-9178.553681,306.438199,444.123565
1110.333975,-8142.265362,842.705048,814.226536
1110.334287,-9178.553681,0.000000,666.185348
1110.334598,-8586.388927,0.000000,592.164754
1110.334909,-8808.450710,-229.828649,518.144159
1110.335221,-8438.347739,0.000000,666.185348
1110.335532,-8660.409521,459.657299,666.185348
1110.335844,-8660.409521,-612.876398,-0.000000
1110.336155,-9474.636058,0.000000,666.185348
1110.336466,-8512.368333,0.000000,370.102971
1110.336778,-9252.574275,383.047749,518.144159
1110.337089,-9030.512492,383.047749,296.082377
1110.337401,-9178.553681,76.609550,962.267725
1110.337712,-8364.327145,0.000000,444.123565
1110.338023,-8734.430116,0.000000,666.185348
1110.338335,-8290.306550,306.438199,148.041188
1110.338646,-8586.388927,0.000000,222.061783
1110.338958,-8364.327145,-459.657299,-0.000000
1110.339269,-9252.574275,-612.876398,1184.329507
1110.339580,-9770.718434,-459.657299,222.061783
1110.339892,-9992.780217,-306.438199,814.226536
1110.340203,-9696.697840,-612.876398,296.082377
1110.340515,-9474.636058,-383.047749,1036.288319
1110.340826,-8956.491898,-229.828649,666.185348
1110.341137,-8808.450710,-1149.143247,888.247130
1110.341449,-8142.265362,-153.219100,518.144159
1110.341760,-8438.347739,-306.438199,1110.308913
1110.342072,-8586.388927,-306.438199,222.061783
1110.342383,-9030.512492,153.219100,740.205942
1110.342694,-8882.471304,229.828649,-0.000000
1110.343006,-9770.718434,306.438199,740.205942
1110.343317,-9400.615463,76.609550,-0.000000
1110.343629,-9696.697840,383.047749,666.185348
1110.343940,-9030.512492,306.438199,-0.000000
1110.344251,-9400.615463,612.876398,814.226536
1110.344563,-9252.574275,153.219100,296.082377
1110.344874,-9030.512492,536.266849,814.226536
1110.345186,-8216.285956,0.000000,296.082377
1110.345497,-7994.224174,612.876398,1036.288319
1110.345808,-7994.224174,0.000000,444.123565
1110.346120,-8512.368333,383.047749,1628.453072
1110.346431,-8512.368333,-536.266849,-0.000000
1110.346743,-8734.430116,-306.438199,1184.329507
1110.347054,-9104.533087,-383.047749,222.061783
1110.347365,-9474.636058,0.000000,1406.391290
1110.347677,-9030.512492,-689.485948,222.061783
1110.347988,-9030.512492,-229.828649,1332.370696
1110.348300,-8364.327145,0.000000,-0.000000
1110.348611,-8142.265362,536.266849,1036.288319
1110.348922,-8586.388927,-153.219100,-222.061783
1110.349234,-8438.347739,153.219100,1332.370696
1110.349545,-8956.491898,-306.438199,-74.020594
1110.349857,-9030.512492,383.047749,1184.329507
1110.350168,-9252.574275,0.000000,-296.082377
1110.350479,-9030.512492,76.609550,1332.370696
1110.350791,-9030.512492,0.000000,-222.061783
1110.351102,-9252.574275,229.828649,888.247130
1110.351414,-9104.533087,-383.047749,-0.000000
1110.351725,-9030.512492,153.219100,1332.370696
1110.352036,-9030.512492,-383.047749,-0.000000
1110.352348,-8734.430116,536.266849,1184.329507
1110.352659,-9030.512492,-689.485948,-370.102971
1110.352971,-8808.450710,842.705048,1184.329507
1110.353282,-9696.697840,229.828649,-814.226536
1110.353593,-9474.636058,995.924147,666.185348
1110.353905,-9252.574275,0.000000,-148.041188
1110.354216,-9548.656652,306.438199,1036.288319
1110.354528,-9252.574275,-383.047749,-74.020594
1110.354839,-8882.471304,383.047749,1036.288319
1110.355150,-8660.409521,-612.876398,-148.041188
1110.355462,-8364.327145,-459.657299,1258.350101
1110.355773,-9252.574275,-1455.581446,-888.247130
1110.356085,-8882.471304,153.219100,962.267725
1110.356396,-8956.491898,-766.095498,-518.144159
1110.356707,-9252.574275,306.438199,1480.411884
1110.357019,-9178.553681,-766.095498,-74.020594
1110.357330,-9030.512492,306.438199,1332.370696
1110.357642,-8364.327145,-612.876398,148.041188
1110.357953,-8216.285956,1072.533697,1258.350101
1110.358264,-8660.409521,-306.438199,-296.082377
1110.358576,-8290.306550,0.000000,1628.453072
1110.358887,-8956.491898,-1302.362347,-296.082377
1110.359199,-8734.430116,76.609550,1480.411884
1110.359510,-9252.574275,-842.705048,-444.123565
1110.359821,-9178.553681,612.876398,1036.288319
1110.360133,-9252.574275,-842.705048,-296.082377
1110.360444,-9030.512492,153.219100,1184.329507
1110.360756,-9474.636058,0.000000,-296.082377
1110.361067,-8586.388927,229.828649,1554.432478
1110.361378,-8586.388927,-766.095498,-222.061783
1110.361690,-8216.285956,306.438199,1924.535449
1110.362001,-8586.388927,-1072.533697,-0.000000
1110.362313,-8290.306550,0.000000,1776.494261
1110.362624,-8734.430116,-842.705048,-444.123565
1110.362935,-8808.450710,229.828649,1332.370696
1110.363247,-9770.718434,-995.924147,-444.123565
1110.363558,-9622.677246,383.047749,1184.329507
1110.363870,-10140.821405,0.000000,-296.082377
1110.364181,-9548.656652,995.924147,1332.370696
1110.364492,-9548.656652,0.000000,-0.000000
1110.364804,-8586.388927,766.095498,1332.370696
1110.365115,-8808.450710,-1378.971896,-74.020594
1110.365427,-7624.121203,842.705048,1998.556043
1110.365738,-8512.368333,-766.095498,-74.020594
1110.366049,-8216.285956,689.485948,1850.514855
1110.366361,-9252.574275,-689.485948,-296.082377
1110.366672,-8660.409521,689.485948,1628.453072
1110.366984,-9622.677246,-689.485948,-592.164754
1110.367295,-8586.388927,689.485948,1406.391290
1110.367606,-8956.491898,-1072.533697,-444.123565
1110.367918,-8068.244768,153.219100,1628.453072
1110.368229,-8734.430116,-995.924147,-148.041188
1110.368541,-8142.265362,459.657299,1702.473667
1110.368852,-8956.491898,-919.314598,-444.123565
1110.369163,-8512.368333,536.266849,1776.494261
1110.369475,-9104.533087,-383.047749,-148.041188
1110.369786,-8216.285956,536.266849,1406.391290
1110.370098,-9770.718434,-612.876398,-1110.308913
1110.370409,-8956.491898,612.876398,1406.391290
1110.370720,-9770.718434,-1302.362347,-222.061783
1110.371032,-8882.471304,306.438199,1628.453072
1110.371343,-9030.512492,-1072.533697,-444.123565
1110.371655,-8512.368333,612.876398,1332.370696
1110.371966,-8660.409521,-536.266849,-296.082377
1110.372277,-8216.285956,536.266849,1110.308913
1110.372589,-9326.594869,-383.047749,-888.247130
1110.372900,-9030.512492,995.924147,1480.411884
1110.373212,-9696.697840,-459.657299,-518.144159
1110.373523,-9030.512492,1072.533697,1332.370696
1110.373834,-9622.677246,-459.657299,-592.164754
1110.374146,-8734.430116,612.876398,1702.473667
1110.374457,-9770.718434,-1149.143247,-814.226536
1110.374769,-8364.327145,612.876398,1258.350101
1110.375080,-9104.533087,-842.705048,-592.164754
1110.375391,-7920.203579,306.438199,1480.411884
1110.375703,-9178.553681,-1225.752797,-518.144159
1110.376014,-8290.306550,306.438199,1406.391290
1110.376326,-9178.553681,-995.924147,-592.164754
1110.376637,-8068.244768,612.876398,1702.473667
1110.376948,-9326.594869,-536.266849,-592.164754
1110.377260,-9030.512492,459.657299,1628.453072
1110.377571,-8956.491898,-919.314598,-296.082377
1110.377883,-8290.306550,306.438199,1702.473667
1110.378194,-9030.512492,-995.924147,-222.061783
1110.378505,-8216.285956,306.438199,1258.350101
1110.378817,-9104.533087,-1149.143247,-518.144159
1110.379128,-8216.285956,229.828649,1554.432478
1110.379440,-9326.594869,-842.705048,-370.102971
1110.379751,-9178.553681,842.705048,1258.350101
1110.380062,-9622.677246,-229.828649,-222.061783
1110.380374,-9104.533087,536.266849,1554.432478
1110.380685,-9696.697840,-1072.533697,-0.000000
1110.380997,-8586.388927,229.828649,1628.453072
1110.381308,-9178.553681,-995.924147,-148.041188
1110.381619,-7550.100608,459.657299,1998.556043
1110.381931,-8808.450710,-1225.752797,-370.102971
1110.382242,-8290.306550,612.876398,1480.411884
1110.382554,-9030.512492,-612.876398,-296.082377
1110.382865,-8586.388927,689.485948,1702.473667
1110.383177,-9992.780217,-766.095498,-222.061783
1110.383488,-8956.491898,919.314598,1332.370696
1110.383799,-9622.677246,0.000000,-666.185348
1110.384111,-8438.347739,1149.143247,1258.350101
1110.384422,-9844.739029,-1455.581446,-222.061783
1110.384734,-8586.388927,1302.362347,1702.473667
1110.385045,-9252.574275,-612.876398,-0.000000
1110.385356,-7550.100608,689.485948,1924.535449
1110.385668,-8364.327145,-766.095498,-0.000000
1110.385979,-8142.265362,229.828649,1480.411884
1110.386291,-9326.594869,-1302.362347,-296.082377
1110.386602,-7846.182985,612.876398,1406.391290
1110.386913,-9400.615463,-842.705048,148.041188
1110.387225,-8882.471304,536.266849,1036.288319
1110.387536,-9622.677246,-766.095498,-222.061783
1110.387848,-8438.347739,76.609550,1702.473667
1110.388159,-9252.574275,-995.924147,-296.082377
1110.388470,-8216.285956,612.876398,962.267725
1110.388782,-8882.471304,-766.095498,-148.041188
1110.389093,-7698.141797,0.000000,740.205942
1110.389405,-8956.491898,-919.314598,-444.123565
1110.389716,-8586.388927,995.924147,1554.432478
1110.390027,-9696.697840,-229.828649,-444.123565
1110.390339,-8956.491898,689.485948,888.247130
1110.390650,-9474.636058,-766.095498,-148.041188
1110.390962,-8956.491898,459.657299,962.267725
1110.391273,-9326.594869,-536.266849,-740.205942
1110.391584,-8142.265362,536.266849,962.267725
1110.391896,-9252.574275,-766.095498,-444.123565
1110.392207,-8364.327145,306.438199,962.267725
1110.392519,-9622.677246,-536.266849,-666.185348
1110.392830,-8882.471304,689.485948,1110.308913
1110.393141,-10140.821405,-612.876398,-370.102971
1110.393453,-9400.615463,995.924147,888.247130
1110.393764,-9474.636058,-383.047749,-296.082377
1110.394076,-9178.553681,1378.971896,962.267725
1110.394387,-10140.821405,-536.266849,-148.041188
1110.394698,-8216.285956,1149.143247,1480.411884
1110.395010,-9104.533087,-612.876398,-74.020594
1110.395321,-7476.080014,76.609550,1258.350101
1110.395633,-8660.409521,-995.924147,-0.000000
1110.395944,-8216.285956,383.047749,1110.308913
1110.396255,-9104.533087,0.000000,-0.000000
1110.396567,-8734.430116,536.266849,1036.288319
1110.396878,-9030.512492,-306.438199,370.102971
1110.397190,-8882.471304,383.047749,1554.432478
1110.397501,-9474.636058,-842.705048,296.082377
1110.397812,-7994.224174,0.000000,1702.473667
1110.398124,-8808.450710,-766.095498,296.082377
1110.398435,-7550.100608,76.609550,1406.391290
1110.398747,-8438.347739,-1072.533697,-74.020594
1110.399058,-7254.018232,-612.876398,1184.329507
1110.399369,-8660.409521,-1149.143247,-0.000000
1110.399681,-8734.430116,0.000000,888.247130
1110.399992,-9622.677246,-689.485948,296.082377
1110.400304,-9178.553681,229.828649,1110.308913
1110.400615,-10140.821405,-842.705048,370.102971
1110.400926,-9178.553681,0.000000,1258.350101
1110.401238,-9178.553681,-306.438199,222.061783
1110.401549,-8068.244768,0.000000,1406.391290
1110.401861,-8216.285956,-459.657299,444.123565
1110.402172,-7550.100608,76.609550,1332.370696
1110.402483,-8586.388927,-536.266849,-222.061783
1110.402795,-7846.182985,229.828649,888.247130
1110.403106,-9474.636058,-766.095498,-296.082377
1110.403418,-9252.574275,383.047749,-0.000000
1110.403729,-10066.800811,76.609550,-370.102971
1110.404040,-9548.656652,229.828649,592.164754
1110.404352,-10362.883188,-536.266849,148.041188
1110.404663,-9104.533087,383.047749,1184.329507
1110.404975,-9400.615463,-306.438199,74.020594
1110.405286,-7994.224174,459.657299,1258.350101
1110.405597,-8956.491898,-383.047749,-0.000000
1110.405909,-7920.203579,153.219100,888.247130
1110.406220,-8734.430116,-229.828649,148.041188
1110.406532,-8142.265362,153.219100,740.205942
1110.406843,-9104.533087,-459.657299,-222.061783
1110.407154,-8660.409521,459.657299,444.123565
1110.407466,-9548.656652,-919.314598,-74.020594
1110.407777,-8734.430116,-306.438199,666.185348
1110.408089,-9400.615463,-919.314598,370.102971
1110.408400,-8660.409521,-689.485948,962.267725
1110.408711,-8734.430116,-383.047749,222.061783
1110.409023,-8956.491898,-383.047749,296.082377
1110.409334,-9252.574275,-612.876398,222.061783
1110.409646,-8364.327145,0.000000,518.144159
1110.409957,-9400.615463,-612.876398,222.061783
1110.410268,-8956.491898,0.000000,518.144159
1110.410580,-9030.512492,-612.876398,370.102971
1110.410891,-8882.471304,0.000000,-0.000000
1110.411203,-9474.636058,-459.657299,-0.000000
1110.411514,-8142.265362,-306.438199,1036.288319
1110.411825,-9252.574275,-766.095498,222.061783
1110.412137,-8364.327145,153.219100,888.247130
1110.412448,-9178.553681,0.000000,222.061783
1110.412760,-8586.388927,689.485948,1184.329507
1110.413071,-9622.677246,0.000000,296.082377
1110.413382,-8882.471304,383.047749,222.061783
1110.413694,-9104.533087,612.876398,-222.061783
1110.414005,-8438.347739,995.924147,592.164754
1110.414317,-9474.636058,0.000000,-0.000000
1110.414628,-8586.388927,383.047749,592.164754
1110.414939,-9474.636058,0.000000,370.102971
1110.415251,-8216.285956,229.828649,962.267725
1110.415562,-9104.533087,-153.219100,296.082377
1110.415874,-8512.368333,0.000000,592.164754
1110.416185,-9770.718434,-459.657299,370.102971
1110.416496,-9104.533087,-383.047749,814.226536
1110.416808,-9474.636058,0.000000,740.205942
1110.417119,-9104.533087,536.266849,740.205942
1110.417431,-9326.594869,0.000000,962.267725
1110.417742,-8438.347739,0.000000,666.185348
1110.418053,-8364.327145,-153.219100,592.164754
1110.418365,-7772.162391,0.000000,296.082377
1110.418676,-8734.430116,-306.438199,222.061783
1110.418988,-8068.244768,0.000000,296.082377
1110.419299,-9178.553681,-306.438199,740.205942
1110.419610,-9326.594869,153.219100,370.102971
1110.419922,-9696.697840,-383.047749,518.144159
1110.420233,-9252.574275,0.000000,518.144159
1110.420545,-9474.636058,0.000000,518.144159
1110.420856,-8364.327145,0.000000,444.123565
1110.421167,-8660.409521,76.609550,962.267725
1110.421479,-8142.265362,-306.438199,888.247130
1110.421790,-8808.450710,-612.876398,962.267725
1110.422102,-8364.327145,-459.657299,666.185348
1110.422413,-9178.553681,0.000000,444.123565
1110.422724,-8438.347739,306.438199,666.185348
1110.423036,-9104.533087,-383.047749,444.123565
1110.423347,-8882.471304,-306.438199,296.082377
1110.423659,-9400.615463,-153.219100,370.102971
1110.423970,-9104.533087,0.000000,296.082377
1110.424281,-9622.677246,0.000000,888.247130
1110.424593,-9252.574275,-153.219100,370.102971
1110.424904,-9030.512492,0.000000,518.144159
1110.425216,-7846.182985,153.219100,222.061783
1110.425527,-7846.182985,689.485948,444.123565
1110.425838,-8142.265362,-306.438199,444.123565
1110.426150,-8734.430116,-383.047749,740.205942
1110.426461,-8586.388927,-612.876398,444.123565
1110.426772,-9252.574275,-383.047749,814.226536
1110.427084,-9474.636058,0.000000,296.082377
1110.427395,-9548.656652,0.000000,814.226536
1110.427706,-9030.512492,-919.314598,296.082377
1110.428018,-9104.533087,-766.095498,962.267725
1110.428329,-8808.450710,-229.828649,-148.041188
1110.428640,-8956.491898,306.438199,592.164754
1110.428952,-8512.368333,-229.828649,-74.020594
1110.429263,-8808.450710,-229.828649,888.247130
1110.429574,-9030.512492,-153.219100,-148.041188
1110.429886,-9252.574275,536.266849,444.123565
1110.430197,-8956.491898,459.657299,148.041188
1110.430508,-9104.533087,76.609550,962.267725
1110.430820,-9030.512492,-306.438199,148.041188
1110.431131,-9252.574275,76.609550,666.185348
1110.431443,-8734.430116,0.000000,296.082377
1110.431754,-8956.491898,0.000000,1110.308913
1110.432065,-8586.388927,-459.657299,222.061783
1110.432377,-9104.533087,0.000000,518.144159
1110.432688,-8364.327145,76.609550,-0.000000
1110.432999,-8734.430116,229.828649,666.185348
1110.433311,-9548.656652,0.000000,-296.082377
1110.433622,-9400.615463,536.266849,1036.288319
1110.433933,-9104.533087,0.000000,222.061783
1110.434245,-9326.594869,0.000000,1184.329507
1110.434556,-8956.491898,-459.657299,222.061783
1110.434867,-8068.244768,0.000000,1036.288319
1110.435179,-8068.244768,-842.705048,-0.000000
1110.435490,-7920.203579,0.000000,1406.391290
1110.435801,-8808.450710,-689.485948,-74.020594
1110.436113,-8660.409521,0.000000,1332.370696
1110.436424,-8808.450710,-306.438199,-0.000000
1110.436735,-8660.409521,0.000000,1480.411884
1110.437047,-9104.533087,-612.876398,-222.061783
1110.437358,-8956.491898,76.609550,1258.350101
1110.437670,-8734.430116,-612.876398,-148.041188
1110.437981,-8216.285956,0.000000,1406.391290
1110.438292,-8586.388927,-536.266849,-0.000000
1110.438604,-8734.430116,0.000000,1480.411884
1110.438915,-8660.409521,-842.705048,-222.061783
1110.439226,-8512.368333,0.000000,1554.432478
1110.439538,-9326.594869,-536.266849,-148.041188
1110.439849,-9178.553681,0.000000,1258.350101
1110.440160,-9474.636058,-612.876398,-592.164754
1110.440472,-9252.574275,153.219100,1258.350101
1110.440783,-9548.656652,-612.876398,-74.020594
1110.441094,-9178.553681,306.438199,1184.329507
1110.441406,-8956.491898,-536.266849,-148.041188
1110.441717,-8660.409521,153.219100,1406.391290
1110.442028,-8290.306550,-919.314598,-0.000000
1110.442340,-8734.430116,229.828649,1036.288319
1110.442651,-8512.368333,229.828649,-148.041188
1110.442962,-8808.450710,842.705048,1184.329507
1110.443274,-9770.718434,-383.047749,-222.061783
1110.443585,-9474.636058,995.924147,1110.308913
1110.443896,-9844.739029,0.000000,-370.102971
1110.444208,-9474.636058,689.485948,962.267725
1110.444519,-9326.594869,0.000000,-444.123565
1110.444831,-8586.388927,612.876398,814.226536
1110.445142,-8660.409521,-459.657299,-296.082377
1110.445453,-7624.121203,459.657299,1628.453072
1110.445765,-8586.388927,-919.314598,-74.020594
1110.446076,-8364.327145,76.609550,1776.494261
1110.446387,-9104.533087,-842.705048,-0.000000
1110.446699,-8660.409521,383.047749,1776.494261
1110.447010,-8956.491898,-153.219100,-444.123565
1110.447321,-9104.533087,383.047749,1258.350101
1110.447633,-8956.491898,-536.266849,-222.061783
1110.447944,-8512.368333,0.000000,1480.411884
1110.448255,-9030.512492,-842.705048,-666.185348
1110.448567,-8290.306550,76.609550,1554.432478
1110.448878,-8734.430116,-842.705048,-370.102971
1110.449189,-8586.388927,536.266849,1332.370696
1110.449501,-9104.533087,-766.095498,-370.102971
1110.449812,-8068.244768,842.705048,1554.432478
1110.450123,-9474.636058,-995.924147,-518.144159
1110.450435,-8660.409521,306.438199,1628.453072
1110.450746,-9326.594869,-842.705048,-370.102971
1110.451058,-8586.388927,612.876398,1332.370696
1110.451369,-8882.471304,-612.876398,-518.144159
1110.451680,-8142.265362,536.266849,1036.288319
1110.451992,-8734.430116,-842.705048,-370.102971
1110.452303,-8438.347739,76.609550,1036.288319
1110.452614,-9252.574275,-229.828649,-666.185348
1110.452926,-9326.594869,689.485948,1258.350101
1110.453237,-10140.821405,-536.266849,-296.082377
1110.453548,-9474.636058,689.485948,1332.370696
1110.453860,-9622.677246,-306.438199,-518.144159
1110.454171,-8660.409521,1072.533697,1628.453072
1110.454482,-9178.553681,-383.047749,-592.164754
1110.454794,-8216.285956,459.657299,1628.453072
1110.455105,-8586.388927,-766.095498,-592.164754
1110.455416,-7846.182985,306.438199,1406.391290
1110.455728,-9104.533087,-1378.971896,-814.226536
1110.456039,-8660.409521,0.000000,1406.391290
1110.456350,-9622.677246,-919.314598,-518.144159
1110.456662,-8438.347739,536.266849,1776.494261
1110.456973,-10140.821405,-689.485948,-592.164754
1110.457285,-9030.512492,842.705048,2146.597232
1110.457596,-9326.594869,-383.047749,-370.102971
1110.457907,-8364.327145,766.095498,1702.473667
1110.458219,-8512.368333,-536.266849,-592.164754
1110.458530,-7698.141797,842.705048,1184.329507
1110.458841,-8660.409521,-1072.533697,-888.247130
1110.459153,-7994.224174,306.438199,1332.370696
1110.459464,-9400.615463,-1991.848295,-444.123565
1110.459775,-8956.491898,383.047749,1184.329507
1110.460087,-9992.780217,-842.705048,-592.164754
1110.460398,-9400.615463,459.657299,1628.453072
1110.460709,-9622.677246,-995.924147,-0.000000
1110.461021,-8660.409521,459.657299,1850.514855
1110.461332,-9104.533087,-536.266849,-0.000000
1110.461643,-7698.141797,383.047749,1776.494261
1110.461955,-8512.368333,-536.266849,-296.082377
1110.462266,-7772.162391,842.705048,1554.432478
1110.462577,-8734.430116,-459.657299,-370.102971
1110.462889,-8290.306550,612.876398,1554.432478
1110.463200,-9770.718434,-689.485948,-518.144159
1110.463512,-9252.574275,766.095498,1332.370696
1110.463823,-10066.800811,-229.828649,-888.247130
1110.464134,-9326.594869,1302.362347,1776.494261
1110.464446,-10066.800811,-383.047749,-592.164754
1110.464757,-8216.285956,1225.752797,1850.514855
1110.465068,-8882.471304,-383.047749,-296.082377
1110.465380,-7254.018232,766.095498,2072.576638
1110.465691,-8068.244768,-689.485948,-296.082377
1110.466002,-7624.121203,383.047749,1628.453072
1110.466314,-9030.512492,-1225.752797,-518.144159
1110.466625,-7550.100608,153.219100,1702.473667
1110.466936,-9326.594869,-1532.190996,-444.123565
1110.467248,-9030.512492,0.000000,1480.411884
1110.467559,-9548.656652,-1532.190996,-222.061783
1110.467870,-8808.450710,-153.219100,1776.494261
1110.468182,-9474.636058,-1225.752797,-222.061783
1110.468493,-8216.285956,766.095498,1406.391290
1110.468804,-8882.471304,-995.924147,-518.144159
1110.469116,-7476.080014,536.266849,1554.432478
1110.469427,-9252.574275,-1149.143247,-814.226536
1110.469739,-8956.491898,919.314598,1332.370696
1110.470050,-9622.677246,0.000000,-740.205942
1110.470361,-8882.471304,842.705048,1258.350101
1110.470673,-9770.718434,-689.485948,-296.082377
1110.470984,-8956.491898,383.047749,1406.391290
1110.471295,-9474.636058,-383.047749,-444.123565
1110.471607,-8364.327145,536.266849,1702.473667
1110.471918,-9104.533087,-919.314598,-444.123565
1110.472229,-8364.327145,536.266849,1332.370696
1110.472541,-9252.574275,-383.047749,-814.226536
1110.472852,-8586.388927,1072.533697,1110.308913
1110.473163,-9844.739029,-153.219100,-592.164754
1110.473475,-9178.553681,1149.143247,962.267725
1110.473786,-10066.800811,229.828649,-962.267725
1110.474097,-8882.471304,459.657299,1332.370696
1110.474409,-9474.636058,-766.095498,-222.061783
1110.474720,-8142.265362,766.095498,1628.453072
1110.475031,-9030.512492,-536.266849,-370.102971
1110.475343,-7476.080014,306.438199,1628.453072
1110.475654,-8586.388927,-1072.533697,-296.082377
1110.475966,-8364.327145,306.438199,1258.350101
1110.476277,-9474.636058,-1072.533697,-148.041188
1110.476588,-8290.306550,459.657299,1406.391290
1110.476900,-9252.574275,-995.924147,-74.020594
1110.477211,-8586.388927,536.266849,1332.370696
1110.477522,-9326.594869,-766.095498,-74.020594
1110.477834,-8216.285956,153.219100,1850.514855
1110.478145,-9030.512492,-919.314598,-0.000000
1110.478456,-7698.141797,153.219100,1998.556043
1110.478768,-8956.491898,-1838.629195,-0.000000
1110.479079,-7772.162391,0.000000,1702.473667
1110.479390,-8808.450710,-1302.362347,-0.000000
1110.479702,-8438.347739,229.828649,1258.350101
1110.480013,-9696.697840,-536.266849,-518.144159
1110.480324,-9178.553681,612.876398,1110.308913
1110.480636,-9918.759623,-153.219100,-296.082377
1110.480947,-8956.491898,766.095498,1110.308913
1110.481258,-9622.677246,0.000000,-444.123565
1110.481570,-8364.327145,536.266849,1480.411884
1110.481881,-8882.471304,-995.924147,148.041188
1110.482192,-7994.224174,229.828649,1628.453072
1110.482504,-8956.491898,-689.485948,-0.000000
1110.482815,-8364.327145,153.219100,1406.391290
1110.483127,-9548.656652,-612.876398,-0.000000
1110.483438,-8808.450710,1302.362347,962.267725
1110.483749,-10510.924376,-612.876398,-222.061783
1110.484061,-9326.594869,612.876398,1110.308913
1110.484372,-10288.862594,-306.438199,-222.061783
1110.484683,-8808.450710,689.485948,1184.329507
1110.484995,-9178.553681,-612.876398,-148.041188
1110.485306,-7994.224174,76.609550,1480.411884
1110.485617,-8512.368333,-383.047749,-222.061783
1110.485929,-7920.203579,306.438199,1628.453072
1110.486240,-9326.594869,-842.705048,-74.020594
1110.486551,-8142.265362,1149.143247,1554.432478
1110.486863,-9178.553681,-459.657299,-0.000000
1110.487174,-8068.244768,459.657299,1184.329507
1110.487485,-8956.491898,-995.924147,-222.061783
1110.487797,-7994.224174,-383.047749,888.247130
1110.488108,-8364.327145,-842.705048,-148.041188
1110.488419,-8586.388927,459.657299,296.082377
1110.488731,-8734.430116,-919.314598,-74.020594
1110.489042,-8512.368333,76.609550,740.205942
1110.489354,-9104.533087,-995.924147,-0.000000
1110.489665,-8512.368333,229.828649,888.247130
1110.489976,-9474.636058,-689.485948,-0.000000
1110.490288,-8660.409521,0.000000,1110.308913
1110.490599,-9178.553681,-995.924147,296.082377
1110.490910,-8364.327145,0.000000,1184.329507
1110.491222,-9326.594869,-536.266849,-148.041188
1110.491533,-8216.285956,229.828649,888.247130
1110.491844,-9030.512492,-612.876398,-148.041188
1110.492156,-8586.388927,0.000000,740.205942
1110.492467,-9474.636058,-689.485948,-222.061783
1110.492778,-8734.430116,153.219100,814.226536
1110.493090,-10288.862594,-76.609550,-222.061783
1110.493401,-9030.512492,612.876398,1332.370696
1110.493712,-9844.739029,-306.438199,-296.082377
1110.494024,-8808.450710,383.047749,1036.288319
1110.494335,-9548.656652,-459.657299,-0.000000
1110.494646,-8364.327145,76.609550,740.205942
1110.494958,-9252.574275,-459.657299,-370.102971
1110.495269,-8290.306550,76.609550,518.144159
1110.495581,-8882.471304,-459.657299,-148.041188
1110.495892,-8512.368333,0.000000,296.082377
1110.496203,-9252.574275,-536.266849,148.041188
1110.496515,-8882.471304,0.000000,962.267725
1110.496826,-9622.677246,-306.438199,592.164754
1110.497137,-9252.574275,459.657299,1258.350101
1110.497449,-9474.636058,-306.438199,592.164754
1110.497760,-7994.224174,229.828649,962.267725
1110.498071,-8882.471304,306.438199,370.102971
1110.498383,-7698.141797,766.095498,444.123565
1110.498694,-8290.306550,0.000000,296.082377
1110.499005,-8142.265362,306.438199,518.144159
1110.499317,-8956.491898,-229.828649,296.082377
1110.499628,-9178.553681,153.219100,370.102971
1110.499939,-9770.718434,153.219100,444.123565
1110.500251,-9252.574275,383.047749,740.205942
1110.500562,-9696.697840,-153.219100,370.102971
1110.500873,-8512.368333,76.609550,1406.391290
1110.501185,-8586.388927,-229.828649,814.226536
1110.501496,-7994.224174,76.609550,1258.350101
1110.501808,-8364.327145,-76.609550,888.247130
1110.502119,-8068.244768,459.657299,888.247130
1110.502430,-8364.327145,76.609550,296.082377
1110.502742,-7920.203579,0.000000,370.102971
1110.503053,-8438.347739,-306.438199,148.041188
1110.503364,-9104.533087,-153.219100,222.061783
1110.503676,-9622.677246,0.000000,148.041188
1110.503987,-9104.533087,76.609550,888.247130
1110.504298,-9770.718434,-459.657299,592.164754
1110.504610,-8734.430116,153.219100,1036.288319
1110.504921,-9030.512492,153.219100,518.144159
1110.505232,-7772.162391,153.219100,1036.288319
1110.505544,-7920.203579,-306.438199,814.226536
1110.505855,-7772.162391,-612.876398,370.102971
1110.506166,-8660.409521,-995.924147,370.102971
1110.506478,-8290.306550,-383.047749,222.061783
1110.506789,-9474.636058,-536.266849,370.102971
1110.507100,-9474.636058,-612.876398,296.082377
1110.507412,-9770.718434,-689.485948,444.123565
1110.507723,-9474.636058,-919.314598,444.123565
1110.508035,-9622.677246,-1532.190996,592.164754
1110.508346,-8882.471304,-459.657299,296.082377
1110.508657,-9252.574275,-612.876398,518.144159
1110.508969,-8808.450710,-612.876398,-0.000000
1110.509280,-8808.450710,-612.876398,888.247130
1110.509591,-9030.512492,-383.047749,-0.000000
1110.509903,-9326.594869,842.705048,518.144159
1110.510214,-9400.615463,-229.828649,-148.041188
1110.510525,-9178.553681,0.000000,518.144159
1110.510837,-9474.636058,0.000000,-148.041188
1110.511148,-9548.656652,76.609550,-0.000000
1110.511459,-8882.471304,76.609550,222.061783
1110.511771,-9400.615463,0.000000,592.164754
1110.512082,-9030.512492,306.438199,296.082377
1110.512393,-8660.409521,229.828649,666.185348
1110.512705,-8512.368333,459.657299,-0.000000
1110.513016,-9252.574275,459.657299,814.226536
1110.513327,-9252.574275,306.438199,-0.000000
1110.513639,-9400.615463,689.485948,296.082377
1110.513950,-8808.450710,306.438199,-0.000000
1110.514261,-9178.553681,76.609550,592.164754
1110.514573,-8956.491898,-459.657299,-0.000000
1110.514884,-8586.388927,0.000000,444.123565
1110.515196,-8216.285956,0.000000,-0.000000
1110.515507,-8512.368333,-383.047749,740.205942
1110.515818,-8586.388927,-383.047749,-0.000000
1110.516130,-8882.471304,153.219100,888.247130
1110.516441,-8068.244768,0.000000,148.041188
1110.516752,-8438.347739,536.266849,1110.308913
1110.517064,-8290.306550,-229.828649,-0.000000
1110.517375,-8438.347739,0.000000,1110.308913
1110.517686,-8438.347739,0.000000,-0.000000
1110.517998,-8438.347739,-153.219100,1258.350101
1110.518309,-8438.347739,-306.438199,148.041188
1110.518620,-8734.430116,0.000000,814.226536
1110.518932,-8586.388927,-612.876398,-0.000000
1110.519243,-8734.430116,76.609550,1332.370696
1110.519554,-8956.491898,-689.485948,74.020594
1110.519866,-9548.656652,459.657299,1258.350101
1110.520177,-9252.574275,-153.219100,370.102971
1110.520488,-9400.615463,-153.219100,1258.350101
1110.520800,-9104.533087,-536.266849,444.123565
1110.521111,-9030.512492,153.219100,962.267725
1110.521423,-8882.471304,-383.047749,-0.000000
1110.521734,-8734.430116,383.047749,1036.288319
1110.522045,-8586.388927,-536.266849,222.061783
1110.522357,-8586.388927,-153.219100,814.226536
1110.522668,-9326.594869,-612.876398,-0.000000
1110.522979,-9474.636058,-153.219100,666.185348
1110.523291,-9622.677246,-229.828649,222.061783
1110.523602,-9844.739029,536.266849,814.226536
1110.523913,-9844.739029,306.438199,-0.000000
1110.524225,-9696.697840,306.438199,888.247130
1110.524536,-8808.450710,-229.828649,222.061783
1110.524849,-8734.430116,612.876398,740.205942
1110.525161,-8290.306550,0.000000,-0.000000
1110.525472,-7994.224174,0.000000,1332.370696
1110.525783,-8660.409521,-766.095498,-0.000000
1110.526095,-8734.430116,153.219100,1184.329507
1110.526406,-9030.512492,-306.438199,-0.000000
1110.526717,-8438.347739,842.705048,1258.350101
1110.527029,-8660.409521,0.000000,-296.082377
1110.527340,-8586.388927,536.266849,1036.288319
1110.527652,-8586.388927,-459.657299,-592.164754
1110.527963,-8142.265362,76.609550,962.267725
1110.528274,-8364.327145,-229.828649,-518.144159
1110.528586,-8660.409521,306.438199,1036.288319
1110.528897,-8586.388927,-766.095498,-370.102971
1110.529208,-8438.347739,229.828649,962.267725
1110.529520,-8808.450710,-229.828649,-518.144159
1110.529831,-8586.388927,689.485948,1406.391290
1110.530142,-8438.347739,-612.876398,-74.020594
1110.530454,-8660.409521,-306.438199,1332.370696
1110.530765,-9178.553681,-995.924147,148.041188
1110.531077,-8956.491898,0.000000,1332.370696
1110.531388,-9178.553681,-306.438199,-74.020594
1110.531699,-8586.388927,383.047749,1258.350101
1110.532011,-9104.533087,-689.485948,-592.164754
1110.532322,-9030.512492,229.828649,888.247130
1110.532633,-9030.512492,-306.438199,-666.185348
1110.532945,-9178.553681,459.657299,1036.288319
1110.533256,-9770.718434,-153.219100,-370.102971
1110.533567,-9548.656652,689.485948,1184.329507
1110.533879,-9770.718434,0.000000,-0.000000
1110.534190,-9178.553681,383.047749,888.247130
1110.534502,-9622.677246,0.000000,-370.102971
1110.534813,-8660.409521,536.266849,1036.288319
1110.535124,-9030.512492,-842.705048,-666.185348
1110.535436,-8364.327145,153.219100,1332.370696
1110.535747,-8882.471304,-995.924147,-222.061783
1110.536058,-8808.450710,-383.047749,1554.432478
1110.536370,-9474.636058,-1532.190996,-0.000000
1110.536681,-9400.615463,0.000000,1554.432478
1110.536992,-9252.574275,153.219100,296.082377
1110.537304,-8882.471304,1072.533697,1480.411884
1110.537615,-9104.533087,-383.047749,-0.000000
1110.537926,-8512.368333,306.438199,1924.535449
1110.538238,-8512.368333,-229.828649,-0.000000
1110.538549,-8068.244768,842.705048,1258.350101
1110.538861,-8364.327145,0.000000,-296.082377
1110.539172,-7846.182985,536.266849,1332.370696
1110.539483,-9104.533087,-842.705048,-518.144159
1110.539795,-8956.491898,612.876398,1184.329507
1110.540106,-9474.636058,-689.485948,-518.144159
1110.540417,-8956.491898,383.047749,1554.432478
1110.540729,-9326.594869,-1072.533697,-0.000000
1110.541040,-8364.327145,229.828649,1850.514855
1110.541351,-8216.285956,-766.095498,296.082377
1110.541663,-7772.162391,536.266849,1776.494261
1110.541974,-8290.306550,-459.657299,-0.000000
1110.542286,-7846.182985,76.609550,1554.432478
1110.542597,-8586.388927,-306.438199,-370.102971
1110.542908,-8512.368333,766.095498,1258.350101
1110.543220,-9770.718434,-536.266849,-592.164754
1110.543531,-9178.553681,842.705048,1258.350101
1110.543842,-9622.677246,0.000000,-814.226536
1110.544154,-9030.512492,1455.581446,1184.329507
1110.544465,-9474.636058,-689.485948,-0.000000
1110.544776,-8438.347739,689.485948,1480.411884
1110.545088,-8660.409521,-536.266849,-0.000000
1110.545399,-7550.100608,766.095498,1850.514855
1110.545711,-8290.306550,-612.876398,-296.082377
1110.546022,-8068.244768,383.047749,1480.411884
1110.546333,-8808.450710,-612.876398,-370.102971
1110.546645,-9030.512492,0.000000,1480.411884
1110.546956,-9622.677246,-689.485948,-444.123565
1110.547267,-9400.615463,76.609550,1554.432478
1110.547579,-9770.718434,-1072.533697,-444.123565
1110.547890,-8956.491898,-383.047749,1776.494261
1110.548201,-9622.677246,-1302.362347,-296.082377
1110.548513,-8512.368333,76.609550,1554.432478
1110.548824,-9474.636058,-919.314598,-222.061783
1110.549135,-7920.203579,306.438199,1702.473667
1110.549447,-9622.677246,-842.705048,-1036.288319
1110.549758,-9104.533087,689.485948,1184.329507
1110.550070,-9474.636058,-459.657299,-444.123565
1110.550381,-8660.409521,766.095498,1406.391290
1110.550692,-9622.677246,-995.924147,-370.102971
1110.551004,-9178.553681,536.266849,1036.288319
1110.551315,-9400.615463,-536.266849,-518.144159
1110.551626,-8438.347739,383.047749,1628.453072
1110.551938,-9474.636058,-612.876398,-740.205942
1110.552249,-8290.306550,536.266849,1406.391290
1110.552560,-8956.491898,-919.314598,-518.144159
1110.552872,-8660.409521,919.314598,1406.391290
1110.553183,-9696.697840,0.000000,-370.102971
1110.553495,-9030.512492,2221.676944,1406.391290
1110.553806,-9474.636058,76.609550,-444.123565
1110.554117,-8364.327145,919.314598,1332.370696
1110.554429,-9178.553681,-919.314598,-592.164754
1110.554740,-7772.162391,842.705048,1554.432478
1110.555051,-8438.347739,-612.876398,-444.123565
1110.555363,-7402.059420,153.219100,1850.514855
1110.555674,-9104.533087,-1608.800546,-518.144159
1110.555985,-8586.388927,459.657299,1554.432478
1110.556297,-8734.430116,-306.438199,-444.123565
1110.556608,-8216.285956,1225.752797,1332.370696
1110.556920,-9252.574275,-383.047749,-370.102971
1110.557231,-8438.347739,689.485948,1776.494261
1110.557542,-9178.553681,-689.485948,-222.061783
1110.557854,-7772.162391,689.485948,2146.597232
1110.558165,-8290.306550,-459.657299,-296.082377
1110.558476,-7624.121203,1225.752797,1554.432478
1110.558788,-8438.347739,-1532.190996,-740.205942
1110.559099,-8142.265362,-383.047749,1406.391290
1110.559410,-9474.636058,-1455.581446,-444.123565
1110.559722,-9400.615463,459.657299,1184.329507
1110.560033,-10140.821405,-995.924147,-444.123565
1110.560345,-9400.615463,459.657299,1480.411884
1110.560656,-10436.903782,-766.095498,-518.144159
1110.560967,-8956.491898,1455.581446,1924.535449
1110.561279,-9252.574275,-229.828649,-148.041188
1110.561590,-8142.265362,766.095498,1850.514855
1110.561901,-9178.553681,-919.314598,-148.041188
1110.562213,-8142.265362,612.876398,1554.432478
1110.562524,-9030.512492,-842.705048,-518.144159
1110.562835,-8512.368333,383.047749,1406.391290
1110.563147,-10362.883188,-1302.362347,-814.226536
1110.563458,-9474.636058,612.876398,1110.308913
1110.563769,-10955.047942,-1149.143247,-518.144159
1110.564081,-9400.615463,919.314598,1332.370696
1110.564392,-10214.842000,-229.828649,-0.000000
1110.564704,-8660.409521,1072.533697,1924.535449
1110.565015,-9104.533087,0.000000,-0.000000
1110.565326,-7031.956449,842.705048,1998.556043
1110.565638,-7846.182985,-306.438199,-0.000000
1110.565949,-7698.141797,1149.143247,1480.411884
1110.566260,-8586.388927,-1072.533697,-370.102971
1110.566572,-7698.141797,459.657299,1258.350101
1110.566883,-9474.636058,-612.876398,-518.144159
1110.567194,-9030.512492,612.876398,1406.391290
1110.567506,-9770.718434,-1225.752797,-74.020594
1110.567817,-7920.203579,-383.047749,1850.514855
1110.568129,-8438.347739,-919.314598,222.061783
1110.568440,-7920.203579,842.705048,1184.329507
1110.568751,-8586.388927,-612.876398,-370.102971
1110.569063,-7550.100608,536.266849,1480.411884
1110.569374,-8660.409521,-995.924147,-0.000000
1110.569685,-8068.244768,536.266849,1480.411884
1110.569997,-9252.574275,-689.485948,-444.123565
1110.570308,-8438.347739,306.438199,1332.370696
1110.570619,-9696.697840,-919.314598,-148.041188
1110.570931,-8956.491898,306.438199,1184.329507
1110.571242,-9474.636058,-1149.143247,-370.102971
1110.571554,-8660.409521,0.000000,1258.350101
1110.571865,-9400.615463,-766.095498,-148.041188
1110.572176,-8364.327145,459.657299,1258.350101
1110.572488,-9400.615463,-306.438199,-444.123565
1110.572799,-8142.265362,612.876398,1258.350101
1110.573110,-9622.677246,-306.438199,-740.205942
1110.573422,-8882.471304,612.876398,814.226536
1110.573733,-9918.759623,-612.876398,-444.123565
1110.574044,-9252.574275,612.876398,1184.329507
1110.574356,-10584.944971,-919.314598,-444.123565
1110.574667,-9178.553681,153.219100,962.267725
1110.574978,-9844.739029,-1225.752797,-370.102971
1110.575290,-8290.306550,459.657299,1036.288319
1110.575601,-9548.656652,-1072.533697,-444.123565
1110.575913,-8142.265362,153.219100,666.185348
1110.576224,-9252.574275,-612.876398,-296.082377
1110.576535,-8512.368333,459.657299,1184.329507
1110.576847,-9622.677246,-306.438199,222.061783
1110.577158,-9030.512492,612.876398,962.267725
1110.577469,-9252.574275,-459.657299,222.061783
1110.577781,-7994.224174,995.924147,1332.370696
1110.578092,-9178.553681,-1378.971896,-0.000000
1110.578403,-7698.141797,229.828649,962.267725
1110.578715,-8956.491898,-766.095498,-74.020594
1110.579026,-8068.244768,229.828649,1036.288319
1110.579338,-9104.533087,-842.705048,-0.000000
1110.579649,-8734.430116,459.657299,666.185348
1110.579960,-9474.636058,229.828649,-296.082377
1110.580272,-8660.409521,383.047749,740.205942
1110.580583,-8882.471304,-383.047749,-0.000000
1110.580894,-8216.285956,-76.609550,1184.329507
1110.581206,-8734.430116,-689.485948,222.061783
1110.581517,-7846.182985,0.000000,1554.432478
1110.581828,-8660.409521,-919.314598,666.185348
1110.582140,-8142.265362,229.828649,1702.473667
1110.582451,-8808.450710,-612.876398,444.123565
1110.582763,-8290.306550,612.876398,1332.370696
1110.583074,-9474.636058,-536.266849,-0.000000
1110.583385,-9030.512492,536.266849,962.267725
1110.583697,-10066.800811,76.609550,-222.061783
1110.584008,-8808.450710,1072.533697,962.267725
1110.584319,-9622.677246,153.219100,148.041188
1110.584631,-8512.368333,766.095498,1036.288319
1110.584942,-8882.471304,229.828649,-74.020594
1110.585253,-7624.121203,766.095498,1036.288319
1110.585565,-8512.368333,-153.219100,-0.000000
1110.585876,-8142.265362,76.609550,740.205942
1110.586188,-9474.636058,-842.705048,296.082377
1110.586499,-9030.512492,-229.828649,888.247130
1110.586810,-9622.677246,-306.438199,222.061783
1110.587122,-8734.430116,459.657299,666.185348
1110.587433,-9474.636058,-153.219100,-0.000000
1110.587744,-8734.430116,-1149.143247,592.164754
1110.588056,-9104.533087,-612.876398,222.061783
1110.588367,-8290.306550,-229.828649,592.164754
1110.588678,-9030.512492,-612.876398,370.102971
1110.588990,-8512.368333,-383.047749,444.123565
1110.589301,-9252.574275,-1149.143247,370.102971
1110.589612,-8808.450710,0.000000,370.102971
1110.589924,-9622.677246,-459.657299,222.061783
1110.590235,-9326.594869,306.438199,296.082377
1110.590547,-9548.656652,-766.095498,296.082377
1110.590858,-9326.594869,-229.828649,666.185348
1110.591169,-9622.677246,-536.266849,-74.020594
1110.591481,-8438.347739,0.000000,370.102971
1110.591792,-8956.491898,-229.828649,-0.000000
1110.592103,-7994.224174,0.000000,370.102971
1110.592415,-8956.491898,-842.705048,-296.082377
1110.592726,-8290.306550,153.219100,666.185348
1110.593037,-9474.636058,0.000000,222.061783
1110.593349,-9400.615463,229.828649,592.164754
1110.593660,-9770.718434,153.219100,370.102971
1110.593972,-9104.533087,76.609550,592.164754
1110.594283,-9474.636058,383.047749,370.102971
1110.594594,-8734.430116,-306.438199,296.082377
1110.594906,-8734.430116,-153.219100,148.041188
1110.595217,-8068.244768,76.609550,370.102971
1110.595528,-8364.327145,-536.266849,592.164754
1110.595840,-8586.388927,-612.876398,444.123565
1110.596151,-9178.553681,-383.047749,518.144159
1110.596462,-8216.285956,153.219100,592.164754
1110.596774,-8882.471304,76.609550,740.205942
1110.597085,-8586.388927,76.609550,518.144159
1110.597397,-9030.512492,76.609550,962.267725
1110.597708,-8364.327145,76.609550,518.144159
1110.598019,-8586.388927,0.000000,1036.288319
1110.598331,-8364.327145,0.000000,666.185348
1110.598642,-8808.450710,153.219100,666.185348
1110.598953,-8586.388927,-229.828649,296.082377
1110.599265,-8882.471304,0.000000,888.247130
1110.599576,-8512.368333,-383.047749,296.082377
1110.599887,-9104.533087,229.828649,740.205942
1110.600199,-9548.656652,306.438199,-0.000000
1110.600510,-9474.636058,0.000000,1184.329507
1110.600821,-9178.553681,0.000000,740.205942
1110.601133,-8956.491898,0.000000,1184.329507
1110.601444,-8512.368333,-153.219100,740.205942
1110.601756,-8586.388927,76.609550,1036.288319
1110.602067,-8290.306550,-536.266849,370.102971
1110.602378,-8734.430116,459.657299,370.102971
1110.602690,-8808.450710,0.000000,296.082377
1110.603001,-9696.697840,-229.828649,592.164754
1110.603312,-9474.636058,76.609550,296.082377
1110.603624,-9918.759623,459.657299,222.061783
1110.603935,-9104.533087,229.828649,296.082377
1110.604246,-9474.636058,0.000000,444.123565
1110.604558,-8734.430116,-153.219100,444.123565
1110.604869,-8660.409521,459.657299,962.267725
1110.605181,-8216.285956,-306.438199,370.102971
1110.605492,-8142.265362,-153.219100,1036.288319
1110.605803,-8364.327145,-459.657299,-0.000000
1110.606115,-8808.450710,0.000000,740.205942
1110.606426,-8734.430116,-459.657299,-0.000000
1110.606737,-8734.430116,-153.219100,1332.370696
1110.607049,-9104.533087,-459.657299,-0.000000
1110.607360,-8808.450710,-536.266849,740.205942
1110.607671,-8882.471304,-689.485948,222.061783
1110.607983,-8438.347739,-383.047749,962.267725
1110.608294,-8586.388927,-306.438199,-0.000000
1110.608606,-8512.368333,0.000000,888.247130
1110.608917,-8660.409521,-306.438199,-148.041188
1110.609228,-8734.430116,76.609550,888.247130
1110.609540,-8660.409521,-153.219100,-0.000000
1110.609851,-8660.409521,459.657299,888.247130
1110.610162,-9770.718434,-383.047749,-222.061783
1110.610474,-9474.636058,-306.438199,666.185348
1110.610785,-9326.594869,-842.705048,-0.000000
1110.611096,-9178.553681,229.828649,518.144159
1110.611408,-9030.512492,-153.219100,-222.061783
1110.611719,-8512.368333,153.219100,666.185348
1110.612030,-8882.471304,-1302.362347,222.061783
1110.612342,-8734.430116,0.000000,888.247130
1110.612653,-9252.574275,76.609550,-0.000000
1110.612965,-9474.636058,306.438199,814.226536
1110.613276,-9548.656652,0.000000,-0.000000
1110.613587,-9548.656652,306.438199,740.205942
1110.613899,-9104.533087,0.000000,-0.000000
1110.614210,-8882.471304,459.657299,888.247130
1110.614521,-9252.574275,-842.705048,-74.020594
1110.614833,-8290.306550,306.438199,1480.411884
1110.615144,-8512.368333,-459.657299,-74.020594
1110.615455,-8216.285956,0.000000,1110.308913
1110.615767,-8734.430116,-995.924147,-74.020594
1110.616078,-8438.347739,-383.047749,1258.350101
1110.616390,-9104.533087,-689.485948,-0.000000
1110.616701,-9030.512492,612.876398,1184.329507
1110.617012,-9474.636058,-842.705048,-0.000000
1110.617324,-8734.430116,0.000000,2294.638420
1110.617635,-8882.471304,-995.924147,444.123565
1110.617946,-8142.265362,229.828649,1702.473667
1110.618258,-8290.306550,-306.438199,-0.000000
1110.618569,-7994.224174,612.876398,1110.308913
1110.618880,-8586.388927,-536.266849,-666.185348
1110.619192,-8216.285956,0.000000,1332.370696
1110.619503,-9030.512492,-1225.752797,-222.061783
1110.619815,-9104.533087,306.438199,1406.391290
1110.620126,-9622.677246,-689.485948,-0.000000
1110.620437,-9474.636058,306.438199,1406.391290
1110.620749,-9252.574275,-766.095498,296.082377
1110.621060,-8586.388927,612.876398,1110.308913
1110.621371,-8660.409521,-995.924147,-0.000000
1110.621683,-7624.121203,0.000000,1702.473667
1110.621994,-8956.491898,-766.095498,-370.102971
1110.622305,-8364.327145,153.219100,1332.370696
1110.622617,-8882.471304,-306.438199,-222.061783
1110.622928,-9104.533087,459.657299,1110.308913
1110.623240,-9918.759623,-536.266849,-444.123565
1110.623551,-9178.553681,842.705048,740.205942
1110.623862,-9548.656652,76.609550,-592.164754
1110.624174,-9474.636058,1149.143247,1036.288319
1110.624485,-9622.677246,-306.438199,-0.000000
1110.624796,-8882.471304,919.314598,1332.370696
1110.625108,-8808.450710,0.000000,-222.061783
1110.625419,-7550.100608,995.924147,1480.411884
1110.625730,-8438.347739,-229.828649,-296.082377
1110.626042,-8364.327145,1302.362347,1184.329507
1110.626353,-8808.450710,-1149.143247,-222.061783
1110.626665,-7920.203579,383.047749,1184.329507
1110.626976,-9030.512492,-383.047749,-444.123565
1110.627287,-9252.574275,459.657299,1258.350101
1110.627599,-9474.636058,-995.924147,-370.102971
1110.627910,-8808.450710,-153.219100,1406.391290
1110.628221,-9030.512492,-842.705048,-148.041188
1110.628533,-8216.285956,612.876398,1258.350101
1110.628844,-9030.512492,-1149.143247,-0.000000
1110.629155,-8216.285956,0.000000,1702.473667
1110.629467,-9104.533087,-919.314598,-222.061783
1110.629778,-9030.512492,459.657299,1110.308913
1110.630090,-9178.553681,-459.657299,-296.082377
1110.630401,-8882.471304,76.609550,1258.350101
1110.630712,-9178.553681,-612.876398,-222.061783
1110.631024,-8882.471304,153.219100,1110.308913
1110.631335,-9030.512492,-536.266849,-370.102971
1110.631646,-8438.347739,229.828649,1554.432478
1110.631958,-9178.553681,-995.924147,-222.061783
1110.632269,-8512.368333,306.438199,1332.370696
1110.632581,-8882.471304,-383.047749,-518.144159
1110.632892,-8882.471304,842.705048,1184.329507
1110.633203,-9474.636058,0.000000,-296.082377
1110.633515,-8956.491898,1378.971896,888.247130
1110.633826,-9696.697840,76.609550,-296.082377
1110.634137,-9030.512492,383.047749,1480.411884
1110.634449,-9400.615463,-919.314598,-296.082377
1110.634760,-7994.224174,459.657299,1258.350101
1110.635071,-8808.450710,-919.314598,-370.102971
1110.635383,-8364.327145,306.438199,1406.391290
1110.635694,-9030.512492,-1302.362347,-444.123565
1110.636006,-8068.244768,536.266849,1480.411884
1110.636317,-9400.615463,-383.047749,-444.123565
1110.636628,-8364.327145,-153.219100,1850.514855
1110.636940,-9474.636058,-306.438199,-74.020594
1110.637251,-8734.430116,612.876398,1628.453072
1110.637562,-8956.491898,-459.657299,-0.000000
1110.637874,-7846.182985,842.705048,1554.432478
1110.638185,-8734.430116,-306.438199,-222.061783
1110.638497,-7920.203579,689.485948,1332.370696
1110.638808,-8734.430116,-766.095498,-666.185348
1110.639119,-8216.285956,536.266849,1332.370696
1110.639431,-9474.636058,-766.095498,-296.082377
1110.639742,-9104.533087,536.266849,1036.288319
1110.640053,-9696.697840,-919.314598,-222.061783
1110.640365,-8660.409521,536.266849,1332.370696
1110.640676,-9400.615463,-306.438199,-222.061783
1110.640988,-9030.512492,1072.533697,962.267725
1110.641299,-8882.471304,0.000000,370.102971
1110.641610,-7920.203579,766.095498,1776.494261
1110.641922,-9104.533087,-766.095498,-74.020594
1110.642233,-7994.224174,383.047749,1406.391290
1110.642544,-8956.491898,-689.485948,-518.144159
1110.642856,-8734.430116,383.047749,1850.514855
1110.643167,-9696.697840,-459.657299,-296.082377
1110.643478,-9104.533087,536.266849,888.247130
1110.643790,-10288.862594,-383.047749,-444.123565
1110.644101,-9178.553681,766.095498,1554.432478
1110.644413,-9622.677246,-306.438199,-296.082377
1110.644724,-8216.285956,995.924147,1406.391290
1110.645035,-8808.450710,-229.828649,-148.041188
1110.645347,-7254.018232,842.705048,1702.473667
1110.645658,-8438.347739,-229.828649,-296.082377
1110.645969,-7550.100608,153.219100,1702.473667
1110.646281,-9030.512492,-689.485948,-296.082377
1110.646592,-8438.347739,383.047749,1702.473667
1110.646904,-9474.636058,-842.705048,-148.041188
1110.647215,-8660.409521,229.828649,1554.432478
1110.647526,-9326.594869,-1225.752797,-148.041188
1110.647838,-8364.327145,0.000000,1480.411884
1110.648149,-8956.491898,-612.876398,-0.000000
1110.648460,-7920.203579,76.609550,1110.308913
1110.648772,-9030.512492,-995.924147,-222.061783
1110.649083,-8142.265362,229.828649,1258.350101
1110.649394,-9326.594869,-842.705048,-222.061783
1110.649706,-8734.430116,459.657299,1332.370696
1110.650017,-9474.636058,-383.047749,-222.061783
1110.650329,-8438.347739,306.438199,1480.411884
1110.650640,-9474.636058,-1225.752797,-148.041188
1110.650951,-8142.265362,842.705048,1332.370696
1110.651263,-9252.574275,-612.876398,-148.041188
1110.651574,-8216.285956,306.438199,1110.308913
1110.651885,-9326.594869,-995.924147,-370.102971
1110.652197,-8512.368333,689.485948,888.247130
1110.652508,-9326.594869,-229.828649,-370.102971
1110.652820,-9030.512492,766.095498,962.267725
1110.653131,-10140.821405,-766.095498,-370.102971
1110.653442,-9252.574275,459.657299,1184.329507
1110.653754,-9548.656652,-306.438199,-296.082377
1110.654065,-8734.430116,766.095498,1258.350101
1110.654376,-9696.697840,-766.095498,-296.082377
1110.654688,-8438.347739,0.000000,1332.370696
1110.654999,-9400.615463,-919.314598,-296.082377
1110.655310,-7772.162391,153.219100,1110.308913
1110.655622,-9104.533087,-383.047749,-814.226536
1110.655933,-8438.347739,459.657299,1036.288319
1110.656245,-9474.636058,-766.095498,-296.082377
1110.656556,-8734.430116,306.438199,1184.329507
1110.656867,-9474.636058,-459.657299,-0.000000
1110.657179,-8808.450710,1149.143247,1406.391290
1110.657490,-9252.574275,0.000000,222.061783
1110.657801,-8290.306550,306.438199,1258.350101
1110.658113,-8586.388927,-612.876398,222.061783
1110.658424,-7402.059420,459.657299,1110.308913
1110.658736,-8438.347739,-536.266849,-148.041188
1110.659047,-8068.244768,0.000000,1036.288319
1110.659358,-9252.574275,-995.924147,-74.020594
1110.659670,-9104.533087,536.266849,888.247130
1110.659981,-9918.759623,-919.314598,-0.000000
1110.660292,-8290.306550,612.876398,1554.432478
1110.660604,-9696.697840,-459.657299,222.061783
1110.660915,-7994.224174,383.047749,1776.494261
1110.661226,-8956.491898,-612.876398,296.082377
1110.661538,-8142.265362,229.828649,1554.432478
1110.661849,-8956.491898,-766.095498,444.123565
1110.662161,-8216.285956,383.047749,1776.494261
1110.662472,-8734.430116,0.000000,518.144159
1110.662783,-8068.244768,919.314598,962.267725
1110.663095,-9474.636058,229.828649,-444.123565
1110.663406,-8956.491898,689.485948,962.267725
1110.663717,-10066.800811,-153.219100,-296.082377
1110.664029,-9030.512492,1072.533697,1258.350101
1110.664340,-9992.780217,0.000000,-0.000000
1110.664652,-8586.388927,612.876398,1110.308913
1110.664963,-9104.533087,306.438199,-74.020594
1110.665274,-7402.059420,536.266849,1480.411884
1110.665586,-8068.244768,-612.876398,-0.000000
1110.665897,-8068.244768,459.657299,1184.329507
1110.666208,-9252.574275,-612.876398,-74.020594
1110.666520,-8438.347739,76.609550,1110.308913
1110.666831,-9622.677246,-842.705048,-0.000000
1110.667142,-9400.615463,229.828649,518.144159
1110.667454,-9844.739029,-1762.019645,-74.020594
1110.667765,-8068.244768,-229.828649,1110.308913
1110.668077,-9252.574275,-766.095498,74.020594
1110.668388,-8512.368333,0.000000,888.247130
1110.668699,-8956.491898,-689.485948,-0.000000
1110.669011,-8142.265362,0.000000,888.247130
1110.669322,-8882.471304,-229.828649,222.061783
1110.669633,-8956.491898,306.438199,666.185348
1110.669945,-9548.656652,153.219100,-370.102971
1110.670256,-8512.368333,76.609550,444.123565
1110.670568,-9400.615463,-612.876398,74.020594
1110.670879,-8956.491898,0.000000,888.247130
1110.671190,-9474.636058,-612.876398,-74.020594
1110.671502,-8586.388927,0.000000,740.205942
1110.671813,-8882.471304,-459.657299,222.061783
1110.672124,-8290.306550,0.000000,666.185348
1110.672436,-9030.512492,-383.047749,-296.082377
1110.672747,-8068.244768,383.047749,740.205942
1110.673058,-9696.697840,-459.657299,-74.020594
1110.673370,-9326.594869,766.095498,814.226536
1110.673681,-9770.718434,306.438199,-148.041188
1110.673993,-8882.471304,689.485948,666.185348
1110.674304,-9622.677246,-459.657299,-0.000000
1110.674615,-7994.224174,383.047749,814.226536
1110.674927,-8734.430116,-612.876398,-74.020594
1110.675238,-7994.224174,306.438199,518.144159
1110.675549,-8512.368333,-612.876398,296.082377
1110.675861,-8586.388927,-536.266849,666.185348
1110.676172,-9474.636058,-689.485948,370.102971
1110.676484,-8734.430116,0.000000,666.185348
1110.676795,-8956.491898,0.000000,296.082377
1110.677106,-8586.388927,306.438199,370.102971
1110.677418,-8956.491898,-229.828649,518.144159
1110.677729,-8364.327145,0.000000,888.247130
1110.678040,-8882.471304,-383.047749,740.205942
1110.678352,-8142.265362,153.219100,962.267725
1110.678663,-8586.388927,-306.438199,518.144159
1110.678974,-8586.388927,0.000000,444.123565
1110.679286,-8882.471304,-1302.362347,814.226536
1110.679597,-8808.450710,-536.266849,814.226536
1110.679909,-9326.594869,306.438199,370.102971
1110.680220,-9104.533087,0.000000,888.247130
1110.680531,-9548.656652,-383.047749,666.185348
1110.680843,-8956.491898,0.000000,1036.288319
1110.681154,-9252.574275,153.219100,666.185348
1110.681465,-8438.347739,0.000000,1036.288319
1110.681777,-8660.409521,-153.219100,370.102971
1110.682088,-7920.203579,153.219100,814.226536
1110.682400,-8512.368333,-459.657299,222.061783
1110.682711,-8512.368333,459.657299,518.144159
1110.683022,-9548.656652,0.000000,296.082377
1110.683334,-9474.636058,306.438199,444.123565
1110.683645,-9770.718434,229.828649,296.082377
1110.683956,-9326.594869,995.924147,592.164754
1110.684268,-9474.636058,306.438199,444.123565
1110.684579,-8734.430116,0.000000,592.164754
1110.684890,-8734.430116,612.876398,740.205942
1110.685202,-8068.244768,153.219100,444.123565
1110.685513,-8364.327145,306.438199,740.205942
1110.685825,-8586.388927,76.609550,370.102971
1110.686136,-8808.450710,0.000000,592.164754
1110.686447,-8438.347739,306.438199,296.082377
1110.686759,-8956.491898,0.000000,592.164754
1110.687070,-8956.491898,-612.876398,-0.000000
1110.687381,-8956.491898,-306.438199,814.226536
1110.687693,-8734.430116,-842.705048,222.061783
1110.688004,-8734.430116,-459.657299,814.226536
1110.688316,-8586.388927,-306.438199,-0.000000
1110.688627,-8512.368333,0.000000,666.185348
1110.688938,-8216.285956,-766.095498,-74.020594
1110.689250,-8808.450710,-76.609550,814.226536
1110.689561,-8882.471304,-612.876398,222.061783
1110.689872,-8882.471304,-306.438199,666.185348
1110.690184,-9178.553681,-459.657299,296.082377
1110.690495,-9474.636058,-689.485948,740.205942
1110.690806,-9178.553681,-689.485948,296.082377
1110.691118,-8734.430116,383.047749,740.205942
1110.691429,-8586.388927,-153.219100,222.061783
1110.691741,-9104.533087,-153.219100,148.041188
1110.692052,-8734.430116,0.000000,222.061783
1110.692363,-9178.553681,0.000000,444.123565
1110.692675,-9030.512492,0.000000,370.102971
1110.692986,-9400.615463,306.438199,518.144159
1110.693297,-9474.636058,76.609550,-0.000000
1110.693609,-9326.594869,689.485948,740.205942
1110.693920,-9178.553681,153.219100,-0.000000
1110.694232,-9770.718434,153.219100,370.102971
1110.694543,-9474.636058,-153.219100,444.123565
1110.694854,-9104.533087,153.219100,666.185348
1110.695166,-8808.450710,0.000000,-0.000000
1110.695477,-8512.368333,0.000000,962.267725
1110.695788,-8808.450710,-306.438199,-0.000000
1110.696100,-8290.306550,153.219100,1184.329507
1110.696411,-8882.471304,-536.266849,-0.000000
1110.696723,-8586.388927,153.219100,1110.308913
1110.697034,-8956.491898,842.705048,-222.061783
1110.697345,-8808.450710,612.876398,1332.370696
1110.697657,-8512.368333,0.000000,370.102971
1110.697968,-8216.285956,76.609550,1258.350101
1110.698279,-8290.306550,-306.438199,370.102971
1110.698591,-7994.224174,0.000000,1036.288319
1110.698902,-8364.327145,-306.438199,-0.000000
1110.699213,-7920.203579,306.438199,1480.411884
1110.699525,-8882.471304,-612.876398,-0.000000
1110.699836,-9030.512492,76.609550,1258.350101
1110.700148,-9252.574275,-459.657299,148.041188
1110.700459,-9252.574275,153.219100,1184.329507
1110.700770,-8808.450710,-766.095498,-0.000000
1110.701082,-8586.388927,0.000000,1110.308913
1110.701393,-8438.347739,-612.876398,592.164754
1110.701704,-8364.327145,-153.219100,1258.350101
1110.702016,-8808.450710,-842.705048,444.123565
1110.702327,-8512.368333,0.000000,1184.329507
1110.702639,-8956.491898,-536.266849,296.082377
1110.702950,-9104.533087,0.000000,1110.308913
1110.703261,-9918.759623,-306.438199,-370.102971
1110.703573,-9178.553681,1225.752797,888.247130
1110.703884,-9548.656652,-689.485948,-444.123565
1110.704195,-9030.512492,383.047749,740.205942
1110.704507,-9622.677246,-306.438199,-0.000000
1110.704818,-8956.491898,536.266849,666.185348
1110.705129,-8882.471304,0.000000,-0.000000
1110.705441,-8142.265362,689.485948,1406.391290
1110.705752,-8364.327145,-306.438199,222.061783
1110.706064,-8364.327145,-153.219100,592.164754
1110.706375,-8882.471304,-842.705048,-148.041188
1110.706686,-8734.430116,0.000000,1184.329507
1110.706998,-9622.677246,-766.095498,-296.082377
1110.707309,-9474.636058,0.000000,1184.329507
1110.707620,-9474.636058,-919.314598,-148.041188
1110.707932,-9104.533087,-383.047749,1110.308913
1110.708243,-9030.512492,-459.657299,-222.061783
1110.708555,-8364.327145,0.000000,962.267725
1110.708866,-8660.409521,-536.266849,-148.041188
1110.709177,-8142.265362,-153.219100,1184.329507
1110.709489,-9178.553681,-612.876398,-148.041188
1110.709800,-8956.491898,459.657299,1036.288319
1110.710111,-9326.594869,76.609550,-0.000000
1110.710423,-9030.512492,459.657299,1036.288319
1110.710734,-9030.512492,-306.438199,222.061783
1110.711045,-8956.491898,306.438199,888.247130
1110.711357,-8660.409521,229.828649,-222.061783
1110.711668,-8290.306550,306.438199,1184.329507
1110.711980,-8586.388927,0.000000,-0.000000
1110.712291,-8438.347739,306.438199,962.267725
1110.712602,-9030.512492,0.000000,-222.061783
1110.712914,-8660.409521,766.095498,740.205942
1110.713225,-9474.636058,0.000000,-0.000000
1110.713536,-8512.368333,995.924147,1110.308913
1110.713848,-9252.574275,306.438199,-0.000000
1110.714159,-8956.491898,306.438199,1258.350101
1110.714471,-9252.574275,-612.876398,-0.000000
1110.714782,-8364.327145,383.047749,1258.350101
1110.715093,-8808.450710,-612.876398,-222.061783
1110.715405,-7698.141797,612.876398,1110.308913
1110.715716,-8956.491898,-1302.362347,-222.061783
1110.716027,-8438.347739,-383.047749,1110.308913
1110.716339,-8734.430116,-842.705048,-0.000000
1110.716650,-8512.368333,0.000000,1480.411884
1110.716961,-9326.594869,-689.485948,222.061783
1110.717273,-9030.512492,153.219100,1480.411884
1110.717584,-9104.533087,-766.095498,222.061783
1110.717896,-8438.347739,0.000000,1332.370696
1110.718207,-8660.409521,-612.876398,-296.082377
1110.718518,-7846.182985,0.000000,1110.308913
1110.718830,-8808.450710,-995.924147,-148.041188
1110.719141,-8512.368333,-229.828649,1184.329507
1110.719452,-9770.718434,-1149.143247,-74.020594
1110.719764,-9252.574275,383.047749,1036.288319
1110.720075,-9844.739029,-766.095498,-296.082377
1110.720387,-9252.574275,306.438199,1110.308913
1110.720698,-9030.512492,-1225.752797,-0.000000
1110.721009,-8660.409521,689.485948,1332.370696
1110.721321,-9030.512492,-459.657299,-222.061783
1110.721632,-8216.285956,459.657299,1406.391290
1110.721943,-8956.491898,-766.095498,-0.000000
1110.722255,-8512.368333,383.047749,1110.308913
1110.722566,-9400.615463,-229.828649,-740.205942
1110.722877,-8808.450710,766.095498,1184.329507
1110.723189,-9992.780217,-306.438199,-444.123565
1110.723500,-9400.615463,536.266849,1110.308913
1110.723812,-10140.821405,-459.657299,-370.102971
1110.724123,-9178.553681,766.095498,1332.370696
1110.724434,-9548.656652,-306.438199,-74.020594
1110.724746,-7994.224174,766.095498,1628.453072
1110.725057,-8586.388927,-383.047749,-148.041188
1110.725368,-7402.059420,612.876398,1332.370696
1110.725680,-8660.409521,-689.485948,-370.102971
1110.725991,-7846.182985,459.657299,1702.473667
1110.726303,-9178.553681,-689.485948,-518.144159
1110.726614,-8438.347739,383.047749,1406.391290
1110.726925,-9252.574275,-306.438199,-0.000000
1110.727237,-8512.368333,689.485948,1554.432478
1110.727548,-8808.450710,-919.314598,-0.000000
1110.727859,-7994.224174,383.047749,1332.370696
1110.728171,-8660.409521,-306.438199,-518.144159
1110.728482,-7846.182985,842.705048,1036.288319
1110.728794,-8734.430116,-612.876398,-370.102971
1110.729105,-8290.306550,383.047749,1110.308913
1110.729417,-9400.615463,-689.485948,-148.041188
1110.729728,-8660.409521,383.047749,1110.308913
1110.730039,-9474.636058,-536.266849,-518.144159
1110.730351,-9030.512492,383.047749,1554.432478
1110.730662,-9696.697840,-383.047749,-296.082377
1110.730974,-8882.471304,-153.219100,1480.411884
1110.731285,-9326.594869,-842.705048,-148.041188
1110.731596,-8660.409521,229.828649,1406.391290
1110.731908,-9030.512492,-459.657299,-148.041188
1110.732219,-8586.388927,536.266849,1036.288319
1110.732531,-9474.636058,-306.438199,-814.226536
1110.732842,-7624.121203,919.314598,1258.350101
1110.733153,-10658.965565,-766.095498,-888.247130
1110.733465,-9474.636058,842.705048,962.267725
1110.733776,-10066.800811,-306.438199,-592.164754
1110.734088,-9104.533087,383.047749,1258.350101
1110.734399,-9770.718434,-612.876398,-74.020594
1110.734710,-8512.368333,536.266849,1110.308913
1110.735022,-9104.533087,-459.657299,-148.041188
1110.735333,-7772.162391,76.609550,1480.411884
1110.735645,-9178.553681,-1072.533697,-222.061783
1110.735956,-8512.368333,76.609550,1036.288319
1110.736267,-9474.636058,-536.266849,-370.102971
1110.736579,-8882.471304,459.657299,1184.329507
1110.736890,-9622.677246,-153.219100,-74.020594
1110.737202,-8882.471304,995.924147,1036.288319
1110.737513,-9030.512492,0.000000,444.123565
1110.737824,-8364.327145,612.876398,1110.308913
1110.738136,-8438.347739,-536.266849,-148.041188
1110.738447,-7772.162391,536.266849,1110.308913
1110.738759,-8438.347739,-306.438199,-222.061783
1110.739070,-7698.141797,153.219100,1332.370696
1110.739381,-9252.574275,-842.705048,-74.020594
1110.739693,-8734.430116,153.219100,1036.288319
1110.740004,-9178.553681,-536.266849,-296.082377
1110.740316,-8882.471304,459.657299,666.185348
1110.740627,-9326.594869,-612.876398,-0.000000
1110.740938,-8438.347739,153.219100,1480.411884
1110.741250,-9030.512492,-995.924147,-0.000000
1110.741561,-7994.224174,0.000000,1702.473667
1110.741873,-8882.471304,-919.314598,222.061783
1110.742184,-8438.347739,383.047749,1258.350101
1110.742496,-9178.553681,-536.266849,296.082377
1110.742807,-8438.347739,383.047749,962.267725
1110.743118,-9622.677246,-536.266849,-0.000000
1110.743430,-9252.574275,459.657299,1036.288319
1110.743741,-10066.800811,0.000000,-444.123565
1110.744053,-9178.553681,995.924147,962.267725
1110.744364,-9992.780217,0.000000,-148.041188
1110.744675,-8734.430116,689.485948,1110.308913
1110.744987,-9030.512492,-383.047749,-0.000000
1110.745298,-7402.059420,842.705048,1554.432478
1110.745610,-8512.368333,-383.047749,-0.000000
1110.745921,-8142.265362,153.219100,1184.329507
1110.746232,-9252.574275,-536.266849,-0.000000
1110.746544,-8586.388927,383.047749,1110.308913
1110.746855,-9326.594869,-689.485948,-0.000000
1110.747167,-9030.512492,766.095498,740.205942
1110.747478,-9548.656652,-612.876398,296.082377
1110.747789,-8660.409521,-153.219100,1332.370696
1110.748101,-9178.553681,-766.095498,222.061783
1110.748412,-8142.265362,76.609550,1258.350101
1110.748724,-8882.471304,-612.876398,222.061783
1110.749035,-8290.306550,0.000000,1258.350101
1110.749346,-9104.533087,-842.705048,222.061783
1110.749658,-8660.409521,306.438199,962.267725
1110.749969,-9474.636058,-612.876398,-0.000000
1110.750281,-8660.409521,536.266849,1036.288319
1110.750592,-9696.697840,-612.876398,370.102971
1110.750903,-8734.430116,229.828649,1110.308913
1110.751215,-9104.533087,-459.657299,-74.020594
1110.751526,-7920.203579,459.657299,1036.288319
1110.751838,-8734.430116,-153.219100,-0.000000
1110.752149,-8512.368333,229.828649,740.205942
1110.752460,-8882.471304,0.000000,-0.000000
1110.752772,-8734.430116,383.047749,592.164754
1110.753083,-9474.636058,0.000000,-0.000000
1110.753395,-9326.594869,766.095498,740.205942
1110.753706,-9844.739029,229.828649,-148.041188
1110.754018,-8808.450710,995.924147,962.267725
1110.754329,-9622.677246,-612.876398,-222.061783
1110.754640,-8734.430116,229.828649,444.123565
1110.754952,-8586.388927,76.609550,222.061783
1110.755263,-7846.182985,76.609550,740.205942
1110.755575,-8882.471304,-842.705048,-0.000000
1110.755886,-8734.430116,-383.047749,444.123565
1110.756197,-9474.636058,-383.047749,-0.000000
1110.756509,-8512.368333,689.485948,814.226536
1110.756820,-9104.533087,-153.219100,296.082377
1110.757132,-8586.388927,612.876398,740.205942
1110.757443,-9918.759623,-612.876398,-74.020594
1110.757754,-8586.388927,0.000000,592.164754
1110.758066,-9178.553681,-842.705048,222.061783
1110.758377,-8438.347739,229.828649,740.205942
1110.758689,-8808.450710,0.000000,148.041188
1110.759000,-8734.430116,-536.266849,444.123565
1110.759311,-8808.450710,-459.657299,518.144159
1110.759623,-9252.574275,229.828649,370.102971
1110.759934,-9844.739029,-689.485948,-0.000000
1110.760246,-9252.574275,229.828649,592.164754
1110.760557,-10140.821405,-612.876398,370.102971
1110.760868,-9400.615463,-153.219100,1036.288319
1110.761180,-9474.636058,-153.219100,370.102971
1110.761491,-8290.306550,536.266849,666.185348
1110.761803,-8512.368333,0.000000,888.247130
1110.762114,-8142.265362,383.047749,1110.308913
1110.762425,-9104.533087,-153.219100,518.144159
1110.762737,-8512.368333,0.000000,962.267725
1110.763048,-9474.636058,-306.438199,296.082377
1110.763360,-9474.636058,459.657299,370.102971
1110.763671,-10066.800811,153.219100,-148.041188
1110.763982,-9178.553681,1072.533697,1110.308913
1110.764294,-9622.677246,306.438199,222.061783
1110.764605,-8438.347739,306.438199,1184.329507
1110.764917,-8956.491898,306.438199,518.144159
1110.765228,-7994.224174,383.047749,1110.308913
1110.765539,-8142.265362,-383.047749,814.226536
1110.765851,-7846.182985,0.000000,1036.288319
1110.766162,-8290.306550,0.000000,592.164754
1110.766474,-7920.203579,-153.219100,444.123565
1110.766785,-8586.388927,-229.828649,592.164754
1110.767097,-8956.491898,-229.828649,296.082377
1110.767408,-9252.574275,-689.485948,962.267725
1110.767719,-8734.430116,-995.924147,666.185348
1110.768031,-8660.409521,-1072.533697,888.247130
1110.768342,-8438.347739,-536.266849,592.164754
1110.768654,-8142.265362,-153.219100,592.164754
1110.768965,-8142.265362,-612.876398,370.102971
1110.769276,-8882.471304,76.609550,740.205942
1110.769588,-8512.368333,229.828649,592.164754
1110.769899,-9252.574275,76.609550,370.102971
1110.770211,-9030.512492,76.609550,296.082377
1110.770522,-9474.636058,0.000000,444.123565
1110.770833,-8808.450710,0.000000,518.144159
1110.771145,-8808.450710,76.609550,-0.000000
1110.771456,-8734.430116,-76.609550,-148.041188
1110.771768,-9252.574275,229.828649,222.061783
1110.772079,-9252.574275,-536.266849,-0.000000
1110.772390,-9326.594869,76.609550,222.061783
1110.772702,-9400.615463,153.219100,222.061783
1110.773013,-9770.718434,229.828649,222.061783
1110.773325,-9474.636058,306.438199,296.082377
1110.773636,-9696.697840,612.876398,518.144159
1110.773947,-9178.553681,306.438199,-148.041188
1110.774259,-9770.718434,0.000000,296.082377
1110.774570,-9474.636058,-153.219100,370.102971
1110.774882,-9104.533087,76.609550,370.102971
1110.775193,-8512.368333,-229.828649,-0.000000
1110.775504,-8808.450710,-153.219100,370.102971
1110.775816,-9030.512492,-612.876398,-148.041188
1110.776127,-8660.409521,-383.047749,666.185348
1110.776439,-8734.430116,-536.266849,296.082377
1110.776750,-9178.553681,0.000000,962.267725
1110.777061,-9252.574275,229.828649,370.102971
1110.777373,-9030.512492,153.219100,962.267725
1110.777684,-8586.388927,-153.219100,370.102971
1110.777996,-8068.244768,76.609550,962.267725
1110.778307,-7846.182985,-153.219100,-148.041188
1110.778618,-7846.182985,-153.219100,370.102971
1110.778930,-8216.285956,-995.924147,-0.000000
1110.779241,-8364.327145,0.000000,666.185348
1110.779553,-9030.512492,-842.705048,-0.000000
1110.779864,-9326.594869,0.000000,814.226536
1110.780176,-9178.553681,-612.876398,222.061783
1110.780487,-9326.594869,0.000000,962.267725
1110.780798,-8882.471304,-383.047749,666.185348
1110.781110,-8956.491898,-689.485948,962.267725
1110.781421,-8660.409521,-536.266849,592.164754
1110.781733,-8512.368333,-229.828649,1110.308913
1110.782044,-8660.409521,-459.657299,592.164754
1110.782355,-8586.388927,0.000000,962.267725
1110.782667,-8660.409521,-306.438199,518.144159
1110.782978,-9030.512492,0.000000,814.226536
1110.783290,-9548.656652,0.000000,370.102971
1110.783601,-9326.594869,612.876398,518.144159
1110.783912,-9622.677246,919.314598,-0.000000
1110.784224,-9326.594869,919.314598,814.226536
1110.784535,-9474.636058,-153.219100,222.061783
1110.784847,-8882.471304,459.657299,1258.350101
1110.785158,-8512.368333,76.609550,222.061783
1110.785469,-8068.244768,842.705048,1258.350101
1110.785781,-8438.347739,-459.657299,-0.000000
1110.786092,-8438.347739,-153.219100,1184.329507
1110.786404,-8956.491898,-1072.533697,-0.000000
1110.786715,-8882.471304,-229.828649,1258.350101
1110.787026,-9400.615463,-689.485948,-0.000000
1110.787338,-9400.615463,0.000000,1036.288319
1110.787649,-9178.553681,-766.095498,-0.000000
1110.787961,-8364.327145,0.000000,1332.370696
1110.788272,-8438.347739,-229.828649,-74.020594
1110.788583,-8364.327145,919.314598,814.226536
1110.788895,-8660.409521,0.000000,-296.082377
1110.789206,-8364.327145,76.609550,1036.288319
1110.789518,-8586.388927,-459.657299,-0.000000
1110.789829,-8734.430116,536.266849,962.267725
1110.790140,-9104.533087,0.000000,-148.041188
1110.790452,-9030.512492,153.219100,1184.329507
1110.790763,-9030.512492,-612.876398,222.061783
1110.791075,-8290.306550,-153.219100,962.267725
1110.791386,-8882.471304,-459.657299,-222.061783
1110.791698,-8364.327145,-153.219100,1110.308913
1110.792009,-8808.450710,-842.705048,-74.020594
1110.792320,-8364.327145,0.000000,740.205942
1110.792632,-8734.430116,-306.438199,-74.020594
1110.792943,-8438.347739,306.438199,814.226536
1110.793255,-9252.574275,0.000000,-370.102971
1110.793566,-9326.594869,689.485948,1036.288319
1110.793877,-9474.636058,0.000000,-0.000000
1110.794189,-8808.450710,229.828649,1036.288319
1110.794500,-9326.594869,-612.876398,-296.082377
1110.794812,-8216.285956,459.657299,740.205942
1110.795123,-8882.471304,-536.266849,-518.144159
1110.795434,-8216.285956,0.000000,1036.288319
1110.795746,-9622.677246,-383.047749,-962.267725
1110.796057,-8660.409521,536.266849,1184.329507
1110.796369,-9400.615463,-919.314598,-296.082377
1110.796680,-8808.450710,306.438199,1480.411884
1110.796991,-9474.636058,-612.876398,-222.061783
1110.797303,-9104.533087,153.219100,1258.350101
1110.797614,-9178.553681,-766.095498,-0.000000
1110.797926,-8808.450710,-153.219100,1406.391290
1110.798237,-8660.409521,-689.485948,814.226536
1110.798548,-8290.306550,689.485948,1184.329507
1110.798860,-8956.491898,-689.485948,-296.082377
1110.799171,-8512.368333,0.000000,1110.308913
1110.799483,-9474.636058,-1225.752797,-0.000000
1110.799794,-9548.656652,0.000000,1258.350101
1110.800105,-10288.862594,-229.828649,-0.000000
1110.800417,-9326.594869,842.705048,1258.350101
1110.800728,-9400.615463,0.000000,-0.000000
1110.801040,-8586.388927,995.924147,1406.391290
1110.801351,-8660.409521,-459.657299,370.102971
1110.801662,-7698.141797,459.657299,1628.453072
1110.801974,-8142.265362,-383.047749,222.061783
1110.802285,-7846.182985,536.266849,1184.329507
1110.802597,-8364.327145,-383.047749,-0.000000
1110.802908,-8438.347739,76.609550,1036.288319
1110.803219,-9548.656652,-383.047749,-222.061783
1110.803531,-9178.553681,536.266849,814.226536
1110.803842,-9696.697840,0.000000,-74.020594
1110.804154,-9104.533087,689.485948,1406.391290
1110.804465,-9474.636058,-459.657299,-0.000000
1110.804777,-8364.327145,689.485948,1480.411884
1110.805088,-8882.471304,-536.266849,-74.020594
1110.805399,-7179.997637,842.705048,1850.514855
1110.805711,-8512.368333,-306.438199,-296.082377
1110.806022,-7698.141797,0.000000,1332.370696
1110.806334,-8808.450710,-842.705048,-296.082377
1110.806645,-8216.285956,383.047749,1332.370696
1110.806956,-9400.615463,-536.266849,-74.020594
1110.807268,-8734.430116,-306.438199,1184.329507
1110.807579,-9104.533087,-1072.533697,-444.123565
1110.807891,-8808.450710,-306.438199,592.164754
1110.808202,-8808.450710,-842.705048,-0.000000
1110.808513,-7920.203579,229.828649,1110.308913
1110.808825,-8660.409521,-919.314598,-370.102971
1110.809136,-8660.409521,0.000000,1036.288319
1110.809448,-9474.636058,-842.705048,-74.020594
1110.809759,-8882.471304,612.876398,1332.370696
1110.810070,-9326.594869,-1225.752797,-148.041188
1110.810382,-9178.553681,-383.047749,1036.288319
1110.810693,-9326.594869,-1378.971896,-370.102971
1110.811005,-8956.491898,0.000000,740.205942
1110.811316,-9400.615463,-1072.533697,-222.061783
1110.811627,-9030.512492,0.000000,1036.288319
1110.811939,-9548.656652,-842.705048,-370.102971
1110.812250,-8660.409521,612.876398,592.164754
1110.812562,-9252.574275,-306.438199,-222.061783
1110.812873,-8660.409521,459.657299,1036.288319
1110.813184,-9696.697840,-459.657299,-444.123565
1110.813496,-9030.512492,612.876398,962.267725
1110.813807,-9622.677246,0.000000,-444.123565
1110.814119,-8808.450710,766.095498,1258.350101
1110.814430,-9844.739029,-842.705048,-370.102971
1110.814741,-8290.306550,459.657299,1036.288319
1110.815053,-8956.491898,-536.266849,-592.164754
1110.815364,-7994.224174,689.485948,1258.350101
1110.815676,-8882.471304,-1149.143247,-0.000000
1110.815987,-8142.265362,76.609550,1258.350101
1110.816298,-9178.553681,-1072.533697,-0.000000
1110.816610,-8438.347739,306.438199,1628.453072
1110.816921,-9252.574275,-76.609550,148.041188
1110.817233,-9178.553681,842.705048,1628.453072
1110.817544,-9104.533087,-229.828649,222.061783
1110.817856,-8068.244768,229.828649,1258.350101
1110.818167,-8438.347739,-383.047749,296.082377
1110.818478,-7402.059420,689.485948,1332.370696
1110.818790,-8512.368333,-766.095498,-0.000000
1110.819101,-7698.141797,153.219100,1480.411884
1110.819413,-9104.533087,-612.876398,-0.000000
1110.819724,-8216.285956,612.876398,1184.329507
1110.820035,-9474.636058,-536.266849,-0.000000
1110.820347,-8734.430116,1149.143247,962.267725
1110.820658,-9474.636058,-536.266849,-0.000000
1110.820970,-8512.368333,306.438199,1554.432478
1110.821281,-9104.533087,-689.485948,148.041188
1110.821592,-8068.244768,153.219100,1850.514855
1110.821904,-9030.512492,-766.095498,-0.000000
1110.822215,-8216.285956,0.000000,1554.432478
1110.822527,-9252.574275,-536.266849,-74.020594
1110.822838,-8142.265362,229.828649,1258.350101
1110.823149,-9992.780217,-612.876398,-518.144159
1110.823461,-9252.574275,612.876398,1110.308913
1110.823772,-10288.862594,0.000000,-518.144159
1110.824084,-9252.574275,1149.143247,962.267725
1110.824395,-9992.780217,-383.047749,-296.082377
1110.824706,-9474.636058,995.924147,666.185348
1110.825018,-8808.450710,229.828649,-740.205942
1110.825329,-7624.121203,842.705048,1258.350101
1110.825641,-8734.430116,-383.047749,-74.020594
1110.825952,-8364.327145,459.657299,962.267725
1110.826263,-9400.615463,-919.314598,-444.123565
1110.826575,-8438.347739,0.000000,1184.329507
1110.826886,-9474.636058,-842.705048,-222.061783
1110.827198,-9104.533087,306.438199,592.164754
1110.827509,-9548.656652,-306.438199,-518.144159
1110.827820,-8956.491898,153.219100,592.164754
1110.828132,-9474.636058,-919.314598,-0.000000
1110.828443,-8290.306550,229.828649,962.267725
1110.828755,-9104.533087,-919.314598,-74.020594
1110.829066,-8216.285956,306.438199,1110.308913
1110.829377,-8808.450710,-842.705048,-0.000000
1110.829689,-8364.327145,459.657299,740.205942
1110.830000,-9030.512492,0.000000,-222.061783
1110.830312,-8660.409521,306.438199,740.205942
1110.830623,-9326.594869,-459.657299,-222.061783
1110.830934,-8438.347739,153.219100,1184.329507
1110.831246,-9104.533087,-459.657299,-148.041188
1110.831557,-7920.203579,459.657299,1258.350101
1110.831868,-8808.450710,-383.047749,-148.041188
1110.832180,-7846.182985,306.438199,1554.432478
1110.832491,-8660.409521,0.000000,-296.082377
1110.832803,-8586.388927,612.876398,1036.288319
1110.833114,-9622.677246,-153.219100,-0.000000
1110.833425,-9104.533087,612.876398,1258.350101
1110.833737,-9622.677246,0.000000,-0.000000
1110.834048,-8290.306550,536.266849,1110.308913
1110.834360,-9326.594869,-306.438199,-0.000000
1110.834671,-8068.244768,306.438199,740.205942
1110.834982,-8956.491898,-842.705048,-592.164754
1110.835294,-7920.203579,229.828649,1110.308913
1110.835605,-9252.574275,-842.705048,-0.000000
1110.835916,-9030.512492,0.000000,740.205942
1110.836228,-9548.656652,-153.219100,148.041188
1110.836539,-8956.491898,536.266849,1110.308913
1110.836851,-9326.594869,-306.438199,296.082377
1110.837162,-8142.265362,689.485948,1036.288319
1110.837473,-8586.388927,0.000000,370.102971
1110.837785,-8068.244768,229.828649,740.205942
1110.838096,-8956.491898,-306.438199,296.082377
1110.838408,-8512.368333,383.047749,444.123565
1110.838719,-9104.533087,-383.047749,-74.020594
1110.839030,-8512.368333,0.000000,518.144159
1110.839342,-9400.615463,-995.924147,-0.000000
1110.839653,-9474.636058,0.000000,296.082377
1110.839965,-9844.739029,-536.266849,444.123565
1110.840276,-9770.718434,0.000000,888.247130
1110.840587,-10066.800811,-306.438199,592.164754
1110.840899,-9104.533087,229.828649,1184.329507
1110.841210,-9104.533087,-229.828649,222.061783
1110.841521,-8142.265362,76.609550,888.247130
1110.841833,-8290.306550,0.000000,-0.000000
1110.842144,-7624.121203,459.657299,740.205942
1110.842456,-8512.368333,-153.219100,-0.000000
1110.842767,-8364.327145,459.657299,740.205942
1110.843078,-9992.780217,-612.876398,-148.041188
1110.843390,-9252.574275,383.047749,740.205942
1110.843701,-9696.697840,0.000000,-74.020594
1110.844013,-8956.491898,612.876398,962.267725
1110.844324,-9104.533087,-612.876398,148.041188
1110.844635,-8882.471304,-536.266849,1036.288319
1110.844947,-8512.368333,-459.657299,444.123565
1110.845258,-7550.100608,459.657299,1110.308913
1110.845569,-8438.347739,-306.438199,518.144159
1110.845881,-8438.347739,0.000000,888.247130
1110.846192,-8734.430116,-612.876398,222.061783
1110.846504,-8512.368333,459.657299,814.226536
1110.846815,-9400.615463,229.828649,-0.000000
1110.847126,-8956.491898,766.095498,1184.329507
1110.847438,-9252.574275,-689.485948,370.102971
1110.847749,-8364.327145,-306.438199,740.205942
1110.848061,-8512.368333,-459.657299,296.082377
1110.848372,-8512.368333,0.000000,370.102971
1110.848683,-8882.471304,-153.219100,222.061783
1110.848995,-8660.409521,-153.219100,296.082377
1110.849306,-9326.594869,-383.047749,296.082377
1110.849618,-8956.491898,76.609550,296.082377
1110.849929,-9474.636058,-383.047749,444.123565
1110.850240,-9178.553681,-306.438199,888.247130
1110.850552,-9474.636058,-842.705048,592.164754
1110.850863,-9252.574275,-383.047749,666.185348
1110.851174,-9178.553681,0.000000,-0.000000
1110.851486,-8808.450710,383.047749,740.205942
1110.851797,-9178.553681,-536.266849,296.082377
1110.852109,-8586.388927,0.000000,592.164754
1110.852420,-9474.636058,0.000000,222.061783
1110.852731,-9104.533087,306.438199,666.185348
1110.853043,-9770.718434,76.609550,222.061783
1110.853354,-9326.594869,153.219100,740.205942
1110.853666,-9178.553681,306.438199,222.061783
1110.853977,-8808.450710,306.438199,370.102971
1110.854288,-9326.594869,153.219100,222.061783
1110.854600,-9030.512492,0.000000,592.164754
1110.854911,-8734.430116,0.000000,370.102971
1110.855222,-8216.285956,0.000000,296.082377
1110.855534,-8512.368333,-153.219100,518.144159
1110.855845,-8660.409521,-383.047749,592.164754
1110.856157,-8586.388927,-536.266849,518.144159
1110.856468,-8586.388927,-383.047749,222.061783
1110.856779,-9400.615463,-229.828649,740.205942
1110.857091,-9178.553681,383.047749,666.185348
1110.857402,-9252.574275,153.219100,1258.350101
1110.857714,-8586.388927,-306.438199,592.164754
1110.858025,-8512.368333,0.000000,962.267725
1110.858336,-8660.409521,76.609550,148.041188
1110.858648,-8068.244768,306.438199,370.102971
1110.858959,-8142.265362,-153.219100,592.164754
1110.859271,-8512.368333,-229.828649,666.185348
1110.859582,-9178.553681,-536.266849,-0.000000
1110.859893,-9400.615463,153.219100,592.164754
1110.860205,-9178.553681,0.000000,222.061783
1110.860516,-9178.553681,76.609550,666.185348
1110.860827,-8808.450710,0.000000,-0.000000
1110.861139,-8512.368333,0.000000,814.226536
1110.861450,-7920.203579,-766.095498,740.205942
1110.861762,-8512.368333,-229.828649,962.267725
1110.862073,-8512.368333,-383.047749,962.267725
1110.862384,-9030.512492,76.609550,740.205942
1110.862696,-9030.512492,0.000000,444.123565
1110.863007,-9696.697840,-76.609550,666.185348
1110.863319,-9770.718434,-459.657299,370.102971
1110.863630,-9030.512492,383.047749,666.185348
1110.863941,-9844.739029,153.219100,-296.082377
1110.864253,-9474.636058,76.609550,1036.288319
1110.864564,-9252.574275,0.000000,370.102971
1110.864875,-9104.533087,383.047749,740.205942
1110.865187,-8216.285956,153.219100,666.185348
1110.865498,-7698.141797,383.047749,1184.329507
1110.865810,-8142.265362,229.828649,444.123565
1110.866121,-8586.388927,0.000000,814.226536
1110.866432,-8956.491898,0.000000,222.061783
1110.866744,-9030.512492,153.219100,962.267725
1110.867055,-9548.656652,-153.219100,-0.000000
1110.867367,-9474.636058,76.609550,888.247130
1110.867678,-9104.533087,-842.705048,-0.000000
1110.867989,-8438.347739,-383.047749,1036.288319
1110.868301,-8438.347739,-766.095498,-0.000000
1110.868612,-8290.306550,0.000000,592.164754
1110.868923,-7920.203579,-459.657299,370.102971
1110.869235,-8216.285956,0.000000,962.267725
1110.869546,-9030.512492,-459.657299,-0.000000
1110.869858,-8956.491898,229.828649,814.226536
1110.870169,-9252.574275,0.000000,-222.061783
1110.870480,-8956.491898,459.657299,814.226536
1110.870792,-9030.512492,-383.047749,-0.000000
1110.871103,-9104.533087,229.828649,814.226536
1110.871415,-8660.409521,0.000000,222.061783
1110.871726,-8364.327145,0.000000,888.247130
1110.872037,-8586.388927,-689.485948,-0.000000
1110.872349,-8512.368333,306.438199,740.205942
1110.872660,-9178.553681,0.000000,-296.082377
1110.872972,-8808.450710,383.047749,740.205942
1110.873283,-10066.800811,76.609550,-444.123565
1110.873594,-9474.636058,995.924147,962.267725
1110.873906,-9622.677246,229.828649,-74.020594
1110.874217,-9178.553681,229.828649,962.267725
1110.874528,-9326.594869,-459.657299,-74.020594
1110.874840,-8512.368333,306.438199,814.226536
1110.875151,-8882.471304,-229.828649,-0.000000
1110.875463,-7994.224174,-153.219100,1184.329507
1110.875774,-9252.574275,-1455.581446,-444.123565
1110.876085,-8660.409521,153.219100,1258.350101
1110.876397,-9252.574275,-842.705048,-0.000000
1110.876708,-9104.533087,0.000000,1110.308913
1110.877020,-9548.656652,-383.047749,-74.020594
1110.877331,-9178.553681,229.828649,1258.350101
1110.877642,-9178.553681,-536.266849,-0.000000
1110.877954,-7994.224174,229.828649,1406.391290
1110.878265,-8438.347739,-612.876398,148.041188
1110.878576,-8068.244768,459.657299,1184.329507
1110.878888,-9030.512492,-689.485948,-222.061783
1110.879199,-8660.409521,0.000000,1110.308913
1110.879511,-9178.553681,-995.924147,-0.000000
1110.879822,-9030.512492,153.219100,1036.288319
1110.880133,-9474.636058,0.000000,-222.061783
1110.880445,-9326.594869,536.266849,1258.350101
1110.880756,-9474.636058,-306.438199,-0.000000
1110.881068,-8660.409521,766.095498,1258.350101
1110.881379,-8734.430116,-383.047749,296.082377
1110.881690,-8216.285956,383.047749,1554.432478
1110.882002,-8586.388927,-536.266849,518.144159
1110.882313,-7994.224174,383.047749,1258.350101
1110.882625,-8586.388927,153.219100,-0.000000
1110.882936,-8808.450710,919.314598,1406.391290
1110.883247,-9770.718434,-842.705048,148.041188
1110.883559,-9030.512492,536.266849,1036.288319
1110.883870,-9696.697840,0.000000,-296.082377
1110.884181,-9030.512492,995.924147,1258.350101
1110.884493,-9474.636058,-153.219100,-222.061783
1110.884804,-8660.409521,689.485948,1258.350101
1110.885116,-8512.368333,0.000000,-0.000000
1110.885427,-7550.100608,1149.143247,1406.391290
1110.885738,-8586.388927,-229.828649,-0.000000
1110.886050,-8364.327145,306.438199,1480.411884
1110.886361,-8956.491898,-383.047749,-148.041188
1110.886673,-8142.265362,766.095498,1480.411884
1110.886984,-9104.533087,-383.047749,-148.041188
1110.887295,-8586.388927,153.219100,1184.329507
1110.887607,-8956.491898,-766.095498,-296.082377
1110.887918,-8290.306550,153.219100,814.226536
1110.888229,-8586.388927,-1302.362347,-518.144159
1110.888541,-8364.327145,-306.438199,888.247130
1110.888852,-9030.512492,-1072.533697,-296.082377
1110.889164,-8512.368333,0.000000,1184.329507
1110.889475,-9400.615463,-766.095498,-0.000000
1110.889786,-8808.450710,383.047749,888.247130
1110.890098,-9400.615463,-689.485948,-296.082377
1110.890409,-9326.594869,0.000000,592.164754
1110.890721,-9178.553681,-995.924147,-148.041188
1110.891032,-8882.471304,0.000000,962.267725
1110.891343,-9178.553681,-1072.533697,-222.061783
1110.891655,-8734.430116,-229.828649,962.267725
1110.891966,-9178.553681,-842.705048,-296.082377
1110.892278,-8216.285956,459.657299,666.185348
1110.892589,-9474.636058,0.000000,-740.205942
1110.892900,-8734.430116,306.438199,814.226536
1110.893212,-9770.718434,-766.095498,-518.144159
1110.893523,-9252.574275,306.438199,814.226536
1110.893834,-9548.656652,0.000000,-370.102971
1110.894146,-8956.491898,229.828649,962.267725
1110.894457,-9918.759623,-612.876398,-148.041188
1110.894769,-8290.306550,153.219100,740.205942
1110.895080,-9400.615463,-689.485948,-222.061783
1110.895391,-7624.121203,459.657299,1332.370696
1110.895703,-8586.388927,-459.657299,-148.041188
1110.896014,-8068.244768,0.000000,1258.350101
1110.896326,-9178.553681,-842.705048,-0.000000
1110.896637,-8586.388927,536.266849,1332.370696
1110.896948,-9326.594869,76.609550,-0.000000
1110.897260,-8734.430116,536.266849,1480.411884
1110.897571,-9030.512492,-229.828649,-0.000000
1110.897882,-7772.162391,995.924147,1406.391290
1110.898194,-8586.388927,-306.438199,222.061783
1110.898505,-7624.121203,459.657299,1184.329507
1110.898817,-8586.388927,-689.485948,-0.000000
1110.899128,-8142.265362,0.000000,1406.391290
1110.899439,-9252.574275,-1225.752797,296.082377
1110.899751,-8660.409521,0.000000,888.247130
1110.900062,-9030.512492,-459.657299,-0.000000
1110.900374,-8808.450710,229.828649,1184.329507
1110.900685,-9474.636058,-689.485948,296.082377
1110.900996,-8512.368333,229.828649,1702.473667
1110.901308,-9030.512492,-612.876398,296.082377
1110.901619,-8364.327145,153.219100,1850.514855
1110.901931,-8956.491898,-612.876398,518.144159
1110.902242,-7846.182985,-229.828649,1480.411884
1110.902553,-9104.533087,0.000000,-370.102971
1110.902865,-7994.224174,536.266849,1258.350101
1110.903176,-9622.677246,-459.657299,-222.061783
1110.903487,-9104.533087,306.438199,1258.350101
1110.903799,-9696.697840,-229.828649,-0.000000
1110.904110,-9030.512492,766.095498,1258.350101
1110.904422,-9770.718434,-383.047749,-74.020594
1110.904733,-8438.347739,612.876398,1110.308913
1110.905044,-9474.636058,-536.266849,-222.061783
1110.905356,-7772.162391,536.266849,1702.473667
1110.905667,-8734.430116,-459.657299,-0.000000
1110.905979,-8216.285956,0.000000,1184.329507
1110.906290,-9104.533087,-842.705048,-74.020594
1110.906601,-8512.368333,0.000000,1332.370696
1110.906913,-9474.636058,0.000000,-148.041188
1110.907224,-8660.409521,459.657299,740.205942
1110.907535,-9104.533087,-689.485948,-74.020594
1110.907847,-8882.471304,-306.438199,1036.288319
1110.908158,-9474.636058,-612.876398,-74.020594
1110.908470,-8512.368333,383.047749,814.226536
1110.908781,-9178.553681,-536.266849,-74.020594
1110.909092,-8068.244768,-229.828649,666.185348
1110.909404,-8808.450710,-766.095498,-222.061783
1110.909715,-8438.347739,459.657299,888.247130
1110.910027,-8734.430116,0.000000,-74.020594
1110.910338,-9030.512492,229.828649,740.205942
1110.910649,-9326.594869,-383.047749,-0.000000
1110.910961,-8808.450710,76.609550,962.267725
1110.911272,-9474.636058,-689.485948,-0.000000
1110.911584,-8290.306550,0.000000,1036.288319
1110.911895,-8808.450710,-306.438199,-296.082377
1110.912206,-7846.182985,689.485948,814.226536
1110.912518,-9178.553681,306.438199,-0.000000
1110.912829,-8734.430116,306.438199,962.267725
1110.913140,-9770.718434,-229.828649,-0.000000
1110.913452,-9326.594869,536.266849,814.226536
1110.913763,-9474.636058,536.266849,-222.061783
1110.914075,-8438.347739,536.266849,592.164754
1110.914386,-9326.594869,-766.095498,-0.000000
1110.914697,-8512.368333,-612.876398,666.185348
1110.915009,-8956.491898,-153.219100,-0.000000
1110.915320,-8142.265362,459.657299,1036.288319
1110.915632,-8956.491898,-306.438199,148.041188
1110.915943,-8882.471304,0.000000,962.267725
1110.916254,-9030.512492,0.000000,444.123565
1110.916566,-8512.368333,153.219100,814.226536
1110.916877,-9178.553681,153.219100,296.082377
1110.917188,-8512.368333,306.438199,1110.308913
1110.917500,-9326.594869,-229.828649,592.164754
1110.917811,-8438.347739,-306.438199,962.267725
1110.918123,-9104.533087,-536.266849,444.123565
1110.918434,-8364.327145,383.047749,962.267725
1110.918745,-8808.450710,0.000000,-0.000000
1110.919057,-8586.388927,0.000000,444.123565
1110.919368,-9104.533087,-842.705048,444.123565
1110.919680,-8512.368333,229.828649,666.185348
1110.919991,-9548.656652,-306.438199,222.061783
1110.920302,-9400.615463,153.219100,888.247130
1110.920614,-9548.656652,-153.219100,740.205942
1110.920925,-8512.368333,229.828649,1332.370696
1110.921237,-9030.512492,153.219100,296.082377
1110.921548,-8290.306550,-536.266849,1480.411884
1110.921859,-8882.471304,-383.047749,-0.000000
1110.922171,-7772.162391,536.266849,740.205942
1110.922482,-8882.471304,76.609550,-0.000000
1110.922793,-8660.409521,459.657299,888.247130
1110.923105,-9918.759623,-383.047749,-0.000000
1110.923416,-9104.533087,229.828649,888.247130
1110.923728,-9622.677246,306.438199,444.123565
1110.924039,-9104.533087,-306.438199,962.267725
1110.924350,-9474.636058,-153.219100,370.102971
1110.924662,-8216.285956,76.609550,1110.308913
1110.924973,-8734.430116,-229.828649,518.144159
1110.925285,-7846.182985,229.828649,1036.288319
1110.925596,-8512.368333,-383.047749,370.102971
1110.925907,-8512.368333,383.047749,814.226536
1110.926219,-9030.512492,-383.047749,222.061783
1110.926530,-8438.347739,306.438199,740.205942
1110.926842,-9178.553681,-536.266849,-0.000000
1110.927153,-8586.388927,0.000000,518.144159
1110.927464,-9030.512492,-383.047749,222.061783
1110.927776,-8512.368333,-383.047749,814.226536
1110.928087,-8808.450710,-536.266849,-0.000000
1110.928399,-8364.327145,76.609550,296.082377
1110.928710,-8882.471304,0.000000,-0.000000
1110.929021,-8882.471304,0.000000,-0.000000
1110.929333,-9030.512492,-536.266849,296.082377
1110.929644,-9104.533087,-229.828649,592.164754
1110.929956,-9770.718434,-383.047749,-0.000000
1110.930267,-9252.574275,-383.047749,740.205942
1110.930578,-9474.636058,-689.485948,666.185348
1110.930890,-8586.388927,-459.657299,888.247130
1110.931201,-8882.471304,-536.266849,148.041188
1110.931513,-8364.327145,0.000000,444.123565
1110.931824,-9030.512492,-459.657299,-0.000000
1110.932135,-8438.347739,76.609550,370.102971
1110.932447,-9400.615463,-383.047749,-0.000000
1110.932758,-9030.512492,306.438199,666.185348
1110.933070,-9918.759623,0.000000,-74.020594
1110.933381,-9622.677246,459.657299,370.102971
1110.933692,-9548.656652,0.000000,-74.020594
1110.934004,-8882.471304,306.438199,444.123565
1110.934315,-9918.759623,0.000000,148.041188
1110.934627,-9030.512492,0.000000,592.164754
1110.934938,-8956.491898,-229.828649,296.082377
1110.935249,-8364.327145,0.000000,592.164754
1110.935561,-8364.327145,0.000000,370.102971
1110.935872,-8216.285956,229.828649,666.185348
1110.936184,-9030.512492,536.266849,-0.000000
1110.936495,-9030.512492,-383.047749,518.144159
1110.936806,-9474.636058,383.047749,370.102971
1110.937118,-9030.512492,536.266849,592.164754
1110.937429,-9326.594869,229.828649,888.247130
1110.937741,-8586.388927,0.000000,740.205942
1110.938052,-8734.430116,153.219100,888.247130
