#time,accel_x,accel_y,accel_z
1134.978353,-9104.533087,383.047749,518.144159
1134.978664,-8808.450710,153.219100,444.123565
1134.978976,-9104.533087,229.828649,148.041188
1134.979287,-8660.409521,0.000000,296.082377
1134.979599,-8808.450710,0.000000,444.123565
1134.979910,-8882.471304,76.609550,444.123565
1134.980221,-8734.430116,0.000000,518.144159
1134.980533,-8882.471304,0.000000,518.144159
1134.980844,-8882.471304,153.219100,518.144159
1134.981155,-8734.430116,153.219100,518.144159
1134.981467,-8660.409521,0.000000,518.144159
1134.981778,-8808.450710,-383.047749,296.082377
1134.982090,-9030.512492,-153.219100,666.185348
1134.982401,-9030.512492,-153.219100,518.144159
1134.982712,-9104.533087,0.000000,666.185348
1134.983024,-8956.491898,0.000000,740.205942
1134.983335,-9104.533087,-383.047749,444.123565
1134.983646,-9400.615463,-383.047749,148.041188
1134.983958,-9252.574275,-229.828649,444.123565
1134.984269,-8660.409521,76.609550,518.144159
1134.984581,-8956.491898,0.000000,518.144159
1134.984892,-8808.450710,-229.828649,444.123565
1134.985203,-9030.512492,0.000000,592.164754
1134.985515,-9030.512492,383.047749,518.144159
1134.985826,-8290.306550,153.219100,814.226536
1134.986138,-9252.574275,-153.219100,666.185348
1134.986449,-9030.512492,0.000000,740.205942
1134.986760,-8660.409521,-153.219100,444.123565
1134.987072,-8808.450710,0.000000,444.123565
1134.987383,-8586.388927,0.000000,370.102971
1134.987694,-8808.450710,0.000000,518.144159
1134.988006,-8734.430116,0.000000,518.144159
1134.988317,-9178.553681,0.000000,296.082377
1134.988629,-9326.594869,536.266849,296.082377
1134.988940,-8660.409521,-306.438199,370.102971
1134.989251,-8660.409521,-229.828649,592.164754
1134.989563,-9030.512492,-153.219100,296.082377
1134.989874,-8956.491898,0.000000,518.144159
1134.990185,-8882.471304,-229.828649,666.185348
1134.990497,-9178.553681,153.219100,888.247130
1134.990808,-8956.491898,0.000000,444.123565
1134.991120,-9104.533087,-1225.752797,370.102971
1134.991431,-8882.471304,-306.438199,1036.288319
1134.991742,-8808.450710,0.000000,592.164754
1134.992054,-8882.471304,76.609550,370.102971
1134.992365,-8956.491898,0.000000,296.082377
1134.992676,-9104.533087,0.000000,444.123565
1134.992988,-8808.450710,-383.047749,518.144159
1134.993299,-8660.409521,-383.047749,444.123565
1134.993611,-9030.512492,612.876398,444.123565
1134.993922,-9104.533087,0.000000,444.123565
1134.994233,-8882.471304,-153.219100,592.164754
1134.994545,-9030.512492,-306.438199,518.144159
1134.994856,-8956.491898,-229.828649,518.144159
1134.995167,-9030.512492,0.000000,518.144159
1134.995479,-8660.409521,229.828649,592.164754
1134.995790,-9474.636058,153.219100,148.041188
1134.996102,-9030.512492,0.000000,370.102971
1134.996413,-8808.450710,-229.828649,814.226536
1134.996724,-8882.471304,-229.828649,666.185348
1134.997036,-8956.491898,0.000000,444.123565
1134.997347,-8956.491898,0.000000,666.185348
1134.997658,-9030.512492,0.000000,592.164754
1134.997970,-9178.553681,0.000000,222.061783
1134.998281,-8956.491898,612.876398,-0.000000
1134.998593,-8734.430116,766.095498,444.123565
1134.998904,-8956.491898,0.000000,296.082377
1134.999215,-8882.471304,0.000000,592.164754
1134.999527,-9104.533087,-229.828649,518.144159
1134.999838,-8956.491898,0.000000,518.144159
1135.000149,-8882.471304,0.000000,518.144159
1135.000461,-8586.388927,0.000000,592.164754
1135.000772,-8512.368333,-229.828649,592.164754
1135.001084,-9178.553681,0.000000,148.041188
1135.001395,-8882.471304,-153.219100,666.185348
1135.001706,-8956.491898,0.000000,592.164754
1135.002018,-9030.512492,-229.828649,518.144159
1135.002329,-9030.512492,-153.219100,444.123565
1135.002641,-8956.491898,0.000000,444.123565
1135.002952,-8734.430116,0.000000,592.164754
1135.003263,-9326.594869,153.219100,518.144159
1135.003575,-10807.006753,229.828649,444.123565
1135.003886,-11621.233289,2451.505594,518.144159
1135.004197,-9326.594869,4519.963438,740.205942
1135.004509,-7846.182985,3907.087040,888.247130
1135.004820,-6809.894666,1915.238745,1480.411884
1135.005132,-6365.771101,-1378.971896,370.102971
1135.005443,-6883.915261,-689.485948,-74.020594
1135.005754,-7254.018232,76.609550,-222.061783
1135.006066,-11177.109724,-919.314598,-888.247130
1135.006377,-12879.583391,-383.047749,-444.123565
1135.006688,-10510.924376,459.657299,740.205942
1135.007000,-9178.553681,0.000000,1480.411884
1135.007311,-8512.368333,-612.876398,3182.885551
1135.007623,-11695.253884,0.000000,1406.391290
1135.007934,-8586.388927,4136.915689,2368.659014
1135.008245,-4737.318029,5209.449386,1924.535449
1135.008557,-7402.059420,3140.991542,1184.329507
1135.008868,-8734.430116,2145.067394,-148.041188
1135.009179,-7476.080014,2757.943793,-1702.473667
1135.009491,-8216.285956,3217.601092,-1480.411884
1135.009802,-8734.430116,2987.772442,-592.164754
1135.010114,-10510.924376,2145.067394,-1776.494261
1135.010425,-13767.830521,-1915.238745,370.102971
1135.010736,-9474.636058,-1685.410096,3034.844362
1135.011048,-8364.327145,-536.266849,1480.411884
1135.011359,-10732.986159,2451.505594,1998.556043
1135.011670,-5699.585753,4749.792088,2886.803174
1135.011982,-6735.874072,1685.410096,1110.308913
1135.012293,-6439.791695,2604.724693,2590.720797
1135.012605,-7179.997637,4826.401637,1554.432478
1135.012916,-11251.130318,3830.477490,-1184.329507
1135.013227,-8660.409521,3524.039291,-370.102971
1135.013539,-9844.739029,2911.162892,-1554.432478
1135.013850,-9696.697840,3600.648841,-962.267725
1135.014161,-11399.171507,3140.991542,-444.123565
1135.014473,-10955.047942,3217.601092,740.205942
1135.014784,-8956.491898,3064.381992,1998.556043
1135.015096,-9400.615463,4443.353888,2294.638420
1135.015407,-7254.018232,3447.429741,2072.576638
1135.015718,-6143.709319,2757.943793,444.123565
1135.016030,-5403.503377,2528.115143,-0.000000
1135.016341,-5329.482782,2374.896044,370.102971
1135.016652,-6365.771101,1838.629195,-2664.741391
1135.016964,-8364.327145,842.705048,-444.123565
1135.017275,-10066.800811,-1608.800546,-1110.308913
1135.017587,-10214.842000,-1838.629195,962.267725
1135.017898,-11029.068536,-3217.601092,1332.370696
1135.018209,-10732.986159,-3524.039291,1628.453072
1135.018521,-10584.944971,-2451.505594,2664.741391
1135.018832,-8438.347739,-1378.971896,2072.576638
1135.019144,-7550.100608,0.000000,2590.720797
1135.019455,-8142.265362,612.876398,-0.000000
1135.019766,-7402.059420,1225.752797,740.205942
1135.020078,-8734.430116,1302.362347,-1850.514855
1135.020389,-7550.100608,1608.800546,-74.020594
1135.020700,-8808.450710,-229.828649,-1406.391290
1135.021012,-9178.553681,-2451.505594,-666.185348
1135.021323,-9474.636058,-3524.039291,-0.000000
1135.021635,-10214.842000,-3217.601092,370.102971
1135.021946,-10658.965565,-2987.772442,1480.411884
1135.022257,-10732.986159,-1915.238745,814.226536
1135.022569,-10066.800811,-1608.800546,370.102971
1135.022880,-9622.677246,-612.876398,-0.000000
1135.023191,-8586.388927,-995.924147,-370.102971
1135.023503,-7698.141797,-612.876398,-592.164754
1135.023814,-8068.244768,-536.266849,-222.061783
1135.024126,-9474.636058,-766.095498,-296.082377
1135.024437,-9992.780217,-1532.190996,-296.082377
1135.024748,-10584.944971,-2451.505594,-0.000000
1135.025060,-10955.047942,-2528.115143,740.205942
1135.025371,-11029.068536,-2451.505594,1184.329507
1135.025682,-11695.253884,-2068.457845,1406.391290
1135.025994,-10807.006753,-459.657299,1924.535449
1135.026305,-10214.842000,229.828649,-222.061783
1135.026617,-8734.430116,2374.896044,740.205942
1135.026928,-8142.265362,2604.724693,-962.267725
1135.027239,-7105.977043,3600.648841,-962.267725
1135.027551,-6365.771101,3600.648841,-1258.350101
1135.027862,-7254.018232,2757.943793,-962.267725
1135.028173,-7031.956449,1838.629195,-0.000000
1135.028485,-8586.388927,383.047749,814.226536
1135.028796,-9104.533087,-306.438199,2220.617826
1135.029108,-9992.780217,-842.705048,2072.576638
1135.029419,-9992.780217,153.219100,2294.638420
1135.029730,-9474.636058,459.657299,1850.514855
1135.030042,-8734.430116,1302.362347,962.267725
1135.030353,-7994.224174,1762.019645,-0.000000
1135.030664,-7698.141797,2221.676944,-0.000000
1135.030976,-7328.038826,2604.724693,-0.000000
1135.031287,-7105.977043,2834.553343,370.102971
1135.031599,-6883.915261,2068.457845,-0.000000
1135.031910,-6513.812290,459.657299,1110.308913
1135.032221,-7476.080014,-153.219100,2072.576638
1135.032533,-7698.141797,-995.924147,1702.473667
1135.032844,-7920.203579,-1532.190996,2516.700203
1135.033155,-9326.594869,-2298.286494,1406.391290
1135.033467,-8808.450710,-1378.971896,1554.432478
1135.033778,-8660.409521,-1072.533697,592.164754
1135.034090,-9252.574275,-153.219100,222.061783
1135.034401,-8142.265362,0.000000,740.205942
1135.034712,-8586.388927,612.876398,-222.061783
1135.035024,-9030.512492,383.047749,-0.000000
1135.035335,-8882.471304,0.000000,592.164754
1135.035647,-8956.491898,-766.095498,370.102971
1135.035958,-9326.594869,-1302.362347,1036.288319
1135.036269,-9770.718434,-1532.190996,888.247130
1135.036581,-9400.615463,-1608.800546,1258.350101
1135.036892,-9918.759623,-919.314598,1110.308913
1135.037203,-10066.800811,-1455.581446,888.247130
1135.037515,-10288.862594,-995.924147,888.247130
1135.037826,-10436.903782,-383.047749,-0.000000
1135.038138,-10288.862594,919.314598,-0.000000
1135.038449,-9918.759623,306.438199,-962.267725
1135.038760,-9326.594869,919.314598,-888.247130
1135.039072,-9326.594869,842.705048,-1480.411884
1135.039383,-9548.656652,689.485948,-1554.432478
1135.039694,-9178.553681,842.705048,-592.164754
1135.040006,-9474.636058,0.000000,148.041188
1135.040317,-9622.677246,-612.876398,592.164754
1135.040629,-9770.718434,-919.314598,1110.308913
1135.040940,-9992.780217,-766.095498,592.164754
1135.041251,-9474.636058,-153.219100,296.082377
1135.041563,-9400.615463,229.828649,-296.082377
1135.041874,-8808.450710,919.314598,-518.144159
1135.042185,-8364.327145,919.314598,-0.000000
1135.042497,-8586.388927,229.828649,-444.123565
1135.042808,-8216.285956,76.609550,296.082377
1135.043120,-7846.182985,-153.219100,296.082377
1135.043431,-7624.121203,-229.828649,370.102971
1135.043742,-7846.182985,0.000000,888.247130
1135.044054,-7624.121203,-229.828649,1036.288319
1135.044365,-8142.265362,-229.828649,1184.329507
1135.044676,-8216.285956,-229.828649,1628.453072
1135.044988,-8660.409521,459.657299,1332.370696
1135.045299,-8660.409521,842.705048,666.185348
1135.045611,-8586.388927,612.876398,370.102971
1135.045922,-8142.265362,842.705048,370.102971
1135.046233,-7402.059420,536.266849,-0.000000
1135.046545,-7698.141797,459.657299,74.020594
1135.046856,-7698.141797,842.705048,370.102971
1135.047167,-8290.306550,-229.828649,518.144159
1135.047479,-8586.388927,-689.485948,1480.411884
1135.047790,-9178.553681,-1225.752797,1998.556043
1135.048102,-9918.759623,-1762.019645,1924.535449
1135.048413,-9770.718434,-1149.143247,2294.638420
1135.048724,-9770.718434,-919.314598,1628.453072
1135.049036,-9400.615463,-306.438199,1850.514855
1135.049347,-9400.615463,-1149.143247,370.102971
1135.049658,-8956.491898,-612.876398,222.061783
1135.049970,-8364.327145,-306.438199,-0.000000
1135.050281,-8512.368333,-306.438199,-592.164754
1135.050592,-8512.368333,-383.047749,148.041188
1135.050903,-9030.512492,-919.314598,296.082377
1135.051215,-9030.512492,-1072.533697,1184.329507
1135.051526,-9844.739029,-1838.629195,1850.514855
1135.051837,-10584.944971,-1302.362347,1924.535449
1135.052148,-10584.944971,-229.828649,1776.494261
1135.052460,-10362.883188,0.000000,1110.308913
1135.052771,-9918.759623,459.657299,370.102971
1135.053082,-9252.574275,919.314598,-0.000000
1135.053393,-8586.388927,1302.362347,-814.226536
1135.053704,-8808.450710,1838.629195,-740.205942
1135.054016,-8660.409521,1455.581446,-1110.308913
1135.054327,-8290.306550,1608.800546,-222.061783
1135.054638,-8882.471304,612.876398,-0.000000
1135.054949,-9030.512492,76.609550,-0.000000
1135.055260,-8512.368333,0.000000,666.185348
1135.055572,-8882.471304,229.828649,370.102971
1135.055883,-8882.471304,0.000000,740.205942
1135.056194,-8586.388927,-766.095498,740.205942
1135.056505,-9400.615463,-153.219100,-0.000000
1135.056816,-8808.450710,153.219100,296.082377
1135.057128,-8808.450710,0.000000,-370.102971
1135.057439,-8364.327145,229.828649,-222.061783
1135.057750,-7476.080014,229.828649,-518.144159
1135.058061,-7476.080014,76.609550,-666.185348
1135.058373,-7105.977043,-229.828649,296.082377
1135.058684,-7698.141797,-766.095498,370.102971
1135.058995,-8142.265362,-306.438199,740.205942
1135.059306,-8882.471304,-612.876398,1480.411884
1135.059617,-9400.615463,-766.095498,1258.350101
1135.059929,-9178.553681,-995.924147,1480.411884
1135.060240,-9474.636058,-383.047749,962.267725
1135.060551,-8956.491898,766.095498,370.102971
1135.060862,-8956.491898,612.876398,148.041188
1135.061173,-9104.533087,689.485948,-296.082377
1135.061485,-8290.306550,459.657299,-0.000000
1135.061796,-8882.471304,229.828649,-148.041188
1135.062107,-8734.430116,689.485948,592.164754
1135.062418,-8882.471304,536.266849,666.185348
1135.062729,-9252.574275,153.219100,740.205942
1135.063041,-9548.656652,-689.485948,1406.391290
1135.063352,-9696.697840,-1072.533697,1258.350101
1135.063663,-9844.739029,-919.314598,1036.288319
1135.063974,-9696.697840,-995.924147,888.247130
1135.064286,-9992.780217,-766.095498,592.164754
1135.064597,-9622.677246,-766.095498,518.144159
1135.064908,-9548.656652,-1072.533697,296.082377
1135.065219,-9178.553681,-995.924147,370.102971
1135.065530,-8882.471304,-842.705048,888.247130
1135.065842,-9178.553681,-842.705048,592.164754
1135.066153,-8438.347739,-995.924147,1480.411884
1135.066464,-8660.409521,-1225.752797,1036.288319
1135.066775,-8364.327145,-536.266849,1480.411884
1135.067086,-8586.388927,-536.266849,1036.288319
1135.067398,-8956.491898,-383.047749,666.185348
1135.067709,-8734.430116,383.047749,1036.288319
1135.068020,-8882.471304,-229.828649,74.020594
1135.068331,-8216.285956,383.047749,592.164754
1135.068642,-9104.533087,76.609550,-148.041188
1135.068954,-8660.409521,153.219100,-222.061783
1135.069265,-7772.162391,536.266849,148.041188
1135.069576,-8142.265362,383.047749,-74.020594
1135.069887,-7846.182985,153.219100,666.185348
1135.070198,-8512.368333,536.266849,-0.000000
1135.070510,-8586.388927,842.705048,888.247130
1135.070821,-9030.512492,995.924147,888.247130
1135.071132,-9326.594869,536.266849,370.102971
1135.071443,-9252.574275,76.609550,666.185348
1135.071755,-9474.636058,-153.219100,-0.000000
1135.072066,-8956.491898,612.876398,-74.020594
1135.072377,-8438.347739,842.705048,-148.041188
1135.072688,-8808.450710,536.266849,-1036.288319
1135.072999,-8364.327145,459.657299,-74.020594
1135.073311,-8882.471304,76.609550,-74.020594
1135.073622,-8734.430116,689.485948,-0.000000
1135.073933,-9030.512492,536.266849,518.144159
1135.074244,-9326.594869,229.828649,296.082377
1135.074555,-8956.491898,229.828649,888.247130
1135.074867,-9252.574275,-306.438199,518.144159
1135.075178,-9030.512492,76.609550,296.082377
1135.075489,-9548.656652,76.609550,-0.000000
1135.075800,-9326.594869,229.828649,-0.000000
1135.076111,-9326.594869,-995.924147,-0.000000
1135.076423,-9326.594869,-919.314598,370.102971
1135.076734,-9252.574275,-689.485948,444.123565
1135.077045,-9104.533087,-306.438199,814.226536
1135.077356,-9104.533087,76.609550,592.164754
1135.077668,-8882.471304,-612.876398,1258.350101
1135.077979,-8882.471304,0.000000,740.205942
1135.078290,-9474.636058,0.000000,888.247130
1135.078601,-9400.615463,383.047749,1184.329507
1135.078912,-9622.677246,383.047749,962.267725
1135.079224,-9252.574275,229.828649,888.247130
1135.079535,-8956.491898,-153.219100,518.144159
1135.079846,-8956.491898,76.609550,592.164754
1135.080157,-8438.347739,229.828649,370.102971
1135.080468,-8512.368333,-153.219100,-0.000000
1135.080780,-8660.409521,76.609550,222.061783
1135.081091,-8512.368333,0.000000,666.185348
1135.081402,-8956.491898,-306.438199,888.247130
1135.081713,-8142.265362,-306.438199,1554.432478
1135.082024,-8512.368333,-536.266849,962.267725
1135.082336,-8660.409521,-689.485948,1332.370696
1135.082647,-8808.450710,-1378.971896,666.185348
1135.082958,-8438.347739,-1225.752797,814.226536
1135.083269,-8142.265362,-1225.752797,666.185348
1135.083581,-8364.327145,-1072.533697,148.041188
1135.083892,-8438.347739,-1225.752797,518.144159
1135.084203,-8956.491898,-612.876398,-0.000000
1135.084514,-8734.430116,-612.876398,370.102971
1135.084825,-8808.450710,-306.438199,666.185348
1135.085137,-9252.574275,-229.828649,370.102971
1135.085448,-8734.430116,536.266849,814.226536
1135.085759,-8586.388927,536.266849,296.082377
1135.086070,-8586.388927,766.095498,592.164754
1135.086381,-8660.409521,842.705048,444.123565
1135.086693,-8882.471304,919.314598,-0.000000
1135.087004,-8586.388927,1072.533697,148.041188
1135.087315,-8956.491898,536.266849,-74.020594
1135.087626,-9400.615463,536.266849,148.041188
1135.087937,-9622.677246,995.924147,148.041188
1135.088249,-9548.656652,536.266849,-0.000000
1135.088560,-9030.512492,229.828649,148.041188
1135.088871,-9474.636058,76.609550,-74.020594
1135.089182,-9178.553681,76.609550,222.061783
1135.089493,-8956.491898,0.000000,518.144159
1135.089805,-9844.739029,-459.657299,-0.000000
1135.090116,-9474.636058,0.000000,814.226536
1135.090427,-9474.636058,-689.485948,370.102971
1135.090738,-9474.636058,-536.266849,666.185348
1135.091050,-8956.491898,-842.705048,740.205942
1135.091361,-8808.450710,-919.314598,296.082377
1135.091672,-8512.368333,-919.314598,666.185348
1135.091983,-8438.347739,-689.485948,148.041188
1135.092294,-8586.388927,-153.219100,592.164754
1135.092606,-9030.512492,-306.438199,592.164754
1135.092917,-9400.615463,306.438199,370.102971
1135.093228,-9252.574275,0.000000,814.226536
1135.093539,-9326.594869,76.609550,666.185348
1135.093850,-9104.533087,306.438199,518.144159
1135.094162,-8956.491898,689.485948,666.185348
1135.094473,-9178.553681,919.314598,592.164754
1135.094784,-8438.347739,306.438199,1184.329507
1135.095095,-8734.430116,76.609550,296.082377
1135.095406,-8438.347739,919.314598,888.247130
1135.095718,-8660.409521,459.657299,592.164754
1135.096029,-8512.368333,919.314598,666.185348
1135.096340,-8438.347739,689.485948,888.247130
1135.096651,-8808.450710,536.266849,814.226536
1135.096963,-8364.327145,459.657299,888.247130
1135.097274,-8290.306550,153.219100,740.205942
1135.097585,-8586.388927,153.219100,370.102971
1135.097896,-8438.347739,-153.219100,814.226536
1135.098207,-9030.512492,-536.266849,666.185348
1135.098519,-8586.388927,0.000000,1184.329507
1135.098830,-8882.471304,-612.876398,962.267725
1135.099141,-8956.491898,-306.438199,814.226536
1135.099452,-8068.244768,-153.219100,814.226536
1135.099763,-8290.306550,-536.266849,444.123565
1135.100075,-7698.141797,-766.095498,592.164754
1135.100386,-8438.347739,-766.095498,518.144159
1135.100697,-9104.533087,-612.876398,444.123565
1135.101008,-8808.450710,-306.438199,962.267725
1135.101319,-9252.574275,-229.828649,222.061783
1135.101631,-8956.491898,0.000000,370.102971
1135.101942,-8882.471304,0.000000,518.144159
1135.102253,-9030.512492,-383.047749,-0.000000
1135.102564,-8512.368333,459.657299,592.164754
1135.102876,-9104.533087,153.219100,-0.000000
1135.103187,-8808.450710,229.828649,444.123565
1135.103498,-9178.553681,306.438199,-0.000000
1135.103809,-9178.553681,612.876398,-0.000000
1135.104120,-8808.450710,766.095498,296.082377
1135.104432,-9548.656652,306.438199,-148.041188
1135.104743,-9622.677246,0.000000,444.123565
1135.105054,-9474.636058,-1149.143247,-0.000000
1135.105365,-9474.636058,-306.438199,222.061783
1135.105676,-9178.553681,0.000000,-0.000000
1135.105988,-9030.512492,-689.485948,-0.000000
1135.106299,-9030.512492,-689.485948,444.123565
1135.106610,-9326.594869,-919.314598,444.123565
1135.106921,-9030.512492,-766.095498,370.102971
1135.107232,-9326.594869,-306.438199,444.123565
1135.107544,-9030.512492,-229.828649,370.102971
1135.107855,-8734.430116,-383.047749,592.164754
1135.108166,-8734.430116,-842.705048,370.102971
1135.108477,-8734.430116,-383.047749,444.123565
1135.108788,-8290.306550,-306.438199,592.164754
1135.109100,-9104.533087,-766.095498,-74.020594
1135.109411,-8364.327145,-153.219100,666.185348
1135.109722,-9104.533087,-306.438199,-0.000000
1135.110033,-8734.430116,-229.828649,518.144159
1135.110345,-8512.368333,0.000000,592.164754
1135.110656,-8512.368333,76.609550,296.082377
1135.110967,-8512.368333,306.438199,1036.288319
1135.111278,-8734.430116,459.657299,666.185348
1135.111589,-8216.285956,689.485948,666.185348
1135.111901,-8216.285956,459.657299,740.205942
1135.112212,-8660.409521,306.438199,592.164754
1135.112523,-8660.409521,383.047749,888.247130
1135.112834,-8734.430116,536.266849,518.144159
1135.113145,-9104.533087,383.047749,592.164754
1135.113457,-9104.533087,306.438199,444.123565
1135.113768,-8882.471304,842.705048,296.082377
1135.114079,-8808.450710,-229.828649,518.144159
1135.114390,-8660.409521,229.828649,666.185348
1135.114701,-9400.615463,459.657299,592.164754
1135.115013,-8808.450710,229.828649,1184.329507
1135.115324,-8882.471304,76.609550,740.205942
1135.115635,-8364.327145,-383.047749,1406.391290
1135.115946,-8586.388927,-919.314598,962.267725
1135.116258,-8660.409521,-995.924147,370.102971
1135.116569,-7994.224174,-459.657299,592.164754
1135.116880,-8438.347739,-536.266849,-0.000000
1135.117191,-8586.388927,-1532.190996,740.205942
1135.117502,-9178.553681,-995.924147,370.102971
1135.117814,-9104.533087,-612.876398,962.267725
1135.118125,-9696.697840,-536.266849,814.226536
1135.118436,-9696.697840,-306.438199,888.247130
1135.118747,-9178.553681,766.095498,666.185348
1135.119058,-9400.615463,153.219100,370.102971
1135.119370,-8142.265362,459.657299,740.205942
1135.119681,-8586.388927,919.314598,296.082377
1135.119992,-9030.512492,1149.143247,-296.082377
1135.120303,-8512.368333,1149.143247,148.041188
1135.120614,-8956.491898,536.266849,-148.041188
1135.120926,-8956.491898,1072.533697,592.164754
1135.121237,-9622.677246,306.438199,-148.041188
1135.121548,-9992.780217,-229.828649,222.061783
1135.121859,-8734.430116,-229.828649,592.164754
1135.122171,-9178.553681,-459.657299,-0.000000
1135.122482,-8808.450710,-689.485948,444.123565
1135.122793,-8660.409521,-1149.143247,444.123565
1135.123104,-9400.615463,-1685.410096,222.061783
1135.123415,-9252.574275,-766.095498,592.164754
1135.123727,-9474.636058,-995.924147,-0.000000
1135.124038,-9474.636058,-1149.143247,518.144159
1135.124349,-8882.471304,-1685.410096,888.247130
1135.124660,-9030.512492,-1532.190996,444.123565
1135.124971,-8364.327145,-1225.752797,740.205942
1135.125283,-8956.491898,-842.705048,592.164754
1135.125594,-8808.450710,-1225.752797,814.226536
1135.125905,-8438.347739,-612.876398,370.102971
1135.126216,-9030.512492,-306.438199,148.041188
1135.126527,-8512.368333,0.000000,444.123565
1135.126839,-8734.430116,76.609550,370.102971
1135.127150,-8734.430116,306.438199,296.082377
1135.127461,-8882.471304,612.876398,592.164754
1135.127772,-9252.574275,383.047749,296.082377
1135.128083,-9104.533087,536.266849,1110.308913
1135.128395,-8956.491898,612.876398,370.102971
1135.128706,-9030.512492,919.314598,518.144159
1135.129017,-8808.450710,1072.533697,444.123565
1135.129328,-9030.512492,459.657299,148.041188
1135.129640,-9030.512492,536.266849,740.205942
1135.129951,-9400.615463,229.828649,592.164754
1135.130262,-8882.471304,76.609550,740.205942
1135.130573,-8882.471304,0.000000,148.041188
1135.130884,-9178.553681,306.438199,592.164754
1135.131196,-8660.409521,-612.876398,592.164754
1135.131507,-9178.553681,-459.657299,592.164754
1135.131818,-8808.450710,-459.657299,1480.411884
1135.132129,-9474.636058,-919.314598,962.267725
1135.132440,-8882.471304,-995.924147,1184.329507
1135.132752,-8142.265362,-689.485948,1184.329507
1135.133063,-8290.306550,0.000000,518.144159
1135.133374,-7476.080014,0.000000,666.185348
1135.133685,-8364.327145,-689.485948,-0.000000
1135.133996,-8956.491898,-383.047749,-0.000000
1135.134308,-8660.409521,229.828649,518.144159
1135.134619,-9400.615463,153.219100,296.082377
1135.134930,-9326.594869,0.000000,666.185348
1135.135241,-9400.615463,229.828649,740.205942
1135.135553,-8882.471304,766.095498,740.205942
1135.135864,-8068.244768,689.485948,962.267725
1135.136175,-8438.347739,306.438199,740.205942
1135.136486,-8586.388927,383.047749,814.226536
1135.136797,-8808.450710,306.438199,148.041188
1135.137109,-8882.471304,689.485948,-0.000000
1135.137420,-8660.409521,1149.143247,-0.000000
1135.137731,-9252.574275,1072.533697,-148.041188
1135.138042,-9104.533087,0.000000,296.082377
1135.138353,-9030.512492,-306.438199,296.082377
1135.138665,-8882.471304,153.219100,222.061783
1135.138976,-8882.471304,76.609550,296.082377
1135.139287,-9104.533087,153.219100,-0.000000
1135.139598,-9030.512492,-689.485948,592.164754
1135.139909,-9326.594869,-459.657299,296.082377
1135.140221,-8734.430116,-536.266849,296.082377
1135.140532,-9104.533087,0.000000,296.082377
1135.140843,-9326.594869,-153.219100,-148.041188
1135.141154,-8956.491898,-612.876398,148.041188
1135.141466,-9178.553681,-689.485948,222.061783
1135.141777,-8882.471304,-153.219100,518.144159
1135.142088,-8808.450710,-153.219100,592.164754
1135.142399,-9104.533087,0.000000,370.102971
1135.142710,-8216.285956,-229.828649,1036.288319
1135.143022,-8364.327145,-612.876398,222.061783
1135.143333,-8808.450710,-306.438199,518.144159
1135.143644,-9400.615463,-383.047749,444.123565
1135.143955,-9252.574275,-229.828649,222.061783
1135.144266,-9104.533087,0.000000,740.205942
1135.144578,-9178.553681,76.609550,222.061783
1135.144889,-9030.512492,536.266849,518.144159
1135.145200,-8956.491898,0.000000,518.144159
1135.145511,-8734.430116,229.828649,518.144159
1135.145822,-8808.450710,536.266849,1110.308913
1135.146134,-9104.533087,0.000000,370.102971
1135.146445,-9030.512492,0.000000,814.226536
1135.146756,-8734.430116,-306.438199,888.247130
1135.147067,-9030.512492,0.000000,370.102971
1135.147378,-8956.491898,0.000000,666.185348
1135.147690,-9104.533087,-536.266849,666.185348
1135.148001,-9252.574275,-919.314598,666.185348
1135.148312,-8882.471304,-459.657299,888.247130
1135.148623,-8808.450710,-536.266849,740.205942
1135.148935,-8438.347739,-689.485948,1184.329507
1135.149246,-8438.347739,-766.095498,592.164754
1135.149557,-8142.265362,-536.266849,592.164754
1135.149868,-8142.265362,0.000000,740.205942
1135.150180,-7698.141797,-383.047749,592.164754
1135.150491,-8290.306550,-689.485948,444.123565
1135.150802,-8882.471304,0.000000,518.144159
1135.151114,-8956.491898,-306.438199,666.185348
1135.151425,-9030.512492,-383.047749,666.185348
1135.151736,-9326.594869,0.000000,518.144159
1135.152048,-9030.512492,306.438199,888.247130
1135.152359,-8956.491898,-229.828649,444.123565
1135.152670,-8882.471304,689.485948,518.144159
1135.152982,-8586.388927,842.705048,740.205942
1135.153293,-9104.533087,1685.410096,-0.000000
1135.153604,-8808.450710,919.314598,592.164754
1135.153916,-9252.574275,766.095498,-0.000000
1135.154227,-8956.491898,919.314598,-0.000000
1135.154538,-9252.574275,1149.143247,-0.000000
1135.154850,-9400.615463,1225.752797,-0.000000
1135.155161,-9104.533087,612.876398,444.123565
1135.155472,-9104.533087,459.657299,-74.020594
1135.155784,-8660.409521,0.000000,-0.000000
1135.156095,-8808.450710,-229.828649,296.082377
1135.156406,-9474.636058,-383.047749,-0.000000
1135.156718,-9252.574275,-306.438199,592.164754
1135.157029,-9326.594869,-459.657299,-74.020594
1135.157340,-8956.491898,-459.657299,370.102971
1135.157652,-8734.430116,-383.047749,296.082377
1135.157963,-9030.512492,-306.438199,-0.000000
1135.158274,-8586.388927,-919.314598,814.226536
1135.158586,-9104.533087,-1072.533697,370.102971
1135.158897,-8956.491898,-842.705048,740.205942
1135.159208,-9104.533087,-766.095498,592.164754
1135.159520,-9104.533087,-459.657299,518.144159
1135.159831,-9548.656652,-766.095498,370.102971
1135.160142,-9400.615463,0.000000,814.226536
1135.160454,-9178.553681,383.047749,740.205942
1135.160765,-9178.553681,383.047749,518.144159
1135.161076,-8808.450710,383.047749,666.185348
1135.161388,-8586.388927,842.705048,888.247130
1135.161699,-8660.409521,689.485948,148.041188
1135.162010,-8438.347739,1225.752797,814.226536
1135.162322,-8438.347739,459.657299,592.164754
1135.162633,-8216.285956,459.657299,592.164754
1135.162944,-8956.491898,766.095498,518.144159
1135.163256,-9326.594869,306.438199,666.185348
1135.163567,-9104.533087,0.000000,740.205942
1135.163878,-9252.574275,0.000000,740.205942
1135.164189,-8956.491898,-229.828649,962.267725
1135.164501,-8956.491898,0.000000,1110.308913
1135.164812,-8956.491898,-306.438199,888.247130
1135.165123,-8290.306550,0.000000,1332.370696
1135.165435,-8438.347739,-612.876398,1036.288319
1135.165746,-8438.347739,-919.314598,1110.308913
1135.166057,-7846.182985,-919.314598,1110.308913
1135.166369,-7994.224174,-536.266849,444.123565
1135.166680,-7846.182985,-766.095498,814.226536
1135.166991,-8660.409521,-842.705048,-0.000000
1135.167303,-8660.409521,-689.485948,222.061783
1135.167614,-9326.594869,0.000000,370.102971
1135.167925,-9400.615463,-536.266849,-0.000000
1135.168237,-9474.636058,76.609550,740.205942
1135.168548,-9770.718434,229.828649,296.082377
1135.168859,-9326.594869,383.047749,518.144159
1135.169171,-8808.450710,612.876398,370.102971
1135.169482,-9104.533087,919.314598,-0.000000
1135.169793,-8882.471304,-153.219100,-0.000000
1135.170105,-8586.388927,76.609550,-0.000000
1135.170416,-9252.574275,766.095498,296.082377
1135.170727,-9252.574275,995.924147,296.082377
1135.171039,-9696.697840,766.095498,-148.041188
1135.171350,-9326.594869,153.219100,444.123565
1135.171661,-9474.636058,-306.438199,148.041188
1135.171973,-9252.574275,-229.828649,222.061783
1135.172284,-8290.306550,842.705048,444.123565
1135.172595,-9474.636058,0.000000,-148.041188
1135.172907,-9252.574275,-306.438199,-0.000000
1135.173218,-9252.574275,-383.047749,296.082377
1135.173529,-8882.471304,-306.438199,518.144159
1135.173841,-9030.512492,-229.828649,592.164754
1135.174152,-9030.512492,-612.876398,222.061783
1135.174463,-8586.388927,0.000000,666.185348
1135.174775,-9104.533087,-1378.971896,296.082377
1135.175086,-8364.327145,0.000000,666.185348
1135.175397,-8586.388927,-689.485948,888.247130
1135.175709,-9178.553681,-612.876398,740.205942
1135.176020,-8808.450710,-536.266849,888.247130
1135.176331,-8734.430116,-153.219100,666.185348
1135.176643,-8290.306550,-383.047749,740.205942
1135.176954,-8660.409521,0.000000,666.185348
1135.177265,-8660.409521,-612.876398,296.082377
1135.177577,-8512.368333,459.657299,740.205942
1135.177888,-8956.491898,153.219100,592.164754
1135.178199,-9030.512492,383.047749,962.267725
1135.178511,-8882.471304,306.438199,666.185348
1135.178822,-9030.512492,536.266849,814.226536
1135.179133,-8734.430116,536.266849,1036.288319
1135.179445,-9104.533087,459.657299,444.123565
1135.179756,-8956.491898,842.705048,666.185348
1135.180067,-8586.388927,-229.828649,518.144159
1135.180379,-8882.471304,153.219100,592.164754
1135.180690,-8586.388927,153.219100,814.226536
1135.181001,-8660.409521,-153.219100,666.185348
1135.181313,-9104.533087,-153.219100,740.205942
1135.181624,-8586.388927,0.000000,740.205942
1135.181935,-9252.574275,153.219100,740.205942
1135.182247,-8734.430116,-536.266849,1184.329507
1135.182558,-9030.512492,-842.705048,740.205942
1135.182869,-8364.327145,-459.657299,592.164754
1135.183181,-8438.347739,-689.485948,666.185348
1135.183492,-8660.409521,-689.485948,296.082377
1135.183803,-8734.430116,-383.047749,592.164754
1135.184115,-9030.512492,-766.095498,518.144159
1135.184426,-8216.285956,-1072.533697,962.267725
1135.184737,-9326.594869,-383.047749,-0.000000
1135.185049,-9104.533087,-306.438199,740.205942
1135.185360,-8882.471304,-153.219100,592.164754
1135.185671,-8956.491898,-153.219100,666.185348
1135.185983,-8734.430116,76.609550,370.102971
1135.186294,-8660.409521,459.657299,296.082377
1135.186605,-8882.471304,1225.752797,-74.020594
1135.186917,-8660.409521,1072.533697,370.102971
1135.187228,-9178.553681,229.828649,-0.000000
1135.187539,-9178.553681,612.876398,-0.000000
1135.187851,-9178.553681,306.438199,-0.000000
1135.188162,-9474.636058,459.657299,-74.020594
1135.188473,-9178.553681,306.438199,-0.000000
1135.188785,-9326.594869,536.266849,-74.020594
1135.189096,-8438.347739,-306.438199,222.061783
1135.189407,-8586.388927,-306.438199,-222.061783
1135.189719,-9178.553681,-612.876398,-222.061783
1135.190030,-9178.553681,-536.266849,444.123565
1135.190341,-9400.615463,-919.314598,296.082377
1135.190653,-9326.594869,-919.314598,666.185348
1135.190964,-9030.512492,-1149.143247,518.144159
1135.191275,-8660.409521,-842.705048,222.061783
1135.191587,-8512.368333,-995.924147,592.164754
1135.191898,-8438.347739,-995.924147,148.041188
1135.192209,-8586.388927,-842.705048,666.185348
1135.192521,-9030.512492,-842.705048,666.185348
1135.192832,-8956.491898,-689.485948,740.205942
1135.193143,-9178.553681,-536.266849,592.164754
1135.193455,-9326.594869,76.609550,592.164754
1135.193766,-8956.491898,459.657299,518.144159
1135.194077,-8956.491898,1532.190996,444.123565
1135.194389,-9400.615463,919.314598,518.144159
1135.194700,-9030.512492,1072.533697,740.205942
1135.195011,-8956.491898,842.705048,370.102971
1135.195323,-8586.388927,766.095498,962.267725
1135.195634,-8438.347739,536.266849,666.185348
1135.195945,-8512.368333,1072.533697,592.164754
1135.196257,-7994.224174,0.000000,888.247130
1135.196568,-8956.491898,0.000000,296.082377
1135.196879,-9178.553681,536.266849,518.144159
1135.197191,-9252.574275,76.609550,814.226536
1135.197502,-9178.553681,153.219100,740.205942
1135.197813,-8734.430116,0.000000,1110.308913
1135.198125,-9474.636058,-383.047749,592.164754
1135.198436,-8660.409521,0.000000,1480.411884
1135.198747,-8586.388927,-612.876398,1258.350101
1135.199059,-8438.347739,-689.485948,740.205942
1135.199370,-8068.244768,-383.047749,666.185348
1135.199681,-8290.306550,-459.657299,444.123565
1135.199993,-7920.203579,-459.657299,888.247130
1135.200304,-8586.388927,-766.095498,296.082377
1135.200615,-9178.553681,-536.266849,296.082377
1135.200926,-9326.594869,0.000000,666.185348
1135.201238,-9474.636058,76.609550,370.102971
1135.201549,-9030.512492,76.609550,518.144159
1135.201860,-9104.533087,0.000000,666.185348
1135.202172,-8808.450710,229.828649,518.144159
1135.202483,-8364.327145,229.828649,592.164754
1135.202794,-8290.306550,229.828649,148.041188
1135.203106,-8216.285956,306.438199,148.041188
1135.203417,-8660.409521,536.266849,-222.061783
1135.203728,-8882.471304,1302.362347,-0.000000
1135.204040,-8808.450710,1378.971896,222.061783
1135.204351,-9400.615463,689.485948,-148.041188
1135.204662,-9622.677246,229.828649,370.102971
1135.204974,-9918.759623,0.000000,-0.000000
1135.205285,-9474.636058,-153.219100,370.102971
1135.205596,-9252.574275,-306.438199,74.020594
1135.205908,-9104.533087,-153.219100,-0.000000
1135.206219,-8956.491898,-1149.143247,444.123565
1135.206530,-9030.512492,-842.705048,-74.020594
1135.206842,-8808.450710,-689.485948,592.164754
1135.207153,-8956.491898,-459.657299,518.144159
1135.207464,-9030.512492,-612.876398,222.061783
1135.207776,-8660.409521,-766.095498,592.164754
1135.208087,-9252.574275,-536.266849,-0.000000
1135.208398,-8882.471304,0.000000,740.205942
1135.208710,-9030.512492,0.000000,222.061783
1135.209021,-9326.594869,-919.314598,-0.000000
1135.209332,-8956.491898,-536.266849,444.123565
1135.209644,-9030.512492,-306.438199,148.041188
1135.209955,-9104.533087,0.000000,518.144159
1135.210266,-9178.553681,306.438199,592.164754
1135.210578,-9030.512492,459.657299,370.102971
1135.210889,-8142.265362,76.609550,740.205942
1135.211200,-8956.491898,76.609550,-0.000000
1135.211512,-8438.347739,459.657299,814.226536
1135.211823,-8660.409521,229.828649,740.205942
1135.212134,-8956.491898,76.609550,740.205942
1135.212446,-8734.430116,0.000000,1036.288319
1135.212757,-9030.512492,76.609550,666.185348
1135.213068,-9104.533087,153.219100,814.226536
1135.213380,-9178.553681,76.609550,592.164754
1135.213691,-9104.533087,459.657299,444.123565
1135.214002,-8734.430116,0.000000,888.247130
1135.214314,-9104.533087,459.657299,518.144159
1135.214625,-8882.471304,229.828649,1036.288319
1135.214936,-8660.409521,0.000000,962.267725
1135.215248,-8438.347739,0.000000,1036.288319
1135.215559,-7846.182985,-153.219100,1258.350101
1135.215870,-8512.368333,306.438199,296.082377
1135.216182,-8290.306550,0.000000,592.164754
1135.216493,-7920.203579,-612.876398,666.185348
1135.216804,-8438.347739,-766.095498,222.061783
1135.217116,-8438.347739,-842.705048,740.205942
1135.217427,-9178.553681,-919.314598,592.164754
1135.217738,-9030.512492,-919.314598,962.267725
1135.218050,-9178.553681,-612.876398,888.247130
1135.218361,-9178.553681,-459.657299,444.123565
1135.218672,-8956.491898,0.000000,370.102971
1135.218984,-9104.533087,0.000000,592.164754
1135.219295,-8734.430116,383.047749,296.082377
1135.219606,-8734.430116,459.657299,370.102971
1135.219918,-9104.533087,689.485948,-74.020594
1135.220229,-8956.491898,1072.533697,666.185348
1135.220540,-9178.553681,153.219100,-0.000000
1135.220852,-9178.553681,536.266849,-148.041188
1135.221163,-9030.512492,536.266849,-370.102971
1135.221474,-9622.677246,689.485948,-0.000000
1135.221786,-8808.450710,76.609550,222.061783
1135.222097,-9178.553681,0.000000,-74.020594
1135.222408,-9030.512492,0.000000,-0.000000
1135.222720,-8882.471304,306.438199,-74.020594
1135.223031,-9400.615463,0.000000,-74.020594
1135.223342,-8956.491898,-306.438199,222.061783
1135.223654,-9178.553681,-766.095498,-0.000000
1135.223965,-9252.574275,-842.705048,592.164754
1135.224276,-9030.512492,-766.095498,444.123565
1135.224588,-9252.574275,-536.266849,222.061783
1135.224899,-8882.471304,-766.095498,740.205942
1135.225210,-8956.491898,-842.705048,296.082377
1135.225522,-8512.368333,-689.485948,592.164754
1135.225833,-9104.533087,-689.485948,370.102971
1135.226144,-8956.491898,-306.438199,296.082377
1135.226456,-8808.450710,0.000000,740.205942
1135.226767,-9104.533087,76.609550,296.082377
1135.227078,-8660.409521,153.219100,592.164754
1135.227390,-9178.553681,306.438199,444.123565
1135.227701,-9104.533087,689.485948,962.267725
1135.228012,-8660.409521,842.705048,1110.308913
1135.228324,-8882.471304,383.047749,518.144159
1135.228635,-8586.388927,1072.533697,1184.329507
1135.228946,-8882.471304,766.095498,740.205942
1135.229258,-8660.409521,536.266849,666.185348
1135.229569,-8586.388927,383.047749,814.226536
1135.229880,-8438.347739,612.876398,666.185348
1135.230192,-9104.533087,612.876398,518.144159
1135.230503,-8808.450710,306.438199,666.185348
1135.230814,-8512.368333,-612.876398,444.123565
1135.231126,-8586.388927,-459.657299,888.247130
1135.231437,-8956.491898,-689.485948,814.226536
1135.231748,-8512.368333,-383.047749,1480.411884
1135.232060,-9178.553681,-536.266849,1184.329507
1135.232371,-8808.450710,-995.924147,1554.432478
1135.232682,-7994.224174,-1532.190996,888.247130
1135.232994,-8660.409521,0.000000,592.164754
1135.233305,-7624.121203,-383.047749,518.144159
1135.233616,-8734.430116,-536.266849,-0.000000
1135.233928,-9030.512492,-306.438199,444.123565
1135.234239,-9178.553681,-229.828649,444.123565
1135.234550,-9400.615463,76.609550,370.102971
1135.234862,-9252.574275,459.657299,740.205942
1135.235173,-9844.739029,306.438199,222.061783
1135.235484,-9030.512492,306.438199,518.144159
1135.235796,-8586.388927,0.000000,740.205942
1135.236107,-8660.409521,306.438199,-0.000000
1135.236418,-8956.491898,766.095498,222.061783
1135.236730,-9030.512492,919.314598,-222.061783
1135.237041,-9252.574275,1302.362347,-148.041188
1135.237352,-9400.615463,1072.533697,-148.041188
1135.237663,-9474.636058,1915.238745,-444.123565
1135.237975,-9474.636058,383.047749,148.041188
1135.238286,-9326.594869,229.828649,-0.000000
1135.238597,-8956.491898,229.828649,222.061783
1135.238909,-8956.491898,229.828649,296.082377
1135.239220,-9326.594869,-153.219100,296.082377
1135.239531,-8956.491898,0.000000,518.144159
1135.239843,-8956.491898,-766.095498,296.082377
1135.240154,-8586.388927,-306.438199,444.123565
1135.240465,-9030.512492,0.000000,370.102971
1135.240777,-8660.409521,-766.095498,518.144159
1135.241088,-8438.347739,-995.924147,740.205942
1135.241399,-8586.388927,-766.095498,518.144159
1135.241711,-8586.388927,-229.828649,666.185348
1135.242022,-8808.450710,0.000000,370.102971
1135.242333,-8882.471304,-766.095498,518.144159
1135.242645,-8512.368333,-612.876398,222.061783
1135.242956,-9030.512492,-842.705048,370.102971
1135.243267,-9030.512492,0.000000,592.164754
1135.243579,-8808.450710,306.438199,592.164754
1135.243890,-8808.450710,0.000000,518.144159
1135.244201,-8734.430116,229.828649,962.267725
1135.244513,-9030.512492,229.828649,370.102971
1135.244824,-8364.327145,0.000000,814.226536
1135.245135,-8586.388927,-229.828649,740.205942
1135.245447,-9104.533087,153.219100,666.185348
1135.245758,-8956.491898,306.438199,740.205942
1135.246069,-9252.574275,76.609550,814.226536
1135.246381,-9178.553681,0.000000,1036.288319
1135.246692,-8882.471304,0.000000,962.267725
1135.247003,-9030.512492,0.000000,814.226536
1135.247315,-8882.471304,995.924147,666.185348
1135.247626,-9030.512492,536.266849,666.185348
1135.247937,-9178.553681,0.000000,592.164754
1135.248249,-8882.471304,-76.609550,666.185348
1135.248560,-8808.450710,-153.219100,740.205942
1135.248871,-8808.450710,-459.657299,888.247130
1135.249183,-8882.471304,0.000000,370.102971
1135.249494,-8438.347739,-766.095498,444.123565
1135.249805,-8068.244768,-919.314598,296.082377
1135.250117,-8512.368333,-689.485948,296.082377
1135.250428,-8512.368333,-459.657299,814.226536
1135.250739,-9178.553681,0.000000,370.102971
1135.251050,-8808.450710,-306.438199,740.205942
1135.251362,-9252.574275,-153.219100,666.185348
1135.251673,-9400.615463,306.438199,592.164754
1135.251984,-8586.388927,689.485948,592.164754
1135.252296,-8438.347739,612.876398,444.123565
1135.252607,-8882.471304,306.438199,222.061783
1135.252918,-9030.512492,842.705048,-0.000000
1135.253230,-8808.450710,919.314598,-0.000000
1135.253541,-8882.471304,842.705048,296.082377
1135.253852,-9030.512492,536.266849,-0.000000
1135.254163,-9252.574275,689.485948,-0.000000
1135.254475,-8956.491898,842.705048,-148.041188
1135.254786,-9326.594869,766.095498,296.082377
1135.255097,-8512.368333,229.828649,222.061783
1135.255409,-9030.512492,0.000000,-0.000000
1135.255720,-8734.430116,-153.219100,370.102971
1135.256031,-8512.368333,-689.485948,518.144159
1135.256342,-9030.512492,-766.095498,370.102971
1135.256654,-9178.553681,-306.438199,666.185348
1135.256965,-9030.512492,-1302.362347,296.082377
1135.257276,-9104.533087,-995.924147,370.102971
1135.257588,-8956.491898,-766.095498,444.123565
1135.257899,-8956.491898,-842.705048,592.164754
1135.258210,-8586.388927,-1149.143247,740.205942
1135.258521,-8660.409521,-995.924147,592.164754
1135.258833,-8660.409521,-919.314598,888.247130
1135.259144,-9030.512492,-459.657299,296.082377
1135.259455,-8512.368333,-229.828649,370.102971
1135.259767,-9178.553681,0.000000,296.082377
1135.260078,-9178.553681,153.219100,296.082377
1135.260389,-8956.491898,76.609550,592.164754
1135.260701,-9400.615463,153.219100,296.082377
1135.261012,-9178.553681,536.266849,518.144159
1135.261323,-9030.512492,612.876398,1332.370696
1135.261634,-9400.615463,766.095498,444.123565
1135.261946,-9030.512492,383.047749,962.267725
1135.262257,-8808.450710,536.266849,592.164754
1135.262568,-8734.430116,766.095498,740.205942
1135.262880,-8734.430116,536.266849,740.205942
1135.263191,-9104.533087,229.828649,518.144159
1135.263502,-8512.368333,0.000000,666.185348
1135.263813,-8956.491898,-153.219100,-0.000000
1135.264125,-8660.409521,306.438199,370.102971
1135.264436,-8734.430116,-306.438199,666.185348
1135.264747,-9400.615463,-459.657299,-0.000000
1135.265059,-8808.450710,-459.657299,1258.350101
1135.265370,-9178.553681,-612.876398,888.247130
1135.265681,-8660.409521,-766.095498,1332.370696
1135.265992,-8216.285956,-766.095498,1184.329507
1135.266304,-8216.285956,0.000000,888.247130
1135.266615,-7402.059420,-689.485948,740.205942
1135.266926,-7994.224174,-459.657299,148.041188
1135.267238,-8290.306550,-383.047749,444.123565
1135.267549,-8290.306550,0.000000,740.205942
1135.267860,-9030.512492,76.609550,666.185348
1135.268172,-9326.594869,0.000000,888.247130
1135.268483,-9474.636058,306.438199,740.205942
1135.268794,-9400.615463,536.266849,296.082377
1135.269105,-8586.388927,306.438199,814.226536
1135.269417,-9030.512492,383.047749,296.082377
1135.269728,-9178.553681,229.828649,296.082377
1135.270039,-8882.471304,842.705048,-0.000000
1135.270351,-8734.430116,1225.752797,-0.000000
1135.270662,-8734.430116,766.095498,296.082377
1135.270973,-9326.594869,536.266849,-148.041188
1135.271284,-9104.533087,0.000000,518.144159
1135.271596,-9548.656652,0.000000,-0.000000
1135.271907,-8882.471304,383.047749,518.144159
1135.272218,-9178.553681,-459.657299,-0.000000
1135.272530,-9400.615463,-229.828649,-0.000000
1135.272841,-9178.553681,-842.705048,518.144159
1135.273152,-9622.677246,-766.095498,296.082377
1135.273463,-9622.677246,-153.219100,296.082377
1135.273775,-9178.553681,-229.828649,444.123565
1135.274086,-9104.533087,-766.095498,-148.041188
1135.274397,-8660.409521,-306.438199,888.247130
1135.274709,-8956.491898,-842.705048,296.082377
1135.275020,-8512.368333,-536.266849,666.185348
1135.275331,-8808.450710,-689.485948,518.144159
1135.275642,-8808.450710,-383.047749,666.185348
1135.275954,-9104.533087,-766.095498,740.205942
1135.276265,-8882.471304,-612.876398,518.144159
1135.276576,-8660.409521,-229.828649,296.082377
1135.276888,-8660.409521,0.000000,740.205942
1135.277199,-8882.471304,153.219100,296.082377
1135.277510,-8734.430116,383.047749,592.164754
1135.277822,-8956.491898,153.219100,148.041188
1135.278133,-8734.430116,689.485948,740.205942
1135.278444,-8734.430116,995.924147,666.185348
1135.278755,-9104.533087,689.485948,518.144159
1135.279067,-8586.388927,842.705048,740.205942
1135.279378,-8734.430116,229.828649,296.082377
1135.279689,-8734.430116,76.609550,888.247130
1135.280001,-9104.533087,-306.438199,740.205942
1135.280312,-9178.553681,0.000000,518.144159
1135.280623,-8956.491898,-153.219100,592.164754
1135.280934,-9252.574275,0.000000,296.082377
1135.281246,-8734.430116,-612.876398,666.185348
1135.281557,-9252.574275,0.000000,666.185348
1135.281868,-8586.388927,0.000000,1110.308913
1135.282180,-8512.368333,-536.266849,1184.329507
1135.282491,-8438.347739,-536.266849,1110.308913
1135.282802,-8216.285956,-383.047749,888.247130
1135.283113,-8290.306550,-306.438199,1258.350101
1135.283425,-7846.182985,-306.438199,296.082377
1135.283736,-8438.347739,-766.095498,296.082377
1135.284047,-8956.491898,-536.266849,370.102971
1135.284359,-9030.512492,-842.705048,1036.288319
1135.284670,-9548.656652,-612.876398,814.226536
1135.284981,-9548.656652,-153.219100,740.205942
1135.285293,-9252.574275,-229.828649,814.226536
1135.285604,-8808.450710,0.000000,222.061783
1135.285915,-8364.327145,306.438199,222.061783
1135.286226,-7994.224174,995.924147,222.061783
1135.286538,-7920.203579,1072.533697,-222.061783
1135.286849,-8364.327145,383.047749,296.082377
1135.287160,-8808.450710,612.876398,222.061783
1135.287472,-8882.471304,766.095498,296.082377
1135.287783,-9474.636058,536.266849,370.102971
1135.288094,-9918.759623,842.705048,296.082377
1135.288405,-9326.594869,306.438199,370.102971
1135.288717,-9104.533087,229.828649,-0.000000
1135.289028,-9178.553681,-229.828649,74.020594
1135.289339,-8956.491898,-229.828649,296.082377
1135.289651,-9474.636058,-536.266849,148.041188
1135.289962,-9400.615463,-383.047749,592.164754
1135.290273,-9474.636058,-459.657299,148.041188
1135.290584,-8882.471304,-536.266849,444.123565
1135.290896,-8734.430116,-229.828649,740.205942
1135.291207,-8438.347739,-612.876398,518.144159
1135.291518,-8438.347739,-766.095498,888.247130
1135.291830,-8808.450710,-919.314598,444.123565
1135.292141,-9030.512492,-536.266849,962.267725
1135.292452,-9622.677246,-536.266849,592.164754
1135.292764,-9326.594869,-459.657299,518.144159
1135.293075,-9400.615463,0.000000,222.061783
1135.293386,-9178.553681,383.047749,-0.000000
1135.293697,-8512.368333,766.095498,518.144159
1135.294009,-9178.553681,306.438199,296.082377
1135.294320,-9104.533087,689.485948,666.185348
1135.294631,-9104.533087,919.314598,962.267725
1135.294943,-9104.533087,612.876398,592.164754
1135.295254,-8660.409521,536.266849,666.185348
1135.295565,-8364.327145,306.438199,444.123565
1135.295876,-8216.285956,459.657299,444.123565
1135.296188,-8142.265362,612.876398,518.144159
1135.296499,-9400.615463,383.047749,592.164754
1135.296810,-8882.471304,153.219100,962.267725
1135.297122,-9178.553681,0.000000,518.144159
1135.297433,-9030.512492,229.828649,740.205942
1135.297744,-8882.471304,-153.219100,592.164754
1135.298055,-9104.533087,0.000000,518.144159
1135.298367,-8216.285956,76.609550,962.267725
1135.298678,-8808.450710,-306.438199,888.247130
1135.298989,-8660.409521,-766.095498,1554.432478
1135.299301,-8586.388927,-995.924147,1036.288319
1135.299612,-8438.347739,-459.657299,740.205942
1135.299923,-7698.141797,-689.485948,666.185348
1135.300235,-8290.306550,-995.924147,-0.000000
1135.300546,-8364.327145,-919.314598,370.102971
1135.300857,-8956.491898,-689.485948,518.144159
1135.301168,-9474.636058,0.000000,814.226536
1135.301480,-9696.697840,-153.219100,592.164754
1135.301791,-9622.677246,0.000000,888.247130
1135.302102,-8956.491898,-306.438199,444.123565
1135.302414,-8216.285956,-76.609550,740.205942
1135.302725,-8216.285956,306.438199,-0.000000
1135.303036,-7994.224174,229.828649,222.061783
1135.303347,-9326.594869,689.485948,-0.000000
1135.303659,-9400.615463,612.876398,74.020594
1135.303970,-9326.594869,689.485948,370.102971
1135.304281,-9696.697840,689.485948,-0.000000
1135.304593,-9548.656652,153.219100,518.144159
1135.304904,-9696.697840,0.000000,222.061783
1135.305215,-9104.533087,0.000000,-0.000000
1135.305526,-8586.388927,76.609550,148.041188
1135.305838,-9104.533087,-153.219100,-370.102971
1135.306149,-8882.471304,-766.095498,592.164754
1135.306460,-9252.574275,-766.095498,-0.000000
1135.306772,-8882.471304,-229.828649,592.164754
1135.307083,-9474.636058,-536.266849,666.185348
1135.307394,-8956.491898,-612.876398,222.061783
1135.307706,-8808.450710,-1378.971896,666.185348
1135.308017,-8882.471304,-842.705048,-0.000000
1135.308328,-8438.347739,-612.876398,444.123565
1135.308639,-9326.594869,-459.657299,296.082377
1135.308951,-9474.636058,-229.828649,222.061783
1135.309262,-9030.512492,0.000000,814.226536
1135.309573,-9030.512492,0.000000,370.102971
1135.309885,-8808.450710,306.438199,444.123565
1135.310196,-8956.491898,459.657299,444.123565
1135.310507,-8808.450710,153.219100,370.102971
1135.310818,-8808.450710,383.047749,296.082377
1135.311130,-8956.491898,689.485948,592.164754
1135.311441,-8660.409521,842.705048,888.247130
1135.311752,-8660.409521,459.657299,592.164754
1135.312064,-8808.450710,689.485948,740.205942
1135.312375,-8660.409521,842.705048,814.226536
1135.312686,-8882.471304,153.219100,444.123565
1135.312997,-8734.430116,459.657299,962.267725
1135.313309,-8808.450710,536.266849,962.267725
1135.313620,-8882.471304,459.657299,740.205942
1135.313931,-8586.388927,153.219100,740.205942
1135.314243,-8734.430116,306.438199,666.185348
1135.314554,-8734.430116,153.219100,740.205942
1135.314865,-9030.512492,0.000000,740.205942
1135.315177,-8586.388927,536.266849,1184.329507
1135.315488,-8364.327145,-459.657299,1110.308913
1135.315799,-8364.327145,-842.705048,1036.288319
1135.316110,-8142.265362,-995.924147,1110.308913
1135.316422,-8512.368333,-1072.533697,740.205942
1135.316733,-8364.327145,-995.924147,740.205942
1135.317044,-8586.388927,-995.924147,962.267725
1135.317356,-9030.512492,-536.266849,222.061783
1135.317667,-8956.491898,-306.438199,444.123565
1135.317978,-9474.636058,-306.438199,666.185348
1135.318289,-9326.594869,-612.876398,666.185348
1135.318601,-9104.533087,0.000000,740.205942
1135.318912,-9326.594869,536.266849,370.102971
1135.319223,-8956.491898,229.828649,296.082377
1135.319535,-8956.491898,153.219100,296.082377
1135.319846,-8734.430116,229.828649,-0.000000
1135.320157,-9030.512492,766.095498,-0.000000
1135.320468,-9696.697840,612.876398,-296.082377
1135.320780,-9178.553681,153.219100,444.123565
1135.321091,-9400.615463,153.219100,148.041188
1135.321402,-9326.594869,76.609550,222.061783
1135.321714,-9030.512492,612.876398,222.061783
1135.322025,-9030.512492,-383.047749,-444.123565
1135.322336,-8512.368333,0.000000,222.061783
1135.322648,-8512.368333,-229.828649,-0.000000
1135.322959,-9474.636058,-612.876398,-0.000000
1135.323270,-9400.615463,-229.828649,444.123565
1135.323581,-9622.677246,-383.047749,222.061783
1135.323893,-9474.636058,-536.266849,592.164754
1135.324204,-9104.533087,-153.219100,296.082377
1135.324515,-8734.430116,-153.219100,296.082377
1135.324827,-8216.285956,-459.657299,296.082377
1135.325138,-8512.368333,-689.485948,518.144159
1135.325449,-8364.327145,-766.095498,666.185348
1135.325760,-8956.491898,-612.876398,592.164754
1135.326072,-8512.368333,0.000000,592.164754
1135.326383,-8882.471304,-229.828649,444.123565
1135.326694,-8586.388927,306.438199,296.082377
1135.327006,-8512.368333,153.219100,518.144159
1135.327317,-8586.388927,612.876398,370.102971
1135.327628,-9104.533087,689.485948,148.041188
1135.327939,-9030.512492,689.485948,962.267725
1135.328251,-8956.491898,536.266849,518.144159
1135.328562,-8512.368333,536.266849,1110.308913
1135.328873,-8660.409521,689.485948,592.164754
1135.329185,-7846.182985,612.876398,814.226536
1135.329496,-8586.388927,383.047749,444.123565
1135.329807,-9104.533087,229.828649,444.123565
1135.330119,-8660.409521,76.609550,518.144159
1135.330430,-9104.533087,0.000000,370.102971
1135.330741,-8882.471304,-383.047749,962.267725
1135.331052,-8882.471304,-536.266849,814.226536
1135.331364,-9400.615463,-612.876398,518.144159
1135.331675,-8586.388927,-459.657299,1036.288319
1135.331986,-9104.533087,-459.657299,962.267725
1135.332298,-8438.347739,-1378.971896,1406.391290
1135.332609,-8068.244768,-995.924147,1036.288319
1135.332920,-8586.388927,-689.485948,444.123565
1135.333231,-7994.224174,-459.657299,888.247130
1135.333543,-8808.450710,-766.095498,148.041188
1135.333854,-9252.574275,-689.485948,444.123565
1135.334165,-9548.656652,-383.047749,592.164754
1135.334477,-9622.677246,-459.657299,592.164754
1135.334788,-9622.677246,-383.047749,666.185348
1135.335099,-9622.677246,153.219100,962.267725
1135.335410,-9400.615463,306.438199,592.164754
1135.335722,-8808.450710,306.438199,888.247130
1135.336033,-8882.471304,0.000000,222.061783
1135.336344,-9030.512492,306.438199,74.020594
1135.336656,-8956.491898,229.828649,-222.061783
1135.336967,-8734.430116,842.705048,-222.061783
1135.337278,-9030.512492,995.924147,296.082377
1135.337590,-9474.636058,842.705048,-222.061783
1135.337901,-9326.594869,459.657299,-0.000000
1135.338212,-9474.636058,153.219100,-0.000000
1135.338523,-9178.553681,153.219100,148.041188
1135.338835,-8956.491898,383.047749,296.082377
1135.339146,-8882.471304,0.000000,-0.000000
1135.339457,-7846.182985,-766.095498,666.185348
1135.339769,-9252.574275,-1072.533697,-296.082377
1135.340080,-9030.512492,-459.657299,518.144159
1135.340391,-9030.512492,-229.828649,296.082377
1135.340702,-9178.553681,-459.657299,222.061783
1135.341014,-8512.368333,-612.876398,592.164754
1135.341325,-9030.512492,-689.485948,-148.041188
1135.341636,-8216.285956,-383.047749,518.144159
1135.341948,-8438.347739,-612.876398,296.082377
1135.342259,-8586.388927,-459.657299,444.123565
1135.342570,-8438.347739,-612.876398,888.247130
1135.342881,-9178.553681,-536.266849,296.082377
1135.343193,-8956.491898,-842.705048,518.144159
1135.343504,-9030.512492,0.000000,666.185348
1135.343815,-9030.512492,229.828649,148.041188
1135.344127,-9104.533087,229.828649,592.164754
1135.344438,-9252.574275,76.609550,-0.000000
1135.344749,-8660.409521,612.876398,666.185348
1135.345060,-9030.512492,459.657299,444.123565
1135.345372,-8956.491898,459.657299,666.185348
1135.345683,-9178.553681,536.266849,592.164754
1135.345994,-9326.594869,689.485948,370.102971
1135.346306,-8882.471304,229.828649,814.226536
1135.346617,-8882.471304,-383.047749,740.205942
1135.346928,-9030.512492,-153.219100,740.205942
1135.347240,-8734.430116,-153.219100,740.205942
1135.347551,-9104.533087,-383.047749,666.185348
1135.347862,-9252.574275,-459.657299,1184.329507
1135.348173,-9400.615463,-383.047749,962.267725
1135.348485,-9178.553681,-536.266849,1184.329507
1135.348796,-8142.265362,-536.266849,1406.391290
1135.349107,-8586.388927,-459.657299,888.247130
1135.349419,-8068.244768,-612.876398,814.226536
1135.349730,-8512.368333,-383.047749,666.185348
1135.350041,-8216.285956,-229.828649,740.205942
1135.350352,-8438.347739,-536.266849,666.185348
1135.350664,-9030.512492,-612.876398,370.102971
1135.350975,-8586.388927,-536.266849,814.226536
1135.351286,-9104.533087,0.000000,444.123565
1135.351598,-9400.615463,76.609550,740.205942
1135.351909,-8660.409521,306.438199,814.226536
1135.352220,-9030.512492,153.219100,740.205942
1135.352532,-8216.285956,229.828649,962.267725
1135.352843,-8586.388927,459.657299,444.123565
1135.353154,-8216.285956,1149.143247,222.061783
1135.353466,-7994.224174,919.314598,222.061783
1135.353777,-8808.450710,612.876398,-74.020594
1135.354088,-8808.450710,689.485948,-74.020594
1135.354400,-9474.636058,1378.971896,-518.144159
1135.354711,-9252.574275,689.485948,148.041188
1135.355023,-9178.553681,153.219100,444.123565
1135.355334,-9400.615463,306.438199,-0.000000
1135.355645,-8734.430116,0.000000,-0.000000
1135.355957,-8956.491898,76.609550,-74.020594
1135.356268,-8956.491898,-842.705048,-0.000000
1135.356579,-8734.430116,-153.219100,444.123565
1135.356891,-9178.553681,-536.266849,-0.000000
1135.357202,-9252.574275,-842.705048,592.164754
1135.357513,-9178.553681,-919.314598,296.082377
1135.357825,-9030.512492,-689.485948,370.102971
1135.358136,-9104.533087,-919.314598,518.144159
1135.358448,-8956.491898,-766.095498,370.102971
1135.358759,-9326.594869,-919.314598,148.041188
1135.359070,-9474.636058,-383.047749,-148.041188
1135.359382,-8660.409521,-153.219100,222.061783
1135.359693,-9252.574275,-306.438199,296.082377
1135.360004,-9252.574275,0.000000,444.123565
1135.360316,-8956.491898,0.000000,444.123565
1135.360627,-9104.533087,153.219100,222.061783
1135.360938,-8808.450710,612.876398,444.123565
1135.361250,-8956.491898,76.609550,666.185348
1135.361561,-9104.533087,995.924147,148.041188
1135.361873,-8882.471304,0.000000,814.226536
1135.362184,-9030.512492,306.438199,592.164754
1135.362495,-8660.409521,153.219100,740.205942
1135.362807,-8808.450710,0.000000,592.164754
1135.363118,-9252.574275,76.609550,444.123565
1135.363429,-8808.450710,-383.047749,888.247130
1135.363741,-9252.574275,536.266849,296.082377
1135.364052,-8660.409521,153.219100,740.205942
1135.364363,-8956.491898,-383.047749,666.185348
1135.364675,-9474.636058,-383.047749,370.102971
1135.364986,-8438.347739,-229.828649,1480.411884
1135.365298,-9178.553681,-612.876398,1036.288319
1135.365609,-8660.409521,-842.705048,1776.494261
1135.365920,-7920.203579,-1149.143247,1332.370696
1135.366232,-8660.409521,-766.095498,222.061783
1135.366543,-7624.121203,-383.047749,814.226536
1135.366854,-8216.285956,-306.438199,444.123565
1135.367166,-8808.450710,-153.219100,296.082377
1135.367477,-8882.471304,-153.219100,518.144159
1135.367788,-8956.491898,459.657299,888.247130
1135.368100,-8808.450710,459.657299,666.185348
1135.368411,-9400.615463,383.047749,518.144159
1135.368723,-8734.430116,689.485948,592.164754
1135.369034,-7994.224174,689.485948,814.226536
1135.369345,-8438.347739,612.876398,592.164754
1135.369657,-8660.409521,536.266849,444.123565
1135.369968,-8882.471304,919.314598,296.082377
1135.370279,-8956.491898,1302.362347,148.041188
1135.370591,-8882.471304,1455.581446,296.082377
1135.370902,-9104.533087,306.438199,-222.061783
1135.371214,-8808.450710,689.485948,148.041188
1135.371525,-9252.574275,0.000000,148.041188
1135.371836,-9252.574275,229.828649,148.041188
1135.372148,-9030.512492,459.657299,-0.000000
1135.372459,-9104.533087,229.828649,-74.020594
1135.372770,-8586.388927,-306.438199,222.061783
1135.373082,-9178.553681,-766.095498,-74.020594
1135.373393,-8882.471304,-229.828649,296.082377
1135.373704,-9474.636058,-383.047749,518.144159
1135.374016,-9622.677246,-536.266849,592.164754
1135.374327,-9178.553681,-995.924147,740.205942
1135.374639,-9400.615463,-995.924147,296.082377
1135.374950,-8660.409521,-689.485948,518.144159
1135.375261,-8882.471304,-766.095498,296.082377
1135.375573,-8956.491898,-689.485948,222.061783
1135.375884,-8882.471304,-383.047749,592.164754
1135.376195,-9548.656652,-536.266849,370.102971
1135.376507,-9474.636058,-612.876398,888.247130
1135.376818,-9400.615463,0.000000,666.185348
1135.377129,-9178.553681,0.000000,296.082377
1135.377441,-8734.430116,0.000000,518.144159
1135.377752,-8956.491898,-383.047749,-0.000000
1135.378064,-8216.285956,306.438199,888.247130
1135.378375,-8512.368333,0.000000,296.082377
1135.378686,-9326.594869,306.438199,222.061783
1135.378998,-9030.512492,536.266849,592.164754
1135.379309,-9104.533087,459.657299,370.102971
1135.379620,-8956.491898,0.000000,814.226536
1135.379932,-9252.574275,0.000000,518.144159
1135.380243,-8660.409521,153.219100,296.082377
1135.380554,-8882.471304,612.876398,592.164754
1135.380866,-8734.430116,-229.828649,592.164754
1135.381177,-8956.491898,-153.219100,1554.432478
1135.381489,-9178.553681,0.000000,1036.288319
1135.381800,-8512.368333,0.000000,1184.329507
1135.382111,-8216.285956,-536.266849,1332.370696
1135.382423,-8438.347739,0.000000,740.205942
1135.382734,-8068.244768,-153.219100,518.144159
1135.383045,-8068.244768,-153.219100,1258.350101
1135.383357,-7994.224174,76.609550,666.185348
1135.383668,-8290.306550,-383.047749,740.205942
1135.383979,-9104.533087,0.000000,444.123565
1135.384291,-8660.409521,-459.657299,1036.288319
1135.384602,-9252.574275,-536.266849,814.226536
1135.384914,-9252.574275,306.438199,962.267725
1135.385225,-8882.471304,-153.219100,592.164754
1135.385536,-8882.471304,153.219100,444.123565
1135.385848,-8586.388927,306.438199,592.164754
1135.386159,-8660.409521,306.438199,592.164754
1135.386470,-8512.368333,459.657299,222.061783
1135.386782,-8734.430116,919.314598,444.123565
1135.387093,-9030.512492,612.876398,222.061783
1135.387404,-9104.533087,383.047749,370.102971
1135.387716,-8808.450710,0.000000,592.164754
1135.388027,-9030.512492,76.609550,148.041188
1135.388339,-9104.533087,229.828649,444.123565
1135.388650,-9104.533087,0.000000,-148.041188
1135.388961,-8808.450710,-229.828649,222.061783
1135.389273,-9104.533087,-766.095498,-0.000000
1135.389584,-9400.615463,-689.485948,148.041188
1135.389895,-9178.553681,-995.924147,444.123565
1135.390207,-9548.656652,-612.876398,-74.020594
1135.390518,-9474.636058,-536.266849,444.123565
1135.390829,-9400.615463,-689.485948,-0.000000
1135.391141,-8808.450710,-842.705048,444.123565
1135.391452,-8882.471304,-919.314598,518.144159
1135.391764,-8882.471304,-766.095498,-0.000000
1135.392075,-8808.450710,-689.485948,666.185348
1135.392386,-9252.574275,-919.314598,-0.000000
1135.392698,-8956.491898,-612.876398,666.185348
1135.393009,-9104.533087,-306.438199,370.102971
1135.393320,-9474.636058,229.828649,-0.000000
1135.393632,-8956.491898,76.609550,444.123565
1135.393943,-9104.533087,383.047749,-0.000000
1135.394254,-9030.512492,766.095498,444.123565
1135.394566,-9178.553681,1378.971896,592.164754
1135.394877,-9104.533087,383.047749,222.061783
1135.395189,-7994.224174,1225.752797,1110.308913
1135.395500,-8734.430116,919.314598,222.061783
1135.395811,-8290.306550,689.485948,666.185348
1135.396123,-8438.347739,306.438199,666.185348
1135.396434,-9104.533087,459.657299,592.164754
1135.396745,-8660.409521,229.828649,888.247130
1135.397057,-8586.388927,0.000000,222.061783
1135.397368,-8956.491898,76.609550,666.185348
1135.397679,-8586.388927,-306.438199,296.082377
1135.397991,-8808.450710,-842.705048,592.164754
1135.398302,-8364.327145,-229.828649,1554.432478
1135.398614,-9030.512492,-766.095498,1110.308913
1135.398925,-8512.368333,-612.876398,1702.473667
1135.399236,-8142.265362,-919.314598,1110.308913
1135.399548,-7994.224174,-229.828649,518.144159
1135.399859,-7550.100608,153.219100,740.205942
1135.400170,-8142.265362,-229.828649,148.041188
1135.400482,-8438.347739,-919.314598,740.205942
1135.400793,-8956.491898,-536.266849,518.144159
1135.401104,-9178.553681,0.000000,740.205942
1135.401416,-9400.615463,-229.828649,888.247130
1135.401727,-9622.677246,229.828649,666.185348
1135.402039,-9178.553681,0.000000,518.144159
1135.402350,-8512.368333,76.609550,740.205942
1135.402661,-8512.368333,229.828649,-0.000000
1135.402973,-8438.347739,229.828649,740.205942
1135.403284,-8956.491898,383.047749,148.041188
1135.403595,-8956.491898,536.266849,148.041188
1135.403907,-9104.533087,766.095498,222.061783
1135.404218,-9252.574275,612.876398,-222.061783
1135.404530,-9474.636058,995.924147,518.144159
1135.404841,-9770.718434,76.609550,-0.000000
1135.405152,-9326.594869,76.609550,370.102971
1135.405464,-9326.594869,76.609550,-0.000000
1135.405775,-8882.471304,76.609550,-0.000000
1135.406086,-8808.450710,-306.438199,370.102971
1135.406398,-9030.512492,-612.876398,-0.000000
1135.406709,-8512.368333,-919.314598,148.041188
1135.407020,-9178.553681,0.000000,222.061783
1135.407332,-9474.636058,-536.266849,-0.000000
1135.407643,-8586.388927,-919.314598,666.185348
1135.407955,-9252.574275,-1225.752797,222.061783
1135.408266,-8882.471304,-459.657299,592.164754
1135.408577,-9326.594869,-306.438199,-0.000000
1135.408889,-9104.533087,-229.828649,518.144159
1135.409200,-8808.450710,-153.219100,444.123565
1135.409511,-9104.533087,229.828649,296.082377
1135.409823,-8586.388927,153.219100,222.061783
1135.410134,-8882.471304,153.219100,444.123565
1135.410445,-8586.388927,229.828649,518.144159
1135.410757,-8660.409521,459.657299,592.164754
1135.411068,-8882.471304,536.266849,222.061783
1135.411380,-8438.347739,612.876398,814.226536
1135.411691,-8438.347739,842.705048,222.061783
1135.412002,-8586.388927,1532.190996,518.144159
1135.412314,-9030.512492,536.266849,444.123565
1135.412625,-9030.512492,459.657299,518.144159
1135.412936,-8808.450710,459.657299,666.185348
1135.413248,-9326.594869,306.438199,666.185348
1135.413559,-8882.471304,306.438199,592.164754
1135.413870,-9104.533087,153.219100,444.123565
1135.414182,-8512.368333,-153.219100,666.185348
1135.414493,-8438.347739,-459.657299,1036.288319
1135.414805,-9252.574275,153.219100,222.061783
1135.415116,-8438.347739,-306.438199,1184.329507
1135.415427,-8586.388927,-1149.143247,1036.288319
1135.415739,-8734.430116,-919.314598,1036.288319
1135.416050,-8068.244768,-919.314598,1036.288319
1135.416361,-8660.409521,-1072.533697,296.082377
1135.416673,-7994.224174,-1302.362347,740.205942
1135.416984,-8512.368333,-1225.752797,222.061783
1135.417295,-9178.553681,-766.095498,518.144159
1135.417607,-9178.553681,-766.095498,888.247130
1135.417918,-9992.780217,-689.485948,444.123565
1135.418230,-9326.594869,0.000000,962.267725
1135.418541,-9104.533087,0.000000,814.226536
1135.418852,-8660.409521,383.047749,444.123565
1135.419164,-8438.347739,-153.219100,962.267725
1135.419475,-8512.368333,536.266849,444.123565
1135.419786,-8586.388927,1072.533697,222.061783
1135.420098,-8734.430116,689.485948,296.082377
1135.420409,-9178.553681,689.485948,148.041188
1135.420720,-9474.636058,229.828649,222.061783
1135.421032,-9696.697840,536.266849,-0.000000
1135.421343,-9400.615463,306.438199,74.020594
1135.421655,-8956.491898,76.609550,-0.000000
1135.421966,-9622.677246,229.828649,-370.102971
1135.422277,-9030.512492,0.000000,-0.000000
1135.422589,-8586.388927,0.000000,296.082377
1135.422900,-8734.430116,0.000000,222.061783
1135.423211,-8956.491898,-383.047749,370.102971
1135.423523,-9326.594869,-229.828649,-0.000000
1135.423834,-9104.533087,-229.828649,592.164754
1135.424145,-9326.594869,-153.219100,444.123565
1135.424457,-8660.409521,-383.047749,518.144159
1135.424768,-8956.491898,-842.705048,370.102971
1135.425080,-8734.430116,-842.705048,370.102971
1135.425391,-8660.409521,-766.095498,592.164754
1135.425702,-9178.553681,-766.095498,592.164754
1135.426014,-8734.430116,0.000000,222.061783
1135.426325,-8734.430116,0.000000,370.102971
1135.426636,-8512.368333,-229.828649,370.102971
1135.426948,-8290.306550,0.000000,370.102971
1135.427259,-8808.450710,306.438199,-0.000000
1135.427570,-8882.471304,536.266849,370.102971
1135.427882,-9104.533087,612.876398,666.185348
1135.428193,-8956.491898,536.266849,592.164754
1135.428505,-8882.471304,306.438199,518.144159
1135.428816,-8956.491898,919.314598,518.144159
1135.429127,-8808.450710,612.876398,592.164754
1135.429439,-9030.512492,459.657299,-0.000000
1135.429750,-9030.512492,459.657299,518.144159
1135.430061,-8882.471304,0.000000,814.226536
1135.430373,-9178.553681,0.000000,444.123565
1135.430684,-9400.615463,0.000000,666.185348
1135.430995,-8660.409521,229.828649,740.205942
1135.431307,-9548.656652,-306.438199,518.144159
1135.431618,-9178.553681,0.000000,1184.329507
1135.431930,-9104.533087,-612.876398,1110.308913
1135.432241,-8956.491898,-1072.533697,1406.391290
1135.432552,-8660.409521,-995.924147,962.267725
1135.432864,-8512.368333,-766.095498,740.205942
1135.433175,-7698.141797,-612.876398,814.226536
1135.433486,-8734.430116,-383.047749,296.082377
1135.433798,-8364.327145,-229.828649,962.267725
1135.434109,-8956.491898,0.000000,814.226536
1135.434420,-9178.553681,0.000000,888.247130
1135.434732,-9400.615463,76.609550,962.267725
1135.435043,-9548.656652,306.438199,666.185348
1135.435355,-8956.491898,229.828649,888.247130
1135.435666,-8586.388927,-229.828649,518.144159
1135.435977,-8068.244768,229.828649,518.144159
1135.436289,-8216.285956,229.828649,444.123565
1135.436600,-9030.512492,612.876398,-0.000000
1135.436911,-8956.491898,689.485948,592.164754
1135.437223,-9252.574275,842.705048,148.041188
1135.437534,-9178.553681,842.705048,-0.000000
1135.437846,-9178.553681,689.485948,444.123565
1135.438157,-9326.594869,689.485948,222.061783
1135.438468,-8882.471304,383.047749,222.061783
1135.438780,-8734.430116,612.876398,-74.020594
1135.439091,-8882.471304,229.828649,148.041188
1135.439402,-8512.368333,-383.047749,518.144159
1135.439714,-9178.553681,-842.705048,222.061783
1135.440025,-8956.491898,-459.657299,740.205942
1135.440336,-8956.491898,-459.657299,370.102971
1135.440648,-8734.430116,0.000000,888.247130
1135.440959,-9030.512492,-766.095498,370.102971
1135.441271,-9030.512492,-1302.362347,-0.000000
1135.441582,-8438.347739,-766.095498,370.102971
1135.441893,-9104.533087,-536.266849,148.041188
1135.442205,-9030.512492,-306.438199,444.123565
1135.442516,-8956.491898,-306.438199,444.123565
1135.442827,-8586.388927,0.000000,148.041188
1135.443139,-8734.430116,-612.876398,518.144159
1135.443450,-8956.491898,0.000000,148.041188
1135.443761,-8586.388927,229.828649,370.102971
1135.444073,-8882.471304,0.000000,592.164754
1135.444384,-9104.533087,229.828649,-0.000000
1135.444696,-9104.533087,383.047749,666.185348
1135.445007,-9178.553681,459.657299,222.061783
1135.445318,-8882.471304,383.047749,444.123565
1135.445630,-9178.553681,689.485948,148.041188
1135.445941,-8956.491898,612.876398,370.102971
1135.446252,-8586.388927,153.219100,370.102971
1135.446564,-9252.574275,76.609550,518.144159
1135.446875,-8882.471304,0.000000,666.185348
1135.447186,-9104.533087,76.609550,666.185348
1135.447498,-9474.636058,0.000000,666.185348
1135.447809,-9178.553681,-229.828649,888.247130
1135.448121,-9696.697840,-995.924147,592.164754
1135.448432,-8660.409521,76.609550,1184.329507
1135.448743,-8956.491898,-536.266849,592.164754
1135.449055,-8808.450710,-612.876398,666.185348
1135.449366,-8216.285956,-766.095498,814.226536
1135.449677,-8438.347739,-995.924147,518.144159
1135.449989,-7920.203579,-459.657299,666.185348
1135.450300,-8586.388927,-842.705048,370.102971
1135.450611,-8734.430116,153.219100,814.226536
1135.450923,-8290.306550,-995.924147,1110.308913
1135.451234,-9252.574275,-1149.143247,1110.308913
1135.451546,-9104.533087,-153.219100,1184.329507
1135.451857,-8956.491898,0.000000,888.247130
1135.452168,-8734.430116,383.047749,740.205942
1135.452480,-8364.327145,306.438199,740.205942
1135.452791,-8290.306550,842.705048,148.041188
1135.453103,-8512.368333,995.924147,370.102971
1135.453414,-8438.347739,919.314598,370.102971
1135.453726,-8512.368333,1149.143247,-0.000000
1135.454037,-8660.409521,919.314598,444.123565
1135.454348,-9326.594869,689.485948,-0.000000
1135.454660,-9252.574275,536.266849,370.102971
1135.454971,-8956.491898,919.314598,444.123565
1135.455283,-9326.594869,689.485948,444.123565
1135.455594,-9104.533087,76.609550,518.144159
1135.455906,-8808.450710,-153.219100,666.185348
1135.456217,-9104.533087,-383.047749,592.164754
1135.456528,-9104.533087,-612.876398,888.247130
1135.456840,-9326.594869,-612.876398,370.102971
1135.457151,-9178.553681,-459.657299,740.205942
1135.457463,-9104.533087,-306.438199,444.123565
1135.457774,-8512.368333,-383.047749,592.164754
1135.458086,-8734.430116,-153.219100,296.082377
1135.458397,-8438.347739,0.000000,666.185348
1135.458708,-8808.450710,-612.876398,962.267725
1135.459020,-9326.594869,-459.657299,518.144159
1135.459331,-8808.450710,-229.828649,814.226536
1135.459643,-9326.594869,-306.438199,518.144159
1135.459954,-8956.491898,0.000000,222.061783
1135.460266,-8808.450710,0.000000,370.102971
1135.460577,-8734.430116,0.000000,444.123565
1135.460888,-8512.368333,0.000000,740.205942
1135.461200,-9252.574275,0.000000,518.144159
1135.461511,-8956.491898,0.000000,444.123565
1135.461823,-8586.388927,153.219100,666.185348
1135.462134,-8808.450710,0.000000,370.102971
1135.462446,-8512.368333,306.438199,592.164754
1135.462757,-8438.347739,0.000000,444.123565
1135.463068,-9104.533087,612.876398,740.205942
1135.463380,-9178.553681,0.000000,740.205942
1135.463691,-9326.594869,0.000000,740.205942
1135.464003,-9178.553681,0.000000,666.185348
1135.464314,-9178.553681,-536.266849,666.185348
1135.464626,-9548.656652,-459.657299,444.123565
1135.464937,-8586.388927,-766.095498,1332.370696
1135.465248,-9326.594869,-689.485948,592.164754
1135.465560,-8808.450710,-995.924147,1110.308913
1135.465871,-8660.409521,-842.705048,740.205942
1135.466183,-8364.327145,-536.266849,592.164754
1135.466494,-7624.121203,-1072.533697,444.123565
1135.466806,-7994.224174,-766.095498,370.102971
1135.467117,-8364.327145,-459.657299,296.082377
1135.467428,-8734.430116,-229.828649,518.144159
1135.467740,-9326.594869,-229.828649,518.144159
1135.468051,-9474.636058,459.657299,370.102971
1135.468363,-9622.677246,612.876398,962.267725
1135.468674,-9030.512492,76.609550,740.205942
1135.468986,-8734.430116,229.828649,592.164754
1135.469297,-8438.347739,306.438199,296.082377
1135.469608,-8364.327145,1072.533697,592.164754
1135.469920,-8956.491898,689.485948,-222.061783
1135.470231,-8660.409521,766.095498,-0.000000
1135.470543,-9252.574275,612.876398,148.041188
1135.470854,-9696.697840,1302.362347,-0.000000
1135.471165,-9030.512492,842.705048,666.185348
1135.471477,-9326.594869,76.609550,444.123565
1135.471788,-8734.430116,0.000000,444.123565
1135.472100,-8512.368333,383.047749,296.082377
1135.472411,-8512.368333,0.000000,296.082377
1135.472723,-8438.347739,-153.219100,518.144159
1135.473034,-9030.512492,-383.047749,296.082377
1135.473345,-8956.491898,-383.047749,666.185348
1135.473657,-9474.636058,-689.485948,592.164754
1135.473968,-9548.656652,-459.657299,444.123565
1135.474280,-8808.450710,-612.876398,592.164754
1135.474591,-8808.450710,-536.266849,-148.041188
1135.474903,-8512.368333,-536.266849,592.164754
1135.475214,-8438.347739,-459.657299,296.082377
1135.475525,-8660.409521,-689.485948,370.102971
1135.475837,-8734.430116,-689.485948,666.185348
1135.476148,-9178.553681,-383.047749,592.164754
1135.476460,-8808.450710,-536.266849,666.185348
1135.476771,-9104.533087,229.828649,592.164754
1135.477083,-8808.450710,612.876398,296.082377
1135.477394,-8956.491898,0.000000,444.123565
1135.477705,-8956.491898,229.828649,148.041188
1135.478017,-8586.388927,153.219100,518.144159
1135.478328,-9252.574275,306.438199,-0.000000
1135.478640,-9104.533087,766.095498,666.185348
1135.478951,-9104.533087,383.047749,444.123565
1135.479263,-8660.409521,689.485948,518.144159
1135.479574,-8882.471304,76.609550,370.102971
1135.479885,-9400.615463,766.095498,-0.000000
1135.480197,-8956.491898,0.000000,592.164754
1135.480508,-9178.553681,229.828649,518.144159
1135.480820,-9030.512492,0.000000,296.082377
1135.481131,-9030.512492,-383.047749,740.205942
1135.481443,-9326.594869,-306.438199,518.144159
1135.481754,-8586.388927,-229.828649,814.226536
1135.482065,-8216.285956,-612.876398,888.247130
1135.482377,-8660.409521,-842.705048,518.144159
1135.482688,-8290.306550,-995.924147,888.247130
1135.483000,-8660.409521,-842.705048,370.102971
1135.483311,-8142.265362,-612.876398,444.123565
1135.483623,-8660.409521,-229.828649,222.061783
1135.483934,-9326.594869,-153.219100,-0.000000
1135.484245,-9104.533087,-612.876398,592.164754
1135.484557,-9548.656652,-612.876398,296.082377
1135.484868,-9474.636058,0.000000,814.226536
1135.485180,-9178.553681,-306.438199,888.247130
1135.485491,-9104.533087,153.219100,666.185348
1135.485803,-8586.388927,383.047749,740.205942
1135.486114,-8808.450710,766.095498,444.123565
1135.486425,-8364.327145,229.828649,444.123565
1135.486737,-8438.347739,1072.533697,444.123565
1135.487048,-8512.368333,306.438199,370.102971
1135.487360,-8956.491898,536.266849,370.102971
1135.487671,-9030.512492,689.485948,222.061783
1135.487983,-9178.553681,766.095498,444.123565
1135.488294,-9178.553681,153.219100,370.102971
1135.488605,-9252.574275,153.219100,370.102971
1135.488917,-8956.491898,459.657299,444.123565
1135.489228,-8882.471304,-306.438199,296.082377
1135.489540,-8660.409521,-1072.533697,370.102971
1135.489851,-8734.430116,-536.266849,592.164754
1135.490163,-9252.574275,-536.266849,666.185348
1135.490474,-8956.491898,-689.485948,888.247130
1135.490785,-9104.533087,-383.047749,518.144159
1135.491097,-8364.327145,-459.657299,592.164754
1135.491408,-8586.388927,-842.705048,222.061783
1135.491720,-8142.265362,-306.438199,592.164754
1135.492031,-8438.347739,-459.657299,370.102971
1135.492343,-9030.512492,-612.876398,370.102971
1135.492654,-9104.533087,-536.266849,518.144159
1135.492965,-9474.636058,-459.657299,740.205942
1135.493277,-9474.636058,-306.438199,518.144159
1135.493588,-9104.533087,-229.828649,666.185348
1135.493900,-9474.636058,0.000000,-0.000000
1135.494211,-9030.512492,1072.533697,148.041188
1135.494523,-8808.450710,1149.143247,296.082377
1135.494834,-8808.450710,766.095498,-0.000000
1135.495145,-8512.368333,459.657299,814.226536
1135.495457,-8956.491898,612.876398,444.123565
1135.495768,-9178.553681,306.438199,592.164754
1135.496080,-8956.491898,383.047749,592.164754
1135.496391,-9474.636058,383.047749,666.185348
1135.496703,-9252.574275,306.438199,666.185348
1135.497014,-9104.533087,76.609550,222.061783
1135.497325,-8956.491898,-229.828649,518.144159
1135.497637,-9104.533087,-153.219100,444.123565
1135.497948,-9326.594869,0.000000,518.144159
1135.498260,-8882.471304,76.609550,1036.288319
1135.498571,-9326.594869,-612.876398,666.185348
1135.498883,-8660.409521,-842.705048,1332.370696
1135.499194,-8734.430116,-1455.581446,962.267725
1135.499505,-8438.347739,-459.657299,666.185348
1135.499817,-7624.121203,-689.485948,592.164754
1135.500128,-8290.306550,-536.266849,296.082377
1135.500440,-8660.409521,-689.485948,444.123565
1135.500751,-9178.553681,-383.047749,592.164754
1135.501063,-8882.471304,-229.828649,740.205942
1135.501374,-9696.697840,76.609550,518.144159
1135.501685,-9696.697840,995.924147,814.226536
1135.501997,-8808.450710,0.000000,888.247130
1135.502308,-8512.368333,229.828649,1036.288319
1135.502620,-8142.265362,383.047749,444.123565
1135.502931,-8290.306550,383.047749,518.144159
1135.503243,-8438.347739,689.485948,-0.000000
1135.503554,-8586.388927,459.657299,222.061783
1135.503865,-8660.409521,459.657299,-0.000000
1135.504177,-8956.491898,766.095498,444.123565
1135.504488,-9252.574275,0.000000,296.082377
1135.504800,-9548.656652,0.000000,444.123565
1135.505111,-9030.512492,-383.047749,888.247130
1135.505423,-9326.594869,153.219100,222.061783
1135.505734,-8734.430116,229.828649,148.041188
1135.506045,-8364.327145,-306.438199,296.082377
1135.506357,-8512.368333,-536.266849,-0.000000
1135.506668,-8512.368333,-306.438199,592.164754
1135.506980,-8882.471304,-766.095498,296.082377
1135.507291,-9400.615463,-766.095498,666.185348
1135.507603,-8734.430116,-842.705048,888.247130
1135.507914,-9252.574275,-1225.752797,370.102971
1135.508225,-8808.450710,-1149.143247,592.164754
1135.508537,-8882.471304,-536.266849,-222.061783
1135.508848,-9400.615463,153.219100,-0.000000
1135.509160,-9104.533087,-536.266849,370.102971
1135.509471,-9178.553681,-383.047749,-0.000000
1135.509783,-9030.512492,-383.047749,370.102971
1135.510094,-9252.574275,0.000000,444.123565
1135.510405,-8734.430116,229.828649,222.061783
1135.510717,-8660.409521,612.876398,518.144159
1135.511028,-8956.491898,229.828649,-0.000000
1135.511340,-8586.388927,536.266849,518.144159
1135.511651,-9104.533087,459.657299,-0.000000
1135.511963,-8808.450710,842.705048,888.247130
1135.512274,-9252.574275,689.485948,518.144159
1135.512585,-9104.533087,459.657299,370.102971
1135.512897,-8882.471304,306.438199,592.164754
1135.513208,-9548.656652,612.876398,518.144159
1135.513520,-9104.533087,383.047749,518.144159
1135.513831,-9104.533087,-229.828649,370.102971
1135.514143,-8956.491898,306.438199,518.144159
1135.514454,-9030.512492,0.000000,888.247130
1135.514765,-9104.533087,-306.438199,740.205942
1135.515077,-8290.306550,-306.438199,1184.329507
1135.515388,-8438.347739,-995.924147,1480.411884
1135.515700,-8364.327145,-995.924147,1332.370696
1135.516011,-7994.224174,-459.657299,1036.288319
1135.516323,-8660.409521,-919.314598,592.164754
1135.516634,-8068.244768,-995.924147,666.185348
1135.516945,-8364.327145,-995.924147,518.144159
1135.517257,-9104.533087,-689.485948,370.102971
1135.517568,-8882.471304,-383.047749,888.247130
1135.517880,-9178.553681,-459.657299,592.164754
1135.518191,-9474.636058,-919.314598,888.247130
1135.518503,-8956.491898,383.047749,1184.329507
1135.518814,-9030.512492,76.609550,518.144159
1135.519125,-8142.265362,842.705048,1184.329507
1135.519437,-8660.409521,919.314598,518.144159
1135.519748,-8438.347739,766.095498,518.144159
1135.520060,-8734.430116,536.266849,222.061783
1135.520371,-8882.471304,689.485948,148.041188
1135.520683,-8808.450710,612.876398,-0.000000
1135.520994,-9622.677246,612.876398,-0.000000
1135.521305,-10066.800811,383.047749,148.041188
1135.521617,-9622.677246,-153.219100,-74.020594
1135.521928,-9252.574275,0.000000,148.041188
1135.522240,-8882.471304,0.000000,370.102971
1135.522551,-8734.430116,0.000000,-0.000000
1135.522863,-8956.491898,-536.266849,296.082377
1135.523174,-9030.512492,-689.485948,666.185348
1135.523485,-9622.677246,0.000000,-0.000000
1135.523797,-9252.574275,-306.438199,370.102971
1135.524108,-9474.636058,-383.047749,296.082377
1135.524420,-8808.450710,-536.266849,666.185348
1135.524731,-9030.512492,-1149.143247,370.102971
1135.525043,-8734.430116,-612.876398,592.164754
1135.525354,-8512.368333,-1072.533697,296.082377
1135.525665,-9326.594869,-1225.752797,518.144159
1135.525977,-8808.450710,-459.657299,370.102971
1135.526288,-8364.327145,-766.095498,518.144159
1135.526600,-8734.430116,229.828649,296.082377
1135.526911,-8438.347739,0.000000,444.123565
1135.527222,-8660.409521,306.438199,370.102971
1135.527534,-8734.430116,612.876398,518.144159
1135.527845,-9252.574275,766.095498,444.123565
1135.528157,-8734.430116,0.000000,296.082377
1135.528468,-8660.409521,0.000000,666.185348
1135.528780,-8586.388927,459.657299,666.185348
1135.529091,-8586.388927,459.657299,666.185348
1135.529402,-8586.388927,153.219100,444.123565
1135.529714,-8956.491898,229.828649,592.164754
1135.530025,-8734.430116,0.000000,962.267725
1135.530337,-8882.471304,0.000000,518.144159
1135.530648,-9326.594869,-306.438199,592.164754
1135.530960,-8882.471304,153.219100,666.185348
1135.531271,-9326.594869,-306.438199,444.123565
1135.531582,-8734.430116,-229.828649,1406.391290
1135.531894,-9104.533087,-536.266849,1036.288319
1135.532205,-8734.430116,-766.095498,1480.411884
1135.532517,-8586.388927,-689.485948,1110.308913
1135.532828,-8290.306550,-383.047749,592.164754
1135.533140,-7624.121203,-919.314598,518.144159
1135.533451,-8364.327145,-306.438199,-0.000000
1135.533762,-8586.388927,-306.438199,444.123565
1135.534074,-9400.615463,0.000000,296.082377
1135.534385,-9104.533087,306.438199,814.226536
1135.534697,-9696.697840,0.000000,888.247130
1135.535008,-9696.697840,689.485948,1332.370696
1135.535320,-9104.533087,306.438199,740.205942
1135.535631,-8734.430116,459.657299,444.123565
1135.535942,-8216.285956,459.657299,518.144159
1135.536254,-8512.368333,229.828649,444.123565
1135.536565,-8586.388927,536.266849,-0.000000
1135.536877,-8882.471304,689.485948,148.041188
1135.537188,-8956.491898,842.705048,222.061783
1135.537500,-8956.491898,842.705048,-74.020594
1135.537811,-9252.574275,612.876398,296.082377
1135.538122,-9400.615463,0.000000,-0.000000
1135.538434,-9548.656652,0.000000,-0.000000
1135.538745,-9400.615463,0.000000,-0.000000
1135.539057,-9104.533087,153.219100,-0.000000
1135.539368,-8956.491898,-612.876398,370.102971
1135.539680,-8956.491898,-995.924147,296.082377
1135.539991,-8660.409521,-536.266849,814.226536
1135.540302,-9030.512492,-306.438199,148.041188
1135.540614,-8956.491898,-766.095498,592.164754
1135.540925,-8660.409521,-1072.533697,666.185348
1135.541237,-8956.491898,-919.314598,148.041188
1135.541548,-8364.327145,-689.485948,740.205942
1135.541860,-8956.491898,-612.876398,222.061783
1135.542171,-9104.533087,-153.219100,296.082377
1135.542482,-9030.512492,0.000000,666.185348
1135.542794,-9030.512492,-459.657299,592.164754
1135.543105,-8660.409521,-229.828649,296.082377
1135.543417,-8956.491898,-536.266849,740.205942
1135.543728,-8660.409521,0.000000,592.164754
1135.544040,-9030.512492,0.000000,592.164754
1135.544351,-9030.512492,383.047749,296.082377
1135.544662,-8734.430116,383.047749,518.144159
1135.544974,-8364.327145,612.876398,222.061783
1135.545285,-8364.327145,536.266849,1036.288319
1135.545597,-8438.347739,0.000000,444.123565
1135.545908,-8956.491898,383.047749,370.102971
1135.546220,-8956.491898,383.047749,740.205942
1135.546531,-9326.594869,0.000000,518.144159
1135.546842,-8808.450710,-153.219100,962.267725
1135.547154,-9030.512492,-459.657299,740.205942
1135.547465,-8882.471304,-153.219100,666.185348
1135.547777,-8956.491898,-536.266849,1036.288319
1135.548088,-9178.553681,-536.266849,888.247130
1135.548400,-8734.430116,-153.219100,1332.370696
1135.548711,-8734.430116,-612.876398,666.185348
1135.549022,-8512.368333,-612.876398,962.267725
1135.549334,-8216.285956,-612.876398,444.123565
1135.549645,-8586.388927,-612.876398,-148.041188
1135.549957,-7772.162391,0.000000,-0.000000
1135.550268,-8512.368333,-306.438199,370.102971
1135.550580,-9252.574275,-459.657299,-0.000000
1135.550891,-8956.491898,-689.485948,666.185348
1135.551202,-9548.656652,-612.876398,666.185348
1135.551514,-9178.553681,-306.438199,888.247130
1135.551825,-9178.553681,-383.047749,740.205942
1135.552137,-9030.512492,76.609550,148.041188
1135.552448,-8068.244768,459.657299,888.247130
1135.552760,-8734.430116,-306.438199,296.082377
1135.553071,-8586.388927,689.485948,-74.020594
1135.553382,-9030.512492,689.485948,-0.000000
1135.553694,-9252.574275,842.705048,-74.020594
1135.554005,-9178.553681,612.876398,148.041188
1135.554317,-9104.533087,536.266849,-0.000000
1135.554632,-9696.697840,766.095498,296.082377
1135.554943,-9474.636058,383.047749,148.041188
1135.555255,-8808.450710,0.000000,148.041188
1135.555566,-8586.388927,0.000000,592.164754
1135.555878,-8734.430116,-383.047749,-0.000000
1135.556189,-9030.512492,-689.485948,-0.000000
1135.556500,-9178.553681,-383.047749,518.144159
1135.556812,-9252.574275,-153.219100,148.041188
1135.557123,-9696.697840,-229.828649,296.082377
1135.557435,-9326.594869,-229.828649,444.123565
1135.557746,-8734.430116,-919.314598,666.185348
1135.558058,-8660.409521,-1149.143247,370.102971
1135.558369,-8734.430116,-842.705048,592.164754
1135.558681,-8808.450710,-995.924147,740.205942
1135.558992,-9326.594869,-383.047749,518.144159
1135.559304,-8660.409521,0.000000,962.267725
1135.559615,-9030.512492,0.000000,592.164754
1135.559927,-9474.636058,-842.705048,148.041188
1135.560238,-8808.450710,-306.438199,518.144159
1135.560549,-8956.491898,153.219100,444.123565
1135.560861,-8882.471304,383.047749,666.185348
1135.561172,-8956.491898,689.485948,518.144159
1135.561484,-8882.471304,153.219100,518.144159
1135.561795,-8438.347739,612.876398,1036.288319
1135.562107,-8808.450710,995.924147,370.102971
1135.562418,-8438.347739,1225.752797,296.082377
1135.562730,-8438.347739,766.095498,740.205942
1135.563041,-8882.471304,153.219100,814.226536
1135.563353,-9030.512492,0.000000,666.185348
1135.563664,-9030.512492,383.047749,444.123565
1135.563976,-9252.574275,306.438199,518.144159
1135.564287,-9030.512492,-306.438199,370.102971
1135.564598,-9252.574275,-612.876398,444.123565
1135.564910,-8734.430116,0.000000,962.267725
1135.565221,-9178.553681,-612.876398,740.205942
1135.565533,-8734.430116,-766.095498,1702.473667
1135.565844,-8808.450710,-1072.533697,1258.350101
1135.566156,-8364.327145,-919.314598,1110.308913
1135.566467,-7402.059420,-1225.752797,962.267725
1135.566779,-8216.285956,-229.828649,666.185348
1135.567090,-8512.368333,-459.657299,148.041188
1135.567402,-9104.533087,0.000000,370.102971
1135.567713,-9104.533087,0.000000,518.144159
1135.568025,-9326.594869,-306.438199,592.164754
1135.568336,-9474.636058,76.609550,740.205942
1135.568647,-9104.533087,153.219100,444.123565
1135.568959,-8734.430116,459.657299,444.123565
1135.569270,-8364.327145,919.314598,444.123565
1135.569582,-8438.347739,459.657299,-0.000000
1135.569893,-9178.553681,766.095498,-148.041188
1135.570205,-8808.450710,383.047749,296.082377
1135.570516,-8956.491898,459.657299,-0.000000
1135.570828,-9178.553681,689.485948,-148.041188
1135.571139,-9400.615463,536.266849,148.041188
1135.571451,-9474.636058,-229.828649,-0.000000
1135.571762,-8808.450710,-306.438199,222.061783
1135.572074,-8734.430116,306.438199,-0.000000
1135.572385,-9104.533087,-536.266849,-74.020594
1135.572696,-8586.388927,-383.047749,-0.000000
1135.573008,-9252.574275,-612.876398,-0.000000
1135.573319,-9252.574275,-383.047749,370.102971
1135.573631,-9844.739029,0.000000,148.041188
1135.573942,-9918.759623,-459.657299,518.144159
1135.574254,-9178.553681,-153.219100,444.123565
1135.574565,-9104.533087,-383.047749,222.061783
1135.574877,-8660.409521,-229.828649,222.061783
1135.575188,-8956.491898,0.000000,-148.041188
1135.575500,-8512.368333,-383.047749,296.082377
1135.575811,-8438.347739,-306.438199,296.082377
1135.576123,-8882.471304,-76.609550,370.102971
1135.576434,-8438.347739,459.657299,740.205942
1135.576745,-9030.512492,-306.438199,444.123565
1135.577057,-8808.450710,459.657299,814.226536
1135.577368,-8956.491898,459.657299,444.123565
1135.577680,-9252.574275,536.266849,518.144159
1135.577991,-9104.533087,459.657299,962.267725
1135.578303,-9030.512492,306.438199,740.205942
1135.578614,-8586.388927,1072.533697,1184.329507
1135.578926,-8438.347739,536.266849,962.267725
1135.579237,-8438.347739,689.485948,518.144159
1135.579549,-8216.285956,0.000000,888.247130
1135.579860,-9178.553681,0.000000,962.267725
1135.580172,-9104.533087,0.000000,962.267725
1135.580483,-8956.491898,0.000000,814.226536
1135.580794,-9178.553681,-76.609550,592.164754
1135.581106,-8512.368333,-306.438199,444.123565
1135.581417,-8586.388927,0.000000,592.164754
1135.581729,-8364.327145,-229.828649,1406.391290
1135.582040,-8512.368333,-383.047749,1036.288319
1135.582352,-8660.409521,-536.266849,1184.329507
1135.582663,-8216.285956,-842.705048,1036.288319
1135.582975,-8512.368333,-766.095498,518.144159
1135.583286,-8142.265362,0.000000,740.205942
1135.583598,-8438.347739,-1225.752797,444.123565
1135.583909,-8882.471304,-383.047749,296.082377
1135.584221,-8660.409521,-689.485948,592.164754
1135.584532,-9622.677246,-766.095498,814.226536
1135.584843,-9548.656652,-459.657299,1110.308913
1135.585155,-9474.636058,-229.828649,888.247130
1135.585466,-9178.553681,306.438199,592.164754
1135.585778,-8438.347739,0.000000,814.226536
1135.586089,-8512.368333,842.705048,444.123565
1135.586401,-8438.347739,459.657299,-148.041188
1135.586712,-8586.388927,689.485948,148.041188
1135.587024,-8956.491898,459.657299,-0.000000
1135.587335,-9104.533087,689.485948,-0.000000
1135.587647,-9548.656652,536.266849,-0.000000
1135.587958,-9770.718434,153.219100,-0.000000
1135.588270,-9400.615463,-306.438199,-0.000000
1135.588581,-9104.533087,76.609550,-148.041188
1135.588892,-8956.491898,1149.143247,-0.000000
1135.589204,-8882.471304,229.828649,-222.061783
1135.589515,-9030.512492,-536.266849,370.102971
1135.589827,-9252.574275,-536.266849,444.123565
1135.590138,-9252.574275,0.000000,296.082377
1135.590450,-9178.553681,-383.047749,296.082377
1135.590761,-8808.450710,-153.219100,518.144159
1135.591073,-8882.471304,-842.705048,296.082377
1135.591384,-8586.388927,-919.314598,-0.000000
1135.591696,-8438.347739,-383.047749,296.082377
1135.592007,-8586.388927,-842.705048,296.082377
1135.592319,-9178.553681,-612.876398,518.144159
1135.592630,-8956.491898,-459.657299,740.205942
1135.592941,-9178.553681,-383.047749,148.041188
1135.593253,-9030.512492,153.219100,296.082377
1135.593564,-8438.347739,153.219100,666.185348
1135.593876,-8734.430116,153.219100,222.061783
1135.594187,-8956.491898,459.657299,296.082377
1135.594499,-8956.491898,306.438199,814.226536
1135.594810,-8882.471304,229.828649,444.123565
1135.595122,-8882.471304,76.609550,888.247130
1135.595433,-9104.533087,919.314598,666.185348
1135.595745,-8512.368333,76.609550,888.247130
1135.596056,-8734.430116,0.000000,888.247130
1135.596368,-9104.533087,229.828649,1184.329507
1135.596679,-9104.533087,-153.219100,1110.308913
1135.596990,-9252.574275,0.000000,962.267725
1135.597302,-8808.450710,-153.219100,888.247130
1135.597613,-8882.471304,0.000000,740.205942
1135.597925,-9252.574275,76.609550,444.123565
1135.598236,-8808.450710,-229.828649,666.185348
1135.598548,-8808.450710,459.657299,740.205942
1135.598859,-8586.388927,-689.485948,1406.391290
1135.599171,-8734.430116,-459.657299,962.267725
1135.599482,-8438.347739,0.000000,1036.288319
1135.599794,-7994.224174,-306.438199,888.247130
1135.600105,-8142.265362,-306.438199,518.144159
1135.600417,-8438.347739,-536.266849,592.164754
1135.600728,-8956.491898,-459.657299,296.082377
1135.601039,-8808.450710,-229.828649,444.123565
1135.601351,-9252.574275,-459.657299,370.102971
1135.601662,-9696.697840,0.000000,740.205942
1135.601974,-9252.574275,-153.219100,666.185348
1135.602285,-8956.491898,76.609550,666.185348
1135.602597,-8512.368333,306.438199,666.185348
1135.602908,-8586.388927,536.266849,148.041188
1135.603220,-8882.471304,689.485948,-0.000000
1135.603531,-8734.430116,766.095498,296.082377
1135.603843,-8734.430116,1378.971896,370.102971
1135.604154,-8956.491898,1225.752797,-148.041188
1135.604466,-9178.553681,536.266849,-0.000000
1135.604777,-9326.594869,153.219100,-0.000000
1135.605088,-9030.512492,-306.438199,-0.000000
1135.605400,-8808.450710,229.828649,-74.020594
1135.605711,-9030.512492,0.000000,-0.000000
1135.606023,-9104.533087,-766.095498,296.082377
1135.606334,-9474.636058,-612.876398,-0.000000
1135.606646,-8882.471304,-919.314598,666.185348
1135.606957,-9400.615463,-842.705048,444.123565
1135.607269,-9400.615463,-536.266849,592.164754
1135.607580,-9030.512492,-612.876398,592.164754
1135.607892,-8808.450710,-919.314598,296.082377
1135.608203,-8364.327145,-842.705048,222.061783
1135.608515,-8956.491898,-229.828649,222.061783
1135.608826,-8734.430116,-383.047749,-0.000000
1135.609137,-9474.636058,-689.485948,222.061783
1135.609449,-9474.636058,-229.828649,370.102971
1135.609760,-9326.594869,-459.657299,518.144159
1135.610072,-9474.636058,153.219100,592.164754
1135.610383,-9178.553681,0.000000,592.164754
1135.610695,-8808.450710,306.438199,592.164754
1135.611006,-8660.409521,612.876398,296.082377
1135.611318,-8512.368333,306.438199,888.247130
1135.611629,-8660.409521,383.047749,518.144159
1135.611941,-8438.347739,536.266849,740.205942
1135.612252,-8586.388927,459.657299,814.226536
1135.612564,-8142.265362,229.828649,740.205942
1135.612875,-9030.512492,0.000000,518.144159
1135.613186,-9548.656652,229.828649,740.205942
1135.613498,-9178.553681,459.657299,888.247130
1135.613809,-9474.636058,-383.047749,888.247130
1135.614121,-9474.636058,153.219100,962.267725
1135.614432,-9030.512492,0.000000,1110.308913
1135.614744,-9030.512492,153.219100,888.247130
1135.615055,-8216.285956,-306.438199,1332.370696
1135.615367,-7846.182985,-919.314598,1406.391290
1135.615678,-7476.080014,0.000000,1258.350101
1135.615990,-7772.162391,-612.876398,740.205942
1135.616301,-8216.285956,-306.438199,444.123565
1135.616613,-7772.162391,-689.485948,592.164754
1135.616924,-8364.327145,-842.705048,296.082377
1135.617235,-8956.491898,-689.485948,444.123565
1135.617547,-9030.512492,-842.705048,740.205942
1135.617858,-9178.553681,-842.705048,962.267725
1135.618170,-10066.800811,-536.266849,518.144159
1135.618481,-9696.697840,-153.219100,814.226536
1135.618793,-8882.471304,0.000000,814.226536
1135.619104,-8290.306550,306.438199,666.185348
1135.619416,-8364.327145,612.876398,222.061783
1135.619727,-8808.450710,306.438199,-148.041188
1135.620039,-8660.409521,612.876398,148.041188
1135.620350,-9178.553681,919.314598,-0.000000
1135.620662,-8956.491898,229.828649,370.102971
1135.620973,-9548.656652,153.219100,-0.000000
1135.621284,-9770.718434,0.000000,296.082377
1135.621596,-9622.677246,0.000000,-0.000000
1135.621907,-9252.574275,76.609550,-0.000000
1135.622219,-9030.512492,536.266849,-74.020594
1135.622530,-8882.471304,0.000000,-148.041188
1135.622842,-8586.388927,-383.047749,148.041188
1135.623153,-9474.636058,-383.047749,296.082377
1135.623465,-9548.656652,-153.219100,222.061783
1135.623776,-9400.615463,-306.438199,592.164754
1135.624088,-9548.656652,-306.438199,444.123565
1135.624399,-9030.512492,-766.095498,592.164754
1135.624711,-9030.512492,-1225.752797,296.082377
1135.625022,-8734.430116,-1915.238745,814.226536
1135.625333,-8882.471304,-1225.752797,370.102971
1135.625645,-9326.594869,-383.047749,592.164754
1135.625956,-8956.491898,-536.266849,740.205942
1135.626268,-9252.574275,-229.828649,296.082377
1135.626579,-9326.594869,0.000000,518.144159
1135.626891,-8734.430116,0.000000,370.102971
1135.627202,-8956.491898,383.047749,-74.020594
1135.627514,-8068.244768,459.657299,888.247130
1135.627825,-8660.409521,612.876398,592.164754
1135.628137,-9178.553681,536.266849,814.226536
1135.628448,-8956.491898,536.266849,1110.308913
1135.628759,-8882.471304,689.485948,666.185348
1135.629071,-8364.327145,459.657299,814.226536
1135.629382,-8882.471304,153.219100,888.247130
1135.629694,-8882.471304,0.000000,814.226536
1135.630005,-8512.368333,306.438199,666.185348
1135.630317,-8586.388927,76.609550,740.205942
1135.630628,-8438.347739,306.438199,814.226536
1135.630940,-9104.533087,0.000000,518.144159
1135.631251,-9252.574275,-306.438199,666.185348
1135.631563,-8660.409521,-536.266849,962.267725
1135.631874,-8142.265362,-689.485948,1258.350101
1135.632186,-7920.203579,-842.705048,1258.350101
1135.632497,-8586.388927,-842.705048,1258.350101
1135.632808,-9178.553681,-1455.581446,1258.350101
1135.633120,-7994.224174,-1072.533697,962.267725
1135.633431,-7994.224174,0.000000,666.185348
1135.633743,-8216.285956,-536.266849,518.144159
1135.634054,-9252.574275,-229.828649,148.041188
1135.634366,-8956.491898,0.000000,370.102971
1135.634677,-9252.574275,0.000000,370.102971
1135.634989,-9770.718434,229.828649,888.247130
1135.635300,-9474.636058,-153.219100,222.061783
1135.635612,-9178.553681,0.000000,592.164754
1135.635923,-8660.409521,0.000000,592.164754
1135.636235,-8660.409521,229.828649,666.185348
1135.636546,-8734.430116,459.657299,518.144159
1135.636857,-9178.553681,306.438199,-0.000000
1135.637169,-9178.553681,1838.629195,-0.000000
1135.637480,-9030.512492,1072.533697,-148.041188
1135.637792,-9400.615463,689.485948,-0.000000
1135.638103,-9622.677246,536.266849,-74.020594
1135.638415,-9030.512492,306.438199,-74.020594
1135.638726,-9104.533087,612.876398,-296.082377
1135.639038,-9104.533087,536.266849,-74.020594
1135.639349,-8512.368333,383.047749,444.123565
1135.639661,-9104.533087,229.828649,-222.061783
1135.639972,-8808.450710,-383.047749,592.164754
1135.640284,-9400.615463,0.000000,370.102971
1135.640595,-9400.615463,-306.438199,740.205942
1135.640906,-9104.533087,-766.095498,888.247130
1135.641218,-9178.553681,-995.924147,370.102971
1135.641529,-8438.347739,-842.705048,592.164754
1135.641841,-8438.347739,-459.657299,-222.061783
1135.642152,-8586.388927,0.000000,-0.000000
1135.642464,-9030.512492,-536.266849,592.164754
1135.642775,-8956.491898,-536.266849,592.164754
1135.643087,-8808.450710,-612.876398,666.185348
1135.643398,-9622.677246,0.000000,888.247130
1135.643710,-9326.594869,76.609550,814.226536
1135.644021,-8882.471304,229.828649,962.267725
1135.644333,-8734.430116,536.266849,444.123565
1135.644644,-8364.327145,689.485948,740.205942
1135.644955,-8364.327145,459.657299,370.102971
1135.645267,-8216.285956,459.657299,666.185348
1135.645578,-8512.368333,383.047749,444.123565
1135.645890,-8512.368333,612.876398,444.123565
1135.646201,-8660.409521,306.438199,740.205942
1135.646513,-9104.533087,0.000000,740.205942
1135.646824,-8586.388927,-306.438199,592.164754
1135.647136,-8734.430116,-229.828649,962.267725
1135.647447,-8512.368333,76.609550,1036.288319
1135.647759,-8660.409521,-153.219100,962.267725
1135.648070,-9474.636058,-306.438199,888.247130
1135.648382,-8734.430116,-153.219100,1332.370696
1135.648693,-8956.491898,-612.876398,888.247130
1135.649004,-9030.512492,-383.047749,888.247130
1135.649316,-8290.306550,-612.876398,740.205942
1135.649627,-8586.388927,-229.828649,222.061783
1135.649939,-8438.347739,-766.095498,296.082377
1135.650250,-8734.430116,-995.924147,370.102971
1135.650562,-8956.491898,-383.047749,444.123565
1135.650873,-9252.574275,-766.095498,740.205942
1135.651185,-9770.718434,-612.876398,518.144159
1135.651496,-9474.636058,0.000000,740.205942
1135.651808,-9474.636058,-153.219100,1110.308913
1135.652119,-9030.512492,153.219100,592.164754
1135.652431,-8586.388927,229.828649,740.205942
1135.652742,-8734.430116,766.095498,296.082377
1135.653053,-8660.409521,842.705048,148.041188
1135.653365,-9178.553681,612.876398,-0.000000
1135.653676,-9104.533087,919.314598,-148.041188
1135.653988,-8882.471304,306.438199,-74.020594
1135.654299,-9474.636058,1072.533697,-296.082377
1135.654611,-9548.656652,689.485948,370.102971
1135.654922,-9622.677246,306.438199,-0.000000
1135.655234,-8956.491898,229.828649,222.061783
1135.655545,-8586.388927,-153.219100,148.041188
1135.655857,-8734.430116,306.438199,222.061783
1135.656168,-8512.368333,-76.609550,370.102971
1135.656479,-9030.512492,-153.219100,370.102971
1135.656791,-8660.409521,76.609550,296.082377
1135.657102,-9178.553681,-229.828649,148.041188
1135.657414,-9178.553681,-153.219100,296.082377
1135.657725,-8438.347739,-612.876398,592.164754
1135.658037,-8512.368333,-995.924147,148.041188
1135.658348,-8364.327145,-612.876398,444.123565
1135.658660,-8290.306550,-536.266849,-0.000000
1135.658971,-8808.450710,0.000000,740.205942
1135.659283,-8808.450710,0.000000,888.247130
1135.659594,-9474.636058,-383.047749,666.185348
1135.659905,-9326.594869,-459.657299,814.226536
1135.660217,-8956.491898,-306.438199,814.226536
1135.660528,-8882.471304,153.219100,666.185348
1135.660840,-8512.368333,0.000000,592.164754
1135.661151,-8438.347739,383.047749,666.185348
1135.661463,-9030.512492,0.000000,222.061783
1135.661774,-8216.285956,689.485948,444.123565
1135.662086,-8882.471304,919.314598,296.082377
1135.662397,-8882.471304,459.657299,814.226536
1135.662709,-9178.553681,383.047749,814.226536
1135.663020,-9252.574275,76.609550,814.226536
1135.663331,-9548.656652,0.000000,888.247130
1135.663643,-9696.697840,306.438199,592.164754
1135.663954,-9326.594869,229.828649,740.205942
1135.664266,-9178.553681,-153.219100,592.164754
1135.664577,-8734.430116,-459.657299,666.185348
1135.664889,-8586.388927,-153.219100,1036.288319
1135.665200,-8660.409521,-306.438199,666.185348
1135.665512,-8512.368333,-612.876398,1110.308913
1135.665823,-9030.512492,-536.266849,1036.288319
1135.666135,-8660.409521,-229.828649,814.226536
1135.666446,-8142.265362,-459.657299,592.164754
1135.666757,-7846.182985,-536.266849,666.185348
1135.667069,-8364.327145,-842.705048,370.102971
1135.667380,-8882.471304,0.000000,370.102971
1135.667692,-9030.512492,229.828649,370.102971
1135.668003,-9178.553681,0.000000,962.267725
1135.668315,-9178.553681,-536.266849,888.247130
1135.668626,-8734.430116,0.000000,592.164754
1135.668938,-8734.430116,229.828649,888.247130
1135.669249,-8216.285956,842.705048,148.041188
1135.669561,-8290.306550,766.095498,444.123565
1135.669872,-8438.347739,612.876398,222.061783
1135.670183,-8734.430116,76.609550,148.041188
1135.670495,-8882.471304,612.876398,296.082377
1135.670806,-9104.533087,995.924147,-0.000000
1135.671118,-8808.450710,919.314598,518.144159
1135.671429,-9252.574275,0.000000,444.123565
1135.671741,-8438.347739,-383.047749,370.102971
1135.672052,-8808.450710,-153.219100,148.041188
1135.672364,-8438.347739,0.000000,-0.000000
1135.672675,-8660.409521,-306.438199,-0.000000
1135.672986,-9474.636058,-459.657299,-0.000000
1135.673298,-8660.409521,-459.657299,666.185348
1135.673609,-9474.636058,0.000000,740.205942
1135.673921,-9622.677246,-689.485948,518.144159
1135.674232,-9178.553681,-153.219100,592.164754
1135.674544,-9252.574275,-689.485948,296.082377
1135.674855,-8734.430116,-995.924147,666.185348
1135.675167,-8808.450710,-536.266849,296.082377
1135.675478,-8142.265362,-229.828649,296.082377
1135.675790,-8956.491898,-459.657299,370.102971
1135.676101,-9252.574275,-459.657299,222.061783
1135.676412,-9326.594869,-306.438199,444.123565
1135.676724,-9474.636058,0.000000,666.185348
1135.677035,-9104.533087,0.000000,740.205942
1135.677347,-9178.553681,306.438199,740.205942
1135.677658,-9104.533087,306.438199,518.144159
1135.677970,-8586.388927,383.047749,740.205942
1135.678281,-9104.533087,842.705048,-0.000000
1135.678593,-8512.368333,766.095498,740.205942
1135.678904,-8808.450710,229.828649,592.164754
1135.679216,-9030.512492,153.219100,518.144159
1135.679527,-8956.491898,306.438199,592.164754
1135.679838,-9252.574275,306.438199,888.247130
1135.680150,-9030.512492,153.219100,814.226536
1135.680461,-8660.409521,0.000000,518.144159
1135.680773,-8586.388927,-306.438199,666.185348
1135.681084,-8290.306550,-383.047749,962.267725
1135.681396,-9400.615463,229.828649,592.164754
1135.681707,-8512.368333,153.219100,1406.391290
1135.682019,-8660.409521,-536.266849,1036.288319
1135.682330,-8290.306550,-919.314598,1258.350101
1135.682642,-8142.265362,-995.924147,814.226536
1135.682953,-8438.347739,-689.485948,222.061783
1135.683264,-7920.203579,0.000000,740.205942
1135.683576,-8438.347739,-689.485948,296.082377
1135.683887,-8882.471304,-383.047749,370.102971
1135.684199,-9252.574275,-306.438199,592.164754
1135.684510,-9474.636058,0.000000,666.185348
1135.684822,-9474.636058,0.000000,962.267725
1135.685133,-9474.636058,76.609550,888.247130
1135.685445,-8512.368333,766.095498,518.144159
1135.685756,-8660.409521,383.047749,-0.000000
1135.686068,-8290.306550,459.657299,592.164754
1135.686379,-8364.327145,459.657299,148.041188
1135.686690,-8882.471304,766.095498,-0.000000
1135.687002,-8956.491898,536.266849,-74.020594
1135.687313,-9104.533087,153.219100,-0.000000
1135.687625,-9178.553681,612.876398,-222.061783
1135.687936,-9696.697840,229.828649,-444.123565
1135.688248,-9622.677246,612.876398,-0.000000
1135.688559,-9400.615463,153.219100,222.061783
1135.688871,-9400.615463,76.609550,148.041188
1135.689182,-8808.450710,76.609550,222.061783
1135.689493,-8438.347739,-306.438199,296.082377
1135.689805,-9030.512492,-536.266849,296.082377
1135.690116,-9326.594869,-459.657299,370.102971
1135.690428,-8956.491898,-153.219100,-74.020594
1135.690739,-8734.430116,-229.828649,444.123565
1135.691051,-8660.409521,-689.485948,666.185348
1135.691362,-8956.491898,-1225.752797,148.041188
1135.691674,-8734.430116,-1072.533697,666.185348
1135.691985,-8734.430116,-842.705048,592.164754
1135.692297,-9104.533087,-229.828649,814.226536
1135.692608,-8660.409521,-766.095498,962.267725
1135.692919,-8956.491898,-919.314598,814.226536
1135.693231,-8734.430116,-689.485948,592.164754
1135.693542,-8956.491898,-842.705048,888.247130
1135.693854,-9252.574275,0.000000,592.164754
1135.694165,-8808.450710,153.219100,666.185348
1135.694477,-9104.533087,229.828649,888.247130
1135.694788,-9030.512492,306.438199,740.205942
1135.695100,-8660.409521,536.266849,592.164754
1135.695411,-8364.327145,612.876398,740.205942
1135.695723,-8364.327145,842.705048,740.205942
1135.696034,-8734.430116,536.266849,740.205942
1135.696345,-8956.491898,306.438199,1036.288319
1135.696657,-9104.533087,76.609550,888.247130
1135.696968,-9326.594869,306.438199,740.205942
1135.697280,-9104.533087,689.485948,1184.329507
1135.697591,-9178.553681,0.000000,518.144159
1135.697903,-8808.450710,-459.657299,444.123565
1135.698214,-8290.306550,-153.219100,592.164754
1135.698526,-8734.430116,0.000000,962.267725
1135.698837,-8438.347739,-306.438199,1258.350101
1135.699149,-8956.491898,-459.657299,814.226536
1135.699460,-8512.368333,-766.095498,1184.329507
1135.699771,-8364.327145,-229.828649,296.082377
1135.700083,-7994.224174,229.828649,592.164754
1135.700394,-8216.285956,-689.485948,296.082377
1135.700706,-9252.574275,0.000000,296.082377
1135.701017,-9104.533087,0.000000,814.226536
1135.701329,-9326.594869,-229.828649,740.205942
1135.701640,-9400.615463,0.000000,962.267725
1135.701952,-8956.491898,-229.828649,888.247130
1135.702263,-8808.450710,0.000000,814.226536
1135.702575,-8068.244768,306.438199,814.226536
1135.702886,-8290.306550,766.095498,370.102971
1135.703197,-8882.471304,766.095498,-222.061783
1135.703509,-8956.491898,536.266849,-0.000000
1135.703820,-9252.574275,1302.362347,148.041188
1135.704132,-8956.491898,919.314598,-0.000000
1135.704443,-9400.615463,612.876398,-0.000000
1135.704755,-9474.636058,0.000000,-0.000000
1135.705066,-8956.491898,-229.828649,148.041188
1135.705378,-9030.512492,0.000000,296.082377
1135.705689,-8660.409521,0.000000,592.164754
1135.706000,-8882.471304,-689.485948,444.123565
1135.706312,-9178.553681,-919.314598,296.082377
1135.706623,-8882.471304,-689.485948,740.205942
1135.706935,-9326.594869,-383.047749,296.082377
1135.707246,-9474.636058,0.000000,592.164754
1135.707558,-9178.553681,0.000000,1110.308913
1135.707869,-8956.491898,0.000000,592.164754
1135.708181,-8438.347739,-919.314598,740.205942
1135.708492,-8882.471304,-229.828649,222.061783
1135.708804,-8808.450710,-229.828649,296.082377
1135.709115,-9178.553681,-229.828649,370.102971
1135.709426,-8882.471304,-459.657299,592.164754
1135.709738,-8808.450710,-842.705048,296.082377
1135.710049,-9770.718434,383.047749,222.061783
1135.710361,-9474.636058,842.705048,592.164754
1135.710672,-8882.471304,459.657299,370.102971
1135.710984,-8808.450710,689.485948,222.061783
1135.711295,-8438.347739,612.876398,296.082377
1135.711607,-8512.368333,536.266849,222.061783
1135.711918,-8290.306550,76.609550,740.205942
1135.712230,-8364.327145,153.219100,518.144159
1135.712541,-8808.450710,76.609550,518.144159
1135.712852,-8956.491898,153.219100,222.061783
1135.713164,-9326.594869,0.000000,666.185348
1135.713475,-8808.450710,-383.047749,740.205942
1135.713787,-9178.553681,-383.047749,666.185348
1135.714098,-9178.553681,459.657299,518.144159
1135.714410,-9104.533087,-766.095498,592.164754
1135.714721,-9474.636058,0.000000,592.164754
1135.715033,-8216.285956,0.000000,1258.350101
1135.715344,-8808.450710,-689.485948,592.164754
1135.715656,-8512.368333,-1072.533697,814.226536
1135.715967,-8142.265362,-1149.143247,740.205942
1135.716278,-8364.327145,-766.095498,296.082377
1135.716590,-7772.162391,-919.314598,370.102971
1135.716901,-8586.388927,-842.705048,-0.000000
1135.717213,-8882.471304,-383.047749,222.061783
1135.717524,-9474.636058,-612.876398,592.164754
1135.717836,-9844.739029,-229.828649,444.123565
1135.718147,-9622.677246,-459.657299,740.205942
1135.718459,-9622.677246,-229.828649,666.185348
1135.718770,-9326.594869,76.609550,666.185348
1135.719082,-8364.327145,229.828649,814.226536
1135.719393,-8586.388927,766.095498,740.205942
1135.719704,-8216.285956,459.657299,518.144159
1135.720016,-8734.430116,536.266849,-148.041188
1135.720327,-8808.450710,459.657299,370.102971
1135.720639,-9104.533087,229.828649,370.102971
1135.720950,-9622.677246,766.095498,148.041188
1135.721262,-9622.677246,536.266849,444.123565
1135.721573,-9844.739029,689.485948,222.061783
1135.721885,-9400.615463,1225.752797,518.144159
1135.722196,-8882.471304,306.438199,444.123565
1135.722507,-8956.491898,-153.219100,444.123565
1135.722819,-8364.327145,-153.219100,592.164754
1135.723130,-8808.450710,-153.219100,370.102971
1135.723442,-8956.491898,0.000000,518.144159
1135.723753,-9030.512492,-76.609550,740.205942
1135.724065,-9030.512492,-612.876398,592.164754
1135.724376,-8364.327145,-612.876398,592.164754
1135.724688,-8660.409521,-459.657299,222.061783
1135.724999,-8364.327145,0.000000,518.144159
1135.725311,-8734.430116,-536.266849,370.102971
1135.725622,-9030.512492,0.000000,592.164754
1135.725933,-8586.388927,-459.657299,666.185348
1135.726245,-9178.553681,-536.266849,740.205942
1135.726556,-9252.574275,153.219100,740.205942
1135.726868,-8882.471304,-766.095498,370.102971
1135.727179,-8808.450710,383.047749,296.082377
1135.727491,-8438.347739,306.438199,592.164754
1135.727802,-8734.430116,766.095498,444.123565
1135.728114,-8512.368333,76.609550,296.082377
1135.728425,-8660.409521,306.438199,518.144159
1135.728737,-8956.491898,842.705048,222.061783
1135.729048,-8586.388927,766.095498,814.226536
1135.729359,-9104.533087,842.705048,592.164754
1135.729671,-9104.533087,0.000000,444.123565
1135.729982,-8956.491898,-229.828649,592.164754
1135.730294,-9474.636058,0.000000,148.041188
1135.730605,-9326.594869,0.000000,444.123565
1135.730917,-9178.553681,0.000000,666.185348
1135.731228,-8808.450710,-842.705048,370.102971
1135.731540,-8660.409521,-766.095498,1184.329507
1135.731851,-8956.491898,-306.438199,740.205942
1135.732163,-8956.491898,-1302.362347,1036.288319
1135.732474,-9104.533087,-995.924147,740.205942
1135.732785,-8734.430116,-536.266849,740.205942
1135.733097,-8364.327145,-919.314598,518.144159
1135.733408,-8586.388927,-459.657299,296.082377
1135.733720,-9030.512492,-689.485948,148.041188
1135.734031,-9474.636058,-383.047749,-0.000000
1135.734343,-9326.594869,-459.657299,814.226536
1135.734654,-9918.759623,-306.438199,666.185348
1135.734966,-9474.636058,0.000000,1036.288319
1135.735277,-9178.553681,0.000000,814.226536
1135.735589,-8808.450710,76.609550,888.247130
1135.735900,-8290.306550,612.876398,740.205942
1135.736211,-8142.265362,842.705048,740.205942
1135.736523,-8512.368333,1072.533697,-74.020594
1135.736834,-8364.327145,536.266849,296.082377
1135.737146,-8660.409521,766.095498,444.123565
1135.737457,-8808.450710,689.485948,222.061783
1135.737769,-9474.636058,536.266849,222.061783
1135.738080,-9326.594869,459.657299,444.123565
1135.738392,-8586.388927,0.000000,666.185348
1135.738703,-8734.430116,306.438199,148.041188
1135.739014,-7920.203579,766.095498,370.102971
1135.739326,-8290.306550,153.219100,740.205942
1135.739637,-8734.430116,0.000000,222.061783
1135.739949,-8734.430116,0.000000,592.164754
1135.740260,-9178.553681,0.000000,592.164754
1135.740572,-9104.533087,-306.438199,814.226536
1135.740883,-9030.512492,-306.438199,1036.288319
1135.741195,-8660.409521,-459.657299,370.102971
1135.741506,-8216.285956,-842.705048,370.102971
1135.741818,-8290.306550,-229.828649,-0.000000
1135.742129,-8586.388927,-459.657299,370.102971
1135.742440,-8956.491898,-689.485948,666.185348
1135.742752,-9030.512492,-306.438199,518.144159
1135.743063,-9178.553681,-383.047749,592.164754
1135.743375,-9622.677246,76.609550,148.041188
1135.743686,-8956.491898,689.485948,296.082377
1135.743998,-9104.533087,0.000000,296.082377
1135.744309,-8660.409521,229.828649,74.020594
1135.744621,-8882.471304,76.609550,592.164754
1135.744932,-8882.471304,76.609550,370.102971
1135.745244,-8660.409521,306.438199,740.205942
1135.745555,-9178.553681,383.047749,518.144159
1135.745866,-9104.533087,383.047749,666.185348
1135.746178,-8808.450710,0.000000,814.226536
1135.746489,-9400.615463,153.219100,740.205942
1135.746801,-9030.512492,0.000000,740.205942
1135.747112,-9178.553681,0.000000,518.144159
1135.747424,-8882.471304,0.000000,370.102971
1135.747735,-8956.491898,-612.876398,740.205942
1135.748047,-9548.656652,153.219100,296.082377
1135.748358,-8586.388927,-612.876398,1184.329507
1135.748670,-8512.368333,-689.485948,814.226536
1135.748981,-8586.388927,-689.485948,1036.288319
1135.749292,-8660.409521,-1378.971896,888.247130
1135.749604,-8808.450710,-995.924147,370.102971
1135.749915,-8068.244768,-689.485948,592.164754
1135.750227,-8808.450710,-383.047749,148.041188
1135.750538,-9030.512492,-229.828649,148.041188
1135.750850,-8586.388927,0.000000,370.102971
1135.751161,-8808.450710,459.657299,296.082377
1135.751473,-8438.347739,76.609550,888.247130
1135.751784,-9400.615463,229.828649,740.205942
1135.752096,-8956.491898,229.828649,888.247130
1135.752407,-8438.347739,383.047749,740.205942
1135.752718,-8438.347739,612.876398,444.123565
1135.753030,-8290.306550,536.266849,148.041188
1135.753341,-8660.409521,842.705048,-0.000000
1135.753653,-8808.450710,1149.143247,-0.000000
1135.753964,-8586.388927,306.438199,370.102971
1135.754276,-9622.677246,1072.533697,148.041188
1135.754587,-9844.739029,459.657299,-0.000000
1135.754899,-9622.677246,612.876398,444.123565
1135.755210,-8956.491898,306.438199,370.102971
1135.755522,-8586.388927,306.438199,444.123565
1135.755833,-8364.327145,0.000000,-74.020594
1135.756144,-8142.265362,-536.266849,370.102971
1135.756456,-8438.347739,-1378.971896,666.185348
1135.756767,-8734.430116,-689.485948,666.185348
1135.757079,-9104.533087,-919.314598,740.205942
1135.757390,-9400.615463,-306.438199,296.082377
1135.757702,-8808.450710,-689.485948,740.205942
1135.758013,-8734.430116,-459.657299,370.102971
1135.758325,-8586.388927,-612.876398,222.061783
1135.758636,-8512.368333,-766.095498,296.082377
1135.758948,-8660.409521,-842.705048,740.205942
1135.759259,-8956.491898,-919.314598,592.164754
1135.759571,-9326.594869,0.000000,888.247130
1135.759882,-9400.615463,-306.438199,592.164754
1135.760194,-8882.471304,-995.924147,740.205942
1135.760505,-9474.636058,-229.828649,444.123565
1135.760816,-8660.409521,76.609550,888.247130
1135.761128,-9104.533087,766.095498,370.102971
1135.761439,-9178.553681,383.047749,148.041188
1135.761751,-8882.471304,229.828649,666.185348
1135.762062,-9030.512492,459.657299,518.144159
1135.762374,-8586.388927,536.266849,888.247130
1135.762685,-8660.409521,536.266849,666.185348
1135.762997,-9030.512492,612.876398,444.123565
1135.763308,-9030.512492,689.485948,296.082377
1135.763620,-9104.533087,229.828649,518.144159
1135.763931,-9030.512492,76.609550,666.185348
1135.764243,-9400.615463,0.000000,666.185348
1135.764554,-9030.512492,-153.219100,444.123565
1135.764866,-8808.450710,-229.828649,962.267725
1135.765177,-8660.409521,0.000000,444.123565
1135.765488,-8512.368333,229.828649,888.247130
1135.765800,-8586.388927,-612.876398,740.205942
1135.766111,-8586.388927,-153.219100,814.226536
1135.766423,-7994.224174,-306.438199,814.226536
1135.766734,-8068.244768,-383.047749,666.185348
1135.767046,-8290.306550,-459.657299,518.144159
1135.767357,-8956.491898,0.000000,518.144159
1135.767669,-8586.388927,0.000000,814.226536
1135.767980,-9178.553681,76.609550,444.123565
1135.768292,-9104.533087,612.876398,814.226536
