#time,accel_x,accel_y,accel_z
1280.826258,-8956.491898,0.000000,444.123565
1280.826570,-8660.409521,0.000000,518.144159
1280.826881,-8734.430116,153.219100,370.102971
1280.827193,-8956.491898,-612.876398,444.123565
1280.827505,-8882.471304,-229.828649,370.102971
1280.827816,-9030.512492,-153.219100,814.226536
1280.828128,-9030.512492,0.000000,592.164754
1280.828439,-9252.574275,-153.219100,592.164754
1280.828751,-9030.512492,0.000000,592.164754
1280.829062,-9030.512492,153.219100,740.205942
1280.829374,-8882.471304,0.000000,592.164754
1280.829685,-9030.512492,383.047749,592.164754
1280.829997,-8882.471304,0.000000,666.185348
1280.830309,-8956.491898,229.828649,370.102971
1280.830620,-8882.471304,0.000000,592.164754
1280.830932,-8956.491898,0.000000,444.123565
1280.831243,-9030.512492,0.000000,592.164754
1280.831555,-8438.347739,0.000000,296.082377
1280.831866,-8586.388927,0.000000,148.041188
1280.832178,-8882.471304,306.438199,370.102971
1280.832490,-8956.491898,76.609550,666.185348
1280.832801,-9030.512492,-153.219100,518.144159
1280.833113,-8956.491898,0.000000,444.123565
1280.833424,-8808.450710,0.000000,592.164754
1280.833736,-9030.512492,536.266849,518.144159
1280.834047,-9030.512492,-229.828649,518.144159
1280.834359,-9400.615463,0.000000,296.082377
1280.834670,-8956.491898,-383.047749,222.061783
1280.834982,-8660.409521,-153.219100,444.123565
1280.835294,-8808.450710,0.000000,518.144159
1280.835605,-8882.471304,0.000000,592.164754
1280.835917,-8956.491898,-306.438199,444.123565
1280.836228,-8882.471304,0.000000,444.123565
1280.836540,-8438.347739,0.000000,740.205942
1280.836851,-9178.553681,0.000000,592.164754
1280.837163,-8438.347739,229.828649,740.205942
1280.837475,-8734.430116,-229.828649,296.082377
1280.837786,-8956.491898,0.000000,518.144159
1280.838098,-9252.574275,-229.828649,518.144159
1280.838409,-9104.533087,0.000000,444.123565
1280.838721,-8660.409521,229.828649,592.164754
1280.839032,-9104.533087,76.609550,296.082377
1280.839344,-8660.409521,689.485948,148.041188
1280.839656,-9104.533087,229.828649,370.102971
1280.839967,-9104.533087,306.438199,518.144159
1280.840279,-8956.491898,-229.828649,518.144159
1280.840590,-8956.491898,-306.438199,444.123565
1280.840902,-8882.471304,0.000000,518.144159
1280.841213,-8734.430116,306.438199,740.205942
1280.841525,-8734.430116,459.657299,296.082377
1280.841836,-8956.491898,-919.314598,814.226536
1280.842148,-8734.430116,0.000000,592.164754
1280.842460,-8882.471304,-229.828649,518.144159
1280.842771,-9030.512492,-153.219100,592.164754
1280.843083,-8956.491898,-153.219100,740.205942
1280.843394,-9252.574275,0.000000,444.123565
1280.843706,-8882.471304,76.609550,370.102971
1280.844017,-8956.491898,-153.219100,370.102971
1280.844329,-9104.533087,459.657299,444.123565
1280.844641,-8808.450710,0.000000,740.205942
1280.844952,-8660.409521,0.000000,666.185348
1280.845264,-9030.512492,0.000000,518.144159
1280.845575,-8882.471304,0.000000,592.164754
1280.845887,-8882.471304,383.047749,592.164754
1280.846198,-8734.430116,0.000000,518.144159
1280.846510,-9474.636058,0.000000,296.082377
1280.846821,-8956.491898,0.000000,370.102971
1280.847133,-8660.409521,0.000000,518.144159
1280.847445,-8882.471304,0.000000,592.164754
1280.847756,-8882.471304,0.000000,592.164754
1280.848068,-8956.491898,0.000000,444.123565
1280.848379,-8956.491898,229.828649,518.144159
1280.848691,-9030.512492,-229.828649,370.102971
1280.849002,-8882.471304,0.000000,-0.000000
1280.849314,-8660.409521,995.924147,444.123565
1280.849626,-8956.491898,0.000000,296.082377
1280.849937,-8734.430116,-76.609550,666.185348
1280.850249,-9104.533087,0.000000,370.102971
1280.850560,-8956.491898,0.000000,444.123565
1280.850872,-8956.491898,153.219100,370.102971
1280.851183,-8808.450710,459.657299,666.185348
1280.851495,-8956.491898,306.438199,370.102971
1280.851806,-9104.533087,-612.876398,370.102971
1280.852118,-8882.471304,0.000000,444.123565
1280.852430,-8808.450710,0.000000,592.164754
1280.852741,-8882.471304,-153.219100,592.164754
1280.853053,-8956.491898,0.000000,518.144159
1280.853364,-8808.450710,-229.828649,296.082377
1280.853676,-9030.512492,0.000000,370.102971
1280.853987,-9030.512492,0.000000,518.144159
1280.854299,-8734.430116,76.609550,888.247130
1280.854611,-9030.512492,0.000000,444.123565
1280.854922,-9030.512492,0.000000,444.123565
1280.855234,-8956.491898,0.000000,592.164754
1280.855545,-8808.450710,306.438199,518.144159
1280.855857,-8882.471304,-153.219100,444.123565
1280.856168,-8882.471304,383.047749,518.144159
1280.856480,-9326.594869,0.000000,296.082377
1280.856791,-10362.883188,0.000000,-0.000000
1280.857103,-11843.295072,1532.190996,148.041188
1280.857415,-9770.718434,4290.134789,814.226536
1280.857726,-8068.244768,4749.792088,740.205942
1280.858038,-7031.956449,2528.115143,1036.288319
1280.858349,-6439.791695,-229.828649,592.164754
1280.858661,-7105.977043,-1149.143247,74.020594
1280.858972,-6735.874072,-306.438199,-0.000000
1280.859284,-9400.615463,-766.095498,-666.185348
1280.859596,-13101.645173,-842.705048,-888.247130
1280.859907,-11547.212695,689.485948,-0.000000
1280.860219,-9622.677246,612.876398,888.247130
1280.860530,-8586.388927,-459.657299,2442.679609
1280.860842,-10732.986159,0.000000,2072.576638
1280.861153,-10288.862594,2757.943793,1554.432478
1280.861465,-5403.503377,4903.011187,2516.700203
1280.861776,-6587.832884,3983.696590,2072.576638
1280.862088,-8142.265362,2374.896044,296.082377
1280.862400,-7254.018232,3294.210641,-1184.329507
1280.862711,-8364.327145,3140.991542,-1924.535449
1280.863023,-9030.512492,3677.258390,-740.205942
1280.863334,-9696.697840,3217.601092,-1332.370696
1280.863646,-14211.954086,383.047749,-740.205942
1280.863957,-10510.924376,-1149.143247,2368.659014
1280.864269,-9474.636058,-766.095498,1258.350101
1280.864581,-9992.780217,3370.820191,1924.535449
1280.864892,-7550.100608,6818.249932,2220.617826
1280.865204,-8216.285956,3983.696590,1554.432478
1280.865515,-5699.585753,3294.210641,2812.782580
1280.865827,-6365.771101,6128.763984,592.164754
1280.866138,-7624.121203,6971.469032,-296.082377
1280.866450,-9696.697840,6128.763984,-1332.370696
1280.866762,-9992.780217,4826.401637,-592.164754
1280.867073,-9474.636058,5592.497135,-1924.535449
1280.867385,-11473.192101,5286.058936,-222.061783
1280.867696,-11103.089130,4673.182538,370.102971
1280.868008,-10510.924376,4443.353888,1924.535449
1280.868319,-9918.759623,4290.134789,2294.638420
1280.868631,-8216.285956,4366.744339,2294.638420
1280.868942,-5995.668130,5209.449386,1184.329507
1280.869254,-5921.647536,5515.887586,592.164754
1280.869566,-4737.318029,5209.449386,666.185348
1280.869877,-5995.668130,4519.963438,-1406.391290
1280.870189,-7624.121203,4136.915689,-518.144159
1280.870500,-8734.430116,4060.306139,-888.247130
1280.870812,-10658.965565,1915.238745,-0.000000
1280.871123,-10658.965565,1838.629195,888.247130
1280.871435,-10436.903782,229.828649,1406.391290
1280.871747,-10881.027347,-689.485948,1776.494261
1280.872058,-9770.718434,1378.971896,2516.700203
1280.872370,-8586.388927,3447.429741,1332.370696
1280.872681,-7476.080014,4673.182538,962.267725
1280.872993,-6661.853478,3524.039291,148.041188
1280.873304,-7550.100608,2681.334243,-444.123565
1280.873616,-6587.832884,4136.915689,-222.061783
1280.873927,-6957.935855,3217.601092,-1332.370696
1280.874239,-8142.265362,383.047749,-666.185348
1280.874551,-9770.718434,-1915.238745,-296.082377
1280.874862,-11103.089130,-2221.676944,814.226536
1280.875174,-12583.501014,-1302.362347,1628.453072
1280.875485,-13915.871710,-1225.752797,1924.535449
1280.875797,-13101.645173,229.828649,1406.391290
1280.876108,-11843.295072,1915.238745,296.082377
1280.876420,-9178.553681,4136.915689,148.041188
1280.876732,-7105.977043,4136.915689,-518.144159
1280.877043,-5699.585753,4519.963438,-0.000000
1280.877355,-5625.565159,4443.353888,370.102971
1280.877666,-7179.997637,3140.991542,518.144159
1280.877978,-8438.347739,1072.533697,-74.020594
1280.878289,-10732.986159,0.000000,-0.000000
1280.878601,-11843.295072,-766.095498,-148.041188
1280.878912,-13027.624579,-2145.067394,-0.000000
1280.879224,-13545.768739,-2757.943793,444.123565
1280.879536,-12879.583391,-1072.533697,518.144159
1280.879847,-10732.986159,1455.581446,1110.308913
1280.880159,-9030.512492,2834.553343,1110.308913
1280.880470,-6439.791695,4596.572988,2072.576638
1280.880782,-4293.194464,3677.258390,1036.288319
1280.881093,-2072.576638,4443.353888,296.082377
1280.881405,-888.247130,4290.134789,-962.267725
1280.881717,-3108.864956,2987.772442,-962.267725
1280.882028,-7476.080014,536.266849,-1036.288319
1280.882340,-12287.418637,-229.828649,-222.061783
1280.882651,-14804.118840,229.828649,1258.350101
1280.882963,-16062.468941,842.705048,1998.556043
1280.883274,-14063.912898,919.314598,2368.659014
1280.883586,-11029.068536,766.095498,1110.308913
1280.883897,-7328.038826,1838.629195,148.041188
1280.884209,-3923.091493,3140.991542,-296.082377
1280.884521,-2516.700203,4060.306139,148.041188
1280.884832,-1850.514855,2757.943793,-518.144159
1280.885144,-2738.761985,1225.752797,-0.000000
1280.885455,-6439.791695,-2757.943793,-0.000000
1280.885767,-9696.697840,-2374.896044,666.185348
1280.886078,-12361.439231,-2451.505594,1332.370696
1280.886390,-13989.892304,-2757.943793,1332.370696
1280.886702,-14211.954086,-4136.915689,1998.556043
1280.887013,-13471.748144,-3370.820191,1850.514855
1280.887325,-11325.150913,-2987.772442,1332.370696
1280.887636,-8660.409521,-919.314598,1036.288319
1280.887948,-6513.812290,153.219100,-148.041188
1280.888259,-5847.626942,919.314598,-296.082377
1280.888571,-7031.956449,1455.581446,-1258.350101
1280.888883,-8364.327145,1838.629195,-888.247130
1280.889194,-9474.636058,2298.286494,-518.144159
1280.889506,-10214.842000,2068.457845,222.061783
1280.889817,-11695.253884,0.000000,296.082377
1280.890129,-11843.295072,-689.485948,740.205942
1280.890440,-10807.006753,-919.314598,1332.370696
1280.890752,-9696.697840,-1302.362347,1628.453072
1280.891063,-9104.533087,-2298.286494,1776.494261
1280.891375,-9548.656652,-2298.286494,1036.288319
1280.891687,-9252.574275,0.000000,222.061783
1280.891998,-9252.574275,2298.286494,-814.226536
1280.892310,-8956.491898,2834.553343,-1332.370696
1280.892621,-9030.512492,2145.067394,-2072.576638
1280.892933,-8290.306550,1915.238745,-1850.514855
1280.893244,-8216.285956,1149.143247,-1110.308913
1280.893556,-7624.121203,306.438199,592.164754
1280.893868,-8068.244768,-536.266849,1998.556043
1280.894179,-8808.450710,-1915.238745,3182.885551
1280.894491,-9104.533087,-2374.896044,3552.988522
1280.894802,-10807.006753,-459.657299,2812.782580
1280.895114,-10362.883188,2681.334243,1924.535449
1280.895425,-8068.244768,4596.572988,-962.267725
1280.895737,-7031.956449,4443.353888,-1702.473667
1280.896048,-6217.729913,3294.210641,-2294.638420
1280.896360,-5773.606348,2451.505594,-1776.494261
1280.896672,-5625.565159,1685.410096,-592.164754
1280.896983,-6957.935855,76.609550,444.123565
1280.897295,-7179.997637,-2145.067394,2072.576638
1280.897606,-8512.368333,-2528.115143,2146.597232
1280.897918,-9770.718434,-2528.115143,3552.988522
1280.898229,-10436.903782,-1838.629195,3182.885551
1280.898541,-11029.068536,-459.657299,2442.679609
1280.898853,-9992.780217,383.047749,1850.514855
1280.899164,-8290.306550,1225.752797,-0.000000
1280.899476,-7254.018232,1608.800546,-1110.308913
1280.899787,-6217.729913,1915.238745,-1924.535449
1280.900099,-6069.688724,1072.533697,-1850.514855
1280.900410,-7179.997637,-689.485948,-1110.308913
1280.900722,-9252.574275,-1072.533697,-74.020594
1280.901033,-11843.295072,-766.095498,666.185348
1280.901345,-12953.603985,-1838.629195,2516.700203
1280.901656,-11769.274478,-2604.724693,3775.050304
1280.901967,-10955.047942,-3064.381992,3552.988522
1280.902279,-9400.615463,-1072.533697,2960.823768
1280.902590,-8512.368333,0.000000,1406.391290
1280.902901,-7624.121203,0.000000,296.082377
1280.903213,-7476.080014,153.219100,-888.247130
1280.903524,-8586.388927,-153.219100,-1998.556043
1280.903835,-9474.636058,536.266849,-2442.679609
1280.904147,-10584.944971,76.609550,-2072.576638
1280.904458,-11325.150913,229.828649,-1258.350101
1280.904769,-11177.109724,-2298.286494,666.185348
1280.905081,-11177.109724,-2298.286494,1702.473667
1280.905392,-10436.903782,-2911.162892,2738.761985
1280.905703,-8734.430116,-2145.067394,3256.906145
1280.906015,-7698.141797,-536.266849,2664.741391
1280.906326,-7254.018232,0.000000,1998.556043
1280.906637,-7105.977043,-306.438199,592.164754
1280.906949,-8290.306550,1608.800546,-1110.308913
1280.907260,-8808.450710,4290.134789,-1776.494261
1280.907571,-9252.574275,4519.963438,-1702.473667
1280.907883,-8882.471304,2834.553343,-1776.494261
1280.908194,-8660.409521,459.657299,-370.102971
1280.908505,-7698.141797,-612.876398,888.247130
1280.908817,-6661.853478,-536.266849,1258.350101
1280.909128,-6661.853478,-842.705048,2072.576638
1280.909439,-7846.182985,-842.705048,2294.638420
1280.909751,-9252.574275,-612.876398,1998.556043
1280.910062,-9178.553681,229.828649,1480.411884
1280.910373,-9030.512492,1685.410096,222.061783
1280.910685,-8956.491898,1225.752797,-740.205942
1280.910996,-7772.162391,1149.143247,-1406.391290
1280.911307,-7550.100608,612.876398,-1332.370696
1280.911619,-7476.080014,-459.657299,-1628.453072
1280.911930,-7105.977043,-919.314598,-148.041188
1280.912241,-7920.203579,-2604.724693,1110.308913
1280.912553,-9474.636058,-3907.087040,1702.473667
1280.912864,-10584.944971,-3447.429741,2146.597232
1280.913175,-11843.295072,-689.485948,2442.679609
1280.913487,-11621.233289,1608.800546,2368.659014
1280.913798,-11177.109724,1455.581446,1184.329507
1280.914109,-9844.739029,1532.190996,666.185348
1280.914421,-8068.244768,1608.800546,-444.123565
1280.914732,-6291.750507,2221.676944,-1110.308913
1280.915043,-6883.915261,842.705048,-1702.473667
1280.915355,-7550.100608,-689.485948,-1036.288319
1280.915666,-8882.471304,-2451.505594,-888.247130
1280.915977,-10066.800811,-2911.162892,-0.000000
1280.916289,-11621.233289,-2604.724693,1036.288319
1280.916600,-12213.398043,-1838.629195,1184.329507
1280.916911,-12361.439231,-612.876398,1258.350101
1280.917223,-11251.130318,-1685.410096,2072.576638
1280.917534,-10362.883188,-1072.533697,1628.453072
1280.917845,-8364.327145,459.657299,814.226536
1280.918157,-6661.853478,1455.581446,-148.041188
1280.918468,-6513.812290,1378.971896,-962.267725
1280.918779,-7105.977043,306.438199,-1554.432478
1280.919091,-7550.100608,76.609550,-888.247130
1280.919402,-9178.553681,536.266849,-444.123565
1280.919713,-10214.842000,-306.438199,962.267725
1280.920025,-11621.233289,-1225.752797,1480.411884
1280.920336,-11325.150913,-1762.019645,2368.659014
1280.920647,-9178.553681,-1072.533697,2294.638420
1280.920959,-7550.100608,0.000000,1850.514855
1280.921270,-6661.853478,-459.657299,1628.453072
1280.921581,-7031.956449,-1991.848295,1554.432478
1280.921893,-6883.915261,-842.705048,444.123565
1280.922204,-7179.997637,612.876398,-148.041188
1280.922515,-7994.224174,1455.581446,-370.102971
1280.922827,-8512.368333,995.924147,-888.247130
1280.923138,-7920.203579,76.609550,-592.164754
1280.923449,-7179.997637,-689.485948,-0.000000
1280.923761,-7624.121203,-153.219100,814.226536
1280.924072,-8364.327145,-536.266849,1480.411884
1280.924383,-8660.409521,-689.485948,1184.329507
1280.924695,-9030.512492,-842.705048,1924.535449
1280.925006,-9474.636058,229.828649,1258.350101
1280.925317,-10362.883188,2145.067394,370.102971
1280.925629,-10214.842000,3447.429741,-74.020594
1280.925940,-9400.615463,3217.601092,-444.123565
1280.926251,-8438.347739,1762.019645,-0.000000
1280.926563,-8290.306550,766.095498,-814.226536
1280.926874,-7031.956449,-306.438199,-222.061783
1280.927185,-6957.935855,-1455.581446,444.123565
1280.927497,-8512.368333,-2221.676944,814.226536
1280.927808,-9844.739029,-2298.286494,814.226536
1280.928119,-11843.295072,-1225.752797,518.144159
1280.928431,-12583.501014,459.657299,888.247130
1280.928742,-12139.377449,919.314598,814.226536
1280.929053,-11473.192101,1608.800546,-0.000000
1280.929365,-10066.800811,1378.971896,-0.000000
1280.929676,-8364.327145,842.705048,-148.041188
1280.929987,-6809.894666,536.266849,-0.000000
1280.930299,-5551.544565,0.000000,-0.000000
1280.930610,-5403.503377,-1302.362347,-0.000000
1280.930921,-7254.018232,-1685.410096,962.267725
1280.931233,-9622.677246,-1838.629195,1628.453072
1280.931544,-9918.759623,536.266849,814.226536
1280.931855,-10881.027347,612.876398,1258.350101
1280.932167,-11103.089130,-306.438199,1406.391290
1280.932478,-10510.924376,-306.438199,1480.411884
1280.932789,-8586.388927,536.266849,1184.329507
1280.933101,-6439.791695,919.314598,888.247130
1280.933412,-5699.585753,-536.266849,518.144159
1280.933723,-5773.606348,-1838.629195,-0.000000
1280.934035,-7179.997637,-1225.752797,-296.082377
1280.934346,-8586.388927,-766.095498,-0.000000
1280.934657,-9622.677246,-153.219100,444.123565
1280.934969,-10510.924376,-612.876398,814.226536
1280.935280,-9918.759623,-1608.800546,888.247130
1280.935591,-9104.533087,-2145.067394,1480.411884
1280.935903,-8438.347739,-1378.971896,1332.370696
1280.936214,-7994.224174,-306.438199,962.267725
1280.936525,-8586.388927,-612.876398,740.205942
1280.936837,-9548.656652,-689.485948,222.061783
1280.937148,-9474.636058,229.828649,-148.041188
1280.937459,-9844.739029,842.705048,-370.102971
1280.937771,-9326.594869,1149.143247,-0.000000
1280.938082,-9252.574275,612.876398,666.185348
1280.938393,-8660.409521,-306.438199,518.144159
1280.938705,-7846.182985,-459.657299,444.123565
1280.939016,-7031.956449,-383.047749,1036.288319
1280.939327,-7772.162391,-536.266849,814.226536
1280.939639,-8586.388927,-1072.533697,666.185348
1280.939950,-9696.697840,-919.314598,-0.000000
1280.940261,-11103.089130,383.047749,-0.000000
1280.940573,-12065.356855,2145.067394,-0.000000
1280.940884,-11917.315666,1378.971896,-444.123565
1280.941195,-10658.965565,1838.629195,-370.102971
1280.941507,-9326.594869,766.095498,-74.020594
1280.941818,-7402.059420,1072.533697,-148.041188
1280.942129,-6069.688724,919.314598,-0.000000
1280.942441,-5551.544565,0.000000,370.102971
1280.942752,-6957.935855,-1532.190996,888.247130
1280.943063,-8142.265362,-1225.752797,1184.329507
1280.943375,-9770.718434,689.485948,888.247130
1280.943686,-10955.047942,536.266849,814.226536
1280.943997,-11917.315666,995.924147,1332.370696
1280.944309,-11769.274478,766.095498,370.102971
1280.944620,-9770.718434,306.438199,-0.000000
1280.944931,-7550.100608,536.266849,-74.020594
1280.945243,-5995.668130,229.828649,-0.000000
1280.945554,-5625.565159,-919.314598,518.144159
1280.945865,-6439.791695,-2528.115143,592.164754
1280.946177,-7105.977043,-2604.724693,1332.370696
1280.946488,-8068.244768,-1149.143247,1554.432478
1280.946799,-9178.553681,-459.657299,1184.329507
1280.947111,-9992.780217,-766.095498,888.247130
1280.947422,-9696.697840,-1225.752797,740.205942
1280.947734,-8808.450710,-1302.362347,814.226536
1280.948045,-8216.285956,0.000000,740.205942
1280.948356,-8808.450710,-459.657299,-0.000000
1280.948668,-8882.471304,-1302.362347,-148.041188
1280.948979,-9178.553681,-1455.581446,518.144159
1280.949290,-9770.718434,0.000000,370.102971
1280.949602,-10584.944971,1378.971896,370.102971
1280.949913,-10362.883188,2451.505594,518.144159
1280.950224,-9918.759623,2068.457845,444.123565
1280.950536,-9178.553681,459.657299,370.102971
1280.950847,-7402.059420,1225.752797,296.082377
1280.951158,-7105.977043,536.266849,444.123565
1280.951470,-7031.956449,-306.438199,-0.000000
1280.951781,-8660.409521,-689.485948,-148.041188
1280.952092,-10214.842000,-383.047749,-222.061783
1280.952404,-11251.130318,0.000000,74.020594
1280.952715,-12287.418637,612.876398,-0.000000
1280.953026,-11843.295072,1302.362347,296.082377
1280.953338,-10510.924376,1149.143247,-74.020594
1280.953649,-9252.574275,995.924147,814.226536
1280.953960,-7328.038826,536.266849,1036.288319
1280.954272,-6143.709319,766.095498,1332.370696
1280.954583,-5847.626942,536.266849,1332.370696
1280.954894,-7105.977043,76.609550,592.164754
1280.955206,-8142.265362,229.828649,222.061783
1280.955517,-9400.615463,1532.190996,-296.082377
1280.955828,-10658.965565,2528.115143,-148.041188
1280.956140,-10436.903782,1838.629195,222.061783
1280.956451,-10510.924376,612.876398,148.041188
1280.956762,-8882.471304,536.266849,962.267725
1280.957074,-6513.812290,229.828649,1332.370696
1280.957385,-5921.647536,-459.657299,1628.453072
1280.957696,-5921.647536,-842.705048,1036.288319
1280.958008,-6735.874072,-1455.581446,962.267725
1280.958319,-7624.121203,-842.705048,296.082377
1280.958630,-8956.491898,229.828649,370.102971
1280.958942,-10362.883188,76.609550,296.082377
1280.959253,-11029.068536,-459.657299,296.082377
1280.959564,-9918.759623,-842.705048,444.123565
1280.959876,-9178.553681,-1608.800546,-0.000000
1280.960187,-8216.285956,-1532.190996,888.247130
1280.960498,-8586.388927,-1685.410096,518.144159
1280.960810,-8956.491898,-2068.457845,1184.329507
1280.961121,-9104.533087,-1378.971896,1036.288319
1280.961432,-9770.718434,76.609550,740.205942
1280.961744,-10214.842000,1302.362347,814.226536
1280.962055,-10140.821405,1455.581446,888.247130
1280.962366,-9252.574275,459.657299,370.102971
1280.962678,-8068.244768,459.657299,370.102971
1280.962989,-7402.059420,0.000000,222.061783
1280.963300,-7698.141797,-536.266849,-222.061783
1280.963612,-8364.327145,-689.485948,-518.144159
1280.963923,-8882.471304,-612.876398,-148.041188
1280.964234,-10140.821405,-766.095498,-222.061783
1280.964546,-11399.171507,-612.876398,-0.000000
1280.964857,-11917.315666,-229.828649,518.144159
1280.965168,-11103.089130,459.657299,814.226536
1280.965480,-10362.883188,0.000000,814.226536
1280.965791,-9178.553681,612.876398,888.247130
1280.966102,-7920.203579,459.657299,666.185348
1280.966414,-6587.832884,153.219100,814.226536
1280.966725,-6291.750507,-383.047749,296.082377
1280.967036,-6883.915261,-766.095498,222.061783
1280.967348,-7772.162391,0.000000,-0.000000
1280.967659,-9622.677246,459.657299,666.185348
1280.967970,-10658.965565,1302.362347,518.144159
1280.968282,-10955.047942,1378.971896,740.205942
1280.968593,-10288.862594,1225.752797,1036.288319
1280.968904,-8808.450710,1608.800546,1036.288319
1280.969216,-7254.018232,1838.629195,962.267725
1280.969527,-5847.626942,229.828649,888.247130
1280.969838,-5699.585753,-383.047749,888.247130
1280.970150,-5847.626942,-1149.143247,1036.288319
1280.970461,-7624.121203,-1149.143247,444.123565
1280.970772,-8438.347739,-459.657299,296.082377
1280.971084,-9252.574275,0.000000,222.061783
1280.971395,-10214.842000,-842.705048,-0.000000
1280.971706,-10288.862594,-1225.752797,666.185348
1280.972018,-9252.574275,-766.095498,1184.329507
1280.972329,-8438.347739,0.000000,814.226536
1280.972640,-8142.265362,-306.438199,814.226536
1280.972952,-8438.347739,-1149.143247,888.247130
1280.973263,-8512.368333,-766.095498,1184.329507
1280.973574,-9178.553681,0.000000,1184.329507
1280.973886,-9622.677246,612.876398,888.247130
1280.974197,-9622.677246,995.924147,1110.308913
1280.974508,-10584.944971,536.266849,148.041188
1280.974820,-9178.553681,0.000000,666.185348
1280.975131,-7328.038826,0.000000,-0.000000
1280.975442,-7179.997637,-383.047749,-0.000000
1280.975754,-7624.121203,-919.314598,-222.061783
1280.976065,-8734.430116,-1991.848295,-74.020594
1280.976376,-10066.800811,-1378.971896,222.061783
1280.976688,-11251.130318,-459.657299,444.123565
1280.976999,-11769.274478,306.438199,814.226536
1280.977310,-12139.377449,0.000000,814.226536
1280.977622,-10658.965565,-995.924147,962.267725
1280.977933,-8734.430116,-383.047749,222.061783
1280.978244,-7105.977043,-306.438199,-0.000000
1280.978556,-6217.729913,-459.657299,370.102971
1280.978867,-6957.935855,-1302.362347,-74.020594
1280.979178,-7994.224174,-1762.019645,148.041188
1280.979490,-8956.491898,-612.876398,-0.000000
1280.979801,-10881.027347,459.657299,-0.000000
1280.980112,-11843.295072,1455.581446,740.205942
1280.980424,-11843.295072,995.924147,814.226536
1280.980735,-10658.965565,766.095498,148.041188
1280.981046,-8364.327145,1072.533697,-0.000000
1280.981358,-6809.894666,919.314598,-148.041188
1280.981669,-6513.812290,383.047749,-74.020594
1280.981980,-6291.750507,-842.705048,222.061783
1280.982292,-7476.080014,-612.876398,444.123565
1280.982603,-8364.327145,-1225.752797,592.164754
1280.982914,-9104.533087,-306.438199,814.226536
1280.983226,-10066.800811,0.000000,370.102971
1280.983537,-10807.006753,-459.657299,148.041188
1280.983848,-9252.574275,-383.047749,-0.000000
1280.984160,-8956.491898,0.000000,-222.061783
1280.984471,-8882.471304,766.095498,-0.000000
1280.984782,-8438.347739,0.000000,518.144159
1280.985094,-8586.388927,-1072.533697,962.267725
1280.985405,-8290.306550,-995.924147,962.267725
1280.985716,-8734.430116,0.000000,814.226536
1280.986028,-9178.553681,1072.533697,888.247130
1280.986339,-9030.512492,689.485948,1258.350101
1280.986650,-8882.471304,0.000000,666.185348
1280.986962,-7772.162391,-306.438199,962.267725
1280.987273,-6809.894666,-153.219100,666.185348
1280.987584,-6809.894666,-306.438199,888.247130
1280.987896,-7550.100608,-995.924147,666.185348
1280.988207,-9252.574275,-1455.581446,740.205942
1280.988518,-10584.944971,-1685.410096,666.185348
1280.988830,-11473.192101,76.609550,666.185348
1280.989141,-12361.439231,995.924147,444.123565
1280.989452,-11843.295072,1225.752797,518.144159
1280.989764,-10658.965565,383.047749,962.267725
1280.990075,-8364.327145,-306.438199,1184.329507
1280.990386,-6661.853478,-459.657299,814.226536
1280.990698,-5625.565159,229.828649,666.185348
1280.991009,-5921.647536,229.828649,592.164754
1280.991320,-7624.121203,-919.314598,222.061783
1280.991632,-8882.471304,-536.266849,296.082377
1280.991943,-10140.821405,995.924147,222.061783
1280.992254,-11843.295072,1991.848295,518.144159
1280.992566,-12435.459826,1532.190996,666.185348
1280.992877,-11843.295072,1072.533697,444.123565
1280.993188,-9770.718434,1149.143247,444.123565
1280.993500,-7402.059420,766.095498,592.164754
1280.993811,-5477.523971,153.219100,370.102971
1280.994122,-5847.626942,-919.314598,740.205942
1280.994434,-6439.791695,-2834.553343,888.247130
1280.994745,-8068.244768,-1532.190996,592.164754
1280.995056,-9400.615463,0.000000,-0.000000
1280.995368,-10807.006753,842.705048,-0.000000
1280.995679,-11473.192101,76.609550,296.082377
1280.995990,-9992.780217,-1532.190996,-0.000000
1280.996302,-9030.512492,-1838.629195,518.144159
1280.996613,-8364.327145,-1608.800546,740.205942
1280.996924,-7550.100608,-1685.410096,592.164754
1280.997236,-8068.244768,-1532.190996,1036.288319
1280.997547,-8512.368333,-1685.410096,666.185348
1280.997858,-9030.512492,-919.314598,888.247130
1280.998170,-8586.388927,995.924147,370.102971
1280.998481,-8586.388927,1225.752797,222.061783
1280.998792,-8660.409521,766.095498,-444.123565
1280.999104,-7994.224174,0.000000,222.061783
1280.999415,-7550.100608,-459.657299,370.102971
1280.999726,-7550.100608,-229.828649,444.123565
1281.000038,-8586.388927,-1072.533697,-0.000000
1281.000349,-9104.533087,-1455.581446,296.082377
1281.000664,-10362.883188,-1915.238745,-0.000000
1281.000976,-11251.130318,-1072.533697,222.061783
1281.001287,-11843.295072,459.657299,222.061783
1281.001598,-11621.233289,689.485948,962.267725
1281.001909,-10584.944971,306.438199,1110.308913
1281.002221,-8882.471304,-612.876398,740.205942
1281.002532,-7254.018232,-383.047749,666.185348
1281.002843,-5773.606348,229.828649,444.123565
1281.003154,-5551.544565,-153.219100,-0.000000
1281.003466,-7254.018232,-766.095498,-148.041188
1281.003777,-9178.553681,-766.095498,-0.000000
1281.004088,-11399.171507,383.047749,-0.000000
1281.004399,-12731.542202,995.924147,1258.350101
1281.004710,-12879.583391,995.924147,1110.308913
1281.005022,-11473.192101,1149.143247,1036.288319
1281.005333,-8512.368333,842.705048,962.267725
1281.005644,-6513.812290,383.047749,740.205942
1281.005955,-5329.482782,76.609550,1258.350101
1281.006267,-4737.318029,-842.705048,1110.308913
1281.006578,-6143.709319,-1149.143247,148.041188
1281.006889,-7994.224174,0.000000,-0.000000
1281.007200,-9474.636058,995.924147,-74.020594
1281.007512,-10658.965565,842.705048,-0.000000
1281.007823,-11177.109724,76.609550,148.041188
1281.008134,-10140.821405,0.000000,666.185348
1281.008445,-9474.636058,229.828649,814.226536
1281.008757,-8290.306550,153.219100,1036.288319
1281.009068,-7476.080014,-842.705048,888.247130
1281.009379,-7328.038826,-1838.629195,1258.350101
1281.009690,-7105.977043,-1149.143247,1406.391290
1281.010002,-7624.121203,76.609550,814.226536
1281.010313,-8660.409521,1225.752797,-0.000000
1281.010624,-9400.615463,1072.533697,592.164754
1281.010935,-8882.471304,0.000000,-0.000000
1281.011247,-8660.409521,-536.266849,-0.000000
1281.011558,-7994.224174,-153.219100,-0.000000
1281.011869,-8142.265362,-612.876398,-0.000000
1281.012180,-9178.553681,-1532.190996,296.082377
1281.012492,-9622.677246,-2221.676944,666.185348
1281.012803,-10807.006753,-689.485948,740.205942
1281.013114,-11029.068536,76.609550,962.267725
1281.013425,-10881.027347,1072.533697,296.082377
1281.013736,-10288.862594,1455.581446,148.041188
1281.014048,-9474.636058,1149.143247,-148.041188
1281.014359,-7846.182985,612.876398,-296.082377
1281.014670,-6809.894666,995.924147,-74.020594
1281.014981,-6291.750507,689.485948,-0.000000
1281.015293,-7476.080014,459.657299,-148.041188
1281.015604,-8438.347739,-306.438199,-0.000000
1281.015915,-10732.986159,383.047749,-444.123565
1281.016226,-11769.274478,1762.019645,222.061783
1281.016538,-11769.274478,1455.581446,592.164754
1281.016849,-11621.233289,1225.752797,888.247130
1281.017160,-10658.965565,766.095498,1258.350101
1281.017471,-8660.409521,842.705048,1554.432478
1281.017783,-6365.771101,0.000000,1036.288319
1281.018094,-5181.441594,-842.705048,962.267725
1281.018405,-5255.462188,-1149.143247,148.041188
1281.018716,-6439.791695,-1302.362347,-518.144159
1281.019028,-8956.491898,-612.876398,-666.185348
1281.019339,-10214.842000,306.438199,-296.082377
1281.019650,-11029.068536,1378.971896,296.082377
1281.019961,-11695.253884,306.438199,592.164754
1281.020273,-10066.800811,-153.219100,1702.473667
1281.020584,-9104.533087,-995.924147,1406.391290
1281.020895,-7846.182985,0.000000,1332.370696
1281.021206,-6143.709319,76.609550,1184.329507
1281.021518,-6809.894666,-536.266849,222.061783
1281.021829,-7920.203579,-459.657299,370.102971
1281.022140,-8142.265362,76.609550,296.082377
1281.022451,-9104.533087,306.438199,-0.000000
1281.022762,-9400.615463,536.266849,444.123565
1281.023074,-9992.780217,-229.828649,592.164754
1281.023385,-9474.636058,-536.266849,1258.350101
1281.023696,-8216.285956,-689.485948,1110.308913
1281.024007,-8216.285956,-1532.190996,1036.288319
1281.024319,-7920.203579,-1302.362347,740.205942
1281.024630,-8956.491898,-919.314598,666.185348
1281.024941,-10288.862594,-612.876398,1036.288319
1281.025252,-10658.965565,689.485948,740.205942
1281.025564,-10584.944971,1225.752797,1036.288319
1281.025875,-10658.965565,536.266849,666.185348
1281.026186,-9696.697840,0.000000,444.123565
1281.026497,-8068.244768,459.657299,-74.020594
1281.026809,-6735.874072,919.314598,-0.000000
1281.027120,-6069.688724,76.609550,-222.061783
1281.027431,-6661.853478,-536.266849,-74.020594
1281.027742,-9030.512492,-919.314598,-0.000000
1281.028054,-10436.903782,0.000000,740.205942
1281.028365,-11695.253884,1225.752797,1036.288319
1281.028676,-12361.439231,1762.019645,1628.453072
1281.028987,-11547.212695,1302.362347,1480.411884
1281.029299,-9696.697840,383.047749,1184.329507
1281.029610,-7179.997637,229.828649,1110.308913
1281.029921,-5033.400406,0.000000,444.123565
1281.030232,-5477.523971,0.000000,-0.000000
1281.030544,-6291.750507,-1302.362347,-592.164754
1281.030855,-7550.100608,-1378.971896,-518.144159
1281.031166,-9326.594869,-459.657299,-0.000000
1281.031477,-10362.883188,0.000000,592.164754
1281.031788,-11621.233289,0.000000,962.267725
1281.032100,-10955.047942,0.000000,962.267725
1281.032411,-9548.656652,0.000000,592.164754
1281.032722,-8808.450710,842.705048,814.226536
1281.033033,-7105.977043,842.705048,740.205942
1281.033345,-6661.853478,-459.657299,-0.000000
1281.033656,-6513.812290,-842.705048,666.185348
1281.033967,-7254.018232,-1149.143247,296.082377
1281.034278,-9104.533087,-306.438199,370.102971
1281.034590,-10436.903782,995.924147,740.205942
1281.034901,-10584.944971,153.219100,1184.329507
1281.035212,-9844.739029,-1149.143247,888.247130
1281.035523,-9474.636058,-612.876398,296.082377
1281.035835,-8660.409521,0.000000,370.102971
1281.036146,-8142.265362,-536.266849,-0.000000
1281.036457,-8290.306550,-995.924147,222.061783
1281.036768,-8808.450710,-842.705048,518.144159
1281.037080,-9474.636058,-612.876398,814.226536
1281.037391,-10510.924376,-229.828649,888.247130
1281.037702,-10066.800811,-459.657299,962.267725
1281.038013,-10362.883188,-459.657299,666.185348
1281.038325,-9030.512492,-1072.533697,666.185348
1281.038636,-7920.203579,-689.485948,-74.020594
1281.038947,-7402.059420,-229.828649,-0.000000
1281.039258,-7031.956449,-383.047749,-296.082377
1281.039570,-7994.224174,-612.876398,222.061783
1281.039881,-9474.636058,-842.705048,-0.000000
1281.040192,-10362.883188,229.828649,296.082377
1281.040503,-11177.109724,1685.410096,592.164754
1281.040814,-10955.047942,2451.505594,1036.288319
1281.041126,-10510.924376,1225.752797,1258.350101
1281.041437,-9030.512492,536.266849,592.164754
1281.041748,-6661.853478,1302.362347,444.123565
1281.042059,-4959.379811,1302.362347,-74.020594
1281.042371,-5847.626942,-153.219100,-222.061783
1281.042682,-7624.121203,-1302.362347,-222.061783
1281.042993,-8956.491898,-1991.848295,-296.082377
1281.043304,-10066.800811,-459.657299,-0.000000
1281.043616,-10732.986159,612.876398,222.061783
1281.043927,-11843.295072,306.438199,148.041188
1281.044238,-11177.109724,0.000000,296.082377
1281.044549,-9474.636058,536.266849,518.144159
1281.044861,-7994.224174,919.314598,592.164754
1281.045172,-6957.935855,612.876398,666.185348
1281.045483,-6587.832884,0.000000,592.164754
1281.045794,-7179.997637,-1378.971896,518.144159
1281.046106,-7994.224174,-1302.362347,518.144159
1281.046417,-9548.656652,-229.828649,296.082377
1281.046728,-10140.821405,1149.143247,888.247130
1281.047039,-9844.739029,76.609550,888.247130
1281.047351,-10214.842000,-612.876398,518.144159
1281.047662,-9030.512492,-689.485948,888.247130
1281.047973,-8216.285956,459.657299,518.144159
1281.048284,-7328.038826,842.705048,444.123565
1281.048596,-7550.100608,612.876398,370.102971
1281.048907,-8660.409521,306.438199,-0.000000
1281.049218,-9548.656652,842.705048,-222.061783
1281.049529,-9474.636058,1072.533697,666.185348
1281.049841,-10288.862594,1149.143247,592.164754
1281.050152,-9400.615463,0.000000,222.061783
1281.050463,-8734.430116,-995.924147,-0.000000
1281.050774,-8290.306550,-1685.410096,222.061783
1281.051085,-7328.038826,-995.924147,518.144159
1281.051397,-7179.997637,-995.924147,740.205942
1281.051708,-7772.162391,-1991.848295,888.247130
1281.052019,-8808.450710,-1915.238745,1036.288319
1281.052330,-10584.944971,-306.438199,814.226536
1281.052642,-11399.171507,1378.971896,1110.308913
1281.052953,-10955.047942,2451.505594,1628.453072
1281.053264,-10140.821405,1072.533697,1406.391290
1281.053575,-9178.553681,0.000000,1406.391290
1281.053887,-7476.080014,-536.266849,814.226536
1281.054198,-5921.647536,-306.438199,1110.308913
1281.054509,-6291.750507,-1225.752797,592.164754
1281.054820,-7772.162391,-2068.457845,444.123565
1281.055132,-8438.347739,-1302.362347,962.267725
1281.055443,-9326.594869,383.047749,-0.000000
1281.055754,-10288.862594,995.924147,370.102971
1281.056065,-10658.965565,766.095498,444.123565
1281.056377,-10140.821405,76.609550,74.020594
1281.056688,-8660.409521,995.924147,740.205942
1281.056999,-7624.121203,383.047749,370.102971
1281.057310,-6513.812290,76.609550,1036.288319
1281.057622,-6661.853478,-842.705048,1036.288319
1281.057933,-7698.141797,-1991.848295,888.247130
1281.058244,-8660.409521,-1378.971896,592.164754
1281.058555,-10584.944971,76.609550,666.185348
1281.058867,-11473.192101,1608.800546,1258.350101
1281.059178,-10955.047942,153.219100,740.205942
1281.059489,-9474.636058,-459.657299,444.123565
1281.059800,-8142.265362,229.828649,296.082377
1281.060111,-7105.977043,76.609550,-74.020594
1281.060423,-6661.853478,0.000000,148.041188
1281.060734,-7254.018232,-536.266849,888.247130
1281.061045,-8734.430116,-1455.581446,1110.308913
1281.061356,-9178.553681,-1149.143247,1110.308913
1281.061668,-10140.821405,0.000000,888.247130
1281.061979,-10362.883188,459.657299,370.102971
1281.062290,-10214.842000,0.000000,-0.000000
1281.062601,-9178.553681,-766.095498,-74.020594
1281.062913,-7698.141797,-229.828649,-296.082377
1281.063224,-7105.977043,0.000000,-444.123565
1281.063535,-6587.832884,-306.438199,-444.123565
1281.063846,-6735.874072,-229.828649,-148.041188
1281.064158,-8660.409521,-842.705048,-0.000000
1281.064469,-10214.842000,0.000000,814.226536
1281.064780,-12139.377449,995.924147,1184.329507
1281.065091,-12361.439231,1455.581446,2072.576638
1281.065403,-11769.274478,306.438199,1998.556043
1281.065714,-9918.759623,-842.705048,1628.453072
1281.066025,-6883.915261,-842.705048,1258.350101
1281.066336,-5477.523971,-1072.533697,-222.061783
1281.066648,-5255.462188,-1072.533697,-666.185348
1281.066959,-6957.935855,-1455.581446,-1184.329507
1281.067270,-9178.553681,-536.266849,-1554.432478
1281.067581,-10066.800811,689.485948,-740.205942
1281.067893,-11695.253884,536.266849,-0.000000
1281.068204,-11843.295072,459.657299,888.247130
1281.068515,-11547.212695,0.000000,370.102971
1281.068826,-9104.533087,0.000000,1332.370696
1281.069137,-7179.997637,-229.828649,518.144159
1281.069449,-6587.832884,-306.438199,740.205942
1281.069760,-6883.915261,-1225.752797,592.164754
1281.070071,-7550.100608,-2451.505594,814.226536
1281.070382,-8660.409521,-1455.581446,666.185348
1281.070694,-10584.944971,76.609550,814.226536
1281.071005,-10807.006753,1225.752797,444.123565
1281.071316,-11843.295072,229.828649,370.102971
1281.071627,-10510.924376,0.000000,148.041188
1281.071939,-7698.141797,1225.752797,296.082377
1281.072250,-7105.977043,1532.190996,-222.061783
1281.072561,-6735.874072,689.485948,296.082377
1281.072872,-7476.080014,-153.219100,740.205942
1281.073184,-8586.388927,-383.047749,1406.391290
1281.073495,-8438.347739,153.219100,1850.514855
1281.073806,-9178.553681,153.219100,962.267725
1281.074117,-10066.800811,612.876398,518.144159
1281.074429,-10066.800811,612.876398,-222.061783
1281.074740,-8290.306550,842.705048,-1036.288319
1281.075051,-8438.347739,995.924147,-1184.329507
1281.075362,-6957.935855,1302.362347,-74.020594
1281.075674,-7179.997637,229.828649,-148.041188
1281.075985,-7994.224174,-1455.581446,888.247130
1281.076296,-8364.327145,-1378.971896,1702.473667
1281.076607,-10955.047942,0.000000,1184.329507
1281.076919,-11917.315666,1762.019645,1332.370696
1281.077230,-11251.130318,1991.848295,1776.494261
1281.077541,-10140.821405,459.657299,1554.432478
1281.077852,-8808.450710,76.609550,1036.288319
1281.078163,-7550.100608,919.314598,370.102971
1281.078475,-5255.462188,536.266849,-0.000000
1281.078786,-5921.647536,-919.314598,-666.185348
1281.079097,-7402.059420,-1762.019645,-222.061783
1281.079408,-8438.347739,-1302.362347,-444.123565
1281.079720,-10288.862594,76.609550,-74.020594
1281.080031,-11473.192101,1225.752797,666.185348
1281.080342,-11695.253884,766.095498,888.247130
1281.080653,-9992.780217,306.438199,1110.308913
1281.080965,-8956.491898,-995.924147,1036.288319
1281.081276,-7550.100608,-1149.143247,1110.308913
1281.081587,-6217.729913,-612.876398,740.205942
1281.081898,-6957.935855,-1685.410096,666.185348
1281.082210,-7698.141797,-2757.943793,444.123565
1281.082521,-9178.553681,-1762.019645,370.102971
1281.082832,-11547.212695,0.000000,444.123565
1281.083143,-11399.171507,842.705048,814.226536
1281.083455,-11325.150913,76.609550,444.123565
1281.083766,-10955.047942,-612.876398,222.061783
1281.084077,-8734.430116,1072.533697,814.226536
1281.084388,-7105.977043,536.266849,518.144159
1281.084700,-6513.812290,-459.657299,592.164754
1281.085011,-7105.977043,-995.924147,888.247130
1281.085322,-7772.162391,-766.095498,814.226536
1281.085633,-8882.471304,-689.485948,592.164754
1281.085945,-9992.780217,-229.828649,518.144159
1281.086256,-10510.924376,0.000000,-74.020594
1281.086567,-10288.862594,0.000000,-444.123565
1281.086878,-9474.636058,-383.047749,-296.082377
1281.087189,-8660.409521,0.000000,-148.041188
1281.087501,-7994.224174,689.485948,666.185348
1281.087812,-7624.121203,459.657299,1110.308913
1281.088123,-7772.162391,-306.438199,1110.308913
1281.088434,-8438.347739,-536.266849,1332.370696
1281.088746,-10214.842000,919.314598,814.226536
1281.089057,-10584.944971,2221.676944,1184.329507
1281.089368,-10584.944971,2221.676944,592.164754
1281.089679,-9918.759623,1685.410096,592.164754
1281.089991,-8068.244768,1072.533697,222.061783
1281.090302,-7105.977043,919.314598,-74.020594
1281.090613,-6291.750507,0.000000,222.061783
1281.090924,-6513.812290,-766.095498,-222.061783
1281.091236,-7624.121203,-1302.362347,444.123565
1281.091547,-8438.347739,-689.485948,-0.000000
1281.091858,-9622.677246,536.266849,-0.000000
1281.092169,-10658.965565,1225.752797,444.123565
1281.092481,-10658.965565,1072.533697,1110.308913
1281.092792,-9918.759623,766.095498,1110.308913
1281.093103,-8364.327145,-153.219100,1110.308913
1281.093414,-7402.059420,-459.657299,1258.350101
1281.093726,-6143.709319,-1608.800546,814.226536
1281.094037,-6809.894666,-1915.238745,814.226536
1281.094348,-7772.162391,-2374.896044,370.102971
1281.094659,-9474.636058,-1532.190996,-0.000000
1281.094971,-11547.212695,0.000000,-0.000000
1281.095282,-11399.171507,1149.143247,518.144159
1281.095593,-11103.089130,306.438199,740.205942
1281.095904,-9474.636058,-459.657299,1702.473667
1281.096215,-7846.182985,-919.314598,1406.391290
1281.096527,-6735.874072,-306.438199,962.267725
1281.096838,-6143.709319,-612.876398,518.144159
1281.097149,-7105.977043,-1149.143247,666.185348
1281.097460,-8142.265362,-995.924147,370.102971
1281.097772,-9030.512492,-306.438199,-0.000000
1281.098083,-9770.718434,306.438199,-148.041188
1281.098394,-10807.006753,0.000000,148.041188
1281.098705,-10584.944971,-612.876398,370.102971
1281.099017,-10214.842000,-1302.362347,-296.082377
1281.099328,-9770.718434,-842.705048,-74.020594
1281.099639,-9104.533087,536.266849,-222.061783
1281.099950,-8660.409521,536.266849,-370.102971
1281.100262,-8438.347739,-153.219100,592.164754
1281.100573,-9474.636058,-536.266849,962.267725
1281.100884,-9474.636058,459.657299,1480.411884
1281.101195,-9918.759623,1762.019645,1110.308913
1281.101507,-10288.862594,1915.238745,1036.288319
1281.101818,-9622.677246,1608.800546,814.226536
1281.102129,-8512.368333,1225.752797,-222.061783
1281.102440,-7031.956449,1608.800546,-1184.329507
1281.102752,-6217.729913,1378.971896,-814.226536
1281.103063,-7698.141797,0.000000,-1036.288319
1281.103374,-8734.430116,-842.705048,-444.123565
1281.103686,-9918.759623,-919.314598,-0.000000
1281.103997,-10807.006753,612.876398,370.102971
1281.104309,-10881.027347,1838.629195,444.123565
1281.104620,-10214.842000,1532.190996,666.185348
1281.104932,-8438.347739,919.314598,1184.329507
1281.105243,-6809.894666,76.609550,1258.350101
1281.105554,-6143.709319,0.000000,1184.329507
1281.105866,-6143.709319,0.000000,1110.308913
1281.106177,-7105.977043,-995.924147,370.102971
1281.106489,-7920.203579,-2068.457845,370.102971
1281.106800,-9252.574275,-1072.533697,-0.000000
1281.107112,-11029.068536,383.047749,-0.000000
1281.107423,-11473.192101,1225.752797,888.247130
1281.107735,-11325.150913,612.876398,1406.391290
1281.108046,-10584.944971,459.657299,1480.411884
1281.108358,-8512.368333,689.485948,962.267725
1281.108669,-7105.977043,919.314598,1184.329507
1281.108981,-5773.606348,612.876398,1036.288319
1281.109292,-5773.606348,0.000000,740.205942
1281.109603,-6735.874072,-689.485948,518.144159
1281.109915,-8586.388927,-689.485948,444.123565
1281.110226,-10362.883188,-995.924147,370.102971
1281.110538,-11621.233289,-459.657299,666.185348
1281.110849,-11103.089130,-1685.410096,-0.000000
1281.111161,-10881.027347,-1608.800546,222.061783
1281.111472,-10140.821405,-1225.752797,-0.000000
1281.111784,-8956.491898,-536.266849,296.082377
1281.112095,-8512.368333,-1149.143247,1258.350101
1281.112407,-8586.388927,-1149.143247,1258.350101
1281.112718,-8586.388927,-306.438199,2368.659014
1281.113029,-9326.594869,0.000000,1998.556043
1281.113341,-9918.759623,1532.190996,1850.514855
1281.113652,-9548.656652,1302.362347,1110.308913
1281.113964,-9030.512492,536.266849,148.041188
1281.114275,-7994.224174,153.219100,-148.041188
1281.114587,-8068.244768,306.438199,-518.144159
1281.114898,-7402.059420,383.047749,-0.000000
1281.115210,-8068.244768,-536.266849,-370.102971
1281.115521,-8068.244768,-1685.410096,-0.000000
1281.115833,-9252.574275,-766.095498,518.144159
1281.116144,-9622.677246,0.000000,518.144159
1281.116456,-9992.780217,919.314598,444.123565
1281.116767,-10214.842000,1378.971896,222.061783
1281.117078,-8956.491898,1378.971896,814.226536
1281.117390,-7476.080014,306.438199,-0.000000
1281.117701,-6587.832884,-229.828649,1036.288319
1281.118013,-6365.771101,-689.485948,592.164754
1281.118324,-7402.059420,-2221.676944,592.164754
1281.118636,-8882.471304,-2451.505594,222.061783
1281.118947,-10584.944971,-766.095498,-0.000000
1281.119259,-11843.295072,995.924147,-0.000000
1281.119570,-11843.295072,1302.362347,-74.020594
1281.119882,-11399.171507,2451.505594,-148.041188
1281.120193,-9400.615463,2145.067394,222.061783
1281.120505,-7624.121203,1685.410096,518.144159
1281.120816,-6217.729913,1072.533697,814.226536
1281.121127,-5625.565159,-229.828649,1110.308913
1281.121439,-6143.709319,-1455.581446,592.164754
1281.121750,-7402.059420,-1762.019645,222.061783
1281.122062,-9178.553681,-1149.143247,-0.000000
1281.122373,-10362.883188,-306.438199,-74.020594
1281.122685,-11103.089130,-1072.533697,-0.000000
1281.122996,-11029.068536,-1915.238745,740.205942
1281.123308,-11029.068536,-2221.676944,592.164754
1281.123619,-10066.800811,-1532.190996,740.205942
1281.123931,-8364.327145,-383.047749,814.226536
1281.124242,-7994.224174,-689.485948,814.226536
1281.124553,-7179.997637,-229.828649,1998.556043
1281.124865,-8142.265362,-995.924147,1480.411884
1281.125176,-8808.450710,-536.266849,1480.411884
1281.125488,-9104.533087,153.219100,1406.391290
1281.125799,-9696.697840,153.219100,1406.391290
1281.126111,-9474.636058,-766.095498,1036.288319
1281.126422,-9178.553681,-1608.800546,-0.000000
1281.126734,-7846.182985,-1225.752797,-296.082377
1281.127045,-7624.121203,-612.876398,-592.164754
1281.127357,-7994.224174,-1225.752797,-222.061783
1281.127668,-8882.471304,-1532.190996,-74.020594
1281.127980,-9548.656652,-612.876398,222.061783
1281.128291,-9474.636058,1149.143247,296.082377
1281.128602,-9474.636058,1532.190996,814.226536
1281.128914,-9548.656652,1455.581446,222.061783
1281.129225,-8438.347739,306.438199,444.123565
1281.129537,-7846.182985,-1072.533697,-0.000000
1281.129848,-6883.915261,-612.876398,1110.308913
1281.130160,-7476.080014,-766.095498,518.144159
1281.130471,-8808.450710,-2604.724693,666.185348
1281.130783,-10214.842000,-2911.162892,296.082377
1281.131094,-11547.212695,-842.705048,-0.000000
1281.131406,-12065.356855,1762.019645,148.041188
1281.131717,-11991.336260,2681.334243,-0.000000
1281.132028,-11103.089130,3140.991542,-0.000000
1281.132340,-9252.574275,1838.629195,296.082377
1281.132651,-6735.874072,2604.724693,370.102971
1281.132963,-5625.565159,1991.848295,222.061783
1281.133274,-5181.441594,919.314598,592.164754
1281.133586,-6365.771101,-229.828649,-0.000000
1281.133897,-7994.224174,-229.828649,148.041188
1281.134209,-9474.636058,459.657299,-0.000000
1281.134520,-11473.192101,689.485948,-0.000000
1281.134832,-12065.356855,842.705048,148.041188
1281.135143,-11325.150913,-229.828649,-148.041188
1281.135455,-9622.677246,-459.657299,296.082377
1281.135766,-8512.368333,-153.219100,-74.020594
1281.136077,-7328.038826,153.219100,-74.020594
1281.136389,-6365.771101,383.047749,666.185348
1281.136700,-7105.977043,-459.657299,962.267725
1281.137012,-8216.285956,-306.438199,1628.453072
1281.137323,-9844.739029,229.828649,1184.329507
1281.137635,-10436.903782,1149.143247,1406.391290
1281.137946,-9992.780217,689.485948,1110.308913
1281.138258,-9178.553681,0.000000,962.267725
1281.138569,-8216.285956,-229.828649,-0.000000
1281.138881,-6957.935855,-306.438199,-296.082377
1281.139192,-6143.709319,-1072.533697,-222.061783
1281.139503,-7105.977043,-1532.190996,-74.020594
1281.139815,-8512.368333,-1378.971896,-0.000000
1281.140126,-10066.800811,-1072.533697,518.144159
1281.140438,-10955.047942,-306.438199,1036.288319
1281.140749,-10955.047942,306.438199,1406.391290
1281.141061,-11251.130318,153.219100,1258.350101
1281.141372,-9178.553681,-1378.971896,1702.473667
1281.141684,-8438.347739,-536.266849,1110.308913
1281.141995,-7772.162391,-689.485948,1924.535449
1281.142307,-7328.038826,-1915.238745,740.205942
1281.142618,-7994.224174,-2451.505594,370.102971
1281.142930,-9400.615463,-2298.286494,296.082377
1281.143241,-11177.109724,-383.047749,-0.000000
1281.143552,-12657.521608,1685.410096,-296.082377
1281.143864,-12879.583391,2145.067394,296.082377
1281.144175,-11621.233289,1991.848295,740.205942
1281.144487,-9696.697840,1685.410096,1036.288319
1281.144798,-7031.956449,1915.238745,1332.370696
1281.145110,-5033.400406,1302.362347,814.226536
1281.145421,-4219.173869,0.000000,740.205942
1281.145733,-5625.565159,-689.485948,1036.288319
1281.146044,-6957.935855,-536.266849,222.061783
1281.146356,-8956.491898,689.485948,222.061783
1281.146667,-10807.006753,995.924147,-0.000000
1281.146979,-11473.192101,459.657299,-148.041188
1281.147290,-10955.047942,229.828649,-222.061783
1281.147601,-9992.780217,306.438199,-0.000000
1281.147913,-8586.388927,229.828649,666.185348
1281.148224,-6957.935855,229.828649,888.247130
1281.148536,-6661.853478,0.000000,1258.350101
1281.148847,-6143.709319,-459.657299,1924.535449
1281.149159,-7031.956449,-766.095498,2368.659014
1281.149470,-8586.388927,306.438199,1554.432478
1281.149782,-9104.533087,1225.752797,1702.473667
1281.150093,-9178.553681,842.705048,814.226536
1281.150405,-8956.491898,0.000000,222.061783
1281.150716,-7772.162391,-383.047749,-148.041188
1281.151027,-7328.038826,0.000000,-962.267725
1281.151339,-7254.018232,536.266849,-518.144159
1281.151650,-8290.306550,-766.095498,-370.102971
1281.151962,-9030.512492,-1378.971896,-0.000000
1281.152273,-10140.821405,-459.657299,666.185348
1281.152585,-10881.027347,459.657299,962.267725
1281.152896,-10732.986159,459.657299,1036.288319
1281.153208,-10658.965565,-229.828649,888.247130
1281.153519,-8586.388927,-1378.971896,888.247130
1281.153831,-7476.080014,-1149.143247,814.226536
1281.154142,-8364.327145,-1762.019645,740.205942
1281.154454,-9104.533087,-1915.238745,148.041188
1281.154765,-9992.780217,-2911.162892,-0.000000
1281.155076,-10584.944971,-2451.505594,-222.061783
1281.155388,-11991.336260,-536.266849,-148.041188
1281.155699,-12361.439231,229.828649,-0.000000
1281.156011,-12065.356855,1225.752797,592.164754
1281.156322,-11843.295072,383.047749,962.267725
1281.156634,-9252.574275,689.485948,666.185348
1281.156945,-7254.018232,689.485948,666.185348
1281.157257,-5625.565159,0.000000,740.205942
1281.157568,-5255.462188,-995.924147,444.123565
1281.157880,-6143.709319,-1455.581446,-74.020594
1281.158191,-6957.935855,-1149.143247,-296.082377
1281.158502,-9548.656652,0.000000,-148.041188
1281.158814,-11251.130318,766.095498,-0.000000
1281.159125,-12065.356855,-383.047749,-0.000000
1281.159437,-11251.130318,-306.438199,-0.000000
1281.159748,-9548.656652,-153.219100,444.123565
1281.160060,-7698.141797,995.924147,296.082377
1281.160371,-6587.832884,612.876398,444.123565
1281.160683,-5995.668130,153.219100,888.247130
1281.160994,-6513.812290,-383.047749,1998.556043
1281.161306,-7254.018232,0.000000,1702.473667
1281.161617,-7994.224174,1149.143247,1332.370696
1281.161929,-9326.594869,1532.190996,1036.288319
1281.162240,-9548.656652,1149.143247,592.164754
1281.162551,-8586.388927,766.095498,-0.000000
1281.162863,-7328.038826,612.876398,-222.061783
1281.163174,-7328.038826,612.876398,-148.041188
1281.163486,-7846.182985,383.047749,-0.000000
1281.163797,-8586.388927,-612.876398,-0.000000
1281.164109,-9474.636058,76.609550,370.102971
1281.164420,-10214.842000,766.095498,740.205942
1281.164732,-10584.944971,1532.190996,888.247130
1281.165043,-10362.883188,1225.752797,666.185348
1281.165355,-9474.636058,689.485948,-0.000000
1281.165666,-7328.038826,383.047749,370.102971
1281.165977,-7105.977043,-306.438199,-0.000000
1281.166289,-7328.038826,0.000000,518.144159
1281.166600,-8216.285956,-1838.629195,666.185348
1281.166912,-9474.636058,-2834.553343,814.226536
1281.167223,-10807.006753,-1915.238745,666.185348
1281.167535,-12435.459826,0.000000,666.185348
1281.167846,-12731.542202,1455.581446,814.226536
1281.168158,-12139.377449,1608.800546,814.226536
1281.168469,-10288.862594,1072.533697,814.226536
1281.168781,-8438.347739,1225.752797,518.144159
1281.169092,-7105.977043,842.705048,814.226536
1281.169404,-5329.482782,229.828649,1332.370696
1281.169715,-5033.400406,-1302.362347,518.144159
1281.170026,-6513.812290,-1991.848295,592.164754
1281.170338,-8438.347739,-1302.362347,148.041188
1281.170649,-10658.965565,-459.657299,-296.082377
1281.170961,-11917.315666,229.828649,-222.061783
1281.171272,-12805.562797,0.000000,-518.144159
1281.171584,-11251.130318,0.000000,296.082377
1281.171895,-10140.821405,-306.438199,518.144159
1281.172207,-8216.285956,0.000000,1184.329507
1281.172518,-6439.791695,76.609550,1480.411884
1281.172830,-5847.626942,-153.219100,1998.556043
1281.173141,-6291.750507,-536.266849,1258.350101
1281.173453,-7031.956449,-536.266849,1184.329507
1281.173764,-8142.265362,919.314598,444.123565
1281.174075,-9252.574275,1072.533697,814.226536
1281.174387,-10362.883188,383.047749,-0.000000
1281.174698,-10214.842000,153.219100,-148.041188
1281.175010,-8808.450710,383.047749,-0.000000
1281.175321,-8660.409521,-153.219100,-222.061783
1281.175633,-7846.182985,-306.438199,222.061783
1281.175944,-8216.285956,-766.095498,666.185348
1281.176256,-8364.327145,0.000000,296.082377
1281.176567,-8586.388927,689.485948,814.226536
1281.176879,-9104.533087,842.705048,592.164754
1281.177190,-9400.615463,612.876398,666.185348
1281.177501,-8216.285956,-689.485948,222.061783
1281.177813,-7402.059420,-766.095498,-0.000000
1281.178124,-7402.059420,383.047749,-592.164754
1281.178436,-8216.285956,-612.876398,-148.041188
1281.178747,-9548.656652,-1838.629195,-0.000000
1281.179059,-11029.068536,-2451.505594,518.144159
1281.179370,-11621.233289,-1378.971896,740.205942
1281.179682,-12361.439231,229.828649,814.226536
1281.179993,-12509.480420,689.485948,666.185348
1281.180305,-11029.068536,995.924147,1258.350101
1281.180616,-8882.471304,1149.143247,518.144159
1281.180928,-6957.935855,766.095498,1036.288319
1281.181239,-5699.585753,689.485948,888.247130
1281.181550,-5107.421000,-459.657299,888.247130
1281.181862,-5699.585753,-1762.019645,444.123565
1281.182173,-7179.997637,-1915.238745,-0.000000
1281.182485,-10140.821405,-1532.190996,-518.144159
1281.182796,-11917.315666,383.047749,-592.164754
1281.183108,-12657.521608,1532.190996,222.061783
1281.183419,-13545.768739,306.438199,296.082377
1281.183731,-11695.253884,0.000000,666.185348
1281.184042,-9844.739029,0.000000,962.267725
1281.184354,-7105.977043,383.047749,1258.350101
1281.184665,-4811.338623,0.000000,1480.411884
1281.184976,-4959.379811,-1225.752797,1110.308913
1281.185288,-5329.482782,-766.095498,1628.453072
1281.185599,-6883.915261,-306.438199,518.144159
1281.185911,-9030.512492,766.095498,740.205942
1281.186222,-10732.986159,1149.143247,740.205942
1281.186534,-11547.212695,153.219100,888.247130
1281.186845,-10658.965565,-1072.533697,814.226536
1281.187157,-8438.347739,-459.657299,888.247130
1281.187468,-7624.121203,0.000000,666.185348
1281.187780,-7254.018232,0.000000,-296.082377
1281.188091,-7698.141797,-995.924147,370.102971
1281.188403,-7846.182985,-306.438199,740.205942
1281.188714,-8364.327145,766.095498,740.205942
1281.189025,-8512.368333,995.924147,444.123565
1281.189337,-9178.553681,76.609550,-0.000000
1281.189648,-8586.388927,-766.095498,148.041188
1281.189960,-7624.121203,-919.314598,-74.020594
1281.190271,-7476.080014,-1072.533697,-74.020594
1281.190583,-9252.574275,-1915.238745,-0.000000
1281.190894,-10214.842000,-2451.505594,518.144159
1281.191206,-10881.027347,-2451.505594,740.205942
1281.191517,-11325.150913,-995.924147,296.082377
1281.191829,-11399.171507,612.876398,370.102971
1281.192140,-10881.027347,1915.238745,296.082377
1281.192451,-9992.780217,1225.752797,148.041188
1281.192763,-9252.574275,842.705048,222.061783
1281.193074,-7920.203579,306.438199,-0.000000
1281.193386,-6587.832884,1302.362347,592.164754
1281.193697,-6069.688724,536.266849,518.144159
1281.194009,-6957.935855,-766.095498,-222.061783
1281.194320,-8882.471304,-1685.410096,-296.082377
1281.194632,-11029.068536,-1225.752797,-222.061783
1281.194943,-12361.439231,919.314598,-222.061783
1281.195255,-12213.398043,1915.238745,-0.000000
1281.195566,-11843.295072,1991.848295,148.041188
1281.195878,-10658.965565,306.438199,666.185348
1281.196189,-8512.368333,153.219100,962.267725
1281.196500,-5773.606348,766.095498,1110.308913
1281.196812,-4219.173869,229.828649,1258.350101
1281.197123,-5699.585753,-995.924147,1110.308913
1281.197435,-7031.956449,-1455.581446,814.226536
1281.197746,-8734.430116,-842.705048,148.041188
1281.198058,-9992.780217,842.705048,1036.288319
1281.198369,-11251.130318,1225.752797,962.267725
1281.198681,-11695.253884,689.485948,1110.308913
1281.198992,-10510.924376,76.609550,1184.329507
1281.199304,-8660.409521,459.657299,1258.350101
1281.199615,-6587.832884,995.924147,962.267725
1281.199927,-5995.668130,536.266849,962.267725
1281.200238,-6291.750507,-919.314598,518.144159
1281.200549,-6735.874072,-612.876398,222.061783
1281.200861,-7550.100608,459.657299,592.164754
1281.201172,-8216.285956,689.485948,444.123565
1281.201484,-9844.739029,0.000000,592.164754
1281.201795,-9474.636058,-612.876398,222.061783
1281.202107,-8290.306550,-1072.533697,444.123565
1281.202418,-8586.388927,-1149.143247,-0.000000
1281.202730,-8734.430116,-995.924147,-0.000000
1281.203041,-9104.533087,-995.924147,296.082377
1281.203353,-9474.636058,-1532.190996,444.123565
1281.203664,-10066.800811,-842.705048,814.226536
1281.203975,-10584.944971,-306.438199,1110.308913
1281.204287,-10807.006753,459.657299,1184.329507
1281.204598,-10140.821405,153.219100,1332.370696
1281.204910,-8660.409521,-459.657299,962.267725
1281.205221,-7550.100608,-229.828649,592.164754
1281.205533,-6735.874072,0.000000,444.123565
1281.205844,-6809.894666,-689.485948,296.082377
1281.206156,-7772.162391,-2221.676944,148.041188
1281.206467,-9400.615463,-1762.019645,-0.000000
1281.206779,-11103.089130,-459.657299,-74.020594
1281.207090,-12213.398043,919.314598,296.082377
1281.207402,-12509.480420,306.438199,592.164754
1281.207713,-11843.295072,766.095498,-148.041188
1281.208024,-9992.780217,536.266849,222.061783
1281.208336,-8438.347739,536.266849,296.082377
1281.208647,-6587.832884,1072.533697,370.102971
1281.208959,-5625.565159,229.828649,666.185348
1281.209270,-6291.750507,-1072.533697,444.123565
1281.209582,-7402.059420,-1915.238745,1258.350101
1281.209893,-9844.739029,-842.705048,370.102971
1281.210205,-11177.109724,1455.581446,962.267725
1281.210516,-11843.295072,2068.457845,888.247130
1281.210828,-11325.150913,1072.533697,666.185348
1281.211139,-10066.800811,612.876398,296.082377
1281.211451,-7179.997637,1149.143247,-0.000000
1281.211762,-6143.709319,689.485948,-74.020594
1281.212074,-5329.482782,229.828649,814.226536
1281.212385,-6217.729913,-383.047749,592.164754
1281.212696,-7476.080014,-842.705048,592.164754
1281.213008,-8142.265362,-229.828649,1184.329507
1281.213319,-9104.533087,76.609550,962.267725
1281.213631,-9918.759623,-306.438199,740.205942
1281.213942,-10140.821405,-1302.362347,296.082377
1281.214254,-8290.306550,-1455.581446,-0.000000
1281.214565,-8068.244768,-229.828649,-148.041188
1281.214877,-7772.162391,-766.095498,370.102971
1281.215188,-8068.244768,-1685.410096,148.041188
1281.215500,-8734.430116,-2068.457845,518.144159
1281.215811,-9548.656652,-1225.752797,962.267725
1281.216123,-10436.903782,383.047749,888.247130
1281.216434,-10658.965565,995.924147,814.226536
1281.216746,-10658.965565,1378.971896,1184.329507
1281.217057,-9326.594869,0.000000,740.205942
1281.217368,-7846.182985,-536.266849,444.123565
1281.217680,-7179.997637,229.828649,370.102971
1281.217991,-6957.935855,0.000000,-0.000000
1281.218303,-7772.162391,-1608.800546,-74.020594
1281.218614,-9326.594869,-2068.457845,-74.020594
1281.218926,-10807.006753,-842.705048,-592.164754
1281.219237,-11991.336260,1072.533697,-518.144159
1281.219549,-12213.398043,1685.410096,222.061783
1281.219860,-12065.356855,459.657299,148.041188
1281.220172,-10362.883188,-153.219100,592.164754
1281.220483,-8808.450710,-229.828649,518.144159
1281.220795,-7031.956449,76.609550,1184.329507
1281.221106,-6365.771101,0.000000,1036.288319
1281.221418,-7105.977043,-919.314598,370.102971
1281.221729,-7328.038826,-919.314598,1332.370696
1281.222040,-9178.553681,-766.095498,222.061783
1281.222352,-10732.986159,1072.533697,592.164754
1281.222663,-11843.295072,2298.286494,370.102971
1281.222975,-11621.233289,1608.800546,148.041188
1281.223286,-10066.800811,1149.143247,666.185348
1281.223598,-7846.182985,1302.362347,370.102971
1281.223909,-6513.812290,995.924147,666.185348
1281.224221,-5847.626942,-459.657299,962.267725
1281.224532,-6439.791695,-842.705048,1036.288319
1281.224844,-7550.100608,-459.657299,666.185348
1281.225155,-8142.265362,536.266849,740.205942
1281.225467,-9104.533087,1072.533697,148.041188
1281.225778,-9400.615463,459.657299,-0.000000
1281.226090,-8660.409521,0.000000,-814.226536
1281.226401,-7994.224174,-76.609550,-444.123565
1281.226712,-8216.285956,536.266849,-222.061783
1281.227024,-7846.182985,-306.438199,740.205942
1281.227335,-8586.388927,-1378.971896,962.267725
1281.227647,-8956.491898,-1915.238745,1406.391290
1281.227958,-9622.677246,-229.828649,1258.350101
1281.228270,-10362.883188,995.924147,888.247130
1281.228581,-9918.759623,1915.238745,962.267725
1281.228893,-9770.718434,1455.581446,962.267725
1281.229204,-9548.656652,459.657299,666.185348
1281.229516,-7920.203579,459.657299,888.247130
1281.229827,-7031.956449,766.095498,370.102971
1281.230139,-6587.832884,0.000000,148.041188
1281.230450,-7698.141797,-1378.971896,-222.061783
1281.230762,-9104.533087,-1991.848295,-296.082377
1281.231073,-10807.006753,0.000000,-518.144159
1281.231384,-12139.377449,766.095498,444.123565
1281.231696,-12435.459826,1608.800546,888.247130
1281.232007,-12065.356855,-229.828649,1258.350101
1281.232319,-10214.842000,-306.438199,1184.329507
1281.232630,-8364.327145,-459.657299,962.267725
1281.232942,-5921.647536,306.438199,1110.308913
1281.233253,-5329.482782,0.000000,666.185348
1281.233565,-6439.791695,-1072.533697,444.123565
1281.233876,-7328.038826,-1072.533697,222.061783
1281.234188,-9770.718434,153.219100,-74.020594
1281.234499,-11177.109724,1455.581446,222.061783
1281.234811,-11843.295072,1149.143247,962.267725
1281.235122,-11473.192101,0.000000,666.185348
1281.235434,-9474.636058,-229.828649,1258.350101
1281.235745,-7772.162391,0.000000,962.267725
1281.236056,-6143.709319,-383.047749,1554.432478
1281.236368,-6069.688724,-689.485948,888.247130
1281.236679,-5995.668130,-1378.971896,888.247130
1281.236991,-7105.977043,-842.705048,518.144159
1281.237302,-7846.182985,0.000000,444.123565
1281.237614,-9030.512492,229.828649,-148.041188
1281.237925,-9622.677246,-383.047749,-0.000000
1281.238237,-9400.615463,-536.266849,-370.102971
1281.238548,-9030.512492,-1225.752797,-0.000000
1281.238860,-8956.491898,-383.047749,888.247130
1281.239171,-8882.471304,-689.485948,740.205942
1281.239483,-9252.574275,-2068.457845,1036.288319
1281.239794,-9104.533087,-2145.067394,1406.391290
1281.240106,-9474.636058,-842.705048,1110.308913
1281.240417,-9992.780217,919.314598,740.205942
1281.240728,-10140.821405,1532.190996,814.226536
1281.241040,-9400.615463,612.876398,370.102971
1281.241351,-8364.327145,383.047749,370.102971
1281.241663,-7476.080014,689.485948,-0.000000
1281.241974,-7105.977043,766.095498,-0.000000
1281.242286,-7624.121203,0.000000,-0.000000
1281.242597,-8290.306550,-995.924147,-74.020594
1281.242909,-9770.718434,-766.095498,-370.102971
1281.243220,-10732.986159,306.438199,-0.000000
1281.243532,-11695.253884,689.485948,-0.000000
1281.243843,-11917.315666,1072.533697,814.226536
1281.244155,-11621.233289,766.095498,888.247130
1281.244466,-9992.780217,153.219100,962.267725
1281.244778,-7772.162391,-153.219100,1036.288319
1281.245089,-5921.647536,0.000000,1110.308913
1281.245400,-5625.565159,-612.876398,296.082377
1281.245712,-6291.750507,-919.314598,-0.000000
1281.246023,-7698.141797,-842.705048,-0.000000
1281.246335,-9622.677246,536.266849,-296.082377
1281.246646,-11473.192101,1455.581446,814.226536
1281.246958,-12361.439231,1225.752797,888.247130
1281.247269,-11843.295072,229.828649,1628.453072
1281.247581,-9474.636058,383.047749,1480.411884
1281.247892,-6883.915261,919.314598,1036.288319
1281.248204,-5625.565159,153.219100,444.123565
1281.248515,-5403.503377,-766.095498,-0.000000
1281.248827,-5995.668130,-1455.581446,-0.000000
1281.249138,-7105.977043,-689.485948,-444.123565
1281.249450,-8512.368333,-536.266849,296.082377
1281.249761,-9474.636058,-689.485948,666.185348
1281.250072,-10288.862594,-1608.800546,888.247130
1281.250384,-9770.718434,-2298.286494,444.123565
1281.250695,-9252.574275,-1455.581446,370.102971
1281.251007,-8586.388927,-689.485948,-0.000000
1281.251318,-8290.306550,-383.047749,-148.041188
1281.251630,-9030.512492,-919.314598,444.123565
1281.251941,-8808.450710,-1225.752797,666.185348
1281.252253,-9770.718434,-459.657299,666.185348
1281.252564,-10584.944971,919.314598,1184.329507
1281.252876,-10214.842000,1225.752797,1258.350101
1281.253187,-9770.718434,842.705048,962.267725
1281.253499,-9030.512492,612.876398,148.041188
1281.253810,-7624.121203,459.657299,-296.082377
1281.254122,-7105.977043,459.657299,-592.164754
1281.254433,-7624.121203,0.000000,-518.144159
1281.254744,-8882.471304,-689.485948,-222.061783
1281.255056,-10288.862594,-459.657299,-74.020594
1281.255367,-11325.150913,306.438199,592.164754
1281.255679,-11473.192101,1225.752797,962.267725
1281.255990,-11621.233289,1149.143247,814.226536
1281.256302,-10732.986159,612.876398,888.247130
1281.256613,-9178.553681,842.705048,296.082377
1281.256925,-7476.080014,919.314598,370.102971
1281.257236,-6143.709319,1685.410096,296.082377
1281.257548,-6069.688724,459.657299,148.041188
1281.257859,-6957.935855,0.000000,296.082377
1281.258171,-8808.450710,-995.924147,370.102971
1281.258482,-10288.862594,612.876398,296.082377
1281.258794,-11177.109724,2374.896044,962.267725
1281.259105,-11843.295072,2145.067394,1184.329507
1281.259416,-10584.944971,1149.143247,1258.350101
1281.259728,-8956.491898,1072.533697,962.267725
1281.260039,-6661.853478,1532.190996,962.267725
1281.260351,-5255.462188,1685.410096,666.185348
1281.260662,-5181.441594,-612.876398,444.123565
1281.260974,-6513.812290,-1072.533697,-0.000000
1281.261285,-7476.080014,-1225.752797,370.102971
1281.261597,-8660.409521,-536.266849,592.164754
1281.261908,-10584.944971,-229.828649,592.164754
1281.262220,-10881.027347,-1072.533697,370.102971
1281.262531,-9474.636058,-766.095498,666.185348
1281.262843,-8882.471304,-1378.971896,592.164754
1281.263154,-8068.244768,-1532.190996,370.102971
1281.263466,-8512.368333,-1225.752797,888.247130
1281.263777,-9104.533087,-1838.629195,1110.308913
1281.264088,-9030.512492,-1455.581446,1332.370696
1281.264400,-9918.759623,-766.095498,1036.288319
1281.264711,-9992.780217,-459.657299,1036.288319
1281.265023,-9770.718434,689.485948,888.247130
1281.265334,-9474.636058,-689.485948,888.247130
1281.265646,-8586.388927,-995.924147,-0.000000
1281.265957,-8216.285956,-306.438199,-222.061783
1281.266269,-7846.182985,0.000000,-148.041188
1281.266580,-8660.409521,-842.705048,-148.041188
1281.266892,-9178.553681,-1149.143247,296.082377
1281.267203,-9918.759623,-766.095498,-296.082377
1281.267515,-11251.130318,383.047749,-370.102971
1281.267826,-10732.986159,1149.143247,-0.000000
1281.268137,-11473.192101,842.705048,-0.000000
1281.268449,-10436.903782,0.000000,-0.000000
1281.268760,-8660.409521,-536.266849,-0.000000
1281.269072,-7846.182985,-536.266849,148.041188
1281.269383,-6513.812290,0.000000,444.123565
1281.269695,-6661.853478,-612.876398,518.144159
1281.270006,-7402.059420,-1608.800546,-0.000000
1281.270318,-9030.512492,-919.314598,592.164754
1281.270629,-10436.903782,612.876398,592.164754
1281.270941,-11621.233289,1915.238745,962.267725
1281.271252,-12213.398043,1762.019645,888.247130
1281.271564,-10881.027347,1149.143247,1332.370696
1281.271875,-8660.409521,1149.143247,1036.288319
1281.272187,-7105.977043,1378.971896,666.185348
1281.272498,-5107.421000,1378.971896,1406.391290
1281.272809,-5181.441594,-766.095498,666.185348
1281.273121,-6513.812290,-995.924147,814.226536
1281.273432,-7550.100608,-459.657299,666.185348
1281.273744,-8882.471304,0.000000,222.061783
1281.274055,-10510.924376,383.047749,592.164754
1281.274367,-10436.903782,0.000000,296.082377
1281.274678,-8956.491898,-153.219100,-0.000000
1281.274990,-8216.285956,-229.828649,222.061783
1281.275301,-7698.141797,0.000000,888.247130
1281.275613,-7550.100608,-842.705048,1110.308913
1281.275924,-7920.203579,-1532.190996,1628.453072
1281.276236,-7846.182985,-1225.752797,2072.576638
1281.276547,-9104.533087,-766.095498,1554.432478
1281.276859,-9918.759623,0.000000,814.226536
1281.277170,-9918.759623,306.438199,592.164754
1281.277481,-9030.512492,-383.047749,518.144159
1281.277793,-8882.471304,-459.657299,-0.000000
1281.278104,-8142.265362,-459.657299,-0.000000
1281.278416,-7698.141797,-919.314598,-0.000000
1281.278727,-7994.224174,-1685.410096,296.082377
1281.279039,-9252.574275,-2145.067394,370.102971
1281.279350,-9252.574275,-1532.190996,370.102971
1281.279662,-10362.883188,-842.705048,296.082377
1281.279973,-10214.842000,0.000000,740.205942
1281.280285,-10658.965565,153.219100,518.144159
1281.280596,-10510.924376,-383.047749,592.164754
1281.280908,-8956.491898,-612.876398,-0.000000
1281.281219,-7846.182985,0.000000,-0.000000
1281.281531,-7105.977043,153.219100,-74.020594
1281.281842,-7328.038826,-459.657299,-444.123565
1281.282153,-8438.347739,-1838.629195,-518.144159
1281.282465,-9474.636058,-306.438199,-444.123565
1281.282776,-10955.047942,919.314598,-0.000000
1281.283088,-12139.377449,1762.019645,518.144159
1281.283399,-12805.562797,1302.362347,444.123565
1281.283711,-11917.315666,766.095498,888.247130
1281.284022,-9030.512492,1072.533697,740.205942
1281.284334,-7031.956449,1762.019645,444.123565
1281.284645,-5551.544565,766.095498,666.185348
1281.284957,-6143.709319,-766.095498,296.082377
1281.285268,-7031.956449,-1378.971896,-74.020594
1281.285580,-7846.182985,459.657299,-370.102971
1281.285891,-9400.615463,1532.190996,-444.123565
1281.286203,-10807.006753,1302.362347,-370.102971
1281.286514,-10881.027347,1072.533697,-666.185348
1281.286825,-8586.388927,383.047749,-0.000000
1281.287137,-7476.080014,919.314598,-0.000000
1281.287448,-7328.038826,612.876398,1406.391290
1281.287760,-7772.162391,-536.266849,1776.494261
1281.288071,-8290.306550,-1302.362347,1924.535449
1281.288383,-8142.265362,-459.657299,1998.556043
1281.288694,-9178.553681,1302.362347,1332.370696
1281.289006,-9474.636058,1991.848295,1110.308913
1281.289317,-9030.512492,689.485948,814.226536
1281.289629,-8586.388927,-153.219100,370.102971
1281.289940,-7254.018232,229.828649,888.247130
1281.290252,-7402.059420,459.657299,296.082377
1281.290563,-7402.059420,0.000000,592.164754
1281.290875,-7698.141797,-766.095498,592.164754
1281.291186,-8142.265362,-1762.019645,592.164754
1281.291497,-8956.491898,-306.438199,1036.288319
1281.291809,-9844.739029,919.314598,888.247130
1281.292120,-10362.883188,459.657299,1258.350101
1281.292432,-10807.006753,0.000000,1036.288319
1281.292743,-9992.780217,-842.705048,1332.370696
1281.293055,-8956.491898,-1225.752797,962.267725
1281.293366,-7846.182985,-1378.971896,1110.308913
1281.293678,-7105.977043,-995.924147,740.205942
1281.293989,-7402.059420,-1149.143247,-0.000000
1281.294301,-8290.306550,-612.876398,-0.000000
1281.294612,-9696.697840,-459.657299,296.082377
1281.294924,-11251.130318,383.047749,518.144159
1281.295235,-12139.377449,995.924147,1110.308913
1281.295547,-11843.295072,919.314598,1332.370696
1281.295858,-10881.027347,766.095498,1332.370696
1281.296169,-9178.553681,689.485948,666.185348
1281.296481,-6143.709319,919.314598,888.247130
1281.296792,-5403.503377,-459.657299,-0.000000
1281.297104,-6365.771101,-1532.190996,-0.000000
1281.297415,-7402.059420,-1532.190996,-518.144159
1281.297727,-8808.450710,0.000000,-740.205942
1281.298038,-10436.903782,766.095498,-666.185348
1281.298350,-10955.047942,229.828649,-370.102971
1281.298661,-10658.965565,-229.828649,-518.144159
1281.298973,-10584.944971,-459.657299,-222.061783
1281.299284,-8808.450710,76.609550,592.164754
1281.299596,-8290.306550,229.828649,370.102971
1281.299907,-8290.306550,-306.438199,962.267725
1281.300219,-7920.203579,-1149.143247,1776.494261
1281.300530,-7698.141797,-1302.362347,1480.411884
1281.300841,-9474.636058,-995.924147,962.267725
1281.301153,-9326.594869,76.609550,1332.370696
1281.301464,-9326.594869,459.657299,666.185348
1281.301776,-8956.491898,459.657299,-148.041188
1281.302087,-7846.182985,766.095498,-222.061783
1281.302399,-7328.038826,612.876398,-592.164754
1281.302710,-7105.977043,76.609550,-222.061783
1281.303022,-7846.182985,0.000000,444.123565
1281.303333,-8364.327145,-919.314598,444.123565
1281.303645,-9474.636058,-612.876398,1184.329507
1281.303956,-10658.965565,229.828649,1776.494261
1281.304268,-10436.903782,76.609550,1406.391290
1281.304579,-10955.047942,0.000000,814.226536
1281.304891,-9622.677246,153.219100,1184.329507
1281.305202,-8290.306550,0.000000,148.041188
1281.305513,-6439.791695,-153.219100,296.082377
1281.305825,-6365.771101,-459.657299,-74.020594
1281.306136,-7105.977043,-1608.800546,-148.041188
1281.306448,-8364.327145,-2068.457845,-0.000000
1281.306759,-10066.800811,-536.266849,740.205942
1281.307070,-11399.171507,1225.752797,1258.350101
1281.307382,-12213.398043,689.485948,1628.453072
1281.307693,-12139.377449,229.828649,2072.576638
1281.308005,-10436.903782,153.219100,1702.473667
1281.308316,-7772.162391,1149.143247,1258.350101
1281.308627,-5551.544565,689.485948,814.226536
1281.308939,-5255.462188,0.000000,-0.000000
1281.309250,-5847.626942,-1225.752797,-592.164754
1281.309561,-7179.997637,-1608.800546,-518.144159
1281.309873,-8808.450710,-383.047749,-444.123565
1281.310184,-10955.047942,842.705048,-0.000000
1281.310496,-12065.356855,459.657299,370.102971
1281.310807,-11103.089130,-459.657299,370.102971
1281.311118,-9770.718434,-459.657299,444.123565
1281.311430,-8068.244768,306.438199,888.247130
1281.311741,-7994.224174,0.000000,962.267725
1281.312053,-7476.080014,-306.438199,740.205942
1281.312364,-7994.224174,-842.705048,1110.308913
1281.312675,-8586.388927,-842.705048,1332.370696
1281.312987,-9770.718434,-229.828649,592.164754
1281.313298,-10658.965565,766.095498,148.041188
1281.313610,-10214.842000,995.924147,-370.102971
1281.313921,-9474.636058,612.876398,-740.205942
1281.314232,-8290.306550,536.266849,-1184.329507
1281.314544,-7476.080014,919.314598,-296.082377
1281.314855,-7328.038826,0.000000,-0.000000
1281.315166,-7328.038826,-1072.533697,888.247130
1281.315478,-8216.285956,-689.485948,1184.329507
1281.315789,-9474.636058,229.828649,740.205942
1281.316101,-10214.842000,689.485948,888.247130
1281.316412,-10584.944971,842.705048,370.102971
1281.316723,-9918.759623,995.924147,-0.000000
1281.317035,-9104.533087,842.705048,-74.020594
1281.317346,-8068.244768,229.828649,-296.082377
1281.317658,-7179.997637,229.828649,-296.082377
1281.317969,-7105.977043,153.219100,-74.020594
1281.318280,-6957.935855,-842.705048,444.123565
1281.318592,-8586.388927,-1225.752797,296.082377
1281.318903,-10584.944971,612.876398,518.144159
1281.319214,-11843.295072,1915.238745,814.226536
1281.319526,-11917.315666,2221.676944,1554.432478
1281.319837,-11399.171507,1072.533697,1406.391290
1281.320149,-9548.656652,536.266849,1332.370696
1281.320460,-7550.100608,1149.143247,1110.308913
1281.320771,-5773.606348,383.047749,666.185348
1281.321083,-4737.318029,-459.657299,444.123565
1281.321394,-6291.750507,-1762.019645,-148.041188
1281.321706,-8142.265362,-1532.190996,-148.041188
1281.322017,-9104.533087,-459.657299,-0.000000
1281.322328,-10732.986159,459.657299,222.061783
1281.322640,-11769.274478,306.438199,666.185348
1281.322951,-11251.130318,-306.438199,444.123565
1281.323263,-10066.800811,-1608.800546,962.267725
1281.323574,-7920.203579,-536.266849,1110.308913
1281.323885,-7254.018232,-612.876398,1406.391290
1281.324197,-7846.182985,-1532.190996,1628.453072
1281.324508,-8290.306550,-2298.286494,1776.494261
1281.324819,-8660.409521,-1915.238745,1702.473667
1281.325131,-9252.574275,-842.705048,1036.288319
1281.325442,-9548.656652,766.095498,962.267725
1281.325754,-9104.533087,0.000000,962.267725
1281.326065,-8808.450710,-229.828649,296.082377
1281.326376,-8364.327145,-229.828649,-0.000000
1281.326688,-7846.182985,1225.752797,-74.020594
1281.326999,-7994.224174,842.705048,222.061783
1281.327311,-7994.224174,0.000000,444.123565
1281.327622,-9030.512492,-306.438199,518.144159
1281.327933,-9326.594869,306.438199,814.226536
1281.328245,-9918.759623,995.924147,222.061783
1281.328556,-9918.759623,995.924147,518.144159
1281.328868,-9770.718434,383.047749,296.082377
1281.329179,-9178.553681,-536.266849,-0.000000
1281.329490,-8216.285956,-919.314598,-148.041188
1281.329802,-7476.080014,-306.438199,-0.000000
1281.330113,-7328.038826,0.000000,-0.000000
1281.330424,-7994.224174,-766.095498,-370.102971
1281.330736,-8956.491898,-2068.457845,-0.000000
1281.331047,-9992.780217,-612.876398,296.082377
1281.331359,-11399.171507,689.485948,740.205942
1281.331670,-11843.295072,1685.410096,1184.329507
1281.331981,-11399.171507,1378.971896,1184.329507
1281.332293,-9474.636058,1149.143247,888.247130
1281.332604,-6883.915261,536.266849,518.144159
1281.332916,-5107.421000,1149.143247,-0.000000
1281.333227,-4885.359217,0.000000,-592.164754
1281.333538,-6291.750507,-1455.581446,-962.267725
1281.333850,-7846.182985,-1838.629195,-296.082377
1281.334161,-9178.553681,-306.438199,-0.000000
1281.334472,-11251.130318,-153.219100,370.102971
1281.334784,-11547.212695,-612.876398,962.267725
1281.335095,-11325.150913,-1225.752797,592.164754
1281.335407,-9326.594869,-153.219100,814.226536
1281.335718,-7772.162391,-1378.971896,888.247130
1281.336029,-6661.853478,-2374.896044,1406.391290
1281.336341,-6883.915261,-2604.724693,1628.453072
1281.336652,-7994.224174,-2604.724693,1850.514855
1281.336964,-8882.471304,-1915.238745,1332.370696
1281.337275,-10288.862594,-612.876398,1480.411884
1281.337586,-10732.986159,842.705048,1554.432478
1281.337898,-9918.759623,-229.828649,1110.308913
1281.338209,-9918.759623,-689.485948,444.123565
1281.338521,-9030.512492,689.485948,-0.000000
1281.338832,-7698.141797,689.485948,-74.020594
1281.339143,-7254.018232,306.438199,-296.082377
1281.339455,-7698.141797,-76.609550,444.123565
1281.339766,-8660.409521,-306.438199,592.164754
1281.340077,-9918.759623,-153.219100,1110.308913
1281.340389,-10214.842000,1072.533697,1332.370696
1281.340700,-10510.924376,919.314598,1036.288319
1281.341012,-10362.883188,153.219100,222.061783
1281.341323,-9326.594869,-459.657299,-0.000000
1281.341634,-8216.285956,-153.219100,-518.144159
1281.341946,-7402.059420,459.657299,-148.041188
1281.342257,-7254.018232,383.047749,-0.000000
1281.342569,-8808.450710,-1532.190996,-0.000000
1281.342880,-9400.615463,-1685.410096,666.185348
1281.343191,-10436.903782,306.438199,814.226536
1281.343503,-10955.047942,2068.457845,962.267725
1281.343814,-10732.986159,2374.896044,888.247130
1281.344125,-10214.842000,2145.067394,592.164754
1281.344437,-8438.347739,1608.800546,222.061783
1281.344748,-6661.853478,1991.848295,296.082377
1281.345060,-5033.400406,1225.752797,-148.041188
1281.345371,-5181.441594,689.485948,-296.082377
1281.345682,-6735.874072,-1072.533697,-222.061783
1281.345994,-7550.100608,-1455.581446,-370.102971
1281.346305,-9030.512492,153.219100,-444.123565
1281.346617,-10140.821405,919.314598,-222.061783
1281.346928,-10510.924376,76.609550,-0.000000
1281.347239,-11103.089130,-995.924147,-0.000000
1281.347551,-9844.739029,0.000000,222.061783
1281.347862,-8882.471304,229.828649,296.082377
1281.348174,-8068.244768,-306.438199,1036.288319
1281.348485,-7920.203579,-1302.362347,1480.411884
1281.348796,-8290.306550,-2298.286494,1628.453072
1281.349108,-8882.471304,-2221.676944,1258.350101
1281.349419,-10288.862594,-842.705048,740.205942
1281.349730,-10732.986159,229.828649,592.164754
1281.350042,-9844.739029,689.485948,518.144159
1281.350353,-9918.759623,-153.219100,-370.102971
1281.350665,-8734.430116,0.000000,-74.020594
1281.350976,-7772.162391,689.485948,-0.000000
1281.351287,-7772.162391,153.219100,296.082377
1281.351599,-7994.224174,-229.828649,666.185348
1281.351910,-9030.512492,-1072.533697,1110.308913
1281.352222,-9622.677246,0.000000,1406.391290
1281.352533,-10214.842000,0.000000,1036.288319
1281.352844,-10732.986159,-306.438199,740.205942
1281.353156,-10658.965565,-536.266849,592.164754
1281.353467,-9178.553681,-919.314598,370.102971
1281.353778,-8364.327145,-1072.533697,222.061783
1281.354090,-8068.244768,-1149.143247,592.164754
1281.354401,-7402.059420,-1455.581446,592.164754
1281.354713,-8660.409521,-1532.190996,296.082377
1281.355024,-9252.574275,-689.485948,592.164754
1281.355335,-9918.759623,459.657299,296.082377
1281.355647,-10807.006753,1915.238745,888.247130
1281.355958,-10362.883188,1991.848295,1110.308913
1281.356270,-9178.553681,1149.143247,1332.370696
1281.356581,-7698.141797,995.924147,1480.411884
1281.356892,-6143.709319,919.314598,1110.308913
1281.357204,-5477.523971,229.828649,814.226536
1281.357515,-6069.688724,-612.876398,-74.020594
1281.357827,-7402.059420,-1072.533697,-296.082377
1281.358138,-8364.327145,-306.438199,-296.082377
1281.358449,-9474.636058,459.657299,-370.102971
1281.358761,-10658.965565,766.095498,-370.102971
1281.359072,-10955.047942,689.485948,-0.000000
1281.359383,-9918.759623,0.000000,444.123565
1281.359695,-9104.533087,306.438199,888.247130
1281.360006,-8290.306550,153.219100,1110.308913
1281.360318,-7031.956449,-229.828649,1332.370696
1281.360629,-7105.977043,-1149.143247,1332.370696
1281.360940,-7994.224174,-1762.019645,1184.329507
1281.361252,-8882.471304,-1072.533697,888.247130
1281.361563,-10658.965565,0.000000,222.061783
1281.361875,-10658.965565,842.705048,592.164754
1281.362186,-10510.924376,-153.219100,-0.000000
1281.362497,-10362.883188,459.657299,-222.061783
1281.362809,-8956.491898,919.314598,-0.000000
1281.363120,-7772.162391,1225.752797,-0.000000
1281.363431,-7105.977043,0.000000,-0.000000
1281.363743,-7772.162391,-766.095498,666.185348
1281.364054,-8956.491898,-842.705048,962.267725
1281.364366,-9474.636058,0.000000,814.226536
1281.364677,-9918.759623,0.000000,888.247130
1281.364988,-10436.903782,-919.314598,888.247130
1281.365300,-11177.109724,-1225.752797,666.185348
1281.365611,-10214.842000,-1685.410096,592.164754
1281.365923,-8808.450710,-1225.752797,444.123565
1281.366234,-7476.080014,-153.219100,740.205942
1281.366545,-6809.894666,-842.705048,-0.000000
1281.366857,-7550.100608,-995.924147,-0.000000
1281.367168,-8290.306550,-689.485948,-0.000000
1281.367480,-10140.821405,612.876398,296.082377
1281.367791,-11325.150913,2068.457845,1332.370696
1281.368102,-11769.274478,1838.629195,1850.514855
1281.368414,-11029.068536,612.876398,1850.514855
1281.368725,-9104.533087,-383.047749,1776.494261
1281.369036,-5625.565159,306.438199,740.205942
1281.369348,-5033.400406,0.000000,-296.082377
1281.369659,-5033.400406,-1149.143247,-666.185348
1281.369971,-6513.812290,-1455.581446,-666.185348
1281.370282,-8068.244768,-689.485948,-814.226536
1281.370593,-10214.842000,0.000000,-222.061783
1281.370905,-12139.377449,689.485948,518.144159
1281.371216,-11991.336260,766.095498,740.205942
1281.371528,-10510.924376,612.876398,1110.308913
1281.371839,-8808.450710,459.657299,814.226536
1281.372150,-7550.100608,229.828649,962.267725
1281.372462,-6513.812290,0.000000,1184.329507
1281.372773,-6735.874072,-459.657299,444.123565
1281.373084,-7698.141797,-919.314598,148.041188
1281.373396,-9400.615463,-306.438199,-296.082377
1281.373707,-10955.047942,766.095498,-444.123565
1281.374019,-10955.047942,1532.190996,-148.041188
1281.374330,-10732.986159,1225.752797,-444.123565
1281.374641,-9992.780217,1149.143247,-74.020594
1281.374953,-8438.347739,995.924147,148.041188
1281.375264,-7402.059420,689.485948,740.205942
1281.375576,-7254.018232,0.000000,1036.288319
1281.375887,-7476.080014,-153.219100,1036.288319
1281.376198,-8586.388927,-229.828649,814.226536
1281.376510,-9474.636058,76.609550,1036.288319
1281.376821,-10436.903782,153.219100,740.205942
1281.377133,-11029.068536,-766.095498,370.102971
1281.377444,-10288.862594,-612.876398,-74.020594
1281.377755,-9400.615463,-612.876398,-222.061783
1281.378067,-8142.265362,-153.219100,-0.000000
1281.378378,-7624.121203,-229.828649,-0.000000
1281.378689,-7328.038826,-919.314598,370.102971
1281.379001,-7550.100608,-842.705048,592.164754
1281.379312,-9104.533087,0.000000,444.123565
1281.379624,-10288.862594,1608.800546,1628.453072
1281.379935,-10807.006753,2374.896044,1776.494261
1281.380246,-10807.006753,1072.533697,2146.597232
1281.380558,-9622.677246,383.047749,1702.473667
1281.380869,-7920.203579,689.485948,1258.350101
1281.381181,-5477.523971,0.000000,740.205942
1281.381492,-4885.359217,-919.314598,-148.041188
1281.381803,-6069.688724,-1378.971896,-814.226536
1281.382115,-7105.977043,-1455.581446,-962.267725
1281.382426,-9104.533087,-306.438199,-666.185348
1281.382738,-10436.903782,536.266849,222.061783
1281.383049,-12065.356855,919.314598,888.247130
1281.383360,-12879.583391,689.485948,1628.453072
1281.383672,-11177.109724,383.047749,2072.576638
1281.383983,-9696.697840,76.609550,1850.514855
1281.384294,-7698.141797,0.000000,1406.391290
1281.384606,-6143.709319,-612.876398,1036.288319
1281.384917,-5699.585753,-1685.410096,-222.061783
1281.385229,-6957.935855,-2145.067394,-518.144159
1281.385540,-8216.285956,-919.314598,-592.164754
1281.385851,-10362.883188,229.828649,-296.082377
1281.386163,-12065.356855,995.924147,370.102971
1281.386474,-11991.336260,919.314598,666.185348
1281.386786,-10881.027347,995.924147,740.205942
1281.387097,-8808.450710,1455.581446,1110.308913
1281.387408,-6883.915261,1302.362347,1110.308913
1281.387720,-5773.606348,229.828649,814.226536
1281.388031,-6217.729913,-459.657299,740.205942
1281.388342,-7772.162391,-383.047749,444.123565
1281.388654,-8660.409521,0.000000,370.102971
1281.388965,-10436.903782,-536.266849,-0.000000
1281.389277,-10955.047942,-689.485948,666.185348
1281.389588,-10807.006753,-1455.581446,-222.061783
1281.389899,-9992.780217,-1302.362347,-444.123565
1281.390211,-9178.553681,-306.438199,148.041188
1281.390522,-7772.162391,-229.828649,222.061783
1281.390834,-7624.121203,76.609550,444.123565
1281.391145,-8068.244768,-306.438199,1332.370696
1281.391456,-8586.388927,766.095498,1258.350101
1281.391768,-9548.656652,842.705048,1036.288319
1281.392079,-10066.800811,1838.629195,1776.494261
1281.392391,-9992.780217,1378.971896,1332.370696
1281.392702,-9326.594869,536.266849,962.267725
1281.393013,-8216.285956,459.657299,444.123565
1281.393325,-7105.977043,-306.438199,-0.000000
1281.393636,-6809.894666,-1378.971896,-666.185348
1281.393947,-7624.121203,-1685.410096,-222.061783
1281.394259,-8808.450710,-1532.190996,-222.061783
1281.394570,-10140.821405,-689.485948,-0.000000
1281.394882,-10362.883188,459.657299,592.164754
1281.395193,-10288.862594,459.657299,1110.308913
1281.395504,-10066.800811,383.047749,1332.370696
1281.395816,-9474.636058,-536.266849,1776.494261
1281.396127,-7698.141797,-842.705048,1406.391290
1281.396439,-7105.977043,-919.314598,1258.350101
1281.396750,-6957.935855,-1378.971896,1406.391290
1281.397061,-7550.100608,-2298.286494,296.082377
1281.397373,-7994.224174,-2987.772442,370.102971
1281.397684,-9326.594869,-1838.629195,-74.020594
1281.397995,-11621.233289,1072.533697,-444.123565
1281.398307,-11843.295072,1991.848295,148.041188
1281.398618,-11473.192101,1915.238745,296.082377
1281.398930,-11029.068536,1149.143247,592.164754
1281.399241,-8438.347739,1838.629195,740.205942
1281.399552,-6143.709319,1762.019645,444.123565
1281.399864,-5033.400406,612.876398,888.247130
1281.400175,-5921.647536,-689.485948,814.226536
1281.400487,-7254.018232,-1991.848295,666.185348
1281.400798,-8216.285956,-1302.362347,148.041188
1281.401109,-10066.800811,-1532.190996,-0.000000
1281.401421,-11103.089130,-1149.143247,592.164754
1281.401732,-11399.171507,-1302.362347,-370.102971
1281.402044,-10732.986159,-689.485948,-222.061783
1281.402355,-9548.656652,-306.438199,-0.000000
1281.402666,-8512.368333,-306.438199,592.164754
1281.402978,-6809.894666,306.438199,1184.329507
1281.403289,-7846.182985,-306.438199,1406.391290
1281.403600,-8808.450710,-1302.362347,1850.514855
1281.403912,-8882.471304,536.266849,1554.432478
1281.404223,-10140.821405,1685.410096,1332.370696
1281.404535,-10288.862594,1838.629195,1332.370696
1281.404846,-9474.636058,919.314598,296.082377
1281.405157,-9030.512492,0.000000,-370.102971
1281.405469,-6439.791695,229.828649,-0.000000
1281.405780,-6809.894666,153.219100,-740.205942
1281.406091,-7105.977043,-842.705048,-740.205942
1281.406403,-8290.306550,-842.705048,148.041188
1281.406714,-9474.636058,-306.438199,296.082377
1281.407026,-9696.697840,995.924147,888.247130
1281.407337,-10362.883188,1915.238745,1036.288319
1281.407648,-10214.842000,1302.362347,148.041188
1281.407960,-8734.430116,0.000000,888.247130
1281.408271,-7772.162391,-766.095498,666.185348
1281.408582,-6587.832884,-995.924147,1480.411884
1281.408894,-7179.997637,-2221.676944,814.226536
1281.409205,-8808.450710,-3447.429741,740.205942
1281.409516,-9696.697840,-2834.553343,444.123565
1281.409828,-10881.027347,-1072.533697,-148.041188
1281.410139,-11769.274478,919.314598,-0.000000
1281.410451,-12065.356855,1762.019645,-74.020594
1281.410762,-11695.253884,1378.971896,888.247130
1281.411073,-9400.615463,2145.067394,1406.391290
1281.411385,-7179.997637,1608.800546,1480.411884
1281.411696,-5551.544565,1302.362347,1554.432478
1281.412007,-4515.256246,459.657299,1110.308913
1281.412319,-5403.503377,-536.266849,518.144159
1281.412630,-7328.038826,-1149.143247,-592.164754
1281.412942,-9548.656652,-153.219100,-444.123565
1281.413253,-10955.047942,0.000000,-740.205942
1281.413564,-11547.212695,0.000000,-370.102971
1281.413876,-11769.274478,-1455.581446,-222.061783
1281.414187,-10807.006753,-919.314598,-148.041188
1281.414498,-9992.780217,0.000000,666.185348
1281.414810,-8142.265362,536.266849,962.267725
1281.415121,-7254.018232,0.000000,814.226536
1281.415432,-7105.977043,153.219100,1702.473667
1281.415744,-7402.059420,383.047749,1480.411884
1281.416055,-8882.471304,612.876398,962.267725
1281.416367,-9622.677246,995.924147,1258.350101
1281.416678,-9770.718434,1072.533697,1036.288319
1281.416989,-9770.718434,0.000000,592.164754
1281.417301,-8882.471304,-536.266849,-0.000000
1281.417612,-7402.059420,-229.828649,-296.082377
1281.417923,-7105.977043,-229.828649,-222.061783
1281.418235,-7476.080014,-612.876398,-296.082377
1281.418546,-8512.368333,-689.485948,-222.061783
1281.418857,-9622.677246,0.000000,-0.000000
1281.419169,-9844.739029,1302.362347,296.082377
1281.419480,-9992.780217,1455.581446,444.123565
1281.419792,-9548.656652,153.219100,1110.308913
1281.420103,-8808.450710,-383.047749,1184.329507
1281.420414,-7550.100608,-2221.676944,1184.329507
1281.420726,-6957.935855,-1762.019645,1406.391290
1281.421037,-8290.306550,-2374.896044,1036.288319
1281.421348,-9178.553681,-3140.991542,592.164754
1281.421660,-10066.800811,-2681.334243,296.082377
1281.421971,-10658.965565,-919.314598,-74.020594
1281.422282,-11251.130318,306.438199,-74.020594
1281.422594,-11843.295072,995.924147,-0.000000
1281.422905,-10881.027347,1915.238745,888.247130
1281.423217,-9400.615463,1378.971896,888.247130
1281.423528,-7254.018232,1302.362347,1406.391290
1281.423839,-5995.668130,1608.800546,1258.350101
1281.424151,-5625.565159,612.876398,1184.329507
1281.424462,-6439.791695,-536.266849,518.144159
1281.424773,-7698.141797,-766.095498,-148.041188
1281.425085,-9696.697840,229.828649,-370.102971
1281.425396,-10955.047942,459.657299,-74.020594
1281.425707,-12065.356855,0.000000,-370.102971
1281.426019,-11547.212695,-689.485948,-148.041188
1281.426330,-9992.780217,-306.438199,370.102971
1281.426642,-8586.388927,229.828649,370.102971
1281.426953,-7179.997637,153.219100,814.226536
1281.427264,-6661.853478,0.000000,1332.370696
1281.427576,-7031.956449,-536.266849,2072.576638
1281.427887,-7550.100608,229.828649,1480.411884
1281.428198,-8660.409521,153.219100,1776.494261
1281.428510,-10066.800811,536.266849,1480.411884
1281.428821,-9844.739029,689.485948,888.247130
1281.429132,-9400.615463,-383.047749,296.082377
1281.429444,-8216.285956,-536.266849,-0.000000
1281.429755,-7179.997637,76.609550,-740.205942
1281.430067,-7328.038826,-536.266849,-592.164754
1281.430378,-7179.997637,-612.876398,-666.185348
1281.430689,-8882.471304,-995.924147,-222.061783
1281.431001,-9622.677246,0.000000,296.082377
1281.431312,-9770.718434,842.705048,666.185348
1281.431623,-9622.677246,459.657299,888.247130
1281.431935,-9548.656652,-612.876398,814.226536
1281.432246,-8216.285956,-612.876398,1036.288319
1281.432557,-7105.977043,-612.876398,814.226536
1281.432869,-7846.182985,-1608.800546,962.267725
1281.433180,-8438.347739,-2451.505594,592.164754
1281.433492,-9770.718434,-2681.334243,-0.000000
1281.433803,-10510.924376,-2221.676944,-0.000000
1281.434114,-11769.274478,-229.828649,-296.082377
1281.434426,-12139.377449,1608.800546,-296.082377
1281.434737,-12139.377449,2451.505594,-0.000000
1281.435048,-10955.047942,2145.067394,370.102971
1281.435360,-8808.450710,1378.971896,666.185348
1281.435671,-7476.080014,1302.362347,1036.288319
1281.435982,-5995.668130,1378.971896,1480.411884
1281.436294,-5551.544565,229.828649,1406.391290
1281.436605,-7031.956449,-919.314598,592.164754
1281.436917,-8586.388927,-995.924147,-0.000000
1281.437228,-10288.862594,306.438199,-296.082377
1281.437539,-11177.109724,1455.581446,-296.082377
1281.437851,-11325.150913,1072.533697,-148.041188
1281.438162,-10584.944971,229.828649,-296.082377
1281.438473,-9474.636058,383.047749,148.041188
1281.438785,-8216.285956,919.314598,666.185348
1281.439096,-6883.915261,995.924147,1110.308913
1281.439407,-7105.977043,612.876398,1480.411884
1281.439719,-7698.141797,1072.533697,1554.432478
1281.440030,-7846.182985,612.876398,1258.350101
1281.440342,-8216.285956,612.876398,1480.411884
1281.440653,-9104.533087,1149.143247,1406.391290
1281.440964,-9104.533087,842.705048,1036.288319
1281.441276,-8882.471304,76.609550,-0.000000
1281.441587,-7994.224174,0.000000,370.102971
1281.441898,-6957.935855,-306.438199,-148.041188
1281.442210,-6439.791695,0.000000,-148.041188
1281.442521,-7254.018232,-1225.752797,-518.144159
1281.442833,-7698.141797,-612.876398,-74.020594
1281.443144,-9104.533087,153.219100,-74.020594
1281.443455,-9992.780217,689.485948,518.144159
1281.443767,-10510.924376,306.438199,1110.308913
1281.444078,-10584.944971,-536.266849,1036.288319
1281.444389,-8734.430116,-689.485948,2072.576638
1281.444701,-7772.162391,-1532.190996,1258.350101
1281.445012,-7624.121203,-1838.629195,444.123565
1281.445323,-7476.080014,-2221.676944,370.102971
1281.445635,-8364.327145,-2757.943793,-222.061783
1281.445946,-9622.677246,-2145.067394,-592.164754
1281.446258,-11473.192101,-536.266849,-592.164754
1281.446569,-12435.459826,766.095498,-74.020594
1281.446880,-12657.521608,383.047749,592.164754
1281.447192,-12213.398043,383.047749,1480.411884
1281.447503,-10288.862594,766.095498,1998.556043
1281.447814,-7994.224174,612.876398,1332.370696
1281.448126,-5995.668130,459.657299,1184.329507
1281.448437,-5255.462188,-229.828649,444.123565
1281.448748,-6365.771101,-459.657299,-444.123565
1281.449060,-7920.203579,-612.876398,-888.247130
1281.449371,-10140.821405,-306.438199,-592.164754
1281.449683,-11473.192101,459.657299,-296.082377
1281.449994,-11547.212695,689.485948,-0.000000
1281.450305,-11843.295072,0.000000,-0.000000
1281.450617,-10658.965565,-229.828649,592.164754
1281.450928,-8734.430116,0.000000,888.247130
1281.451239,-6735.874072,0.000000,1184.329507
1281.451551,-6365.771101,-229.828649,1406.391290
1281.451862,-6661.853478,-689.485948,1776.494261
1281.452173,-7402.059420,-383.047749,1184.329507
1281.452485,-8364.327145,0.000000,1628.453072
1281.452796,-9030.512492,612.876398,1554.432478
1281.453108,-9622.677246,306.438199,888.247130
1281.453419,-9696.697840,0.000000,-0.000000
1281.453730,-8438.347739,0.000000,-74.020594
1281.454042,-7105.977043,842.705048,-592.164754
1281.454353,-6883.915261,229.828649,-148.041188
1281.454664,-7476.080014,0.000000,296.082377
1281.454976,-8956.491898,-536.266849,444.123565
1281.455287,-8808.450710,919.314598,1480.411884
1281.455598,-9474.636058,1149.143247,1480.411884
1281.455910,-9696.697840,1149.143247,1406.391290
1281.456221,-8956.491898,383.047749,962.267725
1281.456533,-7624.121203,-995.924147,-0.000000
1281.456844,-6587.832884,-919.314598,-0.000000
1281.457155,-7328.038826,-1149.143247,-370.102971
1281.457467,-9252.574275,-1991.848295,-444.123565
1281.457778,-9844.739029,-2374.896044,148.041188
1281.458089,-11029.068536,-2221.676944,740.205942
1281.458401,-12065.356855,-995.924147,1110.308913
1281.458712,-12287.418637,153.219100,1110.308913
1281.459023,-11843.295072,995.924147,1258.350101
1281.459335,-10140.821405,995.924147,1110.308913
1281.459646,-8216.285956,766.095498,666.185348
1281.459958,-6661.853478,766.095498,444.123565
1281.460269,-5625.565159,229.828649,518.144159
1281.460580,-6143.709319,-1149.143247,-0.000000
1281.460892,-7550.100608,-2145.067394,-370.102971
1281.461203,-8956.491898,-459.657299,-962.267725
1281.461514,-10732.986159,0.000000,-740.205942
1281.461826,-12213.398043,0.000000,-0.000000
1281.462137,-12657.521608,-383.047749,-0.000000
1281.462448,-11621.233289,0.000000,148.041188
1281.462760,-10288.862594,383.047749,296.082377
1281.463071,-8068.244768,459.657299,666.185348
1281.463383,-6587.832884,-229.828649,740.205942
1281.463694,-5921.647536,-766.095498,1406.391290
1281.464005,-6143.709319,-1915.238745,962.267725
1281.464317,-7772.162391,-459.657299,-0.000000
1281.464628,-9474.636058,1072.533697,296.082377
1281.464939,-10140.821405,1685.410096,222.061783
1281.465251,-10807.006753,76.609550,444.123565
1281.465562,-10362.883188,-459.657299,222.061783
1281.465873,-8808.450710,536.266849,444.123565
1281.466185,-7328.038826,459.657299,444.123565
1281.466496,-7328.038826,-76.609550,740.205942
1281.466808,-7920.203579,-995.924147,740.205942
1281.467119,-8216.285956,-306.438199,518.144159
1281.467430,-8438.347739,1455.581446,592.164754
1281.467742,-8808.450710,2221.676944,148.041188
1281.468053,-9474.636058,1915.238745,-0.000000
1281.468364,-8808.450710,842.705048,-148.041188
1281.468676,-7105.977043,76.609550,-0.000000
1281.468987,-7402.059420,0.000000,-148.041188
1281.469299,-8216.285956,-459.657299,296.082377
1281.469610,-8882.471304,-1302.362347,370.102971
1281.469921,-9844.739029,-2298.286494,1184.329507
1281.470233,-10510.924376,-1532.190996,888.247130
1281.470544,-11991.336260,459.657299,666.185348
1281.470855,-11843.295072,1991.848295,1480.411884
1281.471167,-10807.006753,1302.362347,1258.350101
1281.471478,-9030.512492,1378.971896,1554.432478
1281.471789,-7328.038826,1378.971896,962.267725
1281.472101,-5699.585753,1302.362347,1258.350101
1281.472412,-5551.544565,0.000000,888.247130
1281.472724,-5773.606348,-689.485948,518.144159
1281.473035,-7994.224174,-229.828649,-296.082377
1281.473346,-9474.636058,-229.828649,-0.000000
1281.473658,-11399.171507,-306.438199,148.041188
1281.473969,-12213.398043,0.000000,-0.000000
1281.474280,-12361.439231,-306.438199,222.061783
1281.474592,-10955.047942,-536.266849,666.185348
1281.474903,-9474.636058,-536.266849,888.247130
1281.475214,-7846.182985,-612.876398,962.267725
1281.475526,-6069.688724,-1072.533697,1258.350101
1281.475837,-5551.544565,-1532.190996,1406.391290
1281.476149,-6365.771101,-1608.800546,1480.411884
1281.476460,-8808.450710,-1532.190996,1036.288319
1281.476771,-10288.862594,-383.047749,666.185348
1281.477083,-10658.965565,766.095498,814.226536
1281.477394,-11325.150913,153.219100,666.185348
1281.477705,-10214.842000,-459.657299,-0.000000
1281.478017,-8660.409521,76.609550,-0.000000
1281.478328,-7476.080014,-229.828649,-0.000000
1281.478639,-7476.080014,-459.657299,370.102971
1281.478951,-7920.203579,-229.828649,592.164754
1281.479262,-8808.450710,0.000000,222.061783
1281.479574,-8586.388927,689.485948,666.185348
1281.479885,-8808.450710,919.314598,-222.061783
1281.480196,-8734.430116,1072.533697,222.061783
1281.480508,-8808.450710,766.095498,-148.041188
1281.480819,-7402.059420,-383.047749,148.041188
1281.481130,-7772.162391,-766.095498,-0.000000
1281.481442,-7920.203579,-766.095498,666.185348
1281.481753,-8882.471304,-1991.848295,-0.000000
1281.482064,-9548.656652,-2068.457845,296.082377
1281.482376,-10436.903782,-995.924147,222.061783
1281.482687,-11621.233289,536.266849,666.185348
1281.482999,-11991.336260,1378.971896,222.061783
1281.483310,-10881.027347,1685.410096,1110.308913
1281.483621,-10288.862594,1302.362347,962.267725
1281.483933,-8290.306550,1072.533697,1110.308913
1281.484244,-6143.709319,1149.143247,740.205942
1281.484555,-5107.421000,459.657299,592.164754
1281.484867,-6217.729913,-536.266849,-0.000000
1281.485178,-8512.368333,-1302.362347,-296.082377
1281.485489,-9844.739029,76.609550,-296.082377
1281.485801,-11695.253884,1225.752797,-370.102971
1281.486112,-11917.315666,612.876398,444.123565
1281.486424,-11843.295072,153.219100,518.144159
1281.486735,-10881.027347,76.609550,518.144159
1281.487046,-8956.491898,306.438199,592.164754
1281.487358,-6957.935855,995.924147,740.205942
1281.487669,-5329.482782,919.314598,666.185348
1281.487980,-5921.647536,153.219100,1406.391290
1281.488292,-6365.771101,-1915.238745,1480.411884
1281.488603,-8438.347739,-1149.143247,1036.288319
1281.488914,-10584.944971,0.000000,1480.411884
1281.489226,-11103.089130,766.095498,1184.329507
1281.489537,-11399.171507,-459.657299,666.185348
1281.489849,-9918.759623,-919.314598,814.226536
1281.490160,-7476.080014,0.000000,666.185348
1281.490471,-7105.977043,-536.266849,-0.000000
1281.490783,-6587.832884,-919.314598,740.205942
1281.491094,-7476.080014,-995.924147,740.205942
1281.491405,-8290.306550,0.000000,592.164754
1281.491717,-8364.327145,766.095498,1110.308913
1281.492028,-9104.533087,153.219100,592.164754
1281.492339,-9474.636058,-536.266849,814.226536
1281.492651,-8734.430116,-459.657299,-0.000000
1281.492962,-7846.182985,-995.924147,296.082377
1281.493274,-7994.224174,-1225.752797,-0.000000
1281.493585,-8586.388927,-1838.629195,592.164754
1281.493896,-9030.512492,-2451.505594,148.041188
1281.494208,-9770.718434,-2757.943793,222.061783
1281.494519,-10658.965565,-1532.190996,814.226536
1281.494830,-11769.274478,229.828649,-74.020594
1281.495142,-11399.171507,2298.286494,-0.000000
1281.495453,-10584.944971,2221.676944,148.041188
1281.495765,-9400.615463,1762.019645,296.082377
1281.496076,-8142.265362,842.705048,666.185348
1281.496387,-6217.729913,995.924147,592.164754
1281.496699,-5699.585753,229.828649,-0.000000
1281.497010,-7031.956449,-612.876398,-0.000000
1281.497321,-8438.347739,-536.266849,-222.061783
1281.497633,-10140.821405,0.000000,-444.123565
1281.497944,-11695.253884,689.485948,-296.082377
1281.498255,-12213.398043,842.705048,-222.061783
1281.498567,-12139.377449,766.095498,-518.144159
1281.498878,-10732.986159,919.314598,-222.061783
1281.499190,-8956.491898,689.485948,444.123565
1281.499501,-6735.874072,919.314598,592.164754
1281.499812,-5625.565159,995.924147,1036.288319
1281.500124,-6587.832884,-229.828649,814.226536
1281.500435,-7031.956449,-995.924147,1184.329507
1281.500746,-7994.224174,-306.438199,1036.288319
1281.501058,-10362.883188,766.095498,962.267725
1281.501369,-11103.089130,995.924147,1184.329507
1281.501680,-11177.109724,306.438199,518.144159
1281.501992,-10066.800811,689.485948,666.185348
1281.502303,-7846.182985,1378.971896,370.102971
1281.502615,-6513.812290,0.000000,814.226536
1281.502926,-6661.853478,-76.609550,592.164754
1281.503237,-6661.853478,-459.657299,740.205942
1281.503549,-7105.977043,536.266849,888.247130
1281.503860,-7698.141797,1149.143247,1184.329507
1281.504171,-9104.533087,536.266849,592.164754
1281.504483,-9696.697840,-383.047749,666.185348
1281.504794,-8956.491898,-383.047749,370.102971
1281.505105,-8364.327145,-689.485948,-0.000000
1281.505417,-8956.491898,-1149.143247,666.185348
1281.505728,-8956.491898,-1608.800546,1110.308913
1281.506040,-8956.491898,-2604.724693,740.205942
1281.506351,-9252.574275,-2528.115143,666.185348
1281.506662,-9918.759623,-1149.143247,592.164754
1281.506974,-10807.006753,-229.828649,518.144159
1281.507285,-11325.150913,919.314598,962.267725
1281.507596,-9696.697840,536.266849,1036.288319
1281.507908,-9474.636058,153.219100,518.144159
1281.508219,-8290.306550,-689.485948,1110.308913
1281.508531,-7179.997637,-766.095498,1036.288319
1281.508842,-6365.771101,-1149.143247,740.205942
1281.509153,-7105.977043,-1532.190996,148.041188
1281.509465,-8882.471304,-1302.362347,-518.144159
1281.509776,-10510.924376,-229.828649,-666.185348
1281.510087,-11621.233289,766.095498,-666.185348
1281.510399,-11177.109724,842.705048,-148.041188
1281.510710,-11843.295072,995.924147,-518.144159
1281.511022,-10881.027347,1149.143247,-74.020594
1281.511333,-8882.471304,1072.533697,-0.000000
1281.511644,-6883.915261,306.438199,592.164754
1281.511956,-5699.585753,0.000000,666.185348
1281.512267,-6661.853478,-306.438199,740.205942
1281.512578,-7772.162391,-383.047749,814.226536
1281.512890,-9326.594869,76.609550,444.123565
1281.513201,-10807.006753,1685.410096,666.185348
1281.513512,-11769.274478,1838.629195,962.267725
1281.513824,-11547.212695,842.705048,222.061783
1281.514135,-9696.697840,1378.971896,222.061783
1281.514447,-7402.059420,1762.019645,-0.000000
1281.514758,-5995.668130,842.705048,-0.000000
1281.515069,-7031.956449,-306.438199,-370.102971
1281.515381,-7254.018232,-153.219100,666.185348
1281.515692,-7846.182985,306.438199,518.144159
1281.516003,-8660.409521,229.828649,814.226536
1281.516315,-9622.677246,0.000000,962.267725
1281.516626,-9918.759623,-229.828649,888.247130
1281.516938,-8808.450710,-612.876398,740.205942
1281.517249,-7920.203579,-1225.752797,666.185348
1281.517560,-7846.182985,-2068.457845,444.123565
1281.517872,-7920.203579,-1378.971896,370.102971
1281.518183,-8142.265362,-1762.019645,222.061783
1281.518494,-7994.224174,-1762.019645,740.205942
1281.518806,-9844.739029,-995.924147,666.185348
1281.519117,-10955.047942,-229.828649,1332.370696
1281.519429,-10510.924376,153.219100,1776.494261
1281.519740,-10584.944971,459.657299,1480.411884
1281.520051,-9326.594869,383.047749,1702.473667
1281.520363,-7994.224174,0.000000,1110.308913
1281.520674,-6809.894666,0.000000,-0.000000
1281.520985,-5995.668130,-612.876398,-0.000000
1281.521297,-6513.812290,-1225.752797,-296.082377
1281.521608,-8512.368333,-1149.143247,-518.144159
1281.521920,-10510.924376,-536.266849,-370.102971
1281.522231,-11621.233289,76.609550,-0.000000
1281.522542,-11917.315666,0.000000,592.164754
1281.522854,-11843.295072,0.000000,222.061783
1281.523165,-10658.965565,-383.047749,370.102971
1281.523476,-8882.471304,-306.438199,740.205942
1281.523788,-6957.935855,-842.705048,888.247130
1281.524099,-5995.668130,-536.266849,518.144159
1281.524410,-7105.977043,-1378.971896,444.123565
1281.524722,-8808.450710,-1532.190996,740.205942
1281.525033,-9696.697840,0.000000,296.082377
1281.525345,-11177.109724,1762.019645,-0.000000
1281.525656,-11991.336260,1915.238745,-0.000000
1281.525967,-11103.089130,1149.143247,-0.000000
1281.526279,-9326.594869,1072.533697,-0.000000
1281.526590,-6957.935855,1838.629195,518.144159
1281.526901,-6217.729913,1455.581446,296.082377
1281.527213,-6735.874072,0.000000,-0.000000
1281.527524,-7328.038826,0.000000,592.164754
1281.527836,-8290.306550,0.000000,296.082377
1281.528147,-8808.450710,689.485948,518.144159
1281.528458,-9696.697840,842.705048,-0.000000
1281.528770,-9474.636058,612.876398,296.082377
1281.529081,-8216.285956,0.000000,-0.000000
1281.529392,-7772.162391,0.000000,-148.041188
1281.529704,-7846.182985,76.609550,518.144159
1281.530015,-7476.080014,-612.876398,-0.000000
1281.530327,-8586.388927,-995.924147,370.102971
1281.530638,-8808.450710,-842.705048,814.226536
1281.530949,-10066.800811,-153.219100,888.247130
1281.531261,-11695.253884,0.000000,1332.370696
1281.531572,-11177.109724,995.924147,1924.535449
1281.531883,-10732.986159,536.266849,1628.453072
1281.532195,-8808.450710,306.438199,1184.329507
1281.532506,-7031.956449,-153.219100,814.226536
1281.532818,-6439.791695,-919.314598,222.061783
1281.533129,-5551.544565,-995.924147,148.041188
1281.533440,-6883.915261,-919.314598,-222.061783
1281.533752,-8808.450710,-306.438199,-444.123565
1281.534063,-10658.965565,0.000000,-74.020594
1281.534374,-12287.418637,536.266849,148.041188
1281.534686,-12287.418637,842.705048,296.082377
1281.534997,-11769.274478,689.485948,370.102971
1281.535308,-10140.821405,459.657299,666.185348
1281.535620,-8512.368333,0.000000,592.164754
1281.535931,-6809.894666,-153.219100,1036.288319
1281.536243,-5921.647536,-766.095498,814.226536
1281.536554,-6217.729913,-919.314598,666.185348
1281.536865,-7105.977043,-1762.019645,1332.370696
1281.537177,-9178.553681,-919.314598,1110.308913
1281.537488,-11029.068536,383.047749,1184.329507
1281.537799,-11843.295072,919.314598,1184.329507
1281.538111,-11621.233289,1072.533697,962.267725
1281.538422,-10955.047942,1302.362347,592.164754
1281.538734,-8586.388927,995.924147,666.185348
1281.539045,-6809.894666,-76.609550,592.164754
1281.539356,-6143.709319,-153.219100,962.267725
1281.539668,-6365.771101,-612.876398,1110.308913
1281.539979,-7254.018232,-536.266849,962.267725
1281.540290,-8142.265362,-229.828649,740.205942
1281.540602,-9252.574275,0.000000,518.144159
1281.540913,-9696.697840,0.000000,222.061783
1281.541225,-9252.574275,-536.266849,-222.061783
1281.541536,-8808.450710,-306.438199,-592.164754
1281.541847,-8290.306550,-995.924147,-0.000000
1281.542159,-8586.388927,-1455.581446,222.061783
1281.542470,-9104.533087,-1991.848295,888.247130
1281.542781,-9548.656652,-1762.019645,1332.370696
1281.543093,-10066.800811,-383.047749,1406.391290
1281.543404,-10214.842000,-306.438199,1480.411884
1281.543716,-10362.883188,1302.362347,1480.411884
1281.544027,-9474.636058,1532.190996,-0.000000
1281.544338,-8438.347739,1302.362347,-0.000000
1281.544650,-6883.915261,1149.143247,-0.000000
1281.544961,-5995.668130,612.876398,-444.123565
1281.545272,-6957.935855,-306.438199,-740.205942
1281.545584,-7994.224174,-995.924147,-0.000000
1281.545895,-9770.718434,-842.705048,-148.041188
1281.546206,-11769.274478,-1378.971896,370.102971
1281.546518,-11769.274478,0.000000,814.226536
1281.546829,-12139.377449,229.828649,888.247130
1281.547141,-11547.212695,536.266849,814.226536
1281.547452,-9474.636058,536.266849,814.226536
1281.547763,-7328.038826,536.266849,592.164754
1281.548075,-5477.523971,1302.362347,592.164754
1281.548386,-5403.503377,153.219100,-222.061783
1281.548697,-6217.729913,-306.438199,-148.041188
1281.549009,-7920.203579,-1225.752797,-0.000000
1281.549320,-9992.780217,0.000000,-74.020594
1281.549632,-12361.439231,766.095498,74.020594
1281.549943,-13101.645173,612.876398,814.226536
1281.550254,-12435.459826,0.000000,814.226536
1281.550566,-9918.759623,-383.047749,740.205942
1281.550877,-7105.977043,-306.438199,888.247130
1281.551188,-6365.771101,-995.924147,740.205942
1281.551500,-6069.688724,-1608.800546,296.082377
1281.551811,-5921.647536,-1455.581446,814.226536
1281.552123,-6587.832884,-1225.752797,148.041188
1281.552434,-7846.182985,0.000000,370.102971
1281.552745,-9326.594869,536.266849,-222.061783
1281.553057,-9918.759623,-612.876398,-0.000000
1281.553368,-9474.636058,-612.876398,-0.000000
1281.553679,-9770.718434,-1455.581446,370.102971
1281.553991,-9844.739029,-1302.362347,1036.288319
1281.554302,-9992.780217,-1455.581446,1258.350101
1281.554614,-9844.739029,-1455.581446,1702.473667
1281.554925,-9178.553681,-1149.143247,1332.370696
1281.555236,-9696.697840,306.438199,592.164754
1281.555548,-10140.821405,1685.410096,518.144159
1281.555859,-9400.615463,2221.676944,370.102971
1281.556170,-8956.491898,1608.800546,222.061783
1281.556482,-8216.285956,459.657299,370.102971
1281.556793,-7476.080014,919.314598,-148.041188
1281.557104,-6809.894666,383.047749,-0.000000
1281.557416,-6735.874072,-612.876398,-0.000000
1281.557727,-7994.224174,-1225.752797,666.185348
1281.558039,-9474.636058,-995.924147,148.041188
1281.558350,-11547.212695,-153.219100,666.185348
1281.558661,-11547.212695,1225.752797,962.267725
1281.558973,-11473.192101,1838.629195,814.226536
1281.559284,-10658.965565,1149.143247,740.205942
1281.559595,-8438.347739,842.705048,592.164754
1281.559907,-6587.832884,459.657299,296.082377
1281.560218,-5699.585753,842.705048,518.144159
1281.560530,-5773.606348,306.438199,222.061783
1281.560841,-7846.182985,-842.705048,-518.144159
1281.561152,-8956.491898,-229.828649,518.144159
1281.561464,-9474.636058,766.095498,444.123565
1281.561775,-10732.986159,1455.581446,1110.308913
1281.562086,-11399.171507,842.705048,1258.350101
1281.562398,-11251.130318,306.438199,1110.308913
1281.562709,-9400.615463,842.705048,1110.308913
1281.563021,-6883.915261,2451.505594,666.185348
1281.563332,-5625.565159,1225.752797,-0.000000
1281.563643,-5699.585753,-689.485948,-0.000000
1281.563955,-6587.832884,-1532.190996,-0.000000
1281.564266,-7476.080014,-306.438199,-74.020594
1281.564577,-8586.388927,919.314598,-0.000000
1281.564889,-10732.986159,459.657299,370.102971
1281.565200,-11695.253884,-1225.752797,666.185348
1281.565512,-10807.006753,-1685.410096,666.185348
1281.565823,-10140.821405,-1532.190996,370.102971
1281.566134,-8808.450710,-842.705048,370.102971
1281.566446,-8956.491898,-1378.971896,518.144159
1281.566757,-8660.409521,-2221.676944,962.267725
1281.567068,-8364.327145,-2068.457845,814.226536
1281.567380,-8808.450710,-842.705048,1110.308913
1281.567691,-9622.677246,842.705048,962.267725
1281.568002,-10732.986159,689.485948,888.247130
1281.568314,-9992.780217,-612.876398,740.205942
1281.568625,-8290.306550,-536.266849,962.267725
1281.568937,-7846.182985,-383.047749,518.144159
1281.569248,-7550.100608,-766.095498,296.082377
1281.569559,-7920.203579,-995.924147,-0.000000
1281.569871,-8290.306550,-1072.533697,-0.000000
1281.570182,-9400.615463,-766.095498,-148.041188
1281.570493,-11103.089130,842.705048,-0.000000
1281.570805,-11547.212695,0.000000,-0.000000
1281.571116,-11843.295072,842.705048,-0.000000
1281.571428,-10214.842000,842.705048,370.102971
1281.571739,-8512.368333,1225.752797,-0.000000
1281.572050,-7105.977043,1072.533697,296.082377
1281.572362,-5773.606348,76.609550,222.061783
1281.572673,-5995.668130,-1302.362347,1110.308913
1281.572984,-8068.244768,-2221.676944,1184.329507
1281.573296,-9030.512492,0.000000,962.267725
1281.573607,-10732.986159,919.314598,518.144159
1281.573919,-11843.295072,1149.143247,444.123565
1281.574230,-11251.130318,995.924147,518.144159
1281.574541,-10140.821405,1455.581446,-0.000000
1281.574853,-8660.409521,1915.238745,740.205942
1281.575164,-7179.997637,1762.019645,814.226536
1281.575475,-5921.647536,842.705048,592.164754
1281.575787,-6069.688724,-612.876398,518.144159
1281.576098,-6809.894666,-1225.752797,962.267725
1281.576410,-7624.121203,-1072.533697,518.144159
1281.576721,-8808.450710,0.000000,370.102971
1281.577032,-10140.821405,612.876398,370.102971
1281.577344,-10807.006753,-153.219100,370.102971
1281.577655,-9770.718434,-995.924147,518.144159
1281.577966,-9696.697840,-1225.752797,888.247130
1281.578278,-8364.327145,-383.047749,888.247130
1281.578589,-7994.224174,-919.314598,296.082377
1281.578901,-8586.388927,-842.705048,740.205942
1281.579212,-8808.450710,-459.657299,592.164754
1281.579523,-9030.512492,0.000000,1110.308913
1281.579835,-9474.636058,76.609550,962.267725
1281.580146,-9696.697840,689.485948,1184.329507
1281.580457,-9474.636058,-383.047749,1036.288319
1281.580769,-8734.430116,-536.266849,740.205942
1281.581080,-7846.182985,-689.485948,666.185348
1281.581391,-7254.018232,-1225.752797,296.082377
1281.581703,-7698.141797,-1685.410096,-74.020594
1281.582014,-8142.265362,-1532.190996,-222.061783
1281.582326,-9252.574275,-1149.143247,-444.123565
1281.582637,-10658.965565,-153.219100,-0.000000
1281.582948,-11547.212695,0.000000,444.123565
1281.583260,-11621.233289,229.828649,370.102971
1281.583571,-10658.965565,0.000000,814.226536
1281.583882,-8808.450710,-383.047749,962.267725
1281.584194,-7402.059420,-229.828649,518.144159
1281.584505,-6291.750507,-919.314598,370.102971
1281.584817,-7031.956449,-1532.190996,148.041188
1281.585128,-8216.285956,-1762.019645,-0.000000
1281.585439,-9622.677246,-766.095498,-296.082377
1281.585751,-11325.150913,689.485948,-0.000000
1281.586062,-12509.480420,1149.143247,444.123565
1281.586373,-12361.439231,1685.410096,444.123565
1281.586685,-11177.109724,1532.190996,296.082377
1281.586996,-8734.430116,1608.800546,-0.000000
1281.587308,-6365.771101,2068.457845,222.061783
1281.587619,-5033.400406,1072.533697,444.123565
1281.587930,-5773.606348,0.000000,666.185348
1281.588242,-6513.812290,-536.266849,592.164754
1281.588553,-7698.141797,-229.828649,-148.041188
1281.588864,-9622.677246,612.876398,148.041188
1281.589176,-10955.047942,1302.362347,814.226536
1281.589487,-10881.027347,306.438199,-0.000000
1281.589799,-9770.718434,459.657299,-0.000000
1281.590110,-8512.368333,229.828649,222.061783
1281.590421,-7846.182985,0.000000,666.185348
1281.590733,-8142.265362,-1225.752797,444.123565
1281.591044,-8142.265362,-1072.533697,888.247130
1281.591355,-8364.327145,-383.047749,1110.308913
1281.591667,-9030.512492,229.828649,1554.432478
1281.591978,-9474.636058,766.095498,1480.411884
1281.592289,-9326.594869,1072.533697,1480.411884
1281.592601,-8882.471304,-306.438199,1184.329507
1281.592912,-7772.162391,0.000000,962.267725
1281.593224,-7254.018232,153.219100,222.061783
1281.593535,-7105.977043,0.000000,-148.041188
1281.593846,-7402.059420,-612.876398,-74.020594
1281.594158,-8068.244768,-1072.533697,-0.000000
1281.594469,-9770.718434,-612.876398,-0.000000
1281.594780,-11029.068536,459.657299,592.164754
1281.595092,-11621.233289,842.705048,1184.329507
1281.595403,-11473.192101,229.828649,1332.370696
1281.595715,-10807.006753,-383.047749,1480.411884
1281.596026,-9326.594869,-612.876398,1258.350101
1281.596337,-7254.018232,0.000000,666.185348
1281.596649,-5921.647536,-153.219100,592.164754
1281.596960,-6587.832884,-919.314598,-74.020594
1281.597271,-8142.265362,-1991.848295,-518.144159
1281.597583,-9178.553681,-919.314598,740.205942
1281.597894,-11399.171507,612.876398,296.082377
1281.598206,-12657.521608,1302.362347,666.185348
1281.598517,-12731.542202,2145.067394,518.144159
1281.598828,-11917.315666,1991.848295,148.041188
1281.599140,-9178.553681,1608.800546,148.041188
1281.599451,-6069.688724,612.876398,592.164754
1281.599762,-5551.544565,-536.266849,74.020594
1281.600074,-5403.503377,-689.485948,444.123565
1281.600385,-6883.915261,-1072.533697,148.041188
1281.600697,-8290.306550,-1072.533697,296.082377
1281.601008,-9326.594869,0.000000,370.102971
1281.601319,-10658.965565,-536.266849,-74.020594
1281.601631,-10732.986159,0.000000,-0.000000
1281.601942,-9622.677246,-153.219100,222.061783
1281.602253,-9030.512492,-459.657299,148.041188
1281.602565,-8142.265362,-306.438199,1036.288319
