#time,accel_x,accel_y,accel_z
1382.413875,-8660.409521,-153.219100,296.082377
1382.414187,-9252.574275,0.000000,-0.000000
1382.414498,-8956.491898,-229.828649,444.123565
1382.414810,-8586.388927,0.000000,444.123565
1382.415121,-8956.491898,0.000000,592.164754
1382.415433,-9030.512492,-229.828649,592.164754
1382.415744,-8956.491898,-229.828649,592.164754
1382.416055,-8956.491898,-383.047749,444.123565
1382.416367,-8660.409521,-229.828649,370.102971
1382.416678,-9104.533087,-383.047749,592.164754
1382.416990,-9030.512492,-536.266849,888.247130
1382.417301,-8808.450710,-536.266849,222.061783
1382.417613,-8956.491898,0.000000,666.185348
1382.417924,-8882.471304,-76.609550,592.164754
1382.418235,-8808.450710,0.000000,444.123565
1382.418547,-8808.450710,76.609550,518.144159
1382.418858,-8956.491898,229.828649,518.144159
1382.419170,-8512.368333,-689.485948,592.164754
1382.419481,-8956.491898,0.000000,444.123565
1382.419793,-8808.450710,76.609550,-0.000000
1382.420104,-8956.491898,0.000000,592.164754
1382.420416,-8882.471304,0.000000,592.164754
1382.420727,-8734.430116,229.828649,444.123565
1382.421038,-8808.450710,76.609550,518.144159
1382.421350,-8660.409521,0.000000,666.185348
1382.421661,-8660.409521,76.609550,296.082377
1382.421973,-8882.471304,76.609550,444.123565
1382.422284,-9030.512492,0.000000,666.185348
1382.422596,-8882.471304,0.000000,592.164754
1382.422907,-8882.471304,-229.828649,666.185348
1382.423218,-8956.491898,0.000000,592.164754
1382.423530,-8808.450710,0.000000,592.164754
1382.423841,-8956.491898,-153.219100,444.123565
1382.424153,-9178.553681,0.000000,592.164754
1382.424464,-8586.388927,0.000000,444.123565
1382.424776,-8808.450710,0.000000,444.123565
1382.425087,-8734.430116,0.000000,518.144159
1382.425398,-8808.450710,-153.219100,592.164754
1382.425710,-8882.471304,-76.609550,740.205942
1382.426021,-8956.491898,-153.219100,296.082377
1382.426333,-8660.409521,306.438199,222.061783
1382.426644,-8808.450710,306.438199,740.205942
1382.426956,-9326.594869,76.609550,148.041188
1382.427267,-8808.450710,76.609550,592.164754
1382.427578,-8956.491898,0.000000,592.164754
1382.427890,-8956.491898,0.000000,518.144159
1382.428201,-8734.430116,0.000000,370.102971
1382.428513,-9104.533087,0.000000,444.123565
1382.428824,-8734.430116,153.219100,1036.288319
1382.429136,-8734.430116,612.876398,814.226536
1382.429447,-9030.512492,76.609550,518.144159
1382.429759,-9104.533087,76.609550,592.164754
1382.430070,-8808.450710,0.000000,592.164754
1382.430381,-8882.471304,0.000000,518.144159
1382.430693,-8660.409521,306.438199,370.102971
1382.431004,-8512.368333,0.000000,370.102971
1382.431316,-8660.409521,383.047749,444.123565
1382.431627,-8956.491898,0.000000,518.144159
1382.431939,-9030.512492,0.000000,592.164754
1382.432250,-8882.471304,-153.219100,444.123565
1382.432561,-9178.553681,-306.438199,444.123565
1382.432873,-8956.491898,0.000000,444.123565
1382.433184,-8438.347739,0.000000,370.102971
1382.433496,-9030.512492,153.219100,148.041188
1382.433807,-9030.512492,76.609550,814.226536
1382.434119,-9104.533087,-383.047749,592.164754
1382.434430,-9178.553681,0.000000,666.185348
1382.434741,-8808.450710,-229.828649,814.226536
1382.435053,-8734.430116,-229.828649,518.144159
1382.435364,-8882.471304,-459.657299,518.144159
1382.435676,-9030.512492,76.609550,518.144159
1382.435987,-8882.471304,-459.657299,444.123565
1382.436299,-9104.533087,-536.266849,814.226536
1382.436610,-8882.471304,-689.485948,592.164754
1382.436921,-8808.450710,-383.047749,518.144159
1382.437233,-9030.512492,0.000000,296.082377
1382.437544,-8734.430116,0.000000,518.144159
1382.437856,-9030.512492,-995.924147,666.185348
1382.438167,-8660.409521,-229.828649,666.185348
1382.438479,-9252.574275,229.828649,222.061783
1382.438790,-9178.553681,383.047749,370.102971
1382.439102,-8808.450710,76.609550,370.102971
1382.439413,-8808.450710,0.000000,518.144159
1382.439724,-8808.450710,0.000000,592.164754
1382.440036,-9030.512492,0.000000,444.123565
1382.440347,-8586.388927,-383.047749,518.144159
1382.440659,-9104.533087,0.000000,444.123565
1382.440970,-8882.471304,153.219100,888.247130
1382.441282,-8956.491898,76.609550,444.123565
1382.441593,-8956.491898,0.000000,444.123565
1382.441904,-8882.471304,0.000000,370.102971
1382.442216,-8882.471304,-153.219100,444.123565
1382.442527,-8882.471304,0.000000,592.164754
1382.442839,-8882.471304,536.266849,370.102971
1382.443150,-8808.450710,-229.828649,444.123565
1382.443462,-8956.491898,229.828649,370.102971
1382.443773,-8956.491898,-153.219100,740.205942
1382.444084,-8882.471304,0.000000,592.164754
1382.444396,-9030.512492,0.000000,518.144159
1382.444707,-8808.450710,0.000000,740.205942
1382.445019,-8808.450710,153.219100,592.164754
1382.445330,-8882.471304,-229.828649,592.164754
1382.445642,-8956.491898,-1149.143247,370.102971
1382.445953,-8808.450710,0.000000,148.041188
1382.446264,-8808.450710,-383.047749,592.164754
1382.446576,-9030.512492,0.000000,444.123565
1382.446887,-8956.491898,0.000000,518.144159
1382.447199,-9030.512492,0.000000,518.144159
1382.447510,-8882.471304,-536.266849,592.164754
1382.447822,-8660.409521,0.000000,814.226536
1382.448133,-8956.491898,-306.438199,370.102971
1382.448445,-9030.512492,-229.828649,444.123565
1382.448756,-8660.409521,0.000000,370.102971
1382.449067,-8882.471304,153.219100,592.164754
1382.449379,-8956.491898,0.000000,592.164754
1382.449690,-9104.533087,0.000000,444.123565
1382.450002,-8290.306550,229.828649,444.123565
1382.450313,-9474.636058,-153.219100,222.061783
1382.450625,-11029.068536,766.095498,222.061783
1382.450936,-11177.109724,2757.943793,148.041188
1382.451247,-8438.347739,4903.011187,740.205942
1382.451559,-7698.141797,3753.867940,740.205942
1382.451870,-6661.853478,1072.533697,1480.411884
1382.452182,-6957.935855,-1072.533697,296.082377
1382.452493,-7402.059420,-1225.752797,-0.000000
1382.452805,-7698.141797,0.000000,-296.082377
1382.453116,-11769.274478,-766.095498,-1332.370696
1382.453427,-12731.542202,-306.438199,-518.144159
1382.453739,-10436.903782,842.705048,370.102971
1382.454050,-9104.533087,153.219100,1406.391290
1382.454362,-9104.533087,-536.266849,3034.844362
1382.454673,-11769.274478,536.266849,1628.453072
1382.454985,-8216.285956,4060.306139,2368.659014
1382.455296,-4589.276840,5056.230287,2146.597232
1382.455607,-7772.162391,3294.210641,592.164754
1382.455919,-7624.121203,2681.334243,-222.061783
1382.456230,-7624.121203,3370.820191,-2146.597232
1382.456542,-8956.491898,3294.210641,-1406.391290
1382.456853,-8808.450710,3983.696590,-148.041188
1382.457165,-12435.459826,2451.505594,-1406.391290
1382.457476,-13619.789333,-842.705048,666.185348
1382.457788,-8512.368333,-1225.752797,2516.700203
1382.458099,-10214.842000,459.657299,888.247130
1382.458410,-8364.327145,5745.716235,2812.782580
1382.458722,-8216.285956,6358.592633,1406.391290
1382.459033,-7476.080014,2987.772442,2516.700203
1382.459345,-5477.523971,4366.744339,2220.617826
1382.459656,-7031.956449,6894.859482,-0.000000
1382.459968,-8142.265362,6741.640382,-1184.329507
1382.460279,-10288.862594,5975.544884,-1184.329507
1382.460590,-9622.677246,4979.620737,-1702.473667
1382.460902,-10140.821405,5745.716235,-1110.308913
1382.461213,-11621.233289,4903.011187,-0.000000
1382.461525,-10732.986159,4136.915689,1184.329507
1382.461836,-10955.047942,4136.915689,2072.576638
1382.462148,-8660.409521,5056.230287,2886.803174
1382.462459,-7031.956449,4903.011187,1850.514855
1382.462770,-5921.647536,5515.887586,296.082377
1382.463082,-5329.482782,5286.058936,370.102971
1382.463393,-5255.462188,5209.449386,-148.041188
1382.463705,-6439.791695,4213.525239,-1480.411884
1382.464016,-8364.327145,4136.915689,-444.123565
1382.464328,-9992.780217,2604.724693,-370.102971
1382.464639,-10436.903782,1838.629195,740.205942
1382.464950,-10510.924376,1149.143247,1258.350101
1382.465262,-11029.068536,-229.828649,1776.494261
1382.465573,-10584.944971,0.000000,1850.514855
1382.465885,-9474.636058,2451.505594,2294.638420
1382.466196,-8068.244768,4213.525239,1332.370696
1382.466508,-6513.812290,3983.696590,222.061783
1382.466819,-6661.853478,3217.601092,-222.061783
1382.467131,-7105.977043,3600.648841,-518.144159
1382.467442,-6365.771101,3140.991542,-1036.288319
1382.467753,-7179.997637,1302.362347,-1332.370696
1382.468065,-9548.656652,-1378.971896,-592.164754
1382.468376,-11029.068536,-2298.286494,-0.000000
1382.468688,-12213.398043,-2451.505594,740.205942
1382.468999,-13101.645173,-1762.019645,1776.494261
1382.469311,-13693.809927,-919.314598,1554.432478
1382.469622,-12361.439231,1455.581446,1258.350101
1382.469933,-10955.047942,2911.162892,518.144159
1382.470245,-8142.265362,3830.477490,-148.041188
1382.470556,-5995.668130,4519.963438,74.020594
1382.470868,-5921.647536,4903.011187,666.185348
1382.471179,-6513.812290,4290.134789,222.061783
1382.471491,-8068.244768,3370.820191,-0.000000
1382.471802,-9696.697840,2145.067394,-370.102971
1382.472113,-12065.356855,1225.752797,-592.164754
1382.472425,-13249.686362,536.266849,-370.102971
1382.472736,-13841.851115,0.000000,222.061783
1382.473048,-13397.727550,536.266849,370.102971
1382.473359,-11843.295072,2145.067394,1036.288319
1382.473671,-9548.656652,3753.867940,1702.473667
1382.473982,-7105.977043,4673.182538,2294.638420
1382.474293,-4885.359217,5592.497135,1924.535449
1382.474605,-2368.659014,5898.935335,666.185348
1382.474916,-888.247130,6281.983084,-962.267725
1382.475228,-2664.741391,4519.963438,-2146.597232
1382.475539,-6883.915261,2987.772442,-1924.535449
1382.475851,-10881.027347,2757.943793,-1036.288319
1382.476162,-13841.851115,2757.943793,296.082377
1382.476474,-15470.304188,2757.943793,2812.782580
1382.476785,-14508.036463,1455.581446,3923.091493
1382.477096,-11325.150913,3217.601092,3997.112087
1382.477408,-7179.997637,3217.601092,2960.823768
1382.477719,-3775.050304,4443.353888,1110.308913
1382.478031,-1850.514855,6741.640382,-592.164754
1382.478342,-1850.514855,7890.783629,-2294.638420
1382.478654,-3552.988522,7124.688131,-2368.659014
1382.478965,-6513.812290,4826.401637,-2368.659014
1382.479276,-9104.533087,2451.505594,-0.000000
1382.479588,-10362.883188,153.219100,-0.000000
1382.479899,-11843.295072,-2528.115143,1258.350101
1382.480211,-12435.459826,-4136.915689,1776.494261
1382.480522,-12435.459826,-3217.601092,2146.597232
1382.480834,-12435.459826,-1378.971896,1554.432478
1382.481145,-12361.439231,1378.971896,1924.535449
1382.481456,-11251.130318,4060.306139,1406.391290
1382.481768,-9104.533087,6128.763984,1258.350101
1382.482079,-7179.997637,5898.935335,1702.473667
1382.482391,-6513.812290,3830.477490,-0.000000
1382.482702,-5847.626942,2451.505594,-296.082377
1382.483014,-7402.059420,2757.943793,-1998.556043
1382.483325,-8808.450710,4060.306139,-2664.741391
1382.483636,-11103.089130,4290.134789,-3330.926739
1382.483948,-12213.398043,3907.087040,-1480.411884
1382.484259,-12657.521608,2834.553343,222.061783
1382.484571,-12509.480420,1225.752797,1628.453072
1382.484882,-12139.377449,1838.629195,2590.720797
1382.485194,-11473.192101,2911.162892,2886.803174
1382.485505,-10362.883188,5515.887586,1480.411884
1382.485817,-7550.100608,6894.859482,1184.329507
1382.486128,-5699.585753,6128.763984,-666.185348
1382.486439,-5107.421000,3907.087040,-1110.308913
1382.486751,-5921.647536,2451.505594,-666.185348
1382.487062,-7105.977043,2757.943793,-1184.329507
1382.487374,-7846.182985,2145.067394,296.082377
1382.487685,-9178.553681,612.876398,1110.308913
1382.487997,-9178.553681,-1685.410096,2516.700203
1382.488308,-7698.141797,-2681.334243,2220.617826
1382.488619,-7846.182985,-919.314598,1924.535449
1382.488931,-8142.265362,3447.429741,370.102971
1382.489242,-9992.780217,7967.393179,-1110.308913
1382.489554,-10510.924376,9576.193725,-0.000000
1382.489865,-10510.924376,7660.954980,888.247130
1382.490177,-8956.491898,4596.572988,1406.391290
1382.490488,-7846.182985,3064.381992,1924.535449
1382.490799,-6513.812290,2834.553343,1406.391290
1382.491111,-5181.441594,2145.067394,1628.453072
1382.491422,-3997.112087,-153.219100,1258.350101
1382.491734,-3627.009116,-3524.039291,1406.391290
1382.492045,-5477.523971,-5362.668486,-148.041188
1382.492357,-8438.347739,-2298.286494,-888.247130
1382.492668,-11177.109724,2221.676944,-1184.329507
1382.492979,-12805.562797,3983.696590,-1258.350101
1382.493291,-14359.995275,3217.601092,296.082377
1382.493603,-14285.974681,842.705048,2294.638420
1382.493914,-13915.871710,-229.828649,2960.823768
1382.494226,-11029.068536,0.000000,3775.050304
1382.494537,-8586.388927,0.000000,2738.761985
1382.494849,-5329.482782,-689.485948,1924.535449
1382.495160,-2812.782580,-3600.648841,740.205942
1382.495472,-2590.720797,-6971.469032,-592.164754
1382.495784,-4885.359217,-6281.983084,-1332.370696
1382.496095,-7994.224174,-2068.457845,-2146.597232
1382.496407,-11399.171507,1762.019645,-2442.679609
1382.496718,-14952.160028,2911.162892,-1258.350101
1382.497030,-18579.169144,1149.143247,296.082377
1382.497341,-18949.272115,306.438199,2294.638420
1382.497653,-17024.736666,1149.143247,1776.494261
1382.497965,-11695.253884,4136.915689,1258.350101
1382.498276,-5551.544565,4519.963438,444.123565
1382.498588,296.082377,0.000000,1924.535449
1382.498899,3330.926739,-5209.449386,666.185348
1382.499211,740.205942,-8120.612279,-592.164754
1382.499522,-3256.906145,-4290.134789,-1184.329507
1382.499834,-7254.018232,995.924147,-2442.679609
1382.500146,-13915.871710,2145.067394,-2442.679609
1382.500457,-18579.169144,-153.219100,-1258.350101
1382.500769,-20133.601622,-995.924147,-370.102971
1382.501080,-18579.169144,1302.362347,1406.391290
1382.501392,-14730.098246,3830.477490,1702.473667
1382.501703,-9474.636058,3294.210641,1776.494261
1382.502015,-2220.617826,-383.047749,1184.329507
1382.502327,2368.659014,-3447.429741,2368.659014
1382.502638,4145.153275,-4596.572988,1850.514855
1382.502950,2368.659014,-2298.286494,-666.185348
1382.503261,-3701.029710,1685.410096,-1628.453072
1382.503573,-10732.986159,2145.067394,-2294.638420
1382.503884,-18949.272115,1685.410096,-1332.370696
1382.504196,-22354.219448,4443.353888,222.061783
1382.504508,-20133.601622,5286.058936,592.164754
1382.504819,-15618.345376,3677.258390,962.267725
1382.505131,-9400.615463,2604.724693,-222.061783
1382.505442,-4441.235652,2068.457845,-1332.370696
1382.505754,444.123565,0.000000,222.061783
1382.506065,3552.988522,-1378.971896,592.164754
1382.506377,-1924.535449,153.219100,2590.720797
1382.506688,-5477.523971,-919.314598,3182.885551
1382.507000,-9030.512492,-2068.457845,1036.288319
1382.507312,-14137.933492,-2068.457845,1924.535449
1382.507623,-16136.489536,689.485948,1628.453072
1382.507935,-17246.798449,2528.115143,888.247130
1382.508246,-14878.139434,1685.410096,814.226536
1382.508558,-10362.883188,-229.828649,370.102971
1382.508869,-6809.894666,-2298.286494,148.041188
1382.509181,-4885.359217,-1915.238745,-1036.288319
1382.509493,-3034.844362,229.828649,-370.102971
1382.509804,-3034.844362,995.924147,-0.000000
1382.510116,-5477.523971,229.828649,3627.009116
1382.510427,-7550.100608,-1455.581446,4145.153275
1382.510739,-10732.986159,-3370.820191,4293.194464
1382.511050,-12435.459826,-2068.457845,3923.091493
1382.511362,-12657.521608,612.876398,2294.638420
1382.511674,-10510.924376,2298.286494,370.102971
1382.511985,-8512.368333,-306.438199,-888.247130
1382.512297,-7179.997637,-3524.039291,-2294.638420
1382.512608,-5995.668130,-2987.772442,-2220.617826
1382.512920,-6957.935855,-153.219100,-1998.556043
1382.513231,-7846.182985,0.000000,-888.247130
1382.513543,-9548.656652,-1225.752797,2220.617826
1382.513855,-11695.253884,-3753.867940,4293.194464
1382.514166,-12065.356855,-4136.915689,3701.029710
1382.514478,-10436.903782,-1302.362347,2960.823768
1382.514789,-9252.574275,842.705048,296.082377
1382.515101,-7031.956449,919.314598,-888.247130
1382.515412,-5699.585753,-2221.676944,-2664.741391
1382.515724,-5329.482782,-2911.162892,-2442.679609
1382.516036,-6661.853478,-2374.896044,-2664.741391
1382.516347,-9104.533087,-306.438199,-2368.659014
1382.516659,-11843.295072,1302.362347,-666.185348
1382.516970,-13249.686362,1072.533697,370.102971
1382.517282,-14359.995275,-306.438199,1776.494261
1382.517593,-14582.057057,-229.828649,2220.617826
1382.517905,-12435.459826,2145.067394,1258.350101
1382.518217,-8882.471304,4596.572988,-0.000000
1382.518528,-4515.256246,3064.381992,-1332.370696
1382.518840,-3627.009116,383.047749,-2664.741391
1382.519151,-3478.967927,-1225.752797,-2738.761985
1382.519463,-5107.421000,-1302.362347,-2590.720797
1382.519774,-8660.409521,383.047749,-1628.453072
1382.520086,-11251.130318,1991.848295,296.082377
1382.520397,-15840.407159,-536.266849,1184.329507
1382.520709,-16950.716072,-1455.581446,2960.823768
1382.521021,-13693.809927,-536.266849,2146.597232
1382.521332,-10140.821405,2145.067394,1776.494261
1382.521644,-6365.771101,2528.115143,1036.288319
1382.521955,-2886.803174,1455.581446,-148.041188
1382.522267,-1628.453072,-995.924147,-370.102971
1382.522578,-2738.761985,-1685.410096,-1184.329507
1382.522890,-4515.256246,306.438199,-592.164754
1382.523202,-6291.750507,3064.381992,-888.247130
1382.523513,-10584.944971,2451.505594,1184.329507
1382.523825,-13915.871710,-1149.143247,2812.782580
1382.524136,-15840.407159,-2451.505594,3627.009116
1382.524448,-14878.139434,612.876398,4367.215058
1382.524759,-11325.150913,2451.505594,3775.050304
1382.525071,-6513.812290,2298.286494,1258.350101
1382.525383,-2368.659014,689.485948,-370.102971
1382.525694,-1036.288319,-919.314598,-1184.329507
1382.526006,-1184.329507,-1455.581446,-1554.432478
1382.526317,-3478.967927,383.047749,-518.144159
1382.526629,-7624.121203,1685.410096,148.041188
1382.526940,-11621.233289,-1225.752797,2294.638420
1382.527252,-15396.283594,-4519.963438,3701.029710
1382.527564,-15618.345376,-3370.820191,3627.009116
1382.527875,-15026.180623,-1225.752797,3182.885551
1382.528187,-13989.892304,-1072.533697,2368.659014
1382.528498,-9844.739029,-995.924147,1258.350101
1382.528810,-5699.585753,-2528.115143,-0.000000
1382.529121,-3997.112087,-3370.820191,-666.185348
1382.529433,-4071.132681,-2604.724693,-518.144159
1382.529745,-6143.709319,383.047749,-1184.329507
1382.530056,-7624.121203,2451.505594,-0.000000
1382.530368,-10732.986159,76.609550,592.164754
1382.530679,-14137.933492,-919.314598,1628.453072
1382.530991,-14508.036463,-919.314598,1998.556043
1382.531302,-12953.603985,306.438199,1776.494261
1382.531614,-10436.903782,995.924147,1036.288319
1382.531926,-6809.894666,459.657299,-518.144159
1382.532237,-4071.132681,-1378.971896,-2294.638420
1382.532549,-2738.761985,-2451.505594,-2368.659014
1382.532860,-4145.153275,-612.876398,-2220.617826
1382.533172,-6661.853478,1532.190996,-2368.659014
1382.533483,-8956.491898,1685.410096,-592.164754
1382.533795,-13175.665768,-919.314598,740.205942
1382.534106,-14804.118840,-1915.238745,2294.638420
1382.534418,-14508.036463,-536.266849,1998.556043
1382.534730,-12361.439231,995.924147,1776.494261
1382.535041,-9474.636058,766.095498,814.226536
1382.535353,-6365.771101,-536.266849,-148.041188
1382.535664,-4589.276840,-1991.848295,-1554.432478
1382.535976,-3330.926739,-1608.800546,-2442.679609
1382.536287,-5181.441594,536.266849,-2072.576638
1382.536599,-8216.285956,2987.772442,-1332.370696
1382.536911,-11621.233289,2834.553343,-0.000000
1382.537222,-13619.789333,459.657299,962.267725
1382.537534,-14211.954086,229.828649,1554.432478
1382.537845,-13249.686362,2374.896044,1480.411884
1382.538157,-10362.883188,3370.820191,222.061783
1382.538468,-6883.915261,2757.943793,-222.061783
1382.538780,-4885.359217,536.266849,-1110.308913
1382.539092,-4515.256246,-1149.143247,-1184.329507
1382.539403,-4737.318029,-229.828649,-518.144159
1382.539715,-7402.059420,2068.457845,-1110.308913
1382.540026,-9474.636058,1532.190996,740.205942
1382.540338,-11325.150913,1532.190996,1406.391290
1382.540649,-13841.851115,-306.438199,1628.453072
1382.540961,-14137.933492,-153.219100,2442.679609
1382.541273,-12731.542202,536.266849,2368.659014
1382.541584,-10436.903782,536.266849,1480.411884
1382.541896,-6439.791695,-459.657299,1110.308913
1382.542207,-3775.050304,-2451.505594,-0.000000
1382.542519,-3256.906145,-4060.306139,-222.061783
1382.542830,-3701.029710,-2221.676944,370.102971
1382.543142,-6513.812290,153.219100,-222.061783
1382.543454,-8660.409521,1608.800546,1998.556043
1382.543765,-12731.542202,0.000000,2590.720797
1382.544077,-15470.304188,-1532.190996,3701.029710
1382.544388,-13915.871710,-459.657299,3034.844362
1382.544700,-11251.130318,1762.019645,2442.679609
1382.545011,-7179.997637,1915.238745,1036.288319
1382.545323,-4293.194464,383.047749,-0.000000
1382.545635,-3552.988522,-1608.800546,-888.247130
1382.545946,-2886.803174,-2451.505594,-518.144159
1382.546258,-4589.276840,-1608.800546,-0.000000
1382.546569,-7105.977043,0.000000,592.164754
1382.546881,-9844.739029,-306.438199,2072.576638
1382.547192,-13101.645173,-2451.505594,2368.659014
1382.547504,-14137.933492,-3370.820191,3182.885551
1382.547815,-14137.933492,-306.438199,2738.761985
1382.548127,-12287.418637,1685.410096,1628.453072
1382.548439,-9104.533087,995.924147,-74.020594
1382.548750,-6439.791695,-766.095498,-1332.370696
1382.549062,-3552.988522,-2298.286494,-1776.494261
1382.549373,-2442.679609,-1685.410096,-2368.659014
1382.549685,-4441.235652,0.000000,-1850.514855
1382.549996,-7994.224174,1685.410096,-814.226536
1382.550308,-11991.336260,459.657299,1480.411884
1382.550620,-15988.448347,-766.095498,2146.597232
1382.550931,-16876.695478,229.828649,2368.659014
1382.551243,-15470.304188,2757.943793,1702.473667
1382.551554,-11843.295072,4366.744339,444.123565
1382.551866,-7105.977043,3600.648841,-1406.391290
1382.552177,-4589.276840,536.266849,-2368.659014
1382.552489,-3256.906145,-459.657299,-2738.761985
1382.552801,-3404.947333,0.000000,-2220.617826
1382.553112,-5921.647536,1532.190996,-1924.535449
1382.553424,-9178.553681,2911.162892,-518.144159
1382.553735,-12287.418637,1838.629195,666.185348
1382.554047,-14063.912898,0.000000,888.247130
1382.554358,-14211.954086,689.485948,1332.370696
1382.554670,-12953.603985,2221.676944,370.102971
1382.554982,-10584.944971,2911.162892,-0.000000
1382.555293,-7105.977043,842.705048,-222.061783
1382.555605,-4737.318029,-2221.676944,-962.267725
1382.555916,-2886.803174,-2451.505594,-666.185348
1382.556228,-4441.235652,-1762.019645,-962.267725
1382.556539,-5699.585753,0.000000,444.123565
1382.556851,-7698.141797,383.047749,1628.453072
1382.557163,-12435.459826,-1302.362347,2220.617826
1382.557474,-13989.892304,-1991.848295,3404.947333
1382.557786,-13693.809927,0.000000,2886.803174
1382.558097,-12065.356855,3064.381992,2072.576638
1382.558409,-8068.244768,3753.867940,1184.329507
1382.558720,-5107.421000,1072.533697,-444.123565
1382.559032,-3849.070898,-919.314598,-888.247130
1382.559344,-3478.967927,-1685.410096,-592.164754
1382.559655,-5329.482782,306.438199,-1184.329507
1382.559967,-7105.977043,1838.629195,222.061783
1382.560278,-9918.759623,383.047749,1480.411884
1382.560590,-12731.542202,-2451.505594,2590.720797
1382.560901,-14285.974681,-3217.601092,3701.029710
1382.561213,-13323.706956,-2374.896044,3923.091493
1382.561524,-11843.295072,-919.314598,2516.700203
1382.561836,-8734.430116,-995.924147,2072.576638
1382.562148,-5181.441594,-2145.067394,222.061783
1382.562459,-3923.091493,-2681.334243,-962.267725
1382.562771,-4145.153275,-2528.115143,-740.205942
1382.563082,-5773.606348,-766.095498,-518.144159
1382.563394,-8512.368333,766.095498,1258.350101
1382.563705,-12139.377449,-612.876398,2220.617826
1382.564017,-15322.262999,-1685.410096,2738.761985
1382.564329,-15618.345376,-306.438199,2886.803174
1382.564640,-13619.789333,1915.238745,1924.535449
1382.564952,-9770.718434,2374.896044,222.061783
1382.565263,-5921.647536,1378.971896,-1036.288319
1382.565575,-4589.276840,-689.485948,-1776.494261
1382.565886,-2886.803174,-1378.971896,-1850.514855
1382.566198,-4367.215058,-689.485948,-1258.350101
1382.566510,-7105.977043,1455.581446,-518.144159
1382.566821,-9030.512492,1072.533697,592.164754
1382.567133,-11769.274478,0.000000,592.164754
1382.567444,-13101.645173,-383.047749,1110.308913
1382.567756,-12731.542202,689.485948,1036.288319
1382.568067,-12065.356855,1838.629195,814.226536
1382.568379,-9030.512492,1915.238745,-74.020594
1382.568691,-5699.585753,1072.533697,-444.123565
1382.569002,-5181.441594,-1149.143247,-1628.453072
1382.569314,-5329.482782,-995.924147,-1480.411884
1382.569625,-5847.626942,1072.533697,-1628.453072
1382.569937,-7772.162391,2451.505594,-814.226536
1382.570248,-11473.192101,2145.067394,888.247130
1382.570560,-14285.974681,459.657299,1480.411884
1382.570872,-15544.324782,1072.533697,1332.370696
1382.571183,-13841.851115,2681.334243,1480.411884
1382.571495,-10510.924376,4290.134789,222.061783
1382.571806,-6587.832884,3983.696590,-666.185348
1382.572118,-4293.194464,1149.143247,-1406.391290
1382.572429,-2960.823768,-995.924147,-1480.411884
1382.572741,-3552.988522,-1072.533697,-1406.391290
1382.573053,-6143.709319,842.705048,-814.226536
1382.573364,-8586.388927,1608.800546,148.041188
1382.573676,-10881.027347,-459.657299,1110.308913
1382.573987,-13101.645173,-2834.553343,2294.638420
1382.574299,-14285.974681,-2451.505594,2812.782580
1382.574610,-13323.706956,-995.924147,2590.720797
1382.574922,-11029.068536,0.000000,2146.597232
1382.575233,-7179.997637,-689.485948,1480.411884
1382.575545,-4811.338623,-2451.505594,-814.226536
1382.575857,-4367.215058,-2451.505594,-1036.288319
1382.576168,-3775.050304,-536.266849,-814.226536
1382.576480,-6069.688724,0.000000,-592.164754
1382.576791,-9104.533087,536.266849,1406.391290
1382.577103,-12139.377449,-536.266849,3034.844362
1382.577414,-15026.180623,-2374.896044,3849.070898
1382.577726,-14730.098246,-1532.190996,4441.235652
1382.578038,-12657.521608,459.657299,3034.844362
1382.578349,-9178.553681,919.314598,1110.308913
1382.578661,-5033.400406,766.095498,-296.082377
1382.578972,-4145.153275,-2298.286494,-1554.432478
1382.579284,-4071.132681,-2757.943793,-1332.370696
1382.579595,-5033.400406,-1608.800546,-74.020594
1382.579907,-7105.977043,153.219100,148.041188
1382.580219,-9474.636058,-689.485948,2146.597232
1382.580530,-12065.356855,-2834.553343,2960.823768
1382.580842,-14063.912898,-3907.087040,3182.885551
1382.581153,-12583.501014,-2068.457845,2886.803174
1382.581465,-11251.130318,-536.266849,1776.494261
1382.581776,-8438.347739,689.485948,740.205942
1382.582088,-5921.647536,-995.924147,-666.185348
1382.582400,-5033.400406,-2834.553343,-1406.391290
1382.582711,-4589.276840,-2221.676944,-962.267725
1382.583023,-5699.585753,229.828649,-888.247130
1382.583334,-8438.347739,2068.457845,-444.123565
1382.583646,-11177.109724,1838.629195,888.247130
1382.583957,-13619.789333,0.000000,1258.350101
1382.584269,-14137.933492,1225.752797,1554.432478
1382.584581,-12805.562797,3677.258390,814.226536
1382.584892,-10732.986159,5209.449386,-370.102971
1382.585204,-7254.018232,4596.572988,-1184.329507
1382.585515,-5329.482782,1378.971896,-1924.535449
1382.585827,-3404.947333,536.266849,-2220.617826
1382.586138,-4589.276840,1225.752797,-2590.720797
1382.586450,-6143.709319,2681.334243,-2812.782580
1382.586762,-8734.430116,3140.991542,-1110.308913
1382.587073,-11991.336260,1378.971896,148.041188
1382.587385,-14434.015869,-689.485948,1924.535449
1382.587696,-14508.036463,-1225.752797,2220.617826
1382.588008,-13767.830521,229.828649,2220.617826
1382.588319,-9770.718434,2068.457845,962.267725
1382.588631,-6291.750507,76.609550,-666.185348
1382.588942,-4663.297435,-3217.601092,-1924.535449
1382.589254,-3552.988522,-3983.696590,-1406.391290
1382.589566,-4737.318029,-1302.362347,-888.247130
1382.589877,-7698.141797,1455.581446,-0.000000
1382.590189,-10807.006753,1455.581446,1702.473667
1382.590500,-12657.521608,229.828649,2738.761985
1382.590812,-14434.015869,-842.705048,2738.761985
1382.591123,-12583.501014,-229.828649,2368.659014
1382.591435,-10066.800811,1838.629195,1776.494261
1382.591747,-7179.997637,1302.362347,-0.000000
1382.592058,-4737.318029,-842.705048,-518.144159
1382.592370,-4293.194464,-3600.648841,-1258.350101
1382.592681,-3997.112087,-2374.896044,-296.082377
1382.592993,-5847.626942,-2298.286494,666.185348
1382.593304,-8660.409521,-383.047749,1184.329507
1382.593616,-10214.842000,-919.314598,2664.741391
1382.593927,-13175.665768,-2451.505594,3034.844362
1382.594239,-13101.645173,-3140.991542,4145.153275
1382.594551,-12731.542202,-1991.848295,3478.967927
1382.594862,-11029.068536,0.000000,1924.535449
1382.595174,-7328.038826,383.047749,222.061783
1382.595485,-5107.421000,-2145.067394,-740.205942
1382.595797,-3627.009116,-3600.648841,-592.164754
1382.596108,-4293.194464,-3294.210641,-814.226536
1382.596420,-6143.709319,-1838.629195,-74.020594
1382.596731,-9548.656652,-612.876398,1776.494261
1382.597043,-12509.480420,-689.485948,3182.885551
1382.597354,-14878.139434,-1838.629195,3108.864956
1382.597666,-14730.098246,-1149.143247,3330.926739
1382.597977,-12657.521608,229.828649,2516.700203
1382.598289,-9326.594869,1991.848295,-0.000000
1382.598601,-5921.647536,1915.238745,-1406.391290
1382.598912,-4663.297435,-536.266849,-2664.741391
1382.599224,-3034.844362,-842.705048,-2220.617826
1382.599535,-4367.215058,383.047749,-2146.597232
1382.599847,-7328.038826,2528.115143,-1110.308913
1382.600158,-9918.759623,2451.505594,-0.000000
1382.600470,-13323.706956,1225.752797,1480.411884
1382.600781,-13545.768739,0.000000,2294.638420
1382.601093,-13175.665768,842.705048,1628.453072
1382.601404,-12731.542202,2834.553343,666.185348
1382.601716,-8660.409521,3140.991542,-518.144159
1382.602027,-5551.544565,1685.410096,-1850.514855
1382.602339,-4293.194464,-229.828649,-2590.720797
1382.602650,-3701.029710,-536.266849,-2294.638420
1382.602962,-5255.462188,536.266849,-1628.453072
1382.603274,-7772.162391,1608.800546,-592.164754
1382.603585,-10288.862594,2528.115143,444.123565
1382.603897,-13397.727550,766.095498,1480.411884
1382.604208,-14656.077652,229.828649,2146.597232
1382.604520,-13175.665768,1608.800546,1702.473667
1382.604831,-10584.944971,3217.601092,666.185348
1382.605143,-7846.182985,2987.772442,-296.082377
1382.605454,-5699.585753,229.828649,-1628.453072
1382.605766,-4367.215058,-689.485948,-2368.659014
1382.606077,-4515.256246,-536.266849,-1850.514855
1382.606389,-6069.688724,383.047749,-592.164754
1382.606700,-8734.430116,-306.438199,1110.308913
1382.607012,-11473.192101,-1455.581446,2220.617826
1382.607324,-14285.974681,-3140.991542,3256.906145
1382.607635,-13989.892304,-2068.457845,3478.967927
1382.607947,-12065.356855,-1608.800546,2664.741391
1382.608258,-9178.553681,-689.485948,1776.494261
1382.608570,-6143.709319,-1762.019645,-0.000000
1382.608881,-4737.318029,-3524.039291,-1036.288319
1382.609193,-3627.009116,-3600.648841,-148.041188
1382.609504,-5403.503377,-2911.162892,-74.020594
1382.609816,-8734.430116,-1532.190996,518.144159
1382.610127,-10140.821405,0.000000,2812.782580
1382.610439,-12435.459826,-766.095498,2960.823768
1382.610750,-13841.851115,-2298.286494,3701.029710
1382.611062,-13471.748144,-1455.581446,3701.029710
1382.611374,-11473.192101,1378.971896,2960.823768
1382.611685,-8142.265362,2068.457845,962.267725
1382.611997,-5773.606348,612.876398,-370.102971
1382.612308,-4071.132681,-919.314598,-2146.597232
1382.612620,-3034.844362,-612.876398,-1258.350101
1382.612931,-4885.359217,-383.047749,-1332.370696
1382.613243,-7550.100608,536.266849,-148.041188
1382.613554,-10288.862594,-229.828649,1628.453072
1382.613866,-13249.686362,-2528.115143,2590.720797
1382.614177,-14285.974681,-3600.648841,3404.947333
1382.614489,-13323.706956,-2221.676944,2886.803174
1382.614800,-11177.109724,76.609550,1332.370696
1382.615112,-7254.018232,306.438199,-74.020594
1382.615423,-5551.544565,-612.876398,-1480.411884
1382.615735,-4811.338623,-3217.601092,-1776.494261
1382.616047,-5255.462188,-2451.505594,-1110.308913
1382.616358,-6957.935855,0.000000,-666.185348
1382.616670,-9474.636058,1991.848295,296.082377
1382.616981,-11695.253884,2221.676944,592.164754
1382.617293,-13397.727550,2374.896044,1036.288319
1382.617604,-13175.665768,2528.115143,1036.288319
1382.617916,-11917.315666,5056.230287,444.123565
1382.618227,-10362.883188,6128.763984,-888.247130
1382.618539,-6809.894666,4903.011187,-1480.411884
1382.618850,-5699.585753,2604.724693,-2812.782580
1382.619162,-4293.194464,1302.362347,-2516.700203
1382.619473,-4959.379811,919.314598,-3256.906145
1382.619785,-6735.874072,2834.553343,-2368.659014
1382.620097,-8216.285956,3524.039291,-222.061783
1382.620408,-12065.356855,1225.752797,962.267725
1382.620720,-14359.995275,-1915.238745,1776.494261
1382.621031,-14063.912898,-1608.800546,2516.700203
1382.621343,-12065.356855,0.000000,1554.432478
1382.621654,-8660.409521,1685.410096,444.123565
1382.621966,-5403.503377,1302.362347,-1258.350101
1382.622277,-4663.297435,-2068.457845,-2220.617826
1382.622589,-4367.215058,-2757.943793,-666.185348
1382.622900,-5329.482782,-995.924147,-370.102971
1382.623212,-8364.327145,306.438199,518.144159
1382.623523,-10584.944971,612.876398,2442.679609
1382.623835,-13175.665768,-1608.800546,3034.844362
1382.624147,-14063.912898,-2374.896044,3849.070898
1382.624458,-12583.501014,-919.314598,3478.967927
1382.624770,-10658.965565,689.485948,2886.803174
1382.625081,-7624.121203,536.266849,962.267725
1382.625393,-5403.503377,-153.219100,-444.123565
1382.625704,-4219.173869,-612.876398,-1258.350101
1382.626016,-3034.844362,76.609550,-814.226536
1382.626327,-5181.441594,612.876398,-1332.370696
1382.626639,-8142.265362,1378.971896,222.061783
1382.626950,-10436.903782,0.000000,1702.473667
1382.627262,-12287.418637,-2451.505594,3182.885551
1382.627573,-13841.851115,-3907.087040,4367.215058
1382.627885,-13323.706956,-2911.162892,3997.112087
1382.628196,-11547.212695,-919.314598,2072.576638
1382.628508,-7846.182985,306.438199,592.164754
1382.628820,-5033.400406,-1838.629195,-444.123565
1382.629131,-3404.947333,-3217.601092,-1184.329507
1382.629443,-4071.132681,-2757.943793,-296.082377
1382.629754,-6143.709319,-2068.457845,-0.000000
1382.630066,-8586.388927,0.000000,1702.473667
1382.630377,-12139.377449,0.000000,2960.823768
1382.630689,-14285.974681,-995.924147,3108.864956
1382.631000,-13989.892304,-995.924147,2960.823768
1382.631312,-12509.480420,536.266849,1850.514855
1382.631623,-9474.636058,2451.505594,-370.102971
1382.631935,-7402.059420,2681.334243,-1406.391290
1382.632246,-6365.771101,306.438199,-2664.741391
1382.632558,-4885.359217,-306.438199,-1776.494261
1382.632870,-5329.482782,383.047749,-1036.288319
1382.633181,-7105.977043,919.314598,-592.164754
1382.633493,-9400.615463,1225.752797,-0.000000
1382.633804,-12065.356855,842.705048,666.185348
1382.634116,-13027.624579,459.657299,888.247130
1382.634427,-13027.624579,1302.362347,148.041188
1382.634739,-11843.295072,2451.505594,-148.041188
1382.635050,-8364.327145,2757.943793,-1110.308913
1382.635362,-5403.503377,1762.019645,-1554.432478
1382.635673,-4737.318029,76.609550,-2590.720797
1382.635985,-5033.400406,0.000000,-1554.432478
1382.636296,-5995.668130,995.924147,-1480.411884
1382.636608,-7846.182985,2298.286494,-0.000000
1382.636920,-8882.471304,2145.067394,1998.556043
1382.637231,-11917.315666,383.047749,1332.370696
1382.637543,-13249.686362,0.000000,1702.473667
1382.637854,-13027.624579,1072.533697,1628.453072
1382.638166,-11103.089130,2604.724693,1036.288319
1382.638477,-8734.430116,2374.896044,296.082377
1382.638789,-6291.750507,383.047749,-814.226536
1382.639100,-5181.441594,-919.314598,-1184.329507
1382.639412,-4367.215058,-383.047749,-666.185348
1382.639723,-5033.400406,383.047749,-370.102971
1382.640035,-7476.080014,229.828649,1036.288319
1382.640346,-9770.718434,-1378.971896,2368.659014
1382.640658,-12435.459826,-3217.601092,2812.782580
1382.640969,-13841.851115,-2604.724693,2812.782580
1382.641281,-12509.480420,0.000000,2812.782580
1382.641593,-9918.759623,0.000000,1554.432478
1382.641904,-6587.832884,-995.924147,592.164754
1382.642216,-5329.482782,-3753.867940,444.123565
1382.642527,-5181.441594,-4903.011187,148.041188
1382.642839,-5625.565159,-2757.943793,-0.000000
1382.643150,-8068.244768,229.828649,148.041188
1382.643462,-9918.759623,919.314598,1850.514855
1382.643773,-11769.274478,0.000000,2442.679609
1382.644085,-13693.809927,-2221.676944,3256.906145
1382.644396,-13175.665768,-1302.362347,4367.215058
1382.644708,-12361.439231,1378.971896,3552.988522
1382.645019,-9474.636058,2604.724693,814.226536
1382.645331,-7105.977043,1915.238745,-888.247130
1382.645643,-5329.482782,-995.924147,-1998.556043
1382.645954,-2442.679609,-1378.971896,-1332.370696
1382.646266,-4293.194464,-536.266849,-1480.411884
1382.646577,-7254.018232,0.000000,-518.144159
1382.646889,-9844.739029,-383.047749,1628.453072
1382.647200,-13101.645173,-1302.362347,2368.659014
1382.647512,-13915.871710,-2145.067394,3627.009116
1382.647823,-12953.603985,-1455.581446,2220.617826
1382.648135,-10881.027347,0.000000,962.267725
1382.648446,-6957.935855,1455.581446,-888.247130
1382.648758,-4885.359217,-536.266849,-1850.514855
1382.649069,-4293.194464,-1838.629195,-2590.720797
1382.649381,-5107.421000,-1915.238745,-2220.617826
1382.649693,-5847.626942,0.000000,-814.226536
1382.650004,-7994.224174,842.705048,222.061783
1382.650316,-10807.006753,766.095498,1332.370696
1382.650627,-13397.727550,-842.705048,1702.473667
1382.650939,-14804.118840,-153.219100,2072.576638
1382.651250,-12509.480420,2298.286494,2220.617826
1382.651562,-11029.068536,4903.011187,-0.000000
1382.651873,-7179.997637,4136.915689,-1702.473667
1382.652185,-4959.379811,1762.019645,-3404.947333
1382.652496,-3775.050304,766.095498,-2886.803174
1382.652808,-3923.091493,2068.457845,-2960.823768
1382.653119,-7179.997637,3217.601092,-1850.514855
1382.653431,-9992.780217,3294.210641,-0.000000
1382.653743,-12657.521608,919.314598,1554.432478
1382.654054,-14359.995275,-1302.362347,2146.597232
1382.654366,-12879.583391,-689.485948,2146.597232
1382.654677,-11843.295072,842.705048,888.247130
1382.654989,-8882.471304,1149.143247,-74.020594
1382.655300,-6661.853478,76.609550,-148.041188
1382.655612,-5995.668130,-2987.772442,-1554.432478
1382.655923,-5181.441594,-3524.039291,-370.102971
1382.656235,-7105.977043,-2681.334243,-0.000000
1382.656546,-8216.285956,-612.876398,1184.329507
1382.656858,-9844.739029,-766.095498,2146.597232
1382.657169,-11917.315666,-2451.505594,2812.782580
1382.657481,-13915.871710,-2604.724693,3552.988522
1382.657792,-13323.706956,-459.657299,3404.947333
1382.658104,-11103.089130,2451.505594,2072.576638
1382.658416,-6883.915261,2221.676944,814.226536
1382.658727,-4663.297435,306.438199,-666.185348
1382.659039,-4367.215058,-383.047749,-1702.473667
1382.659350,-3034.844362,0.000000,-888.247130
1382.659662,-4885.359217,383.047749,-74.020594
1382.659973,-8290.306550,0.000000,1628.453072
1382.660285,-10288.862594,-1149.143247,2442.679609
1382.660596,-13175.665768,-2757.943793,2664.741391
1382.660908,-12361.439231,-2757.943793,4515.256246
1382.661219,-11103.089130,-2451.505594,3552.988522
1382.661531,-10066.800811,-1455.581446,2220.617826
1382.661842,-7105.977043,-1608.800546,1036.288319
1382.662154,-5107.421000,-3447.429741,-888.247130
1382.662466,-4145.153275,-3140.991542,-1110.308913
1382.662777,-4885.359217,-2834.553343,-888.247130
1382.663089,-6217.729913,-1608.800546,-592.164754
1382.663400,-9104.533087,-689.485948,370.102971
1382.663712,-12435.459826,383.047749,1850.514855
1382.664023,-13841.851115,76.609550,2516.700203
1382.664335,-15174.221811,76.609550,3108.864956
1382.664646,-13619.789333,1378.971896,2590.720797
1382.664958,-10214.842000,2068.457845,-0.000000
1382.665269,-6365.771101,2374.896044,-1776.494261
1382.665581,-3923.091493,2298.286494,-3627.009116
1382.665892,-3775.050304,689.485948,-3775.050304
1382.666204,-4589.276840,383.047749,-2738.761985
1382.666516,-7105.977043,1149.143247,-1850.514855
1382.666827,-9992.780217,689.485948,370.102971
1382.667139,-13545.768739,-766.095498,1998.556043
1382.667450,-15026.180623,-1225.752797,2664.741391
1382.667762,-14508.036463,76.609550,1776.494261
1382.668073,-12657.521608,689.485948,962.267725
1382.668385,-7994.224174,2298.286494,-222.061783
1382.668696,-5625.565159,1685.410096,-1776.494261
1382.669008,-5551.544565,-306.438199,-2886.803174
1382.669319,-4885.359217,-1149.143247,-1332.370696
1382.669631,-6217.729913,842.705048,-1628.453072
1382.669942,-8660.409521,3140.991542,-222.061783
1382.670254,-10955.047942,3064.381992,888.247130
1382.670565,-13323.706956,842.705048,1554.432478
1382.670877,-13545.768739,1149.143247,2738.761985
1382.671189,-11917.315666,2068.457845,1776.494261
1382.671500,-9992.780217,3294.210641,1258.350101
1382.671812,-6587.832884,3370.820191,-0.000000
1382.672123,-4367.215058,1378.971896,-814.226536
1382.672435,-2368.659014,-995.924147,-1258.350101
1382.672746,-3701.029710,-1762.019645,-1110.308913
1382.673058,-6217.729913,-383.047749,-370.102971
1382.673369,-8364.327145,842.705048,592.164754
1382.673681,-10732.986159,-1149.143247,2146.597232
1382.673992,-12731.542202,-2987.772442,3330.926739
1382.674304,-13249.686362,-3294.210641,3775.050304
1382.674615,-12509.480420,-2681.334243,3034.844362
1382.674927,-9474.636058,-383.047749,2146.597232
1382.675239,-5625.565159,-1302.362347,1258.350101
1382.675550,-3775.050304,-2757.943793,-0.000000
1382.675862,-3775.050304,-4903.011187,666.185348
1382.676173,-5403.503377,-3907.087040,-74.020594
1382.676485,-7031.956449,-1149.143247,1110.308913
1382.676796,-9326.594869,76.609550,2368.659014
1382.677108,-11843.295072,-1455.581446,3108.864956
1382.677419,-13693.809927,-2604.724693,3182.885551
1382.677731,-13249.686362,-995.924147,3108.864956
1382.678042,-11399.171507,536.266849,1998.556043
1382.678354,-9178.553681,2298.286494,444.123565
1382.678665,-6365.771101,1685.410096,-962.267725
1382.678977,-5181.441594,-1072.533697,-2294.638420
1382.679289,-4737.318029,-689.485948,-2368.659014
1382.679600,-5995.668130,612.876398,-1924.535449
1382.679912,-8734.430116,1608.800546,-962.267725
1382.680223,-11177.109724,153.219100,1036.288319
1382.680535,-13619.789333,-1455.581446,1480.411884
1382.680846,-14434.015869,-2451.505594,3108.864956
1382.681158,-13101.645173,-1991.848295,2886.803174
1382.681469,-11621.233289,-1072.533697,1480.411884
1382.681781,-7920.203579,-689.485948,296.082377
1382.682092,-5403.503377,-1762.019645,-1850.514855
1382.682404,-4589.276840,-3140.991542,-2960.823768
1382.682715,-5551.544565,-1302.362347,-2812.782580
1382.683027,-7550.100608,229.828649,-2220.617826
1382.683338,-9400.615463,2145.067394,-518.144159
1382.683650,-12065.356855,1072.533697,1702.473667
1382.683962,-15026.180623,-153.219100,2738.761985
1382.684273,-14804.118840,689.485948,3108.864956
1382.684585,-13397.727550,2757.943793,2146.597232
1382.684896,-9622.677246,4443.353888,296.082377
1382.685208,-4811.338623,5209.449386,-2368.659014
1382.685519,-3478.967927,4136.915689,-3923.091493
1382.685831,-3034.844362,2451.505594,-3849.070898
1382.686142,-3404.947333,2604.724693,-2886.803174
1382.686454,-5921.647536,3600.648841,-1924.535449
1382.686765,-9400.615463,3600.648841,888.247130
1382.687077,-13175.665768,1072.533697,2072.576638
1382.687388,-13915.871710,-536.266849,2812.782580
1382.687700,-12213.398043,-536.266849,2664.741391
1382.688012,-11029.068536,383.047749,1110.308913
1382.688323,-7624.121203,1378.971896,74.020594
1382.688635,-4885.359217,383.047749,-296.082377
1382.688946,-4367.215058,-2451.505594,-1258.350101
1382.689258,-4663.297435,-3524.039291,-148.041188
1382.689569,-6217.729913,-1378.971896,-0.000000
1382.689881,-8438.347739,766.095498,1776.494261
1382.690192,-10658.965565,612.876398,2220.617826
1382.690504,-13101.645173,-995.924147,3108.864956
1382.690815,-13693.809927,-1685.410096,3404.947333
1382.691127,-12583.501014,0.000000,3478.967927
1382.691438,-10140.821405,1532.190996,2516.700203
1382.691750,-7105.977043,1532.190996,814.226536
1382.692062,-5033.400406,0.000000,-296.082377
1382.692373,-3552.988522,-1915.238745,-518.144159
1382.692685,-3627.009116,-1915.238745,-444.123565
1382.692996,-6217.729913,-536.266849,-444.123565
1382.693308,-9030.512492,76.609550,888.247130
1382.693619,-10955.047942,-459.657299,1998.556043
1382.693931,-13027.624579,-2528.115143,2886.803174
1382.694242,-13767.830521,-2911.162892,3849.070898
1382.694554,-13471.748144,-2221.676944,2886.803174
1382.694865,-11695.253884,-919.314598,2220.617826
1382.695177,-8216.285956,0.000000,1332.370696
1382.695488,-6143.709319,-2451.505594,-666.185348
1382.695800,-4145.153275,-3447.429741,-888.247130
1382.696112,-4515.256246,-2834.553343,-1258.350101
1382.696423,-5477.523971,-919.314598,-962.267725
1382.696735,-7994.224174,766.095498,-74.020594
1382.697046,-11843.295072,229.828649,1110.308913
1382.697358,-13841.851115,-1455.581446,2368.659014
1382.697669,-13693.809927,-1455.581446,2664.741391
1382.697981,-12509.480420,1225.752797,2368.659014
1382.698292,-10584.944971,2068.457845,1258.350101
1382.698604,-6513.812290,842.705048,-444.123565
1382.698915,-4441.235652,-1608.800546,-2368.659014
1382.699227,-3404.947333,-1225.752797,-2368.659014
1382.699538,-5329.482782,153.219100,-2590.720797
1382.699850,-7846.182985,1762.019645,-2072.576638
1382.700162,-10732.986159,1838.629195,-592.164754
1382.700473,-13693.809927,919.314598,370.102971
1382.700785,-13841.851115,612.876398,1702.473667
1382.701096,-13841.851115,1378.971896,1776.494261
1382.701408,-12213.398043,2451.505594,1036.288319
1382.701719,-9104.533087,3217.601092,-370.102971
1382.702031,-5773.606348,2451.505594,-2294.638420
1382.702342,-3627.009116,1685.410096,-2590.720797
1382.702654,-3997.112087,842.705048,-2664.741391
1382.702965,-5551.544565,842.705048,-1776.494261
1382.703277,-8142.265362,2068.457845,-518.144159
1382.703588,-10436.903782,2451.505594,1332.370696
1382.703900,-13323.706956,842.705048,2738.761985
1382.704212,-14508.036463,76.609550,2812.782580
1382.704523,-12287.418637,1225.752797,1776.494261
1382.704835,-9770.718434,3294.210641,444.123565
1382.705146,-6883.915261,3753.867940,-0.000000
1382.705458,-5329.482782,2374.896044,-1110.308913
1382.705769,-4737.318029,766.095498,-1628.453072
1382.706081,-4737.318029,-229.828649,444.123565
1382.706392,-6661.853478,-689.485948,1184.329507
1382.706704,-9178.553681,229.828649,2368.659014
1382.707015,-11399.171507,76.609550,2738.761985
1382.707327,-12213.398043,-2145.067394,3108.864956
1382.707638,-11325.150913,-1762.019645,3552.988522
1382.707950,-11029.068536,-1378.971896,2220.617826
1382.708262,-9326.594869,-536.266849,1480.411884
1382.708573,-5921.647536,-689.485948,1036.288319
1382.708885,-4293.194464,-2068.457845,-370.102971
1382.709196,-4145.153275,-2604.724693,-0.000000
1382.709508,-4589.276840,-3064.381992,444.123565
1382.709819,-7105.977043,-2145.067394,888.247130
1382.710131,-9178.553681,-1608.800546,2738.761985
1382.710442,-11769.274478,-2145.067394,3256.906145
1382.710754,-14285.974681,-2987.772442,3478.967927
1382.711065,-14952.160028,-2145.067394,3627.009116
1382.711377,-12805.562797,-459.657299,3034.844362
1382.711689,-9030.512492,383.047749,1554.432478
1382.712000,-5699.585753,0.000000,74.020594
1382.712312,-4885.359217,-1532.190996,-1406.391290
1382.712623,-3701.029710,-2221.676944,-1258.350101
1382.712935,-4293.194464,-383.047749,-1480.411884
1382.713246,-6661.853478,1302.362347,-1036.288319
1382.713558,-9030.512492,153.219100,296.082377
1382.713869,-12361.439231,-1762.019645,1184.329507
1382.714181,-14211.954086,-2374.896044,1924.535449
1382.714492,-14063.912898,-1762.019645,2220.617826
1382.714804,-13323.706956,153.219100,962.267725
1382.715115,-10362.883188,842.705048,-0.000000
1382.715427,-6661.853478,-459.657299,-1998.556043
1382.715739,-4663.297435,-2528.115143,-2516.700203
1382.716050,-4145.153275,-2528.115143,-2590.720797
1382.716362,-6069.688724,-383.047749,-2812.782580
1382.716673,-8216.285956,2068.457845,-1184.329507
1382.716985,-10881.027347,1455.581446,444.123565
1382.717296,-14211.954086,0.000000,1628.453072
1382.717608,-16136.489536,-842.705048,2442.679609
1382.717919,-15174.221811,1378.971896,2294.638420
1382.718231,-11843.295072,4136.915689,444.123565
1382.718542,-7550.100608,4903.011187,-1332.370696
1382.718854,-5181.441594,2834.553343,-3182.885551
1382.719165,-3478.967927,1685.410096,-3478.967927
1382.719477,-3478.967927,1915.238745,-3034.844362
1382.719789,-4737.318029,3600.648841,-2294.638420
1382.720100,-7105.977043,4596.572988,-666.185348
1382.720412,-11473.192101,2987.772442,740.205942
1382.720723,-13323.706956,383.047749,1924.535449
1382.721035,-12509.480420,536.266849,1998.556043
1382.721346,-11473.192101,995.924147,1406.391290
1382.721658,-8364.327145,1378.971896,814.226536
1382.721969,-6365.771101,383.047749,-222.061783
1382.722281,-5403.503377,-2068.457845,-1184.329507
1382.722592,-4367.215058,-2757.943793,-148.041188
1382.722904,-5329.482782,-2374.896044,370.102971
1382.723216,-7920.203579,-995.924147,1036.288319
1382.723527,-10214.842000,-766.095498,2590.720797
1382.723839,-11917.315666,-1149.143247,2812.782580
1382.724150,-13027.624579,-1225.752797,3256.906145
1382.724462,-12065.356855,0.000000,3256.906145
1382.724773,-10732.986159,842.705048,2442.679609
1382.725085,-8290.306550,1302.362347,1406.391290
1382.725396,-5921.647536,0.000000,962.267725
1382.725708,-5477.523971,-1915.238745,-296.082377
1382.726019,-4071.132681,-1762.019645,296.082377
1382.726331,-5107.421000,-919.314598,296.082377
1382.726642,-7328.038826,-383.047749,888.247130
1382.726954,-8882.471304,-1378.971896,2368.659014
1382.727266,-12361.439231,-2451.505594,2590.720797
1382.727577,-13619.789333,-2987.772442,3108.864956
1382.727889,-12879.583391,-1991.848295,3034.844362
1382.728200,-11177.109724,-1378.971896,2368.659014
1382.728512,-8438.347739,-1762.019645,814.226536
1382.728823,-5403.503377,-2911.162892,-148.041188
1382.729135,-4663.297435,-3907.087040,-592.164754
1382.729446,-4885.359217,-3140.991542,-740.205942
1382.729758,-6069.688724,-1762.019645,-0.000000
1382.730069,-9252.574275,-1532.190996,1110.308913
1382.730381,-11843.295072,-1455.581446,2220.617826
1382.730692,-14211.954086,-1608.800546,2368.659014
1382.731004,-14508.036463,0.000000,2368.659014
1382.731316,-13175.665768,1762.019645,962.267725
1382.731627,-9770.718434,4213.525239,-592.164754
1382.731939,-5921.647536,3370.820191,-1702.473667
1382.732250,-5107.421000,766.095498,-2738.761985
1382.732562,-5033.400406,-306.438199,-2516.700203
1382.732873,-5403.503377,842.705048,-2590.720797
1382.733185,-7698.141797,1838.629195,-1554.432478
1382.733496,-9400.615463,1762.019645,370.102971
1382.733808,-11399.171507,0.000000,962.267725
1382.734119,-13841.851115,-2374.896044,2368.659014
1382.734431,-13545.768739,-1532.190996,2516.700203
1382.734742,-13397.727550,459.657299,814.226536
1382.735054,-10732.986159,3294.210641,-592.164754
1382.735366,-7105.977043,3140.991542,-1998.556043
1382.735677,-5107.421000,612.876398,-3627.009116
1382.735989,-3330.926739,-229.828649,-2812.782580
1382.736300,-4441.235652,1149.143247,-2072.576638
1382.736612,-7105.977043,1225.752797,-888.247130
1382.736923,-9770.718434,1532.190996,1554.432478
1382.737235,-13989.892304,229.828649,2146.597232
1382.737546,-14211.954086,-229.828649,2590.720797
1382.737858,-13323.706956,1225.752797,1702.473667
1382.738169,-10140.821405,2987.772442,962.267725
1382.738481,-6143.709319,3447.429741,-814.226536
1382.738793,-4441.235652,842.705048,-1036.288319
1382.739104,-3330.926739,-995.924147,-1406.391290
1382.739416,-3775.050304,-1378.971896,-222.061783
1382.739727,-5699.585753,-536.266849,-0.000000
1382.740039,-8142.265362,459.657299,1184.329507
1382.740350,-10881.027347,-229.828649,1628.453072
1382.740662,-12879.583391,-2298.286494,3034.844362
1382.740973,-14211.954086,-3294.210641,3330.926739
1382.741285,-12805.562797,-2068.457845,3849.070898
1382.741596,-11177.109724,-1072.533697,2590.720797
1382.741908,-8216.285956,-1072.533697,1628.453072
1382.742219,-5403.503377,-2374.896044,222.061783
1382.742531,-3701.029710,-3140.991542,-148.041188
1382.742843,-4293.194464,-2834.553343,-444.123565
1382.743154,-6143.709319,-1455.581446,444.123565
1382.743466,-8660.409521,229.828649,1850.514855
1382.743777,-11103.089130,0.000000,3108.864956
1382.744089,-13619.789333,-2145.067394,3404.947333
1382.744400,-14137.933492,-1838.629195,3552.988522
1382.744712,-12287.418637,153.219100,2664.741391
1382.745023,-9622.677246,1532.190996,1406.391290
1382.745335,-6735.874072,995.924147,-222.061783
1382.745646,-4737.318029,-766.095498,-1480.411884
1382.745958,-4219.173869,-1838.629195,-1332.370696
1382.746269,-4885.359217,-2145.067394,-666.185348
1382.746581,-6883.915261,-459.657299,-518.144159
1382.746893,-9474.636058,383.047749,1036.288319
1382.747204,-12805.562797,-1378.971896,1924.535449
1382.747516,-14878.139434,-2374.896044,2220.617826
1382.747827,-14285.974681,-1072.533697,1998.556043
1382.748139,-11991.336260,1225.752797,1036.288319
1382.748450,-7920.203579,1991.848295,-0.000000
1382.748762,-5255.462188,383.047749,-1480.411884
1382.749073,-4219.173869,-842.705048,-2738.761985
1382.749385,-3701.029710,-536.266849,-2368.659014
1382.749696,-4959.379811,1302.362347,-1998.556043
1382.750008,-7994.224174,3217.601092,-592.164754
1382.750319,-10584.944971,2374.896044,296.082377
1382.750631,-14211.954086,536.266849,666.185348
1382.750943,-15470.304188,1072.533697,1258.350101
1382.751254,-14063.912898,3447.429741,1332.370696
1382.751566,-11695.253884,4519.963438,-370.102971
1382.751877,-7846.182985,3600.648841,-1258.350101
1382.752189,-5255.462188,995.924147,-2368.659014
1382.752500,-4515.256246,-689.485948,-2368.659014
1382.752812,-4737.318029,-153.219100,-2220.617826
1382.753123,-6143.709319,2068.457845,-1924.535449
1382.753435,-9474.636058,2068.457845,592.164754
1382.753746,-11547.212695,612.876398,2220.617826
1382.754058,-13471.748144,-1762.019645,2368.659014
1382.754370,-14211.954086,-1915.238745,2072.576638
1382.754681,-12287.418637,229.828649,1480.411884
1382.754993,-8586.388927,2145.067394,-0.000000
1382.755304,-5403.503377,1302.362347,-1036.288319
1382.755616,-3923.091493,-1302.362347,-1184.329507
1382.755927,-3701.029710,-3524.039291,-740.205942
1382.756239,-4959.379811,-2451.505594,370.102971
1382.756550,-7328.038826,0.000000,1036.288319
1382.756862,-9474.636058,612.876398,2072.576638
1382.757173,-12139.377449,-689.485948,2442.679609
1382.757485,-14063.912898,-2145.067394,3182.885551
1382.757796,-12657.521608,-1302.362347,3552.988522
1382.758108,-11473.192101,1455.581446,1554.432478
1382.758420,-8956.491898,2451.505594,1258.350101
1382.758731,-6809.894666,0.000000,-0.000000
1382.759043,-5329.482782,-3064.381992,-888.247130
1382.759354,-3849.070898,-2757.943793,-148.041188
1382.759666,-4959.379811,-689.485948,-148.041188
1382.759977,-7476.080014,0.000000,888.247130
1382.760289,-10214.842000,-459.657299,2664.741391
1382.760600,-13471.748144,-1762.019645,3034.844362
1382.760912,-13545.768739,-2681.334243,4293.194464
1382.761223,-13915.871710,-1378.971896,3552.988522
1382.761535,-11621.233289,689.485948,2368.659014
1382.761846,-7328.038826,1302.362347,370.102971
1382.762158,-5329.482782,-766.095498,-1702.473667
1382.762470,-2960.823768,-2221.676944,-1628.453072
1382.762781,-3849.070898,-2068.457845,-1850.514855
1382.763093,-7254.018232,-842.705048,-370.102971
1382.763404,-9252.574275,766.095498,2072.576638
1382.763716,-11695.253884,0.000000,3108.864956
1382.764027,-14063.912898,-1762.019645,3552.988522
1382.764339,-14063.912898,-1225.752797,3034.844362
1382.764650,-11917.315666,1149.143247,2368.659014
1382.764962,-9696.697840,3064.381992,-0.000000
1382.765273,-6513.812290,2987.772442,-962.267725
1382.765585,-4367.215058,1378.971896,-2590.720797
1382.765897,-3923.091493,-229.828649,-2664.741391
1382.766208,-3997.112087,153.219100,-2368.659014
1382.766520,-5995.668130,1915.238745,-1332.370696
1382.766831,-8586.388927,2451.505594,148.041188
1382.767143,-11843.295072,1072.533697,1776.494261
1382.767454,-14434.015869,-995.924147,1998.556043
1382.767766,-14434.015869,-306.438199,2146.597232
1382.768077,-12805.562797,1762.019645,1258.350101
1382.768389,-9178.553681,2911.162892,-740.205942
1382.768700,-5477.523971,1302.362347,-2072.576638
1382.769012,-3923.091493,-919.314598,-3182.885551
1382.769323,-3849.070898,-2451.505594,-2220.617826
1382.769635,-5847.626942,-1991.848295,-1332.370696
1382.769947,-8660.409521,383.047749,592.164754
1382.770258,-11843.295072,229.828649,1554.432478
1382.770570,-13693.809927,-1532.190996,2590.720797
1382.770881,-14804.118840,-1225.752797,2368.659014
1382.771193,-13841.851115,919.314598,1850.514855
1382.771504,-11103.089130,3524.039291,592.164754
1382.771816,-8068.244768,3677.258390,-888.247130
1382.772127,-5477.523971,2911.162892,-2368.659014
1382.772439,-4367.215058,0.000000,-2516.700203
1382.772750,-4663.297435,0.000000,-1850.514855
1382.773062,-5699.585753,306.438199,-814.226536
1382.773373,-8216.285956,766.095498,370.102971
1382.773685,-11325.150913,-842.705048,2294.638420
1382.773997,-13915.871710,-2451.505594,3034.844362
1382.774308,-14656.077652,-2221.676944,3404.947333
1382.774620,-12435.459826,-766.095498,3552.988522
1382.774931,-9326.594869,-306.438199,1776.494261
1382.775243,-5699.585753,-536.266849,962.267725
1382.775554,-4811.338623,-2834.553343,-666.185348
1382.775866,-3552.988522,-3370.820191,-74.020594
1382.776177,-3627.009116,-2451.505594,-0.000000
1382.776489,-7179.997637,-1149.143247,444.123565
1382.776800,-9696.697840,0.000000,1998.556043
1382.777112,-11917.315666,76.609550,2664.741391
1382.777423,-14063.912898,0.000000,3034.844362
1382.777735,-13397.727550,306.438199,4219.173869
1382.778047,-11991.336260,1685.410096,3701.029710
1382.778358,-9178.553681,2374.896044,2146.597232
1382.778670,-5921.647536,1455.581446,296.082377
1382.778981,-3701.029710,-153.219100,-1332.370696
1382.779293,-1702.473667,0.000000,-1702.473667
1382.779604,-3108.864956,-229.828649,-1554.432478
1382.779916,-6143.709319,-459.657299,-666.185348
1382.780227,-9474.636058,-919.314598,1110.308913
1382.780539,-13249.686362,-1532.190996,2294.638420
1382.780850,-14730.098246,-2681.334243,3256.906145
1382.781162,-14211.954086,-2298.286494,2886.803174
1382.781474,-12361.439231,-536.266849,1702.473667
1382.781785,-8068.244768,536.266849,222.061783
1382.782097,-5625.565159,0.000000,-2072.576638
1382.782408,-4293.194464,-2145.067394,-1998.556043
1382.782720,-4737.318029,-1991.848295,-1776.494261
1382.783031,-6291.750507,-1072.533697,-814.226536
1382.783343,-8364.327145,536.266849,-0.000000
1382.783654,-11843.295072,919.314598,1036.288319
1382.783966,-15100.201217,383.047749,592.164754
1382.784277,-15396.283594,1072.533697,962.267725
1382.784589,-14211.954086,3830.477490,1332.370696
1382.784900,-12287.418637,4826.401637,-296.082377
1382.785212,-7994.224174,4290.134789,-1332.370696
1382.785524,-5403.503377,2604.724693,-2442.679609
1382.785835,-3404.947333,995.924147,-3108.864956
1382.786147,-3108.864956,306.438199,-2368.659014
1382.786458,-5329.482782,1378.971896,-2442.679609
1382.786770,-8882.471304,2145.067394,-296.082377
1382.787081,-11769.274478,1072.533697,1036.288319
1382.787393,-14285.974681,-1225.752797,1406.391290
1382.787704,-15396.283594,-766.095498,1406.391290
1382.788016,-13767.830521,612.876398,1480.411884
1382.788327,-10436.903782,919.314598,444.123565
1382.788639,-6587.832884,0.000000,-0.000000
1382.788950,-5625.565159,-1532.190996,-962.267725
1382.789262,-4589.276840,-2911.162892,-148.041188
1382.789574,-4959.379811,-2145.067394,-592.164754
1382.789885,-6365.771101,536.266849,1036.288319
1382.790197,-7994.224174,919.314598,1924.535449
1382.790508,-10658.965565,-689.485948,2072.576638
1382.790820,-12805.562797,-2068.457845,2664.741391
1382.791131,-12805.562797,-306.438199,2886.803174
1382.791443,-10807.006753,1838.629195,2738.761985
1382.791754,-8290.306550,2298.286494,1332.370696
1382.792066,-6291.750507,0.000000,444.123565
1382.792377,-4367.215058,-1532.190996,-962.267725
1382.792689,-3034.844362,-1378.971896,-444.123565
1382.793001,-3997.112087,-383.047749,-222.061783
1382.793312,-6365.771101,76.609550,888.247130
1382.793624,-9252.574275,-919.314598,2294.638420
1382.793935,-11843.295072,-2681.334243,3330.926739
1382.794247,-12731.542202,-4060.306139,3701.029710
1382.794558,-12435.459826,-2911.162892,3256.906145
1382.794870,-12213.398043,-842.705048,2442.679609
1382.795181,-9104.533087,-229.828649,1184.329507
1382.795493,-6661.853478,-2145.067394,-740.205942
1382.795804,-5625.565159,-3524.039291,-666.185348
1382.796116,-5329.482782,-2528.115143,-444.123565
1382.796428,-5995.668130,-1532.190996,148.041188
1382.796739,-7550.100608,-383.047749,814.226536
1382.797051,-10362.883188,306.438199,2368.659014
1382.797362,-12509.480420,-1762.019645,2590.720797
1382.797674,-13323.706956,-1072.533697,2590.720797
1382.797985,-13397.727550,766.095498,2294.638420
1382.798297,-11473.192101,3140.991542,-148.041188
1382.798608,-8142.265362,3524.039291,-1998.556043
1382.798920,-6143.709319,1302.362347,-2886.803174
1382.799232,-4219.173869,-766.095498,-3034.844362
1382.799543,-3997.112087,-919.314598,-2368.659014
1382.799855,-6439.791695,-153.219100,-1258.350101
1382.800166,-8882.471304,919.314598,666.185348
1382.800478,-12287.418637,0.000000,1110.308913
1382.800789,-14730.098246,-1685.410096,1776.494261
1382.801101,-14359.995275,-459.657299,1332.370696
1382.801412,-12361.439231,1532.190996,148.041188
1382.801724,-10288.862594,3217.601092,-962.267725
1382.802036,-6883.915261,1762.019645,-1258.350101
1382.802347,-5403.503377,-612.876398,-2368.659014
1382.802659,-4811.338623,-1378.971896,-1554.432478
1382.802970,-5995.668130,76.609550,-1554.432478
1382.803282,-7105.977043,2604.724693,-592.164754
1382.803593,-9548.656652,3370.820191,-0.000000
1382.803905,-11917.315666,1685.410096,962.267725
1382.804217,-13841.851115,612.876398,1406.391290
1382.804528,-13175.665768,1225.752797,1554.432478
1382.804840,-10955.047942,4290.134789,666.185348
1382.805151,-8216.285956,4290.134789,-444.123565
1382.805463,-5403.503377,1302.362347,-1554.432478
1382.805774,-3849.070898,-1532.190996,-1850.514855
1382.806086,-3997.112087,-1532.190996,-1258.350101
1382.806397,-5255.462188,0.000000,-222.061783
1382.806709,-7624.121203,153.219100,1332.370696
1382.807021,-10584.944971,-1532.190996,2220.617826
1382.807332,-13693.809927,-3447.429741,3182.885551
1382.807644,-13545.768739,-2374.896044,3256.906145
1382.807955,-12583.501014,536.266849,2738.761985
1382.808267,-10510.924376,1608.800546,1924.535449
1382.808578,-6513.812290,383.047749,888.247130
1382.808890,-4811.338623,-1915.238745,-888.247130
1382.809202,-5107.421000,-3217.601092,-888.247130
1382.809513,-4737.318029,-2374.896044,-0.000000
1382.809825,-5773.606348,-612.876398,148.041188
1382.810136,-7994.224174,-383.047749,2368.659014
1382.810448,-10584.944971,-2987.772442,3034.844362
1382.810759,-12953.603985,-5439.278036,3552.988522
1382.811071,-13767.830521,-3140.991542,4293.194464
1382.811382,-13619.789333,229.828649,3552.988522
1382.811694,-11473.192101,1149.143247,2220.617826
1382.812006,-8290.306550,1072.533697,-148.041188
1382.812317,-4885.359217,-153.219100,-1036.288319
1382.812629,-3182.885551,-1378.971896,-1332.370696
1382.812940,-2960.823768,-766.095498,-740.205942
1382.813252,-5699.585753,689.485948,-592.164754
1382.813563,-9030.512492,76.609550,1406.391290
1382.813875,-11843.295072,-1685.410096,2442.679609
1382.814186,-14656.077652,-2528.115143,2664.741391
1382.814498,-14952.160028,-536.266849,2516.700203
1382.814810,-13249.686362,612.876398,1332.370696
1382.815121,-9030.512492,1838.629195,296.082377
1382.815433,-5625.565159,383.047749,-1036.288319
1382.815744,-5255.462188,-2604.724693,-2220.617826
1382.816056,-3775.050304,-2834.553343,-1184.329507
1382.816367,-3997.112087,-1532.190996,-1036.288319
1382.816679,-6809.894666,1225.752797,-814.226536
1382.816991,-9622.677246,1302.362347,592.164754
1382.817302,-13471.748144,-689.485948,962.267725
1382.817614,-15174.221811,-153.219100,1850.514855
1382.817925,-14434.015869,2145.067394,1998.556043
1382.818237,-13249.686362,4366.744339,592.164754
1382.818548,-9474.636058,4519.963438,-666.185348
1382.818860,-5995.668130,2604.724693,-2960.823768
1382.819171,-3330.926739,1608.800546,-3182.885551
1382.819483,-2368.659014,1838.629195,-2960.823768
1382.819795,-4737.318029,2451.505594,-2664.741391
1382.820106,-8216.285956,2681.334243,-740.205942
1382.820418,-11695.253884,1762.019645,-0.000000
1382.820729,-14285.974681,-153.219100,1702.473667
1382.821041,-14063.912898,-306.438199,2072.576638
1382.821352,-12805.562797,229.828649,1332.370696
1382.821664,-9844.739029,1455.581446,888.247130
1382.821975,-6069.688724,383.047749,-444.123565
1382.822287,-4589.276840,-919.314598,-1554.432478
1382.822599,-3923.091493,-1838.629195,-1554.432478
1382.822910,-4441.235652,-1685.410096,-962.267725
1382.823222,-5773.606348,0.000000,-148.041188
1382.823533,-8438.347739,689.485948,1480.411884
1382.823845,-12361.439231,-1915.238745,2220.617826
1382.824156,-15322.262999,-3140.991542,3330.926739
1382.824468,-15174.221811,-1149.143247,3775.050304
1382.824780,-12805.562797,1225.752797,2886.803174
1382.825091,-9918.759623,2145.067394,962.267725
1382.825403,-6883.915261,689.485948,-592.164754
1382.825714,-4737.318029,-995.924147,-888.247130
1382.826026,-2738.761985,-1302.362347,-592.164754
1382.826337,-4367.215058,-536.266849,444.123565
1382.826649,-7254.018232,153.219100,1406.391290
1382.826960,-9918.759623,-612.876398,2960.823768
1382.827272,-12361.439231,-2604.724693,3182.885551
1382.827584,-12509.480420,-2604.724693,3478.967927
1382.827895,-12139.377449,-1608.800546,3108.864956
1382.828207,-11843.295072,-612.876398,2146.597232
1382.828518,-8734.430116,76.609550,740.205942
1382.828830,-6809.894666,-1685.410096,-74.020594
1382.829141,-5477.523971,-3524.039291,-518.144159
1382.829453,-4367.215058,-2987.772442,-296.082377
1382.829765,-6365.771101,-995.924147,-74.020594
1382.830076,-8068.244768,459.657299,1406.391290
1382.830388,-9548.656652,-306.438199,2738.761985
1382.830699,-11843.295072,-1149.143247,3404.947333
1382.831011,-12435.459826,-766.095498,3627.009116
1382.831322,-12435.459826,1378.971896,2886.803174
1382.831634,-10214.842000,3294.210641,-0.000000
1382.831945,-6513.812290,3677.258390,-1480.411884
1382.832257,-4441.235652,1685.410096,-2812.782580
1382.832569,-3923.091493,-459.657299,-2812.782580
1382.832880,-5255.462188,-383.047749,-2368.659014
1382.833192,-7031.956449,1072.533697,-1184.329507
1382.833503,-9326.594869,919.314598,444.123565
1382.833815,-12139.377449,-306.438199,1924.535449
1382.834126,-14359.995275,-1532.190996,2072.576638
1382.834438,-13693.809927,0.000000,1554.432478
1382.834749,-11695.253884,2145.067394,1110.308913
1382.835061,-9992.780217,3140.991542,-518.144159
1382.835373,-6513.812290,1838.629195,-1406.391290
1382.835684,-5625.565159,-1149.143247,-3330.926739
1382.835996,-4219.173869,-2068.457845,-1998.556043
1382.836307,-5033.400406,-153.219100,-2442.679609
1382.836619,-7772.162391,1915.238745,-1184.329507
1382.836930,-10807.006753,2221.676944,148.041188
1382.837242,-13471.748144,153.219100,2146.597232
1382.837554,-14730.098246,-766.095498,2442.679609
1382.837865,-14359.995275,2068.457845,2738.761985
1382.838177,-12213.398043,3140.991542,1628.453072
1382.838488,-7994.224174,3753.867940,-666.185348
1382.838800,-4737.318029,3217.601092,-2072.576638
1382.839111,-3627.009116,536.266849,-2812.782580
1382.839423,-3627.009116,-612.876398,-2146.597232
1382.839734,-5255.462188,-536.266849,-1184.329507
1382.840046,-8586.388927,0.000000,666.185348
1382.840358,-11547.212695,-536.266849,2220.617826
1382.840669,-13693.809927,-2298.286494,2368.659014
1382.840981,-14211.954086,-2374.896044,3330.926739
1382.841292,-12213.398043,-1455.581446,3108.864956
1382.841604,-10362.883188,-766.095498,1776.494261
1382.841915,-6365.771101,-153.219100,1332.370696
1382.842227,-4959.379811,-2451.505594,-148.041188
1382.842538,-3923.091493,-4596.572988,-0.000000
1382.842850,-4071.132681,-3524.039291,-0.000000
1382.843162,-5773.606348,-2145.067394,888.247130
1382.843473,-8956.491898,-1302.362347,2072.576638
1382.843785,-12065.356855,-1685.410096,2664.741391
1382.844096,-14063.912898,-2451.505594,3701.029710
1382.844408,-14656.077652,-1915.238745,3997.112087
1382.844719,-13619.789333,306.438199,3478.967927
1382.845031,-10362.883188,2911.162892,1998.556043
1382.845343,-6069.688724,3370.820191,-444.123565
1382.845654,-3478.967927,2374.896044,-2442.679609
1382.845966,-2368.659014,1532.190996,-2590.720797
1382.846277,-2812.782580,995.924147,-2294.638420
1382.846589,-5699.585753,766.095498,-1036.288319
1382.846900,-8438.347739,306.438199,1258.350101
1382.847212,-11621.233289,-1915.238745,1850.514855
1382.847523,-14063.912898,-3524.039291,2960.823768
1382.847835,-14211.954086,-2298.286494,3108.864956
1382.848147,-12805.562797,-1072.533697,2368.659014
1382.848458,-9474.636058,-229.828649,1258.350101
1382.848770,-6217.729913,-1455.581446,-74.020594
1382.849081,-5847.626942,-3447.429741,-1480.411884
1382.849393,-4737.318029,-2681.334243,-1924.535449
1382.849704,-5329.482782,612.876398,-1924.535449
1382.850016,-6365.771101,2911.162892,-962.267725
1382.850328,-9622.677246,995.924147,592.164754
1382.850639,-14063.912898,-995.924147,1924.535449
1382.850951,-15322.262999,-536.266849,2590.720797
1382.851262,-14804.118840,3064.381992,2442.679609
1382.851574,-11547.212695,4749.792088,1406.391290
1382.851885,-8586.388927,4060.306139,-1480.411884
1382.852197,-5995.668130,1762.019645,-3034.844362
1382.852508,-2368.659014,1991.848295,-3775.050304
1382.852820,-2886.803174,2757.943793,-3404.947333
1382.853132,-5033.400406,2757.943793,-2072.576638
1382.853443,-7920.203579,2145.067394,-0.000000
1382.853755,-11695.253884,-612.876398,962.267725
1382.854066,-14211.954086,-1072.533697,2368.659014
1382.854378,-13397.727550,689.485948,2146.597232
1382.854689,-13471.748144,1838.629195,1258.350101
1382.855001,-10881.027347,536.266849,1776.494261
1382.855312,-6587.832884,-1149.143247,-74.020594
1382.855624,-5329.482782,-2374.896044,-1628.453072
1382.855936,-4293.194464,-2145.067394,-1406.391290
1382.856247,-6069.688724,-1762.019645,-962.267725
1382.856559,-7994.224174,-612.876398,-592.164754
1382.856870,-9178.553681,1455.581446,1850.514855
1382.857182,-12583.501014,76.609550,2220.617826
1382.857493,-13545.768739,-2451.505594,2960.823768
1382.857805,-13989.892304,-1225.752797,3849.070898
1382.858117,-11325.150913,842.705048,2738.761985
1382.858428,-6809.894666,2145.067394,592.164754
1382.858740,-4219.173869,766.095498,-740.205942
1382.859051,-2664.741391,-689.485948,-2368.659014
1382.859363,-2220.617826,-2298.286494,-1998.556043
1382.859674,-4071.132681,-1225.752797,-962.267725
1382.859986,-7994.224174,459.657299,518.144159
1382.860297,-11325.150913,153.219100,2220.617826
1382.860609,-14434.015869,-1915.238745,3330.926739
1382.860921,-15100.201217,-3370.820191,4145.153275
1382.861232,-12953.603985,-2068.457845,3627.009116
1382.861544,-11473.192101,153.219100,1776.494261
1382.861855,-7994.224174,1225.752797,518.144159
1382.862167,-5625.565159,-842.705048,-1406.391290
1382.862478,-4885.359217,-3294.210641,-1480.411884
1382.862790,-4219.173869,-3064.381992,-296.082377
1382.863101,-6069.688724,-1378.971896,-814.226536
1382.863413,-8956.491898,536.266849,814.226536
1382.863725,-11473.192101,0.000000,2442.679609
1382.864036,-13693.809927,-1838.629195,2664.741391
1382.864348,-13693.809927,-1378.971896,2368.659014
1382.864659,-13175.665768,1149.143247,2368.659014
1382.864971,-11029.068536,3217.601092,888.247130
1382.865282,-7031.956449,3064.381992,-592.164754
1382.865594,-5477.523971,459.657299,-2146.597232
1382.865906,-3627.009116,-1072.533697,-2294.638420
1382.866217,-3404.947333,-842.705048,-1406.391290
1382.866529,-6439.791695,153.219100,-1406.391290
1382.866840,-8586.388927,383.047749,814.226536
1382.867152,-11695.253884,-1838.629195,1036.288319
1382.867463,-13989.892304,-2681.334243,2294.638420
1382.867775,-14952.160028,-842.705048,2442.679609
1382.868086,-14211.954086,1608.800546,1480.411884
1382.868398,-11473.192101,2757.943793,666.185348
1382.868710,-7550.100608,1532.190996,-518.144159
1382.869021,-4663.297435,-689.485948,-2812.782580
1382.869333,-3108.864956,-383.047749,-2886.803174
1382.869644,-3330.926739,536.266849,-2442.679609
1382.869956,-5033.400406,1149.143247,-1036.288319
1382.870267,-9030.512492,1915.238745,666.185348
1382.870579,-13471.748144,842.705048,1998.556043
1382.870890,-15766.386565,-383.047749,2368.659014
1382.871202,-14359.995275,1149.143247,2368.659014
1382.871514,-12139.377449,3524.039291,1258.350101
1382.871825,-8438.347739,4290.134789,-518.144159
1382.872137,-4885.359217,1685.410096,-2442.679609
1382.872448,-4663.297435,306.438199,-2590.720797
1382.872760,-3182.885551,153.219100,-1036.288319
1382.873071,-4589.276840,459.657299,-814.226536
1382.873383,-7550.100608,536.266849,814.226536
1382.873695,-10362.883188,-383.047749,2146.597232
1382.874006,-12879.583391,-1455.581446,2738.761985
1382.874318,-13471.748144,-1608.800546,3034.844362
1382.874629,-12583.501014,-459.657299,3034.844362
1382.874941,-11399.171507,0.000000,1924.535449
1382.875252,-8216.285956,-229.828649,1184.329507
1382.875564,-4811.338623,-1991.848295,-444.123565
1382.875875,-3552.988522,-3524.039291,-1628.453072
1382.876187,-3923.091493,-3370.820191,-740.205942
1382.876499,-5255.462188,-1225.752797,-888.247130
1382.876810,-8142.265362,-536.266849,1036.288319
1382.877122,-11621.233289,-1378.971896,2886.803174
1382.877433,-14285.974681,-2757.943793,3701.029710
1382.877745,-14359.995275,-2298.286494,3330.926739
1382.878056,-13101.645173,306.438199,3182.885551
1382.878368,-9696.697840,2221.676944,1850.514855
1382.878680,-6587.832884,1838.629195,-74.020594
1382.878991,-5477.523971,76.609550,-1702.473667
1382.879303,-4663.297435,-1072.533697,-1110.308913
1382.879614,-4737.318029,-229.828649,-888.247130
1382.879926,-6587.832884,766.095498,-666.185348
1382.880237,-9400.615463,459.657299,740.205942
1382.880549,-12213.398043,-1149.143247,1332.370696
1382.880860,-13397.727550,-2068.457845,2072.576638
1382.881172,-12731.542202,-459.657299,2368.659014
1382.881484,-12065.356855,612.876398,1776.494261
1382.881795,-10288.862594,536.266849,740.205942
1382.882107,-7105.977043,-919.314598,-370.102971
1382.882418,-4515.256246,-2145.067394,-1406.391290
1382.882730,-3404.947333,-2451.505594,-2072.576638
1382.883041,-4145.153275,-1378.971896,-1998.556043
1382.883353,-6439.791695,0.000000,-740.205942
1382.883664,-8438.347739,-153.219100,1258.350101
1382.883976,-13323.706956,-2451.505594,1776.494261
1382.884288,-16432.571912,-2681.334243,2590.720797
1382.884599,-15618.345376,1225.752797,2516.700203
1382.884911,-14656.077652,3830.477490,1110.308913
1382.885222,-9474.636058,4519.963438,-74.020594
1382.885534,-5403.503377,3600.648841,-2738.761985
1382.885845,-4145.153275,2068.457845,-3849.070898
1382.886157,-1628.453072,2528.115143,-2738.761985
1382.886469,-3997.112087,2528.115143,-2738.761985
1382.886780,-7550.100608,2987.772442,-592.164754
1382.887092,-10658.965565,1838.629195,1480.411884
1382.887403,-13693.809927,-995.924147,1776.494261
1382.887715,-14434.015869,-919.314598,2146.597232
1382.888026,-13323.706956,1378.971896,1628.453072
1382.888338,-10288.862594,1378.971896,518.144159
1382.888649,-7105.977043,383.047749,-592.164754
1382.888961,-5699.585753,-1685.410096,-740.205942
1382.889273,-3108.864956,-2604.724693,-962.267725
1382.889584,-3330.926739,-2681.334243,-370.102971
1382.889896,-6069.688724,-1302.362347,888.247130
1382.890207,-8882.471304,76.609550,2072.576638
1382.890519,-12361.439231,0.000000,2664.741391
1382.890830,-14434.015869,76.609550,3627.009116
1382.891142,-13693.809927,536.266849,3034.844362
1382.891453,-12731.542202,1302.362347,2442.679609
1382.891765,-9400.615463,2604.724693,1480.411884
1382.892077,-5403.503377,1455.581446,-592.164754
1382.892388,-4441.235652,-229.828649,-1702.473667
1382.892700,-3182.885551,-842.705048,-74.020594
1382.893011,-3923.091493,-612.876398,-0.000000
1382.893323,-6883.915261,-229.828649,592.164754
1382.893634,-9178.553681,-306.438199,1924.535449
1382.893946,-12065.356855,-1838.629195,2368.659014
1382.894258,-13323.706956,-2834.553343,3330.926739
1382.894569,-13545.768739,-2911.162892,3552.988522
1382.894881,-12583.501014,-766.095498,2738.761985
1382.895192,-9474.636058,-229.828649,1406.391290
1382.895504,-7402.059420,-1685.410096,-0.000000
1382.895815,-6439.791695,-3370.820191,-1258.350101
1382.896127,-4071.132681,-2604.724693,-814.226536
1382.896438,-5107.421000,-1072.533697,-444.123565
1382.896749,-7402.059420,-459.657299,444.123565
1382.897061,-10510.924376,-1149.143247,1998.556043
1382.897372,-13249.686362,-2068.457845,2590.720797
1382.897684,-14137.933492,-919.314598,2812.782580
1382.897995,-12583.501014,1149.143247,2590.720797
1382.898307,-10955.047942,2528.115143,888.247130
1382.898618,-7920.203579,2068.457845,-740.205942
1382.898930,-4959.379811,383.047749,-1776.494261
1382.899241,-3627.009116,-536.266849,-2294.638420
1382.899553,-3775.050304,0.000000,-1850.514855
1382.899864,-5995.668130,689.485948,-1628.453072
1382.900176,-8586.388927,689.485948,-444.123565
1382.900487,-11029.068536,0.000000,666.185348
1382.900799,-12953.603985,-612.876398,888.247130
1382.901110,-12879.583391,-306.438199,1702.473667
1382.901421,-13101.645173,459.657299,1480.411884
1382.901733,-11843.295072,995.924147,814.226536
1382.902044,-8142.265362,766.095498,-444.123565
1382.902356,-6587.832884,-306.438199,-1554.432478
1382.902667,-5699.585753,-1072.533697,-1406.391290
1382.902979,-6217.729913,-153.219100,-1702.473667
1382.903290,-6883.915261,1149.143247,-1036.288319
1382.903602,-8586.388927,1532.190996,-0.000000
1382.903913,-11695.253884,612.876398,1110.308913
1382.904225,-14508.036463,0.000000,1480.411884
1382.904536,-14508.036463,1685.410096,1776.494261
1382.904848,-11843.295072,4826.401637,1036.288319
1382.905159,-8438.347739,4903.011187,-0.000000
1382.905471,-5477.523971,2987.772442,-1036.288319
1382.905782,-3997.112087,229.828649,-1628.453072
1382.906093,-3330.926739,-153.219100,-888.247130
1382.906405,-5107.421000,-536.266849,-518.144159
1382.906716,-7994.224174,1072.533697,592.164754
1382.907028,-10362.883188,766.095498,1554.432478
1382.907339,-13101.645173,-2145.067394,2294.638420
1382.907651,-13841.851115,-2528.115143,2368.659014
1382.907962,-12213.398043,-612.876398,2960.823768
1382.908274,-10881.027347,153.219100,1480.411884
1382.908585,-7402.059420,0.000000,1110.308913
1382.908897,-5625.565159,-2221.676944,-370.102971
1382.909208,-3404.947333,-3294.210641,-814.226536
1382.909520,-2812.782580,-2068.457845,-888.247130
1382.909831,-5181.441594,-919.314598,-74.020594
1382.910143,-8364.327145,0.000000,2072.576638
1382.910454,-11769.274478,-1225.752797,3108.864956
1382.910765,-13915.871710,-2451.505594,4071.132681
1382.911077,-14804.118840,-1685.410096,4071.132681
1382.911388,-13545.768739,536.266849,3256.906145
1382.911700,-10140.821405,995.924147,1332.370696
1382.912011,-5995.668130,229.828649,-296.082377
1382.912323,-3849.070898,-1302.362347,-1406.391290
1382.912634,-3923.091493,-2374.896044,-1924.535449
1382.912946,-4811.338623,-1378.971896,-370.102971
1382.913257,-6957.935855,-842.705048,148.041188
1382.913569,-9474.636058,-612.876398,2146.597232
1382.913880,-12657.521608,-1762.019645,2442.679609
1382.914192,-13989.892304,-3064.381992,2812.782580
1382.914503,-13545.768739,-2221.676944,2590.720797
1382.914815,-11769.274478,-383.047749,1850.514855
1382.915126,-8734.430116,76.609550,518.144159
1382.915437,-6587.832884,-383.047749,-518.144159
1382.915749,-5107.421000,-919.314598,-1776.494261
1382.916060,-4071.132681,-1378.971896,-1702.473667
1382.916372,-5403.503377,-306.438199,-1554.432478
1382.916683,-7550.100608,919.314598,-148.041188
1382.916995,-10732.986159,1149.143247,296.082377
1382.917306,-13249.686362,536.266849,1628.453072
1382.917618,-13323.706956,229.828649,1998.556043
1382.917929,-13989.892304,1762.019645,814.226536
1382.918241,-12361.439231,3830.477490,296.082377
1382.918552,-9326.594869,3983.696590,-222.061783
1382.918864,-6069.688724,2145.067394,-1850.514855
1382.919175,-4071.132681,766.095498,-2294.638420
1382.919487,-4293.194464,306.438199,-2368.659014
1382.919798,-5847.626942,1455.581446,-2516.700203
1382.920109,-7698.141797,2834.553343,-740.205942
1382.920421,-10436.903782,2451.505594,666.185348
1382.920732,-13397.727550,0.000000,1332.370696
1382.921044,-15174.221811,-229.828649,1406.391290
1382.921355,-13989.892304,1149.143247,1628.453072
1382.921667,-10584.944971,2604.724693,740.205942
1382.921978,-6957.935855,1838.629195,-370.102971
1382.922290,-4885.359217,-1225.752797,-1480.411884
1382.922601,-3108.864956,-2374.896044,-1184.329507
1382.922913,-4293.194464,-2451.505594,-1036.288319
1382.923224,-6365.771101,459.657299,962.267725
1382.923536,-8290.306550,1838.629195,1924.535449
1382.923847,-11843.295072,-229.828649,2146.597232
1382.924159,-13841.851115,-1915.238745,2738.761985
1382.924470,-12583.501014,0.000000,2442.679609
1382.924781,-11621.233289,2374.896044,1332.370696
1382.925093,-8290.306550,2374.896044,1036.288319
1382.925404,-5699.585753,0.000000,-0.000000
1382.925716,-5403.503377,-3217.601092,-814.226536
1382.926027,-3627.009116,-3447.429741,-74.020594
1382.926339,-4071.132681,-1762.019645,-0.000000
1382.926650,-6809.894666,0.000000,888.247130
1382.926962,-9252.574275,-689.485948,2294.638420
1382.927273,-11991.336260,-3064.381992,2664.741391
1382.927585,-12953.603985,-2681.334243,2664.741391
1382.927896,-12435.459826,-612.876398,3034.844362
1382.928208,-11399.171507,76.609550,2220.617826
1382.928519,-8068.244768,-536.266849,962.267725
1382.928831,-5847.626942,-2681.334243,-518.144159
1382.929142,-5033.400406,-4213.525239,-962.267725
1382.929453,-4959.379811,-3370.820191,-814.226536
1382.929765,-6661.853478,-1991.848295,-74.020594
1382.930076,-9696.697840,-1072.533697,444.123565
1382.930388,-11473.192101,-1685.410096,2146.597232
1382.930699,-14137.933492,-1915.238745,2368.659014
1382.931011,-14508.036463,-383.047749,2590.720797
1382.931322,-13175.665768,919.314598,2294.638420
1382.931634,-10881.027347,1915.238745,666.185348
1382.931945,-7550.100608,1991.848295,-444.123565
1382.932257,-6143.709319,459.657299,-2738.761985
1382.932568,-3552.988522,689.485948,-2220.617826
1382.932880,-3701.029710,995.924147,-2146.597232
1382.933191,-6957.935855,1302.362347,-1554.432478
1382.933503,-9770.718434,1762.019645,296.082377
1382.933814,-12139.377449,1149.143247,1184.329507
1382.934125,-13471.748144,766.095498,1628.453072
1382.934437,-13397.727550,1762.019645,1924.535449
1382.934748,-11695.253884,2451.505594,740.205942
1382.935060,-8956.491898,2911.162892,-1258.350101
1382.935371,-5921.647536,2528.115143,-1628.453072
1382.935683,-4145.153275,1072.533697,-2368.659014
1382.935994,-4145.153275,-919.314598,-2072.576638
1382.936306,-5847.626942,-1378.971896,-1332.370696
1382.936617,-8882.471304,0.000000,-518.144159
1382.936929,-10658.965565,1302.362347,1850.514855
1382.937240,-12731.542202,1225.752797,2294.638420
1382.937552,-13619.789333,-153.219100,2368.659014
1382.937863,-13249.686362,306.438199,2146.597232
1382.938175,-11251.130318,2911.162892,1184.329507
1382.938486,-7402.059420,4596.572988,148.041188
1382.938797,-5033.400406,3064.381992,-1776.494261
1382.939109,-3849.070898,459.657299,-2294.638420
1382.939420,-3108.864956,0.000000,-2220.617826
1382.939732,-4219.173869,-383.047749,-1184.329507
1382.940043,-7328.038826,229.828649,814.226536
1382.940355,-10881.027347,-1532.190996,2738.761985
1382.940666,-13767.830521,-3064.381992,3330.926739
1382.940978,-14508.036463,-2604.724693,3478.967927
1382.941289,-13397.727550,-995.924147,3256.906145
1382.941601,-10510.924376,-459.657299,1628.453072
1382.941912,-6809.894666,-153.219100,518.144159
1382.942224,-3923.091493,-2528.115143,-518.144159
1382.942535,-2368.659014,-4290.134789,-592.164754
1382.942847,-3775.050304,-3447.429741,-444.123565
1382.943158,-7402.059420,-1915.238745,592.164754
1382.943469,-9696.697840,-1149.143247,2294.638420
1382.943781,-12213.398043,-1915.238745,2960.823768
1382.944092,-14730.098246,-2221.676944,3552.988522
1382.944404,-15026.180623,-2451.505594,3552.988522
1382.944715,-12805.562797,-459.657299,3108.864956
1382.945027,-10510.924376,383.047749,1998.556043
1382.945338,-6661.853478,229.828649,592.164754
1382.945650,-4959.379811,-689.485948,-1924.535449
1382.945961,-4071.132681,-919.314598,-1554.432478
1382.946273,-4663.297435,229.828649,-1776.494261
1382.946584,-6809.894666,919.314598,-888.247130
1382.946896,-9696.697840,1838.629195,222.061783
1382.947207,-12583.501014,306.438199,740.205942
1382.947519,-13619.789333,-1072.533697,2294.638420
1382.947830,-12657.521608,-1072.533697,2812.782580
1382.948141,-10955.047942,-459.657299,1480.411884
1382.948453,-7772.162391,-536.266849,444.123565
1382.948764,-5699.585753,-2145.067394,-518.144159
1382.949076,-5107.421000,-4213.525239,-1702.473667
1382.949387,-4145.153275,-3370.820191,-1184.329507
1382.949699,-5551.544565,-2911.162892,-1184.329507
1382.950010,-7698.141797,-1455.581446,-0.000000
1382.950322,-10066.800811,-689.485948,740.205942
1382.950633,-13027.624579,-1225.752797,962.267725
1382.950945,-13323.706956,-459.657299,1702.473667
1382.951256,-12731.542202,766.095498,1776.494261
1382.951568,-10436.903782,2681.334243,1406.391290
1382.951879,-8364.327145,2604.724693,-222.061783
1382.952191,-5181.441594,1378.971896,-2072.576638
1382.952502,-3478.967927,76.609550,-2368.659014
1382.952813,-3849.070898,-229.828649,-2442.679609
1382.953125,-5921.647536,383.047749,-2220.617826
1382.953436,-8586.388927,1149.143247,-1406.391290
1382.953748,-10955.047942,842.705048,-444.123565
1382.954059,-12509.480420,-2298.286494,888.247130
1382.954371,-13323.706956,-3217.601092,1480.411884
1382.954682,-14211.954086,-2604.724693,1554.432478
1382.954994,-12139.377449,-1378.971896,1480.411884
1382.955305,-8734.430116,-1072.533697,518.144159
1382.955617,-6143.709319,-2145.067394,222.061783
1382.955928,-4145.153275,-4673.182538,-0.000000
1382.956240,-3330.926739,-6588.421283,222.061783
1382.956551,-4589.276840,-6435.202183,444.123565
1382.956863,-6513.812290,-4213.525239,962.267725
1382.957174,-10658.965565,-2987.772442,814.226536
1382.957485,-12731.542202,-3447.429741,1850.514855
1382.957797,-14359.995275,-4519.963438,2368.659014
1382.958108,-14730.098246,-4596.572988,3182.885551
1382.958420,-12731.542202,-1455.581446,2590.720797
1382.958731,-10436.903782,-1378.971896,1332.370696
1382.959043,-6883.915261,-1455.581446,296.082377
1382.959354,-3849.070898,-3064.381992,222.061783
1382.959666,-1554.432478,-4979.620737,-444.123565
1382.959977,-1628.453072,-5898.935335,-888.247130
1382.960289,-3997.112087,-5286.058936,-74.020594
1382.960600,-7402.059420,-3983.696590,-0.000000
1382.960912,-11843.295072,-2451.505594,518.144159
1382.961223,-14656.077652,-2451.505594,2146.597232
1382.961535,-16580.613101,-2528.115143,3182.885551
1382.961846,-15322.262999,-2757.943793,3330.926739
1382.962157,-12139.377449,-2987.772442,2072.576638
1382.962469,-9030.512492,-2757.943793,370.102971
1382.962780,-5255.462188,-2834.553343,-444.123565
1382.963092,-2960.823768,-4060.306139,-666.185348
1382.963403,-1184.329507,-5515.887586,-518.144159
1382.963715,-2294.638420,-6281.983084,-222.061783
1382.964026,-4737.318029,-5132.839837,148.041188
1382.964338,-7254.018232,-4979.620737,814.226536
1382.964649,-11029.068536,-4213.525239,962.267725
1382.964961,-13545.768739,-3677.258390,1258.350101
1382.965272,-14878.139434,-3140.991542,1332.370696
1382.965584,-15396.283594,-1455.581446,1628.453072
1382.965895,-14508.036463,306.438199,888.247130
1382.966207,-11843.295072,0.000000,1628.453072
1382.966518,-8068.244768,-2451.505594,666.185348
1382.966829,-3923.091493,-4136.915689,666.185348
1382.967141,-1702.473667,-4673.182538,-370.102971
1382.967452,-1998.556043,-4213.525239,-1406.391290
1382.967764,-3627.009116,-3370.820191,-1850.514855
1382.968075,-6587.832884,-2068.457845,-2368.659014
1382.968387,-10288.862594,-1532.190996,-1702.473667
1382.968698,-14952.160028,-766.095498,-1258.350101
1382.969010,-16654.633695,-459.657299,370.102971
1382.969321,-15692.365970,-1378.971896,1258.350101
1382.969633,-12879.583391,-2451.505594,1850.514855
1382.969944,-9770.718434,-3217.601092,1036.288319
1382.970256,-7254.018232,-3370.820191,740.205942
1382.970567,-5773.606348,-3217.601092,370.102971
1382.970879,-4959.379811,-2528.115143,-74.020594
1382.971190,-5699.585753,-842.705048,-666.185348
1382.971501,-7031.956449,-1532.190996,-1776.494261
1382.971813,-7328.038826,-1225.752797,-1258.350101
1382.972124,-7698.141797,-1685.410096,-888.247130
1382.972436,-8882.471304,-2451.505594,-74.020594
1382.972747,-10066.800811,-3753.867940,888.247130
1382.973059,-12213.398043,-4443.353888,1332.370696
1382.973370,-12583.501014,-3983.696590,2738.761985
1382.973682,-11843.295072,-2298.286494,2146.597232
1382.973993,-9622.677246,-2298.286494,2516.700203
1382.974305,-7994.224174,-2757.943793,1480.411884
1382.974616,-6069.688724,-2604.724693,740.205942
1382.974928,-4515.256246,-2528.115143,-74.020594
1382.975239,-4219.173869,-1915.238745,-444.123565
1382.975551,-4737.318029,-2451.505594,-740.205942
1382.975862,-6217.729913,-2681.334243,-814.226536
1382.976173,-7624.121203,-3753.867940,-444.123565
1382.976485,-8882.471304,-4979.620737,370.102971
1382.976796,-10658.965565,-5975.544884,1776.494261
1382.977108,-12509.480420,-6665.030833,2960.823768
1382.977419,-13249.686362,-7277.907231,3552.988522
1382.977731,-13101.645173,-6588.421283,2812.782580
1382.978042,-12287.418637,-4366.744339,2368.659014
1382.978354,-10510.924376,-1072.533697,814.226536
1382.978665,-7179.997637,459.657299,-0.000000
1382.978977,-5477.523971,1225.752797,-518.144159
1382.979288,-4515.256246,1149.143247,-1036.288319
1382.979600,-4515.256246,1225.752797,-888.247130
1382.979911,-5551.544565,-229.828649,-296.082377
1382.980222,-7550.100608,-1685.410096,296.082377
1382.980534,-10362.883188,-3983.696590,814.226536
1382.980845,-11769.274478,-4826.401637,1110.308913
1382.981157,-13027.624579,-5669.106685,1332.370696
1382.981468,-13323.706956,-5822.325785,1776.494261
1382.981780,-12805.562797,-5898.935335,1776.494261
1382.982091,-11251.130318,-5669.106685,1480.411884
1382.982403,-8956.491898,-5056.230287,1332.370696
1382.982714,-7254.018232,-4213.525239,518.144159
1382.983026,-5107.421000,-2298.286494,444.123565
1382.983337,-4589.276840,-1149.143247,-296.082377
1382.983649,-4959.379811,-995.924147,-0.000000
1382.983960,-6661.853478,-1608.800546,148.041188
1382.984272,-8586.388927,-1455.581446,222.061783
1382.984583,-10436.903782,-1762.019645,296.082377
1382.984894,-11547.212695,-2757.943793,370.102971
1382.985206,-11621.233289,-2757.943793,148.041188
1382.985517,-11399.171507,-1991.848295,-518.144159
1382.985829,-9326.594869,-2528.115143,-444.123565
1382.986140,-7624.121203,-1991.848295,-666.185348
1382.986452,-8364.327145,-2528.115143,-592.164754
1382.986763,-5921.647536,-1762.019645,592.164754
1382.987075,-5477.523971,-2221.676944,-370.102971
1382.987386,-5995.668130,-3600.648841,1110.308913
1382.987698,-8956.491898,-4903.011187,1406.391290
1382.988009,-10436.903782,-4366.744339,1850.514855
1382.988321,-10436.903782,-2834.553343,1480.411884
1382.988632,-10955.047942,-2757.943793,2072.576638
1382.988944,-10955.047942,-4290.134789,1776.494261
1382.989255,-10807.006753,-4903.011187,888.247130
1382.989566,-9770.718434,-3370.820191,1850.514855
1382.989878,-9400.615463,-1915.238745,1332.370696
1382.990189,-10510.924376,76.609550,1480.411884
1382.990501,-11029.068536,689.485948,1776.494261
1382.990812,-9548.656652,0.000000,1924.535449
1382.991124,-7624.121203,-919.314598,1998.556043
1382.991435,-5403.503377,-306.438199,3034.844362
1382.991747,-7179.997637,-1072.533697,1702.473667
1382.992058,-7179.997637,-3140.991542,2960.823768
1382.992370,-9622.677246,-4596.572988,2960.823768
1382.992681,-9252.574275,-2298.286494,4737.318029
1382.992993,-11621.233289,-1378.971896,4737.318029
1382.993304,-13397.727550,-1532.190996,4959.379811
1382.993616,-10881.027347,-1302.362347,5107.421000
1382.993927,-8438.347739,1149.143247,3552.988522
1382.994238,-7105.977043,2451.505594,3478.967927
1382.994550,-5551.544565,2374.896044,2664.741391
1382.994861,-7031.956449,153.219100,2368.659014
1382.995173,-5773.606348,-383.047749,4071.132681
1382.995484,-5551.544565,-766.095498,4663.297435
1382.995796,-10510.924376,-1838.629195,4441.235652
1382.996107,-11399.171507,-919.314598,7328.038826
1382.996419,-11399.171507,-1915.238745,5921.647536
1382.996730,-9030.512492,-1991.848295,6587.832884
1382.997041,-8512.368333,-842.705048,5033.400406
1382.997353,-8660.409521,229.828649,4811.338623
1382.997664,-6513.812290,1455.581446,3849.070898
1382.997976,-5699.585753,1685.410096,3478.967927
1382.998287,-5551.544565,3064.381992,3478.967927
1382.998599,-7920.203579,3064.381992,3552.988522
1382.998910,-8882.471304,2145.067394,4515.256246
1382.999221,-8216.285956,842.705048,5033.400406
1382.999533,-7550.100608,-229.828649,4737.318029
1382.999844,-7994.224174,-383.047749,4515.256246
1383.000156,-8882.471304,-2298.286494,4737.318029
1383.000467,-8364.327145,-2834.553343,4663.297435
1383.000779,-7846.182985,-612.876398,5477.523971
1383.001090,-8216.285956,306.438199,3849.070898
1383.001402,-9918.759623,1072.533697,4293.194464
1383.001713,-10436.903782,1225.752797,3552.988522
1383.002024,-8586.388927,2604.724693,3775.050304
1383.002336,-8290.306550,1378.971896,3256.906145
1383.002647,-7254.018232,383.047749,3627.009116
1383.002959,-7476.080014,-1685.410096,3256.906145
1383.003270,-6735.874072,-1991.848295,2812.782580
1383.003582,-5921.647536,-2068.457845,2886.803174
1383.003893,-7476.080014,-2681.334243,2812.782580
1383.004204,-9474.636058,-2451.505594,3552.988522
1383.004516,-11843.295072,-1532.190996,3108.864956
1383.004827,-12139.377449,-766.095498,4071.132681
1383.005139,-11843.295072,1302.362347,3182.885551
1383.005450,-11769.274478,1915.238745,2368.659014
1383.005762,-10658.965565,2298.286494,1332.370696
1383.006073,-8882.471304,2068.457845,592.164754
1383.006384,-7476.080014,2221.676944,666.185348
1383.006696,-7772.162391,1532.190996,1184.329507
1383.007007,-9696.697840,-383.047749,2368.659014
1383.007319,-9992.780217,-1608.800546,3701.029710
1383.007630,-10066.800811,-2681.334243,4367.215058
1383.007942,-9326.594869,-2604.724693,4367.215058
1383.008253,-8660.409521,-2681.334243,3108.864956
1383.008565,-7550.100608,-1915.238745,2146.597232
1383.008876,-6143.709319,-766.095498,666.185348
1383.009187,-6587.832884,153.219100,-0.000000
1383.009499,-8364.327145,1149.143247,222.061783
1383.009810,-10658.965565,1685.410096,592.164754
1383.010122,-12583.501014,1302.362347,2220.617826
1383.010433,-12805.562797,1072.533697,3627.009116
1383.010745,-12213.398043,229.828649,4737.318029
1383.011056,-10955.047942,-1072.533697,4959.379811
1383.011367,-8512.368333,-1685.410096,4589.276840
1383.011679,-4959.379811,-2681.334243,3256.906145
1383.011990,-3034.844362,-1685.410096,2072.576638
1383.012302,-3775.050304,-1072.533697,1036.288319
1383.012613,-6291.750507,-229.828649,1628.453072
1383.012925,-9548.656652,842.705048,3034.844362
1383.013236,-12435.459826,2451.505594,4441.235652
1383.013547,-13989.892304,2374.896044,5995.668130
1383.013859,-13619.789333,536.266849,6365.771101
1383.014170,-10066.800811,459.657299,5847.626942
1383.014482,-7105.977043,-612.876398,3997.112087
1383.014793,-4219.173869,-306.438199,2812.782580
1383.015105,-3552.988522,-383.047749,1702.473667
1383.015416,-3404.947333,-459.657299,1480.411884
1383.015728,-5477.523971,-306.438199,2072.576638
1383.016039,-9252.574275,-229.828649,3627.009116
1383.016350,-12509.480420,306.438199,4885.359217
1383.016662,-14582.057057,1378.971896,6513.812290
1383.016973,-13249.686362,0.000000,6513.812290
1383.017285,-10288.862594,-306.438199,5255.462188
1383.017596,-7402.059420,-1149.143247,3923.091493
1383.017908,-5403.503377,-153.219100,3256.906145
1383.018219,-5403.503377,612.876398,3701.029710
1383.018530,-7179.997637,1072.533697,4959.379811
1383.018842,-10066.800811,612.876398,6217.729913
1383.019153,-11399.171507,383.047749,7328.038826
1383.019465,-11177.109724,383.047749,7105.977043
1383.019776,-9326.594869,766.095498,4589.276840
1383.020088,-6365.771101,2834.553343,2146.597232
1383.020399,-5033.400406,3907.087040,296.082377
1383.020711,-5921.647536,3064.381992,-0.000000
1383.021022,-8068.244768,2604.724693,1184.329507
1383.021333,-10881.027347,1608.800546,3034.844362
1383.021645,-11621.233289,0.000000,5107.421000
1383.021956,-11621.233289,-3600.648841,6217.729913
1383.022268,-11325.150913,-4519.963438,7179.997637
1383.022579,-10658.965565,-3140.991542,8512.368333
1383.022891,-10510.924376,-2528.115143,8808.450710
1383.023202,-9622.677246,-1991.848295,7254.018232
1383.023513,-7550.100608,-1838.629195,5033.400406
1383.023825,-4737.318029,919.314598,1924.535449
1383.024136,-1702.473667,2451.505594,296.082377
1383.024448,-1332.370696,3370.820191,-1184.329507
1383.024759,-4219.173869,2451.505594,-0.000000
1383.025071,-7772.162391,1072.533697,1628.453072
1383.025382,-11177.109724,-229.828649,4145.153275
1383.025693,-14285.974681,-1149.143247,6439.791695
1383.026005,-16580.613101,-1225.752797,7328.038826
1383.026316,-14359.995275,-536.266849,6587.832884
1383.026628,-10658.965565,-229.828649,5107.421000
1383.026939,-6587.832884,995.924147,3627.009116
1383.027251,-3627.009116,-459.657299,2220.617826
1383.027562,-2072.576638,-306.438199,888.247130
1383.027874,-1480.411884,842.705048,518.144159
1383.028185,-3256.906145,1225.752797,-666.185348
1383.028496,-5255.462188,919.314598,-962.267725
1383.028808,-6735.874072,689.485948,-1258.350101
1383.029119,-9696.697840,-383.047749,-962.267725
1383.029431,-12657.521608,-1225.752797,592.164754
1383.029742,-16580.613101,-1225.752797,2812.782580
1383.030054,-18579.169144,-689.485948,3997.112087
1383.030365,-17764.942608,-306.438199,4885.359217
1383.030676,-14434.015869,-536.266849,4293.194464
1383.030988,-9622.677246,-306.438199,2590.720797
1383.031299,-4145.153275,0.000000,-0.000000
1383.031611,592.164754,1991.848295,-3256.906145
1383.031922,2516.700203,2221.676944,-5847.626942
1383.032234,1036.288319,1532.190996,-7254.018232
1383.032545,-2738.761985,536.266849,-6957.935855
1383.032856,-8882.471304,0.000000,-4515.256246
1383.033168,-16136.489536,-842.705048,-296.082377
1383.033479,-23020.404796,-2374.896044,3478.967927
1383.033791,-25759.166782,-1685.410096,6587.832884
1383.034102,-24500.816680,-1378.971896,6957.935855
1383.034414,-18283.086767,-1762.019645,5773.606348
1383.034725,-8660.409521,-995.924147,2664.741391
1383.035037,-592.164754,-1149.143247,-888.247130
1383.035348,5625.565159,-919.314598,-5477.523971
1383.035659,7254.018232,0.000000,-7772.162391
1383.035971,3034.844362,2145.067394,-7105.977043
1383.036282,-5033.400406,1685.410096,-4589.276840
1383.036594,-14508.036463,-919.314598,-296.082377
1383.036905,-23242.466579,-1532.190996,4441.235652
1383.037217,-26055.249158,-766.095498,7105.977043
1383.037528,-22724.322419,0.000000,7328.038826
1383.037839,-16506.592507,153.219100,5995.668130
1383.038151,-7476.080014,76.609550,4071.132681
1383.038462,740.205942,459.657299,518.144159
1383.038774,6809.894666,-153.219100,-2590.720797
1383.039085,9104.533087,1838.629195,-4811.338623
1383.039397,5255.462188,2987.772442,-4811.338623
1383.039708,-2072.576638,2221.676944,-3552.988522
1383.040019,-10732.986159,306.438199,-814.226536
1383.040331,-18061.024985,612.876398,2590.720797
1383.040642,-22206.178260,919.314598,5921.647536
1383.040954,-22650.301825,0.000000,7031.956449
1383.041265,-17542.880825,-2145.067394,7476.080014
1383.041577,-9992.780217,-1915.238745,6069.688724
1383.041888,-2220.617826,-1302.362347,4367.215058
1383.042200,3108.864956,-1302.362347,1628.453072
1383.042511,4811.338623,-842.705048,-1110.308913
1383.042822,2590.720797,1149.143247,-2146.597232
1383.043134,-2368.659014,2681.334243,-2072.576638
1383.043445,-8586.388927,2834.553343,-1776.494261
1383.043757,-14656.077652,3600.648841,-888.247130
1383.044068,-19023.292709,3600.648841,1110.308913
1383.044380,-19911.539840,2221.676944,3330.926739
1383.044691,-16876.695478,-689.485948,4737.318029
1383.045002,-12805.562797,-2681.334243,5699.585753
1383.045314,-7846.182985,-3370.820191,5181.441594
1383.045625,-3849.070898,-4519.963438,3552.988522
1383.045937,-1850.514855,-3064.381992,1850.514855
1383.046248,-1924.535449,-536.266849,-74.020594
1383.046560,-4293.194464,-459.657299,-888.247130
1383.046871,-6735.874072,-919.314598,-2294.638420
1383.047182,-9030.512492,0.000000,-3775.050304
1383.047494,-12213.398043,2681.334243,-3034.844362
1383.047805,-15322.262999,3064.381992,222.061783
1383.048117,-17912.983796,229.828649,2146.597232
1383.048428,-17320.819043,-2604.724693,4293.194464
1383.048740,-11399.171507,-3907.087040,4811.338623
1383.049051,-6217.729913,-3907.087040,3404.947333
1383.049363,-1406.391290,-2298.286494,148.041188
1383.049674,74.020594,-1149.143247,-2590.720797
1383.049985,-2886.803174,-459.657299,-4663.297435
1383.050297,-7105.977043,2145.067394,-3330.926739
1383.050608,-12435.459826,3217.601092,-2664.741391
1383.050920,-16284.530724,4903.011187,-1924.535449
1383.051231,-15322.262999,4903.011187,-740.205942
1383.051543,-11177.109724,689.485948,-1554.432478
1383.051854,-5995.668130,-1532.190996,-1406.391290
1383.052165,-1924.535449,-2451.505594,-1702.473667
1383.052477,-1924.535449,-3677.258390,-2516.700203
1383.052788,-4219.173869,-2987.772442,-1406.391290
1383.053100,-8808.450710,-2451.505594,-296.082377
1383.053411,-13841.851115,-919.314598,592.164754
1383.053723,-17542.880825,153.219100,1480.411884
1383.054034,-18357.107362,2298.286494,1110.308913
1383.054345,-14211.954086,3294.210641,-1776.494261
1383.054657,-7698.141797,3524.039291,-4219.173869
1383.054968,-3701.029710,1608.800546,-5625.565159
1383.055280,-1110.308913,766.095498,-5255.462188
1383.055591,-1702.473667,-766.095498,-4589.276840
1383.055903,-5625.565159,-1838.629195,-2368.659014
1383.056214,-9992.780217,-3064.381992,518.144159
1383.056526,-13989.892304,-3600.648841,2220.617826
1383.056837,-16506.592507,-2757.943793,3997.112087
1383.057148,-17320.819043,-1838.629195,3849.070898
1383.057460,-17024.736666,76.609550,2294.638420
1383.057771,-13693.809927,1838.629195,-0.000000
1383.058083,-8216.285956,3600.648841,-2072.576638
1383.058394,-3775.050304,2528.115143,-3775.050304
1383.058706,148.041188,766.095498,-4145.153275
1383.059017,1184.329507,-229.828649,-4071.132681
1383.059328,-1406.391290,-1149.143247,-2368.659014
1383.059640,-6587.832884,-2681.334243,888.247130
1383.059951,-13175.665768,-3983.696590,3997.112087
1383.060263,-18431.127956,-3600.648841,7031.956449
1383.060574,-21614.013506,-2528.115143,8068.244768
1383.060886,-19319.375086,-1072.533697,6883.915261
1383.061197,-13693.809927,1225.752797,3849.070898
1383.061508,-5477.523971,1915.238745,-0.000000
1383.061820,1258.350101,2298.286494,-2442.679609
1383.062131,5107.421000,1685.410096,-3997.112087
1383.062443,4515.256246,1378.971896,-3775.050304
1383.062754,-1628.453072,-383.047749,-962.267725
1383.063066,-7698.141797,-766.095498,1924.535449
1383.063377,-13767.830521,-2374.896044,4737.318029
1383.063689,-17838.963202,-2068.457845,6217.729913
1383.064000,-19393.395680,-766.095498,7105.977043
1383.064311,-16950.716072,-383.047749,5477.523971
1383.064623,-11177.109724,-306.438199,3478.967927
1383.064934,-5551.544565,459.657299,1110.308913
1383.065246,-666.185348,536.266849,-666.185348
1383.065557,1702.473667,919.314598,-2590.720797
1383.065869,1110.308913,766.095498,-3552.988522
1383.066180,-1776.494261,1455.581446,-2664.741391
1383.066491,-6957.935855,612.876398,-1110.308913
1383.066803,-13027.624579,-1072.533697,1628.453072
1383.067114,-17764.942608,-1225.752797,4293.194464
1383.067426,-20355.663405,-1149.143247,4959.379811
1383.067737,-17542.880825,-689.485948,4589.276840
1383.068049,-11991.336260,0.000000,2368.659014
1383.068360,-6069.688724,-383.047749,592.164754
1383.068671,-1554.432478,-842.705048,-1406.391290
1383.068983,1332.370696,76.609550,-3478.967927
1383.069294,-666.185348,1608.800546,-4367.215058
1383.069606,-5255.462188,2145.067394,-2886.803174
1383.069917,-10658.965565,1991.848295,-2146.597232
1383.070229,-15988.448347,1302.362347,-148.041188
1383.070540,-18875.251521,1302.362347,1406.391290
1383.070852,-18061.024985,1378.971896,1850.514855
1383.071163,-12953.603985,-459.657299,1184.329507
1383.071474,-6809.894666,-2451.505594,-444.123565
1383.071786,-3034.844362,-2604.724693,-444.123565
1383.072097,-2146.597232,-2681.334243,-0.000000
1383.072409,-4589.276840,-2911.162892,-814.226536
1383.072720,-6587.832884,-1685.410096,-2368.659014
1383.073032,-8290.306550,-459.657299,-2146.597232
1383.073343,-10510.924376,0.000000,-2368.659014
1383.073654,-13175.665768,459.657299,-1850.514855
1383.073966,-15248.242405,612.876398,-1776.494261
1383.074277,-15396.283594,536.266849,-1184.329507
1383.074589,-12657.521608,0.000000,444.123565
1383.074900,-9548.656652,-459.657299,962.267725
1383.075212,-6957.935855,-2221.676944,814.226536
1383.075523,-4145.153275,-3064.381992,296.082377
1383.075835,-2738.761985,-995.924147,-1110.308913
1383.076146,-3923.091493,0.000000,-1554.432478
1383.076457,-7105.977043,842.705048,-1628.453072
1383.076769,-11843.295072,383.047749,-592.164754
1383.077080,-14952.160028,995.924147,-222.061783
1383.077392,-16210.510130,3064.381992,-370.102971
1383.077703,-14063.912898,2604.724693,-518.144159
1383.078015,-9326.594869,1608.800546,-370.102971
1383.078326,-5107.421000,-766.095498,-148.041188
1383.078637,-1776.494261,-2298.286494,296.082377
1383.078949,-1776.494261,-3064.381992,666.185348
1383.079260,-5403.503377,-2451.505594,2146.597232
1383.079572,-9696.697840,-1225.752797,2738.761985
1383.079883,-12361.439231,-1225.752797,2738.761985
1383.080195,-13027.624579,-689.485948,2960.823768
1383.080506,-12953.603985,76.609550,1554.432478
1383.080817,-11251.130318,1608.800546,-0.000000
1383.081129,-9030.512492,2681.334243,-444.123565
1383.081440,-7254.018232,2145.067394,740.205942
1383.081752,-6143.709319,536.266849,2368.659014
1383.082063,-5107.421000,-1455.581446,3404.947333
1383.082375,-4367.215058,-1225.752797,2664.741391
1383.082686,-4737.318029,-842.705048,3330.926739
1383.082998,-6143.709319,-919.314598,2812.782580
1383.083309,-9252.574275,-689.485948,2516.700203
1383.083620,-12435.459826,0.000000,2960.823768
1383.083932,-14878.139434,536.266849,3034.844362
1383.084243,-15100.201217,1762.019645,2220.617826
1383.084555,-12435.459826,3983.696590,1332.370696
1383.084866,-9030.512492,1838.629195,296.082377
1383.085178,-5329.482782,995.924147,1184.329507
1383.085489,-2442.679609,-383.047749,1110.308913
1383.085800,-2072.576638,-1455.581446,1406.391290
1383.086112,-4219.173869,-1838.629195,2738.761985
1383.086423,-8068.244768,-2145.067394,3330.926739
1383.086735,-11473.192101,-919.314598,3404.947333
1383.087046,-13693.809927,153.219100,3627.009116
1383.087358,-15914.427753,1991.848295,2886.803174
1383.087669,-14434.015869,2374.896044,1554.432478
1383.087980,-10362.883188,2911.162892,1184.329507
1383.088292,-6661.853478,2757.943793,-0.000000
1383.088603,-3997.112087,1225.752797,-0.000000
1383.088915,-2294.638420,689.485948,-814.226536
1383.089226,-2590.720797,-153.219100,-1036.288319
1383.089538,-3701.029710,-229.828649,518.144159
1383.089849,-7031.956449,-766.095498,-222.061783
1383.090161,-11621.233289,-1378.971896,1184.329507
1383.090472,-16062.468941,-766.095498,2516.700203
1383.090783,-18579.169144,-229.828649,3404.947333
1383.091095,-16358.551318,76.609550,2960.823768
1383.091406,-11251.130318,153.219100,888.247130
1383.091718,-6513.812290,76.609550,-814.226536
1383.092029,-2664.741391,-1608.800546,-2220.617826
1383.092341,-222.061783,-229.828649,-3034.844362
1383.092652,-740.205942,383.047749,-2960.823768
1383.092963,-4441.235652,0.000000,-1628.453072
1383.093275,-10658.965565,-1072.533697,-74.020594
1383.093586,-14804.118840,-919.314598,1850.514855
1383.093898,-17764.942608,536.266849,2442.679609
1383.094209,-18283.086767,1991.848295,1776.494261
1383.094521,-15174.221811,2757.943793,1702.473667
1383.094832,-11177.109724,1762.019645,296.082377
1383.095143,-5847.626942,-383.047749,-0.000000
1383.095455,-1332.370696,-1608.800546,-1406.391290
1383.095766,1702.473667,-1532.190996,-3923.091493
1383.096078,1184.329507,229.828649,-3701.029710
1383.096389,-3775.050304,229.828649,-1480.411884
1383.096701,-11177.109724,-1685.410096,592.164754
1383.097012,-18949.272115,-1532.190996,2738.761985
1383.097324,-23020.404796,-919.314598,4663.297435
1383.097635,-20281.642811,612.876398,4589.276840
1383.097946,-12805.562797,153.219100,2294.638420
1383.098258,-5699.585753,-1149.143247,-1184.329507
1383.098569,444.123565,-1685.410096,-3627.009116
1383.098880,3404.947333,-1915.238745,-4515.256246
1383.099192,740.205942,-536.266849,-2960.823768
1383.099503,-5773.606348,689.485948,-592.164754
1383.099815,-12731.542202,-612.876398,1480.411884
1383.100126,-17987.004391,-995.924147,3404.947333
1383.100437,-18727.210333,459.657299,3701.029710
1383.100749,-15544.324782,1991.848295,2072.576638
1383.101060,-10510.924376,1915.238745,-148.041188
1383.101371,-6439.791695,1072.533697,-1850.514855
1383.101683,-4145.153275,0.000000,-2294.638420
1383.101994,-2368.659014,229.828649,-1184.329507
1383.102306,-4145.153275,612.876398,666.185348
1383.102617,-7550.100608,1302.362347,1258.350101
1383.102928,-10214.842000,919.314598,2072.576638
1383.103240,-12657.521608,383.047749,1850.514855
1383.103551,-13175.665768,1455.581446,1628.453072
1383.103863,-11695.253884,1685.410096,-0.000000
1383.104174,-11029.068536,2221.676944,-962.267725
1383.104485,-9030.512492,1915.238745,-592.164754
1383.104797,-7624.121203,1072.533697,-0.000000
1383.105108,-7698.141797,0.000000,1554.432478
1383.105419,-7105.977043,-995.924147,3182.885551
1383.105731,-6809.894666,-1762.019645,3478.967927
1383.106042,-6513.812290,-2451.505594,3404.947333
1383.106354,-7031.956449,-1685.410096,3108.864956
1383.106665,-9178.553681,-2068.457845,1406.391290
1383.106976,-10658.965565,-1378.971896,1036.288319
1383.107288,-11917.315666,383.047749,740.205942
1383.107599,-12065.356855,1608.800546,814.226536
1383.107910,-11325.150913,2145.067394,1850.514855
1383.108222,-9844.739029,995.924147,2886.803174
1383.108533,-7105.977043,-306.438199,3775.050304
1383.108845,-4885.359217,-1378.971896,3478.967927
1383.109156,-3404.947333,-1455.581446,2442.679609
1383.109467,-3775.050304,-919.314598,1184.329507
1383.109779,-5181.441594,-306.438199,148.041188
1383.110090,-8364.327145,459.657299,444.123565
1383.110402,-11473.192101,1455.581446,888.247130
1383.110713,-13841.851115,2221.676944,1332.370696
1383.111024,-14063.912898,2757.943793,1776.494261
1383.111336,-10362.883188,2221.676944,2516.700203
1383.111647,-7105.977043,536.266849,1554.432478
1383.111958,-4737.318029,76.609550,1628.453072
1383.112270,-2442.679609,-153.219100,222.061783
1383.112581,-2368.659014,-383.047749,-592.164754
1383.112893,-3478.967927,-153.219100,-962.267725
1383.113204,-7105.977043,-1072.533697,-1184.329507
1383.113515,-12139.377449,-995.924147,-296.082377
1383.113827,-15174.221811,0.000000,1924.535449
1383.114138,-17987.004391,842.705048,1850.514855
1383.114449,-17468.860231,0.000000,2368.659014
1383.114761,-13027.624579,-306.438199,1258.350101
1383.115072,-7624.121203,-1225.752797,-0.000000
1383.115384,-3404.947333,-1455.581446,-1184.329507
1383.115695,-1406.391290,-1072.533697,-2590.720797
1383.116006,-1628.453072,-842.705048,-3478.967927
1383.116318,-4885.359217,-1225.752797,-3478.967927
1383.116629,-8512.368333,-1302.362347,-1850.514855
1383.116941,-13915.871710,-536.266849,518.144159
1383.117252,-18357.107362,536.266849,592.164754
1383.117563,-19763.498651,995.924147,1406.391290
1383.117875,-16654.633695,1532.190996,1036.288319
1383.118186,-11473.192101,1072.533697,-666.185348
1383.118497,-5477.523971,0.000000,-2294.638420
1383.118809,-962.267725,-306.438199,-4737.318029
1383.119120,1184.329507,0.000000,-5107.421000
1383.119432,-370.102971,383.047749,-4663.297435
1383.119743,-6217.729913,153.219100,-2368.659014
1383.120054,-14137.933492,-1302.362347,-0.000000
1383.120366,-18653.189738,-1532.190996,1924.535449
1383.120677,-19763.498651,-383.047749,2960.823768
1383.120988,-17024.736666,229.828649,1850.514855
1383.121300,-11917.315666,229.828649,-74.020594
1383.121611,-6883.915261,-842.705048,-3108.864956
1383.121923,-1776.494261,-1225.752797,-2590.720797
1383.122234,518.144159,-919.314598,-3182.885551
1383.122545,-962.267725,-383.047749,-2442.679609
1383.122857,-4959.379811,-536.266849,-1258.350101
1383.123168,-9252.574275,-1991.848295,148.041188
1383.123480,-12139.377449,-1302.362347,1702.473667
1383.123791,-15396.283594,-919.314598,1776.494261
1383.124102,-16580.613101,536.266849,1406.391290
1383.124414,-13989.892304,1838.629195,814.226536
1383.124725,-9918.759623,1149.143247,296.082377
1383.125036,-6217.729913,536.266849,-370.102971
1383.125348,-3552.988522,-612.876398,-592.164754
1383.125659,-1924.535449,-689.485948,-814.226536
1383.125971,-2294.638420,-459.657299,-1184.329507
1383.126282,-4515.256246,153.219100,-0.000000
1383.126593,-10214.842000,76.609550,1258.350101
1383.126905,-14804.118840,153.219100,2960.823768
1383.127216,-16950.716072,766.095498,3256.906145
1383.127527,-15840.407159,2068.457845,2516.700203
1383.127839,-11991.336260,3140.991542,1776.494261
1383.128150,-7476.080014,842.705048,740.205942
1383.128462,-3923.091493,-919.314598,1480.411884
1383.128773,-2442.679609,-1072.533697,1036.288319
1383.129084,-2886.803174,-1225.752797,1554.432478
1383.129396,-6069.688724,-1532.190996,2738.761985
1383.129707,-9326.594869,-2068.457845,2886.803174
1383.130019,-12139.377449,-1455.581446,3034.844362
1383.130330,-13545.768739,-306.438199,2960.823768
1383.130641,-13915.871710,306.438199,3182.885551
1383.130953,-13027.624579,0.000000,1924.535449
1383.131264,-10288.862594,0.000000,2294.638420
1383.131575,-7476.080014,-459.657299,2368.659014
1383.131887,-4811.338623,-1608.800546,3108.864956
1383.132198,-3034.844362,-1838.629195,2146.597232
1383.132510,-2516.700203,-2221.676944,444.123565
1383.132821,-2220.617826,-306.438199,370.102971
1383.133132,-4885.359217,-689.485948,-370.102971
1383.133444,-9104.533087,-383.047749,-0.000000
1383.133755,-13323.706956,536.266849,1480.411884
1383.134066,-16136.489536,1072.533697,1628.453072
1383.134378,-15766.386565,2451.505594,2146.597232
1383.134689,-11103.089130,2757.943793,1036.288319
1383.135001,-6143.709319,1532.190996,-0.000000
1383.135312,-2072.576638,229.828649,-814.226536
1383.135623,0.000000,0.000000,-2442.679609
1383.135935,-1184.329507,459.657299,-2738.761985
1383.136246,-4293.194464,153.219100,-2072.576638
1383.136558,-9326.594869,-842.705048,-1628.453072
1383.136869,-14063.912898,-689.485948,-296.082377
1383.137180,-17024.736666,306.438199,444.123565
1383.137492,-18579.169144,1149.143247,740.205942
1383.137803,-16580.613101,842.705048,666.185348
1383.138114,-11769.274478,-229.828649,-666.185348
1383.138426,-7179.997637,-1838.629195,-1480.411884
1383.138737,-2812.782580,-2681.334243,-2516.700203
1383.139049,-1332.370696,-1838.629195,-3552.988522
1383.139360,-2442.679609,-842.705048,-3849.070898
1383.139671,-5921.647536,-536.266849,-2812.782580
1383.139983,-11473.192101,-1991.848295,-1702.473667
1383.140294,-16802.674883,-1762.019645,518.144159
1383.140605,-20207.622217,76.609550,1850.514855
1383.140917,-19393.395680,153.219100,1924.535449
1383.141228,-15026.180623,0.000000,592.164754
1383.141540,-9622.677246,-459.657299,-1554.432478
1383.141851,-4589.276840,-842.705048,-1776.494261
1383.142162,-518.144159,-1608.800546,-2738.761985
1383.142474,296.082377,-1378.971896,-4145.153275
1383.142785,-2590.720797,76.609550,-1998.556043
1383.143097,-8364.327145,-229.828649,-148.041188
1383.143408,-13767.830521,-1302.362347,1850.514855
1383.143719,-17764.942608,-383.047749,2664.741391
1383.144031,-17838.963202,612.876398,3034.844362
1383.144342,-14582.057057,1149.143247,1776.494261
1383.144653,-9474.636058,1455.581446,222.061783
1383.144965,-4737.318029,689.485948,-1184.329507
1383.145276,-1258.350101,-689.485948,-1628.453072
1383.145588,222.061783,-1225.752797,-1110.308913
1383.145899,-962.267725,-1072.533697,-296.082377
1383.146210,-4663.297435,-1302.362347,1258.350101
1383.146522,-9326.594869,-1762.019645,2146.597232
1383.146833,-12361.439231,-689.485948,2960.823768
1383.147144,-14730.098246,0.000000,3182.885551
1383.147456,-15470.304188,1838.629195,2812.782580
1383.147767,-13767.830521,1838.629195,1924.535449
1383.148079,-8956.491898,1302.362347,1628.453072
1383.148390,-5107.421000,536.266849,962.267725
1383.148701,-2812.782580,-612.876398,1110.308913
1383.149013,-2590.720797,-1149.143247,518.144159
1383.149324,-4145.153275,-536.266849,962.267725
1383.149636,-7105.977043,383.047749,1628.453072
1383.149947,-11399.171507,0.000000,2368.659014
1383.150258,-13767.830521,306.438199,3552.988522
1383.150570,-15840.407159,1378.971896,2960.823768
1383.150881,-15174.221811,1838.629195,2738.761985
1383.151192,-11621.233289,1685.410096,2442.679609
1383.151504,-7476.080014,1149.143247,1332.370696
1383.151815,-4737.318029,383.047749,1628.453072
1383.152127,-2516.700203,-842.705048,1480.411884
1383.152438,-2738.761985,-1302.362347,1036.288319
1383.152749,-5329.482782,-995.924147,1258.350101
1383.153061,-8438.347739,-995.924147,2368.659014
1383.153372,-11473.192101,-1225.752797,2886.803174
1383.153683,-13545.768739,-689.485948,2960.823768
1383.153995,-14434.015869,995.924147,3034.844362
1383.154306,-13841.851115,1532.190996,2442.679609
1383.154618,-10510.924376,1455.581446,2368.659014
1383.154929,-7402.059420,-153.219100,1924.535449
1383.155240,-4663.297435,-919.314598,1776.494261
1383.155552,-2664.741391,-1225.752797,518.144159
1383.155863,-1850.514855,-919.314598,-370.102971
1383.156175,-3108.864956,-689.485948,-444.123565
1383.156486,-6809.894666,-1608.800546,-148.041188
1383.156797,-11177.109724,-1762.019645,740.205942
1383.157109,-14582.057057,-689.485948,1480.411884
1383.157420,-16284.530724,76.609550,1776.494261
1383.157731,-15322.262999,1149.143247,1480.411884
1383.158043,-10066.800811,1302.362347,370.102971
1383.158354,-5773.606348,919.314598,-1036.288319
1383.158666,-2664.741391,76.609550,-740.205942
1383.158977,-2146.597232,76.609550,-1924.535449
1383.159288,-3701.029710,536.266849,-1554.432478
1383.159600,-5921.647536,459.657299,-1850.514855
1383.159911,-9474.636058,-383.047749,-666.185348
1383.160222,-13249.686362,-536.266849,740.205942
1383.160534,-16358.551318,-229.828649,1036.288319
1383.160845,-17098.757260,306.438199,592.164754
1383.161157,-14211.954086,766.095498,296.082377
1383.161468,-10288.862594,536.266849,-518.144159
1383.161779,-6883.915261,0.000000,-1332.370696
1383.162091,-4219.173869,-536.266849,-1332.370696
1383.162402,-3627.009116,-689.485948,-1702.473667
1383.162714,-4293.194464,76.609550,-1628.453072
1383.163025,-6735.874072,-689.485948,-1406.391290
1383.163336,-10510.924376,-1915.238745,-814.226536
1383.163648,-14582.057057,-1455.581446,444.123565
1383.163959,-17616.901420,-153.219100,1406.391290
1383.164270,-18357.107362,229.828649,1332.370696
1383.164582,-15544.324782,689.485948,1110.308913
1383.164893,-9992.780217,-842.705048,-74.020594
1383.165205,-4959.379811,-2451.505594,-1110.308913
1383.165516,-814.226536,-1455.581446,-1406.391290
1383.165827,-296.082377,76.609550,-1702.473667
1383.166139,-3330.926739,612.876398,-888.247130
1383.166450,-8290.306550,0.000000,370.102971
1383.166761,-13323.706956,-919.314598,1924.535449
1383.167073,-15470.304188,1072.533697,3256.906145
1383.167384,-15174.221811,1378.971896,2590.720797
1383.167696,-11843.295072,1532.190996,1332.370696
1383.168007,-8068.244768,383.047749,370.102971
1383.168318,-4441.235652,-153.219100,-148.041188
1383.168630,-1628.453072,-383.047749,370.102971
1383.168941,-740.205942,0.000000,444.123565
1383.169253,-2738.761985,0.000000,888.247130
1383.169564,-5995.668130,229.828649,1628.453072
1383.169875,-8808.450710,0.000000,1406.391290
1383.170187,-11473.192101,0.000000,2738.761985
1383.170498,-13249.686362,459.657299,2146.597232
1383.170809,-14359.995275,1838.629195,1924.535449
1383.171121,-12805.562797,1455.581446,1036.288319
1383.171432,-9992.780217,1149.143247,370.102971
1383.171744,-7328.038826,766.095498,1332.370696
1383.172055,-5107.421000,-1225.752797,1332.370696
1383.172366,-4367.215058,-1378.971896,666.185348
1383.172678,-4515.256246,-842.705048,592.164754
