#time,accel_x,accel_y,accel_z
1271.106815,-9178.553681,0.000000,592.164754
1271.107126,-9178.553681,-153.219100,444.123565
1271.107437,-9104.533087,76.609550,444.123565
1271.107748,-8882.471304,0.000000,444.123565
1271.108059,-8808.450710,-229.828649,444.123565
1271.108370,-8808.450710,229.828649,296.082377
1271.108681,-9030.512492,153.219100,444.123565
1271.108993,-8956.491898,0.000000,592.164754
1271.109304,-9104.533087,0.000000,666.185348
1271.109615,-9030.512492,0.000000,592.164754
1271.109926,-8956.491898,76.609550,444.123565
1271.110237,-9104.533087,-153.219100,592.164754
1271.110548,-8438.347739,-306.438199,740.205942
1271.110859,-9030.512492,459.657299,518.144159
1271.111170,-9104.533087,-153.219100,370.102971
1271.111481,-9030.512492,0.000000,666.185348
1271.111792,-9030.512492,0.000000,666.185348
1271.112103,-9104.533087,-229.828649,518.144159
1271.112414,-8808.450710,0.000000,592.164754
1271.112725,-8734.430116,0.000000,740.205942
1271.113037,-8956.491898,0.000000,-0.000000
1271.113348,-8734.430116,153.219100,444.123565
1271.113659,-8956.491898,0.000000,814.226536
1271.113970,-9030.512492,-229.828649,592.164754
1271.114281,-9030.512492,-229.828649,444.123565
1271.114592,-8882.471304,0.000000,518.144159
1271.114903,-8956.491898,0.000000,666.185348
1271.115214,-8808.450710,-612.876398,370.102971
1271.115525,-8882.471304,76.609550,370.102971
1271.115836,-8882.471304,0.000000,444.123565
1271.116147,-8956.491898,-76.609550,518.144159
1271.116458,-9104.533087,-153.219100,518.144159
1271.116769,-8956.491898,-153.219100,592.164754
1271.117081,-8956.491898,0.000000,518.144159
1271.117392,-9252.574275,-383.047749,296.082377
1271.117703,-8956.491898,229.828649,444.123565
1271.118014,-9030.512492,-383.047749,518.144159
1271.118325,-9030.512492,76.609550,148.041188
1271.118636,-9030.512492,-153.219100,518.144159
1271.118947,-8956.491898,-153.219100,296.082377
1271.119258,-8882.471304,0.000000,592.164754
1271.119569,-9030.512492,0.000000,518.144159
1271.119880,-9178.553681,-383.047749,444.123565
1271.120191,-8734.430116,0.000000,1184.329507
1271.120502,-8512.368333,306.438199,444.123565
1271.120814,-8734.430116,229.828649,444.123565
1271.121125,-8808.450710,-306.438199,444.123565
1271.121436,-8808.450710,-153.219100,592.164754
1271.121747,-8956.491898,0.000000,666.185348
1271.122058,-8956.491898,-153.219100,370.102971
1271.122369,-8586.388927,76.609550,296.082377
1271.122680,-8882.471304,0.000000,-0.000000
1271.122991,-8956.491898,-153.219100,518.144159
1271.123302,-9104.533087,-229.828649,370.102971
1271.123613,-9104.533087,0.000000,518.144159
1271.123924,-9030.512492,0.000000,592.164754
1271.124235,-8882.471304,0.000000,592.164754
1271.124546,-8734.430116,0.000000,370.102971
1271.124858,-8882.471304,459.657299,370.102971
1271.125169,-9030.512492,153.219100,444.123565
1271.125480,-8734.430116,153.219100,518.144159
1271.125791,-8882.471304,-306.438199,444.123565
1271.126102,-9030.512492,0.000000,518.144159
1271.126413,-8956.491898,0.000000,592.164754
1271.126724,-8956.491898,-153.219100,370.102971
1271.127035,-8364.327145,0.000000,222.061783
1271.127346,-9030.512492,-76.609550,296.082377
1271.127657,-8956.491898,0.000000,222.061783
1271.127968,-9252.574275,-229.828649,-0.000000
1271.128279,-8956.491898,0.000000,592.164754
1271.128590,-9030.512492,229.828649,518.144159
1271.128902,-9030.512492,0.000000,518.144159
1271.129213,-9104.533087,0.000000,444.123565
1271.129524,-9178.553681,0.000000,148.041188
1271.129835,-8586.388927,-459.657299,888.247130
1271.130146,-9030.512492,536.266849,222.061783
1271.130457,-9030.512492,0.000000,592.164754
1271.130768,-8956.491898,0.000000,666.185348
1271.131079,-8882.471304,0.000000,592.164754
1271.131390,-8882.471304,-229.828649,444.123565
1271.131701,-8660.409521,0.000000,518.144159
1271.132012,-8956.491898,459.657299,592.164754
1271.132323,-9104.533087,-306.438199,296.082377
1271.132634,-8882.471304,-306.438199,592.164754
1271.132946,-8882.471304,76.609550,444.123565
1271.133257,-8956.491898,0.000000,444.123565
1271.133568,-8956.491898,0.000000,592.164754
1271.133879,-9030.512492,76.609550,370.102971
1271.134190,-8734.430116,0.000000,444.123565
1271.134501,-9252.574275,0.000000,-0.000000
1271.134812,-9548.656652,229.828649,-0.000000
1271.135123,-11547.212695,842.705048,-0.000000
1271.135434,-10436.903782,3524.039291,740.205942
1271.135745,-8216.285956,4903.011187,666.185348
1271.136056,-7328.038826,2528.115143,1184.329507
1271.136367,-6513.812290,0.000000,1258.350101
1271.136678,-7179.997637,-1455.581446,-592.164754
1271.136990,-7179.997637,-842.705048,148.041188
1271.137301,-8956.491898,-689.485948,-814.226536
1271.137612,-12805.562797,-842.705048,-1406.391290
1271.137923,-11695.253884,459.657299,222.061783
1271.138234,-9770.718434,689.485948,444.123565
1271.138545,-8660.409521,-153.219100,2294.638420
1271.138856,-10214.842000,-536.266849,2220.617826
1271.139167,-11177.109724,2145.067394,1258.350101
1271.139478,-5773.606348,5822.325785,3256.906145
1271.139789,-5995.668130,4903.011187,1628.453072
1271.140100,-8290.306550,2528.115143,592.164754
1271.140411,-7402.059420,2757.943793,-888.247130
1271.140723,-7994.224174,2987.772442,-1850.514855
1271.141034,-8734.430116,3370.820191,-444.123565
1271.141345,-8882.471304,3064.381992,-740.205942
1271.141656,-13545.768739,995.924147,-962.267725
1271.141967,-11621.233289,-1225.752797,2368.659014
1271.142278,-8734.430116,-919.314598,1776.494261
1271.142589,-10658.965565,2451.505594,1406.391290
1271.142900,-7698.141797,6818.249932,2738.761985
1271.143211,-8734.430116,4903.011187,1184.329507
1271.143522,-7105.977043,3524.039291,3034.844362
1271.143833,-5995.668130,5439.278036,1258.350101
1271.144144,-7624.121203,7048.078582,-148.041188
1271.144455,-8734.430116,6665.030833,-1036.288319
1271.144767,-10066.800811,4519.963438,-740.205942
1271.145078,-8956.491898,5132.839837,-2072.576638
1271.145389,-10510.924376,5515.887586,-666.185348
1271.145700,-11251.130318,4596.572988,-74.020594
1271.146011,-10955.047942,4290.134789,1924.535449
1271.146322,-10881.027347,4519.963438,2516.700203
1271.146633,-8290.306550,5209.449386,2368.659014
1271.146944,-6439.791695,5209.449386,888.247130
1271.147255,-5403.503377,5592.497135,518.144159
1271.147566,-4663.297435,4979.620737,740.205942
1271.147877,-4885.359217,5132.839837,-888.247130
1271.148188,-6143.709319,4596.572988,-740.205942
1271.148499,-8808.450710,3294.210641,-814.226536
1271.148811,-11103.089130,1991.848295,-148.041188
1271.149122,-11695.253884,1455.581446,666.185348
1271.149433,-11473.192101,766.095498,962.267725
1271.149744,-11251.130318,-306.438199,1924.535449
1271.150055,-10066.800811,995.924147,1850.514855
1271.150366,-8808.450710,2604.724693,1628.453072
1271.150677,-7031.956449,4519.963438,1184.329507
1271.150988,-5921.647536,3370.820191,518.144159
1271.151299,-7105.977043,3524.039291,-666.185348
1271.151610,-6217.729913,4749.792088,-370.102971
1271.151921,-6439.791695,2987.772442,-1258.350101
1271.152232,-7698.141797,536.266849,-962.267725
1271.152543,-9474.636058,-1455.581446,-814.226536
1271.152855,-11473.192101,-1915.238745,222.061783
1271.153166,-12435.459826,-2451.505594,814.226536
1271.153477,-13915.871710,-1532.190996,1332.370696
1271.153788,-13545.768739,-766.095498,1184.329507
1271.154099,-12731.542202,1225.752797,-148.041188
1271.154410,-10362.883188,3524.039291,592.164754
1271.154721,-7476.080014,3677.258390,-74.020594
1271.155032,-5699.585753,3753.867940,814.226536
1271.155343,-5921.647536,3677.258390,1036.288319
1271.155654,-6587.832884,2528.115143,1332.370696
1271.155965,-7328.038826,612.876398,222.061783
1271.156276,-9548.656652,-842.705048,-0.000000
1271.156588,-11325.150913,-1608.800546,-370.102971
1271.156899,-12731.542202,-2681.334243,-592.164754
1271.157210,-13323.706956,-3140.991542,444.123565
1271.157521,-13397.727550,-1608.800546,370.102971
1271.157832,-12361.439231,995.924147,962.267725
1271.158143,-9844.739029,3217.601092,888.247130
1271.158454,-7920.203579,4290.134789,888.247130
1271.158765,-4959.379811,4673.182538,2072.576638
1271.159076,-1628.453072,4903.011187,1184.329507
1271.159387,148.041188,4979.620737,-222.061783
1271.159698,-2368.659014,2911.162892,-518.144159
1271.160009,-5921.647536,766.095498,-814.226536
1271.160320,-10510.924376,-689.485948,-740.205942
1271.160632,-13989.892304,-1149.143247,148.041188
1271.160943,-16210.510130,-689.485948,1406.391290
1271.161254,-15544.324782,-1225.752797,2146.597232
1271.161565,-12509.480420,-612.876398,1998.556043
1271.161876,-9400.615463,229.828649,1332.370696
1271.162187,-5625.565159,1455.581446,1332.370696
1271.162498,-3256.906145,3370.820191,1406.391290
1271.162809,-1184.329507,3830.477490,1036.288319
1271.163120,-1110.308913,2221.676944,-0.000000
1271.163431,-4219.173869,-612.876398,-592.164754
1271.163742,-7624.121203,-1762.019645,-222.061783
1271.164053,-11399.171507,-2221.676944,-222.061783
1271.164364,-14359.995275,-2221.676944,370.102971
1271.164676,-15766.386565,-2757.943793,1628.453072
1271.164987,-14952.160028,-3524.039291,1850.514855
1271.165298,-13101.645173,-3447.429741,1776.494261
1271.165609,-10362.883188,-2145.067394,962.267725
1271.165920,-6957.935855,536.266849,222.061783
1271.166231,-4737.318029,2451.505594,-0.000000
1271.166542,-4367.215058,2987.772442,-2072.576638
1271.166853,-5625.565159,1225.752797,-1480.411884
1271.167164,-7476.080014,153.219100,-1332.370696
1271.167475,-9474.636058,0.000000,-296.082377
1271.167786,-11991.336260,0.000000,-0.000000
1271.168097,-14285.974681,0.000000,740.205942
1271.168408,-14730.098246,-995.924147,1332.370696
1271.168720,-13027.624579,-2221.676944,2368.659014
1271.169031,-10510.924376,-2604.724693,2886.803174
1271.169342,-8586.388927,-1991.848295,1776.494261
1271.169653,-7031.956449,153.219100,666.185348
1271.169964,-6143.709319,842.705048,-814.226536
1271.170275,-6735.874072,995.924147,-1554.432478
1271.170586,-8142.265362,1532.190996,-2294.638420
1271.170897,-9252.574275,2681.334243,-2072.576638
1271.171208,-9400.615463,3524.039291,-1406.391290
1271.171519,-9770.718434,1915.238745,-740.205942
1271.171830,-9548.656652,383.047749,1036.288319
1271.172141,-9252.574275,-919.314598,2590.720797
1271.172452,-8216.285956,-1455.581446,4071.132681
1271.172764,-6735.874072,-1532.190996,4441.235652
1271.173075,-8882.471304,-383.047749,2738.761985
1271.173386,-7920.203579,306.438199,1036.288319
1271.173697,-7624.121203,2834.553343,-2294.638420
1271.174008,-7624.121203,4596.572988,-3182.885551
1271.174319,-7402.059420,4903.011187,-3404.947333
1271.174630,-8734.430116,3294.210641,-2664.741391
1271.174941,-8216.285956,1225.752797,-370.102971
1271.175252,-7179.997637,0.000000,2368.659014
1271.175563,-6439.791695,-2145.067394,4293.194464
1271.175874,-5921.647536,-3830.477490,5477.523971
1271.176185,-9030.512492,-4443.353888,4885.359217
1271.176497,-10436.903782,-3600.648841,3404.947333
1271.176808,-10436.903782,153.219100,1184.329507
1271.177119,-10214.842000,3524.039291,-666.185348
1271.177430,-10288.862594,3524.039291,-2664.741391
1271.177741,-8438.347739,3294.210641,-2812.782580
1271.178052,-7994.224174,1532.190996,-2516.700203
1271.178363,-6439.791695,459.657299,-888.247130
1271.178674,-6661.853478,-383.047749,-370.102971
1271.178985,-7179.997637,-1915.238745,1036.288319
1271.179296,-8068.244768,-2911.162892,1924.535449
1271.179607,-9326.594869,-4903.011187,2886.803174
1271.179919,-11103.089130,-4443.353888,3182.885551
1271.180230,-12361.439231,-2451.505594,3034.844362
1271.180541,-13323.706956,-459.657299,1850.514855
1271.180852,-13101.645173,-383.047749,296.082377
1271.181163,-11325.150913,536.266849,-518.144159
1271.181475,-8882.471304,1455.581446,-1258.350101
1271.181786,-7254.018232,1225.752797,-1850.514855
1271.182097,-6439.791695,842.705048,-2146.597232
1271.182408,-5847.626942,0.000000,-1110.308913
1271.182719,-6735.874072,-1762.019645,-518.144159
1271.183031,-8512.368333,-2911.162892,2220.617826
1271.183342,-11029.068536,-3753.867940,2146.597232
1271.183653,-12657.521608,-2757.943793,2368.659014
1271.183964,-13027.624579,-229.828649,1924.535449
1271.184275,-12805.562797,306.438199,1258.350101
1271.184587,-10881.027347,1149.143247,296.082377
1271.184898,-8068.244768,2145.067394,-296.082377
1271.185209,-6143.709319,1762.019645,-1406.391290
1271.185520,-4737.318029,2987.772442,-1554.432478
1271.185831,-4071.132681,1532.190996,-1554.432478
1271.186142,-4959.379811,0.000000,-370.102971
1271.186454,-8068.244768,-1149.143247,148.041188
1271.186765,-10288.862594,-1378.971896,1554.432478
1271.187076,-10955.047942,306.438199,814.226536
1271.187387,-11769.274478,1991.848295,1184.329507
1271.187698,-11103.089130,995.924147,1406.391290
1271.188010,-9992.780217,689.485948,1554.432478
1271.188321,-7698.141797,612.876398,1924.535449
1271.188632,-6513.812290,459.657299,1998.556043
1271.188943,-5699.585753,76.609550,1184.329507
1271.189254,-6365.771101,306.438199,-592.164754
1271.189566,-7105.977043,383.047749,-1110.308913
1271.189877,-7994.224174,76.609550,-1702.473667
1271.190188,-9548.656652,459.657299,-814.226536
1271.190499,-10288.862594,383.047749,-740.205942
1271.190810,-10288.862594,-995.924147,666.185348
1271.191122,-10362.883188,-1762.019645,2072.576638
1271.191433,-9252.574275,-1455.581446,2960.823768
1271.191744,-8660.409521,-1225.752797,2812.782580
1271.192055,-7698.141797,-1608.800546,2220.617826
1271.192366,-7846.182985,-1378.971896,814.226536
1271.192678,-8068.244768,76.609550,-518.144159
1271.192989,-9844.739029,995.924147,-1554.432478
1271.193300,-10510.924376,995.924147,-1480.411884
1271.193611,-10584.944971,689.485948,-814.226536
1271.193922,-9918.759623,-229.828649,-74.020594
1271.194234,-9918.759623,-1225.752797,444.123565
1271.194545,-8808.450710,-1532.190996,1850.514855
1271.194856,-8142.265362,-842.705048,1924.535449
1271.195167,-7031.956449,-1149.143247,2886.803174
1271.195478,-7698.141797,-2221.676944,1998.556043
1271.195790,-8882.471304,-2604.724693,1702.473667
1271.196101,-9252.574275,-1302.362347,370.102971
1271.196412,-10140.821405,-306.438199,-296.082377
1271.196723,-11399.171507,229.828649,-1554.432478
1271.197034,-11029.068536,995.924147,-1332.370696
1271.197345,-10066.800811,459.657299,-1554.432478
1271.197657,-8734.430116,-536.266849,-0.000000
1271.197968,-7920.203579,-919.314598,592.164754
1271.198279,-7179.997637,-1072.533697,1480.411884
1271.198590,-6957.935855,-1225.752797,1998.556043
1271.198901,-7624.121203,-1225.752797,2738.761985
1271.199213,-9104.533087,-1685.410096,2960.823768
1271.199524,-9178.553681,-919.314598,1702.473667
1271.199835,-10288.862594,995.924147,-148.041188
1271.200146,-10807.006753,1762.019645,-1554.432478
1271.200457,-10140.821405,3294.210641,-2960.823768
1271.200769,-9104.533087,2757.943793,-1776.494261
1271.201080,-7994.224174,1302.362347,-814.226536
1271.201391,-6439.791695,-153.219100,962.267725
1271.201702,-5921.647536,-1532.190996,1924.535449
1271.202013,-6957.935855,-2145.067394,2960.823768
1271.202325,-8364.327145,-2911.162892,2516.700203
1271.202636,-9252.574275,-1915.238745,1628.453072
1271.202947,-10214.842000,0.000000,370.102971
1271.203258,-10955.047942,1378.971896,-518.144159
1271.203569,-10732.986159,1532.190996,-1628.453072
1271.203881,-9844.739029,1915.238745,-1998.556043
1271.204192,-8142.265362,1302.362347,-1332.370696
1271.204503,-7550.100608,383.047749,-666.185348
1271.204814,-6661.853478,-306.438199,1110.308913
1271.205125,-6735.874072,-919.314598,518.144159
1271.205437,-7476.080014,-1762.019645,1332.370696
1271.205748,-8808.450710,-1532.190996,1776.494261
1271.206059,-9474.636058,-153.219100,962.267725
1271.206370,-11251.130318,766.095498,740.205942
1271.206681,-11843.295072,1608.800546,148.041188
1271.206993,-11473.192101,1455.581446,592.164754
1271.207304,-10066.800811,1455.581446,740.205942
1271.207615,-8364.327145,383.047749,1036.288319
1271.207926,-6661.853478,-536.266849,592.164754
1271.208237,-5551.544565,-1225.752797,296.082377
1271.208548,-6217.729913,-1149.143247,-0.000000
1271.208860,-7846.182985,-1225.752797,-148.041188
1271.209171,-10288.862594,-229.828649,-0.000000
1271.209482,-11177.109724,919.314598,296.082377
1271.209793,-11177.109724,536.266849,222.061783
1271.210104,-11399.171507,153.219100,962.267725
1271.210416,-10362.883188,-229.828649,1702.473667
1271.210727,-9104.533087,0.000000,1998.556043
1271.211038,-7476.080014,0.000000,2294.638420
1271.211349,-6661.853478,229.828649,1258.350101
1271.211660,-5699.585753,383.047749,518.144159
1271.211972,-6661.853478,-612.876398,-666.185348
1271.212283,-8142.265362,-306.438199,-666.185348
1271.212594,-9918.759623,766.095498,-74.020594
1271.212905,-11325.150913,1762.019645,-518.144159
1271.213216,-11473.192101,1225.752797,666.185348
1271.213528,-11029.068536,76.609550,1036.288319
1271.213839,-9770.718434,0.000000,2072.576638
1271.214150,-7920.203579,76.609550,1480.411884
1271.214461,-6809.894666,-306.438199,1924.535449
1271.214772,-5847.626942,-612.876398,1924.535449
1271.215084,-6661.853478,-1455.581446,962.267725
1271.215395,-7105.977043,-1302.362347,296.082377
1271.215706,-8216.285956,-995.924147,-148.041188
1271.216017,-9770.718434,0.000000,-1184.329507
1271.216328,-10510.924376,1149.143247,-1110.308913
1271.216640,-10362.883188,229.828649,-740.205942
1271.216951,-9474.636058,76.609550,-296.082377
1271.217262,-8438.347739,-306.438199,518.144159
1271.217573,-8068.244768,0.000000,1480.411884
1271.217884,-7105.977043,-842.705048,1702.473667
1271.218196,-7328.038826,-1608.800546,1554.432478
1271.218507,-8438.347739,-1378.971896,1110.308913
1271.218818,-9474.636058,-689.485948,370.102971
1271.219129,-10436.903782,-229.828649,-444.123565
1271.219440,-10807.006753,689.485948,-444.123565
1271.219751,-11177.109724,612.876398,-1036.288319
1271.220063,-10288.862594,612.876398,-592.164754
1271.220374,-8882.471304,0.000000,-74.020594
1271.220685,-7698.141797,0.000000,740.205942
1271.220996,-6809.894666,-1072.533697,1628.453072
1271.221307,-7846.182985,-2068.457845,1332.370696
1271.221619,-8882.471304,-1915.238745,666.185348
1271.221930,-9252.574275,-536.266849,740.205942
1271.222241,-10732.986159,0.000000,-296.082377
1271.222552,-11843.295072,383.047749,-222.061783
1271.222863,-11843.295072,919.314598,-592.164754
1271.223175,-11177.109724,1225.752797,-296.082377
1271.223486,-9326.594869,1149.143247,148.041188
1271.223797,-7476.080014,612.876398,222.061783
1271.224108,-5699.585753,995.924147,1184.329507
1271.224419,-5477.523971,-383.047749,888.247130
1271.224731,-6661.853478,-689.485948,1110.308913
1271.225042,-8586.388927,153.219100,888.247130
1271.225353,-10066.800811,842.705048,888.247130
1271.225664,-11251.130318,1378.971896,148.041188
1271.225975,-11695.253884,536.266849,296.082377
1271.226287,-10807.006753,842.705048,-222.061783
1271.226598,-9918.759623,1302.362347,-518.144159
1271.226909,-7402.059420,536.266849,962.267725
1271.227220,-6069.688724,-306.438199,1332.370696
1271.227531,-5995.668130,-1302.362347,1702.473667
1271.227843,-6365.771101,-2068.457845,1776.494261
1271.228154,-7402.059420,-1838.629195,1480.411884
1271.228465,-7920.203579,0.000000,666.185348
1271.228776,-9918.759623,-383.047749,-0.000000
1271.229087,-10584.944971,0.000000,-0.000000
1271.229399,-10362.883188,76.609550,-74.020594
1271.229710,-9918.759623,76.609550,-0.000000
1271.230021,-8364.327145,0.000000,666.185348
1271.230332,-7846.182985,-383.047749,814.226536
1271.230643,-7624.121203,-1225.752797,1184.329507
1271.230954,-6661.853478,-995.924147,1184.329507
1271.231266,-7254.018232,-1072.533697,740.205942
1271.231577,-8438.347739,153.219100,296.082377
1271.231888,-10066.800811,842.705048,296.082377
1271.232199,-10807.006753,2068.457845,-0.000000
1271.232510,-10955.047942,2298.286494,148.041188
1271.232822,-10510.924376,1685.410096,-0.000000
1271.233133,-9770.718434,766.095498,296.082377
1271.233444,-8364.327145,306.438199,666.185348
1271.233755,-6957.935855,0.000000,1850.514855
1271.234066,-7994.224174,-1455.581446,740.205942
1271.234378,-8882.471304,-1378.971896,814.226536
1271.234689,-9696.697840,-1072.533697,-0.000000
1271.235000,-10066.800811,153.219100,-148.041188
1271.235311,-10955.047942,919.314598,-518.144159
1271.235622,-11473.192101,1685.410096,-370.102971
1271.235934,-10288.862594,1532.190996,-0.000000
1271.236245,-9252.574275,919.314598,740.205942
1271.236556,-7698.141797,612.876398,1332.370696
1271.236867,-6883.915261,383.047749,1406.391290
1271.237178,-6217.729913,0.000000,1628.453072
1271.237490,-6439.791695,-919.314598,1184.329507
1271.237801,-7920.203579,-1225.752797,740.205942
1271.238112,-8956.491898,-383.047749,-74.020594
1271.238423,-10584.944971,995.924147,-296.082377
1271.238734,-11621.233289,1532.190996,-370.102971
1271.239046,-10955.047942,1455.581446,-74.020594
1271.239357,-9992.780217,1532.190996,-74.020594
1271.239668,-8956.491898,536.266849,740.205942
1271.239979,-7179.997637,153.219100,1184.329507
1271.240290,-5847.626942,-153.219100,1702.473667
1271.240602,-5773.606348,-1149.143247,1480.411884
1271.240913,-7179.997637,-2221.676944,1110.308913
1271.241224,-8290.306550,-2298.286494,962.267725
1271.241535,-9474.636058,-1149.143247,444.123565
1271.241846,-10658.965565,0.000000,-518.144159
1271.242157,-10807.006753,229.828649,-592.164754
1271.242469,-10436.903782,76.609550,-814.226536
1271.242780,-9252.574275,0.000000,-148.041188
1271.243091,-7698.141797,0.000000,222.061783
1271.243402,-7031.956449,-459.657299,1036.288319
1271.243713,-7031.956449,-1149.143247,1702.473667
1271.244025,-7550.100608,-1991.848295,1554.432478
1271.244336,-8956.491898,-1915.238745,1110.308913
1271.244647,-9918.759623,-459.657299,962.267725
1271.244958,-11029.068536,919.314598,-0.000000
1271.245269,-11769.274478,1302.362347,-296.082377
1271.245581,-10807.006753,1378.971896,-148.041188
1271.245892,-9474.636058,1378.971896,-0.000000
1271.246203,-7846.182985,-306.438199,814.226536
1271.246514,-7105.977043,-536.266849,1776.494261
1271.246825,-6809.894666,-689.485948,1332.370696
1271.247137,-7402.059420,-1378.971896,1036.288319
1271.247448,-7920.203579,-766.095498,666.185348
1271.247759,-9474.636058,0.000000,-0.000000
1271.248070,-10066.800811,612.876398,148.041188
1271.248381,-11695.253884,1225.752797,-888.247130
1271.248693,-11399.171507,1302.362347,-0.000000
1271.249004,-10584.944971,1072.533697,-0.000000
1271.249315,-9548.656652,536.266849,1184.329507
1271.249626,-8364.327145,0.000000,1406.391290
1271.249937,-6587.832884,153.219100,1480.411884
1271.250249,-6291.750507,229.828649,592.164754
1271.250560,-6439.791695,-306.438199,740.205942
1271.250871,-7402.059420,0.000000,592.164754
1271.251182,-9030.512492,459.657299,-148.041188
1271.251493,-11177.109724,1149.143247,-222.061783
1271.251805,-11325.150913,1762.019645,518.144159
1271.252116,-10510.924376,1685.410096,-0.000000
1271.252427,-9696.697840,766.095498,962.267725
1271.252738,-7698.141797,0.000000,1036.288319
1271.253049,-6809.894666,-153.219100,1924.535449
1271.253360,-5699.585753,-766.095498,1850.514855
1271.253672,-6439.791695,-1762.019645,1702.473667
1271.253983,-7254.018232,-2451.505594,888.247130
1271.254294,-8586.388927,-1302.362347,-0.000000
1271.254605,-9770.718434,0.000000,-666.185348
1271.254916,-9918.759623,689.485948,-592.164754
1271.255228,-10732.986159,612.876398,-814.226536
1271.255539,-10362.883188,-612.876398,518.144159
1271.255850,-9400.615463,-1225.752797,888.247130
1271.256161,-8808.450710,-919.314598,1480.411884
1271.256472,-7179.997637,-842.705048,2146.597232
1271.256784,-6883.915261,-2221.676944,1702.473667
1271.257095,-7772.162391,-2681.334243,1184.329507
1271.257406,-8364.327145,-995.924147,814.226536
1271.257717,-9474.636058,306.438199,666.185348
1271.258028,-10584.944971,1532.190996,-0.000000
1271.258340,-11251.130318,842.705048,-0.000000
1271.258651,-10955.047942,612.876398,-814.226536
1271.258962,-9918.759623,536.266849,-0.000000
1271.259273,-8290.306550,0.000000,-0.000000
1271.259584,-7550.100608,-383.047749,962.267725
1271.259896,-7254.018232,-1149.143247,666.185348
1271.260207,-7920.203579,-2528.115143,814.226536
1271.260518,-9252.574275,-1685.410096,518.144159
1271.260829,-10510.924376,-229.828649,-74.020594
1271.261140,-11547.212695,153.219100,-0.000000
1271.261452,-11695.253884,153.219100,222.061783
1271.261763,-10732.986159,0.000000,-0.000000
1271.262074,-9178.553681,76.609550,222.061783
1271.262385,-8142.265362,-229.828649,370.102971
1271.262696,-6587.832884,536.266849,666.185348
1271.263008,-5403.503377,-689.485948,518.144159
1271.263319,-6587.832884,-383.047749,-74.020594
1271.263630,-8068.244768,-383.047749,-0.000000
1271.263941,-9770.718434,459.657299,-0.000000
1271.264252,-11473.192101,1072.533697,-0.000000
1271.264563,-11843.295072,1302.362347,-0.000000
1271.264875,-11325.150913,1608.800546,-0.000000
1271.265186,-9770.718434,1149.143247,-0.000000
1271.265497,-8882.471304,689.485948,814.226536
1271.265808,-6513.812290,229.828649,1184.329507
1271.266119,-5773.606348,-612.876398,1332.370696
1271.266431,-6365.771101,-1685.410096,1184.329507
1271.266742,-6957.935855,-1991.848295,1184.329507
1271.267053,-7994.224174,-1149.143247,296.082377
1271.267364,-9178.553681,-459.657299,444.123565
1271.267675,-10807.006753,0.000000,-370.102971
1271.267987,-11251.130318,536.266849,-148.041188
1271.268298,-10955.047942,536.266849,-0.000000
1271.268609,-9622.677246,919.314598,296.082377
1271.268920,-8068.244768,766.095498,444.123565
1271.269231,-7550.100608,0.000000,888.247130
1271.269543,-7105.977043,-689.485948,1184.329507
1271.269854,-6883.915261,-1762.019645,1258.350101
1271.270165,-7476.080014,-1302.362347,1258.350101
1271.270476,-9178.553681,-229.828649,666.185348
1271.270787,-10658.965565,383.047749,-0.000000
1271.271099,-11177.109724,689.485948,148.041188
1271.271410,-9992.780217,842.705048,444.123565
1271.271721,-9178.553681,229.828649,444.123565
1271.272032,-7994.224174,-842.705048,666.185348
1271.272343,-7846.182985,-153.219100,1110.308913
1271.272655,-7402.059420,-995.924147,1110.308913
1271.272966,-7179.997637,-1915.238745,1628.453072
1271.273277,-8660.409521,-1685.410096,1184.329507
1271.273588,-9844.739029,-842.705048,1036.288319
1271.273899,-11473.192101,76.609550,296.082377
1271.274211,-11843.295072,1149.143247,-74.020594
1271.274522,-11325.150913,1762.019645,-296.082377
1271.274833,-9844.739029,1532.190996,-74.020594
1271.275144,-8808.450710,459.657299,222.061783
1271.275455,-7105.977043,0.000000,444.123565
1271.275766,-6217.729913,0.000000,1184.329507
1271.276078,-6069.688724,-383.047749,1258.350101
1271.276389,-7105.977043,-1149.143247,1184.329507
1271.276700,-8290.306550,-689.485948,444.123565
1271.277011,-10436.903782,383.047749,-0.000000
1271.277322,-11991.336260,1685.410096,-296.082377
1271.277634,-11695.253884,2298.286494,-296.082377
1271.277945,-11399.171507,2298.286494,-370.102971
1271.278256,-9400.615463,919.314598,666.185348
1271.278567,-7476.080014,0.000000,1184.329507
1271.278878,-6513.812290,-689.485948,1998.556043
1271.279190,-5477.523971,-1225.752797,2146.597232
1271.279501,-6217.729913,-2068.457845,1776.494261
1271.279813,-7254.018232,-2068.457845,-0.000000
1271.280124,-8956.491898,-1225.752797,-148.041188
1271.280436,-10584.944971,0.000000,-962.267725
1271.280747,-11325.150913,459.657299,-814.226536
1271.281059,-11325.150913,842.705048,-518.144159
1271.281370,-10436.903782,0.000000,-0.000000
1271.281682,-8660.409521,-766.095498,1110.308913
1271.281993,-7179.997637,-766.095498,1480.411884
1271.282305,-5551.544565,-1072.533697,1702.473667
1271.282616,-5477.523971,-1455.581446,1332.370696
1271.282928,-6291.750507,-1838.629195,814.226536
1271.283239,-8586.388927,-536.266849,-370.102971
1271.283551,-10288.862594,306.438199,-296.082377
1271.283863,-10955.047942,995.924147,-518.144159
1271.284174,-11769.274478,612.876398,-592.164754
1271.284486,-10881.027347,229.828649,-0.000000
1271.284797,-10066.800811,-612.876398,740.205942
1271.285109,-9252.574275,-383.047749,1258.350101
1271.285420,-7624.121203,-1225.752797,1628.453072
1271.285732,-7031.956449,-1762.019645,888.247130
1271.286043,-7105.977043,-1915.238745,666.185348
1271.286355,-8142.265362,-842.705048,-222.061783
1271.286666,-9696.697840,-153.219100,222.061783
1271.286978,-11029.068536,229.828649,-148.041188
1271.287289,-11991.336260,1455.581446,370.102971
1271.287601,-11843.295072,459.657299,296.082377
1271.287912,-10658.965565,0.000000,1184.329507
1271.288224,-8956.491898,-153.219100,1110.308913
1271.288535,-7031.956449,153.219100,1036.288319
1271.288847,-5699.585753,-153.219100,518.144159
1271.289158,-5699.585753,-766.095498,370.102971
1271.289470,-8290.306550,306.438199,-222.061783
1271.289781,-9474.636058,995.924147,-222.061783
1271.290093,-11325.150913,1838.629195,-0.000000
1271.290404,-12435.459826,1685.410096,962.267725
1271.290716,-11843.295072,2145.067394,814.226536
1271.291027,-10140.821405,1915.238745,1036.288319
1271.291339,-7772.162391,1149.143247,1406.391290
1271.291650,-5773.606348,995.924147,1480.411884
1271.291962,-4811.338623,-919.314598,1628.453072
1271.292273,-4885.359217,-1838.629195,1110.308913
1271.292585,-6661.853478,-1225.752797,666.185348
1271.292896,-8364.327145,0.000000,-74.020594
1271.293208,-10140.821405,689.485948,-0.000000
1271.293519,-10881.027347,612.876398,-370.102971
1271.293831,-10584.944971,919.314598,-444.123565
1271.294142,-10214.842000,1302.362347,-148.041188
1271.294454,-8586.388927,766.095498,592.164754
1271.294765,-8068.244768,383.047749,370.102971
1271.295077,-6513.812290,-306.438199,1480.411884
1271.295388,-5773.606348,-1685.410096,1998.556043
1271.295700,-6291.750507,-2451.505594,1924.535449
1271.296011,-8142.265362,-1991.848295,888.247130
1271.296323,-10288.862594,-1225.752797,666.185348
1271.296634,-11177.109724,0.000000,-296.082377
1271.296946,-11547.212695,919.314598,-444.123565
1271.297257,-11695.253884,1225.752797,-666.185348
1271.297569,-10510.924376,-153.219100,-74.020594
1271.297880,-9030.512492,-536.266849,444.123565
1271.298192,-7550.100608,-842.705048,1332.370696
1271.298503,-7179.997637,-1225.752797,1258.350101
1271.298815,-7550.100608,-1608.800546,1702.473667
1271.299126,-8290.306550,-2298.286494,1036.288319
1271.299438,-9252.574275,-306.438199,-0.000000
1271.299749,-10214.842000,229.828649,-296.082377
1271.300061,-11621.233289,1915.238745,-1110.308913
1271.300372,-11547.212695,1915.238745,-814.226536
1271.300684,-10584.944971,1455.581446,-296.082377
1271.300995,-9326.594869,919.314598,296.082377
1271.301307,-7402.059420,229.828649,370.102971
1271.301618,-5847.626942,-383.047749,666.185348
1271.301930,-6439.791695,-383.047749,444.123565
1271.302241,-7846.182985,-459.657299,444.123565
1271.302553,-9474.636058,0.000000,296.082377
1271.302864,-11177.109724,689.485948,592.164754
1271.303176,-12361.439231,1455.581446,148.041188
1271.303487,-11991.336260,1991.848295,592.164754
1271.303799,-10436.903782,1915.238745,222.061783
1271.304110,-8142.265362,1608.800546,666.185348
1271.304422,-5995.668130,76.609550,1184.329507
1271.304733,-4885.359217,0.000000,1702.473667
1271.305045,-5107.421000,-919.314598,1184.329507
1271.305356,-7031.956449,-1532.190996,962.267725
1271.305668,-8808.450710,-995.924147,148.041188
1271.305979,-9474.636058,383.047749,-518.144159
1271.306291,-10436.903782,1072.533697,-740.205942
1271.306602,-10510.924376,842.705048,-222.061783
1271.306914,-9474.636058,536.266849,-0.000000
1271.307225,-9178.553681,153.219100,1036.288319
1271.307537,-7994.224174,0.000000,1776.494261
1271.307848,-6439.791695,0.000000,1850.514855
1271.308160,-5477.523971,0.000000,1850.514855
1271.308471,-5773.606348,-1302.362347,1258.350101
1271.308783,-7254.018232,-2221.676944,888.247130
1271.309094,-9474.636058,-459.657299,-148.041188
1271.309406,-11029.068536,536.266849,-444.123565
1271.309717,-11991.336260,536.266849,-296.082377
1271.310029,-11843.295072,0.000000,370.102971
1271.310340,-11325.150913,-306.438199,444.123565
1271.310652,-9104.533087,-842.705048,888.247130
1271.310963,-7254.018232,-306.438199,1036.288319
1271.311275,-6217.729913,-536.266849,1628.453072
1271.311586,-6513.812290,-995.924147,1258.350101
1271.311898,-7328.038826,-1455.581446,1554.432478
1271.312209,-9104.533087,-995.924147,222.061783
1271.312521,-10510.924376,0.000000,370.102971
1271.312832,-11917.315666,1302.362347,-740.205942
1271.313144,-12361.439231,1378.971896,-370.102971
1271.313455,-11695.253884,459.657299,-814.226536
1271.313767,-9548.656652,-383.047749,888.247130
1271.314078,-8512.368333,-689.485948,148.041188
1271.314390,-8068.244768,-919.314598,1332.370696
1271.314701,-6957.935855,-536.266849,1036.288319
1271.315013,-7772.162391,-766.095498,1036.288319
1271.315325,-8882.471304,-612.876398,1480.411884
1271.315636,-8660.409521,0.000000,666.185348
1271.315948,-9992.780217,766.095498,-296.082377
1271.316259,-11103.089130,1685.410096,-444.123565
1271.316571,-10510.924376,2528.115143,-74.020594
1271.316882,-9770.718434,2068.457845,-0.000000
1271.317194,-8364.327145,1225.752797,1332.370696
1271.317505,-6735.874072,-229.828649,1776.494261
1271.317817,-5699.585753,-1302.362347,1480.411884
1271.318128,-6291.750507,-1762.019645,1110.308913
1271.318440,-7105.977043,-1302.362347,444.123565
1271.318751,-7994.224174,0.000000,-148.041188
1271.319063,-10066.800811,919.314598,-444.123565
1271.319374,-10807.006753,536.266849,-518.144159
1271.319686,-10955.047942,536.266849,-444.123565
1271.319997,-9992.780217,306.438199,444.123565
1271.320309,-8734.430116,0.000000,1184.329507
1271.320620,-7402.059420,-842.705048,1554.432478
1271.320932,-6217.729913,-1608.800546,2146.597232
1271.321243,-5921.647536,-1608.800546,1998.556043
1271.321555,-6513.812290,-2298.286494,1184.329507
1271.321866,-8512.368333,-1608.800546,592.164754
1271.322178,-10436.903782,0.000000,-0.000000
1271.322489,-11325.150913,612.876398,-666.185348
1271.322801,-11547.212695,536.266849,-0.000000
1271.323112,-10881.027347,1072.533697,-222.061783
1271.323424,-9474.636058,-306.438199,444.123565
1271.323735,-8438.347739,-689.485948,1184.329507
1271.324047,-7105.977043,-459.657299,1998.556043
1271.324358,-6661.853478,-612.876398,1406.391290
1271.324670,-7179.997637,-1685.410096,1110.308913
1271.324981,-8290.306550,-2298.286494,740.205942
1271.325293,-9474.636058,-1072.533697,-0.000000
1271.325604,-10955.047942,229.828649,-148.041188
1271.325916,-11695.253884,1072.533697,-518.144159
1271.326227,-11695.253884,536.266849,-74.020594
1271.326539,-10881.027347,-383.047749,296.082377
1271.326850,-9400.615463,-612.876398,592.164754
1271.327162,-7179.997637,0.000000,518.144159
1271.327473,-6291.750507,0.000000,592.164754
1271.327785,-6365.771101,-1072.533697,-0.000000
1271.328096,-6883.915261,-536.266849,222.061783
1271.328408,-9030.512492,0.000000,-370.102971
1271.328719,-11029.068536,1455.581446,518.144159
1271.329031,-12213.398043,1378.971896,-0.000000
1271.329342,-12065.356855,1302.362347,444.123565
1271.329654,-10436.903782,1225.752797,148.041188
1271.329965,-8364.327145,536.266849,444.123565
1271.330277,-6291.750507,-229.828649,370.102971
1271.330588,-5625.565159,76.609550,962.267725
1271.330900,-6143.709319,-919.314598,740.205942
1271.331211,-7624.121203,-1915.238745,740.205942
1271.331523,-9030.512492,-919.314598,148.041188
1271.331834,-10066.800811,612.876398,-74.020594
1271.332146,-10658.965565,1378.971896,-888.247130
1271.332457,-10658.965565,1302.362347,-222.061783
1271.332769,-10214.842000,1225.752797,-296.082377
1271.333080,-9548.656652,0.000000,518.144159
1271.333392,-7846.182985,766.095498,1480.411884
1271.333703,-6957.935855,612.876398,2294.638420
1271.334015,-5995.668130,-306.438199,1702.473667
1271.334326,-6143.709319,-1685.410096,962.267725
1271.334638,-7328.038826,-1225.752797,148.041188
1271.334949,-8882.471304,612.876398,-666.185348
1271.335261,-10510.924376,383.047749,-518.144159
1271.335572,-10881.027347,1378.971896,296.082377
1271.335884,-11177.109724,153.219100,222.061783
1271.336195,-10288.862594,0.000000,1554.432478
1271.336507,-8956.491898,-842.705048,1776.494261
1271.336818,-7846.182985,-536.266849,1998.556043
1271.337130,-6735.874072,-766.095498,1776.494261
1271.337441,-7105.977043,-766.095498,1332.370696
1271.337753,-7550.100608,-842.705048,740.205942
1271.338064,-9178.553681,76.609550,-296.082377
1271.338376,-11103.089130,0.000000,-222.061783
1271.338687,-11695.253884,689.485948,-1036.288319
1271.338999,-11695.253884,919.314598,-666.185348
1271.339310,-10732.986159,1072.533697,-592.164754
1271.339622,-9474.636058,229.828649,-0.000000
1271.339933,-7698.141797,-306.438199,296.082377
1271.340245,-5847.626942,-612.876398,1480.411884
1271.340556,-6439.791695,-1608.800546,1554.432478
1271.340868,-6809.894666,-1838.629195,1776.494261
1271.341179,-8586.388927,-1532.190996,1110.308913
1271.341491,-10288.862594,-459.657299,1110.308913
1271.341802,-11325.150913,689.485948,296.082377
1271.342114,-12065.356855,1455.581446,-74.020594
1271.342425,-11029.068536,612.876398,-0.000000
1271.342737,-9400.615463,689.485948,-0.000000
1271.343048,-7920.203579,-842.705048,1036.288319
1271.343360,-7031.956449,-1532.190996,1776.494261
1271.343671,-6735.874072,-2068.457845,2072.576638
1271.343983,-6957.935855,-2068.457845,1628.453072
1271.344294,-7994.224174,-1302.362347,740.205942
1271.344606,-8882.471304,0.000000,-0.000000
1271.344917,-9622.677246,1378.971896,-370.102971
1271.345229,-10214.842000,1072.533697,-814.226536
1271.345540,-9696.697840,1685.410096,-74.020594
1271.345852,-9252.574275,1149.143247,-148.041188
1271.346163,-8216.285956,459.657299,888.247130
1271.346475,-6957.935855,0.000000,1554.432478
1271.346787,-5995.668130,-766.095498,1628.453072
1271.347098,-6143.709319,-459.657299,1628.453072
1271.347410,-7328.038826,-1225.752797,666.185348
1271.347721,-9400.615463,-536.266849,148.041188
1271.348033,-10362.883188,612.876398,-0.000000
1271.348344,-11769.274478,1685.410096,-370.102971
1271.348656,-12139.377449,919.314598,-0.000000
1271.348967,-11177.109724,306.438199,296.082377
1271.349279,-9622.677246,383.047749,1110.308913
1271.349590,-7772.162391,-306.438199,1776.494261
1271.349902,-6587.832884,-995.924147,1776.494261
1271.350213,-6143.709319,-1532.190996,1406.391290
1271.350525,-6883.915261,-1455.581446,444.123565
1271.350836,-8068.244768,-1532.190996,444.123565
1271.351148,-9474.636058,76.609550,-222.061783
1271.351459,-11103.089130,1455.581446,-518.144159
1271.351771,-11473.192101,1149.143247,-814.226536
1271.352082,-11251.130318,1302.362347,-666.185348
1271.352394,-9548.656652,1225.752797,-74.020594
1271.352705,-8068.244768,153.219100,370.102971
1271.353017,-6365.771101,153.219100,370.102971
1271.353328,-5995.668130,-383.047749,666.185348
1271.353640,-6587.832884,-1072.533697,370.102971
1271.353951,-8290.306550,-919.314598,518.144159
1271.354263,-10214.842000,0.000000,518.144159
1271.354574,-11843.295072,-306.438199,888.247130
1271.354886,-12435.459826,306.438199,444.123565
1271.355197,-12361.439231,689.485948,666.185348
1271.355509,-10658.965565,306.438199,-148.041188
1271.355820,-8438.347739,-306.438199,1184.329507
1271.356132,-6439.791695,-766.095498,592.164754
1271.356443,-4885.359217,-1225.752797,962.267725
1271.356755,-5477.523971,-1455.581446,148.041188
1271.357066,-6735.874072,-2528.115143,222.061783
1271.357378,-8882.471304,-1378.971896,-222.061783
1271.357689,-10658.965565,0.000000,-0.000000
1271.358001,-11917.315666,0.000000,-296.082377
1271.358312,-12435.459826,689.485948,-0.000000
1271.358624,-11103.089130,612.876398,-0.000000
1271.358935,-9252.574275,0.000000,518.144159
1271.359247,-8142.265362,-229.828649,444.123565
1271.359558,-5625.565159,689.485948,1776.494261
1271.359870,-6069.688724,-1149.143247,740.205942
1271.360181,-6587.832884,-2221.676944,1184.329507
1271.360493,-7772.162391,-1685.410096,444.123565
1271.360804,-10066.800811,-229.828649,-0.000000
1271.361116,-11177.109724,995.924147,296.082377
1271.361427,-12065.356855,689.485948,-0.000000
1271.361739,-11769.274478,689.485948,-74.020594
1271.362050,-10658.965565,689.485948,370.102971
1271.362362,-8734.430116,766.095498,1110.308913
1271.362673,-6809.894666,842.705048,1628.453072
1271.362985,-6439.791695,0.000000,1850.514855
1271.363296,-6069.688724,-766.095498,1776.494261
1271.363608,-6957.935855,-1378.971896,888.247130
1271.363919,-8882.471304,306.438199,222.061783
1271.364231,-9918.759623,1838.629195,-370.102971
1271.364542,-10732.986159,1991.848295,-1554.432478
1271.364854,-10510.924376,1991.848295,-1036.288319
1271.365165,-9474.636058,919.314598,-666.185348
1271.365477,-8882.471304,0.000000,370.102971
1271.365788,-8068.244768,153.219100,1036.288319
1271.366100,-6513.812290,76.609550,1998.556043
1271.366411,-6587.832884,-1225.752797,1998.556043
1271.366723,-7328.038826,-1225.752797,1480.411884
1271.367034,-9178.553681,76.609550,222.061783
1271.367346,-10436.903782,536.266849,740.205942
1271.367657,-11399.171507,2145.067394,-74.020594
1271.367969,-11399.171507,2451.505594,-0.000000
1271.368280,-10807.006753,2068.457845,-592.164754
1271.368592,-9252.574275,1072.533697,222.061783
1271.368903,-7105.977043,536.266849,1110.308913
1271.369215,-5773.606348,153.219100,888.247130
1271.369526,-6069.688724,-536.266849,1406.391290
1271.369838,-7328.038826,-1685.410096,666.185348
1271.370149,-8438.347739,-1072.533697,296.082377
1271.370461,-9474.636058,76.609550,-0.000000
1271.370772,-10807.006753,842.705048,-74.020594
1271.371084,-11399.171507,306.438199,-296.082377
1271.371395,-11177.109724,76.609550,222.061783
1271.371707,-9770.718434,-383.047749,740.205942
1271.372018,-8364.327145,-766.095498,1258.350101
1271.372330,-6735.874072,-1072.533697,1998.556043
1271.372641,-6439.791695,-2068.457845,1776.494261
1271.372953,-7105.977043,-2528.115143,1258.350101
1271.373264,-7846.182985,-1991.848295,444.123565
1271.373576,-9178.553681,-383.047749,-0.000000
1271.373887,-10584.944971,153.219100,148.041188
1271.374199,-11695.253884,383.047749,-592.164754
1271.374510,-12065.356855,306.438199,148.041188
1271.374822,-10807.006753,1532.190996,-0.000000
1271.375133,-9622.677246,766.095498,1184.329507
1271.375445,-7550.100608,459.657299,1110.308913
1271.375756,-5625.565159,0.000000,1332.370696
1271.376068,-5773.606348,-842.705048,592.164754
1271.376379,-5847.626942,-1532.190996,740.205942
1271.376691,-7920.203579,-919.314598,-0.000000
1271.377002,-9770.718434,-383.047749,666.185348
1271.377314,-12213.398043,76.609550,-444.123565
1271.377625,-12139.377449,153.219100,-148.041188
1271.377937,-11177.109724,689.485948,-0.000000
1271.378249,-10140.821405,612.876398,444.123565
1271.378560,-8660.409521,229.828649,518.144159
1271.378871,-6809.894666,306.438199,1184.329507
1271.379183,-5847.626942,0.000000,1628.453072
1271.379494,-6217.729913,-612.876398,1628.453072
1271.379806,-7920.203579,-383.047749,740.205942
1271.380117,-9696.697840,383.047749,888.247130
1271.380428,-11251.130318,1455.581446,148.041188
1271.380740,-11695.253884,2298.286494,-222.061783
1271.381051,-10955.047942,3064.381992,-444.123565
1271.381362,-9474.636058,1915.238745,-740.205942
1271.381674,-7328.038826,689.485948,370.102971
1271.381985,-6217.729913,-306.438199,1036.288319
1271.382297,-5921.647536,-995.924147,1702.473667
1271.382608,-6513.812290,-1685.410096,1184.329507
1271.382919,-7698.141797,-1838.629195,592.164754
1271.383231,-8882.471304,-1762.019645,444.123565
1271.383542,-9918.759623,-306.438199,-74.020594
1271.383854,-11177.109724,459.657299,-222.061783
1271.384165,-11621.233289,229.828649,296.082377
1271.384476,-10807.006753,0.000000,296.082377
1271.384788,-10066.800811,-689.485948,1110.308913
1271.385099,-8142.265362,-766.095498,1406.391290
1271.385411,-6587.832884,-919.314598,1850.514855
1271.385722,-6069.688724,-1378.971896,1554.432478
1271.386033,-6217.729913,-1302.362347,962.267725
1271.386345,-7772.162391,-1149.143247,-0.000000
1271.386656,-9104.533087,-76.609550,-296.082377
1271.386967,-10584.944971,459.657299,-296.082377
1271.387279,-11621.233289,306.438199,-0.000000
1271.387590,-11177.109724,383.047749,296.082377
1271.387902,-10436.903782,0.000000,222.061783
1271.388213,-9178.553681,-306.438199,962.267725
1271.388524,-7476.080014,-536.266849,1258.350101
1271.388836,-6809.894666,-919.314598,1036.288319
1271.389147,-7105.977043,-2528.115143,1406.391290
1271.389459,-8068.244768,-2681.334243,962.267725
1271.389770,-9104.533087,-1915.238745,-0.000000
1271.390081,-10732.986159,-459.657299,-518.144159
1271.390393,-11547.212695,689.485948,-888.247130
1271.390704,-11695.253884,689.485948,-370.102971
1271.391016,-10658.965565,995.924147,-370.102971
1271.391327,-9474.636058,153.219100,296.082377
1271.391638,-7476.080014,766.095498,518.144159
1271.391950,-6587.832884,229.828649,1332.370696
1271.392261,-6365.771101,0.000000,1110.308913
1271.392572,-7105.977043,-689.485948,814.226536
1271.392884,-8882.471304,153.219100,444.123565
1271.393195,-9844.739029,1455.581446,592.164754
1271.393507,-10732.986159,2451.505594,-444.123565
1271.393818,-11325.150913,2987.772442,-74.020594
1271.394129,-10214.842000,2374.896044,-1036.288319
1271.394441,-8586.388927,1685.410096,-370.102971
1271.394752,-6883.915261,766.095498,148.041188
1271.395064,-6365.771101,0.000000,1258.350101
1271.395375,-6735.874072,-1455.581446,1184.329507
1271.395686,-7179.997637,-1762.019645,888.247130
1271.395998,-8956.491898,-1762.019645,740.205942
1271.396309,-9696.697840,0.000000,888.247130
1271.396621,-11177.109724,1072.533697,-0.000000
1271.396932,-11473.192101,919.314598,-222.061783
1271.397243,-10214.842000,1072.533697,148.041188
1271.397555,-8734.430116,766.095498,444.123565
1271.397866,-7550.100608,459.657299,666.185348
1271.398177,-6291.750507,-459.657299,962.267725
1271.398489,-5551.544565,-1302.362347,1406.391290
1271.398800,-7179.997637,-1302.362347,888.247130
1271.399112,-7920.203579,-1532.190996,444.123565
1271.399423,-9696.697840,-919.314598,296.082377
1271.399734,-11399.171507,0.000000,592.164754
1271.400046,-12287.418637,383.047749,592.164754
1271.400357,-11843.295072,1072.533697,592.164754
1271.400669,-10658.965565,612.876398,740.205942
1271.400980,-8734.430116,76.609550,1850.514855
1271.401291,-6883.915261,-383.047749,1702.473667
1271.401603,-5551.544565,-153.219100,1332.370696
1271.401914,-5995.668130,-995.924147,814.226536
1271.402226,-6883.915261,-1838.629195,296.082377
1271.402537,-8882.471304,-1455.581446,-74.020594
1271.402848,-9992.780217,-766.095498,-0.000000
1271.403160,-11547.212695,-459.657299,-444.123565
1271.403471,-11917.315666,-612.876398,-222.061783
1271.403782,-11917.315666,-153.219100,-0.000000
1271.404094,-10288.862594,0.000000,370.102971
1271.404405,-8586.388927,-306.438199,740.205942
1271.404717,-6513.812290,0.000000,1554.432478
1271.405028,-5699.585753,-306.438199,1406.391290
1271.405339,-6217.729913,-1072.533697,1406.391290
1271.405651,-7402.059420,-919.314598,222.061783
1271.405962,-9178.553681,-306.438199,592.164754
1271.406274,-10955.047942,1302.362347,-222.061783
1271.406585,-12509.480420,1915.238745,-222.061783
1271.406896,-12213.398043,1608.800546,-518.144159
1271.407208,-10362.883188,1225.752797,-74.020594
1271.407519,-7920.203579,0.000000,148.041188
1271.407830,-6735.874072,-536.266849,1036.288319
1271.408142,-6439.791695,-1072.533697,1258.350101
1271.408453,-6439.791695,-1455.581446,962.267725
1271.408765,-7772.162391,-919.314598,222.061783
1271.409076,-8512.368333,153.219100,-296.082377
1271.409387,-9548.656652,1225.752797,-296.082377
1271.409699,-10584.944971,1149.143247,-888.247130
1271.410010,-9992.780217,612.876398,-370.102971
1271.410322,-10140.821405,459.657299,-74.020594
1271.410633,-9326.594869,0.000000,962.267725
1271.410944,-8438.347739,-383.047749,1628.453072
1271.411256,-7920.203579,-1072.533697,1554.432478
1271.411567,-7254.018232,-1762.019645,1332.370696
1271.411879,-7402.059420,-1915.238745,370.102971
1271.412190,-8660.409521,-919.314598,-0.000000
1271.412501,-10066.800811,459.657299,-370.102971
1271.412813,-10436.903782,1072.533697,-0.000000
1271.413124,-11473.192101,1378.971896,-444.123565
1271.413435,-10732.986159,995.924147,296.082377
1271.413747,-9474.636058,153.219100,1110.308913
1271.414058,-8438.347739,0.000000,1628.453072
1271.414370,-6809.894666,0.000000,2072.576638
1271.414681,-5921.647536,-995.924147,1554.432478
1271.414992,-7031.956449,-2145.067394,888.247130
1271.415304,-7920.203579,-1685.410096,814.226536
1271.415615,-9178.553681,-842.705048,296.082377
1271.415927,-10214.842000,-153.219100,-518.144159
1271.416238,-11029.068536,153.219100,-370.102971
1271.416549,-10955.047942,536.266849,-222.061783
1271.416861,-10214.842000,153.219100,-0.000000
1271.417172,-8956.491898,76.609550,740.205942
1271.417484,-7254.018232,536.266849,1184.329507
1271.417795,-6217.729913,-612.876398,1924.535449
1271.418106,-6291.750507,-1608.800546,1776.494261
1271.418418,-7105.977043,-1915.238745,2368.659014
1271.418729,-9104.533087,-1685.410096,1258.350101
1271.419040,-10436.903782,-383.047749,1184.329507
1271.419352,-10955.047942,995.924147,-0.000000
1271.419663,-11621.233289,1378.971896,-0.000000
1271.419975,-10214.842000,1149.143247,-666.185348
1271.420286,-8882.471304,229.828649,-148.041188
1271.420597,-7624.121203,383.047749,-0.000000
1271.420909,-6513.812290,-306.438199,962.267725
1271.421220,-7105.977043,-1149.143247,740.205942
1271.421532,-7105.977043,-1991.848295,666.185348
1271.421843,-8142.265362,-1685.410096,370.102971
1271.422154,-8956.491898,-153.219100,148.041188
1271.422466,-10288.862594,76.609550,-222.061783
1271.422777,-11177.109724,0.000000,-0.000000
1271.423089,-10807.006753,-153.219100,-148.041188
1271.423400,-10584.944971,0.000000,296.082377
1271.423711,-9104.533087,153.219100,222.061783
1271.424023,-6957.935855,383.047749,370.102971
1271.424334,-6439.791695,-766.095498,-0.000000
1271.424645,-6513.812290,-1991.848295,-74.020594
1271.424957,-7476.080014,-842.705048,-518.144159
1271.425268,-9474.636058,-919.314598,-74.020594
1271.425580,-11473.192101,383.047749,444.123565
1271.425891,-12657.521608,919.314598,-0.000000
1271.426202,-12287.418637,1762.019645,444.123565
1271.426514,-11103.089130,2068.457845,296.082377
1271.426825,-8808.450710,1378.971896,740.205942
1271.427137,-6957.935855,766.095498,962.267725
1271.427448,-5403.503377,76.609550,370.102971
1271.427759,-5995.668130,-842.705048,592.164754
1271.428071,-7698.141797,-995.924147,-518.144159
1271.428382,-9104.533087,-153.219100,-518.144159
1271.428694,-10362.883188,995.924147,-222.061783
1271.429005,-11325.150913,1072.533697,-592.164754
1271.429316,-10881.027347,919.314598,-74.020594
1271.429628,-9992.780217,383.047749,-0.000000
1271.429939,-8882.471304,229.828649,1554.432478
1271.430250,-7105.977043,-459.657299,1924.535449
1271.430562,-6587.832884,-995.924147,2516.700203
1271.430873,-6217.729913,-1072.533697,2442.679609
1271.431185,-6809.894666,-1302.362347,2146.597232
1271.431496,-8142.265362,-612.876398,1036.288319
1271.431807,-9474.636058,0.000000,888.247130
1271.432119,-10214.842000,1608.800546,222.061783
1271.432430,-10881.027347,1685.410096,-0.000000
1271.432742,-10510.924376,1838.629195,-296.082377
1271.433053,-8660.409521,1072.533697,592.164754
1271.433364,-7476.080014,-306.438199,740.205942
1271.433676,-6809.894666,-536.266849,1332.370696
1271.433987,-5921.647536,-766.095498,1554.432478
1271.434298,-7402.059420,-1149.143247,1258.350101
1271.434610,-8586.388927,-1915.238745,1480.411884
1271.434921,-9696.697840,-536.266849,518.144159
1271.435233,-11399.171507,-536.266849,-0.000000
1271.435544,-11473.192101,459.657299,-0.000000
1271.435855,-11029.068536,383.047749,-296.082377
1271.436167,-10214.842000,229.828649,-0.000000
1271.436478,-9104.533087,0.000000,888.247130
1271.436790,-7105.977043,-842.705048,962.267725
1271.437101,-6291.750507,-1302.362347,1406.391290
1271.437412,-6957.935855,-1302.362347,1554.432478
1271.437724,-7179.997637,-1685.410096,592.164754
1271.438035,-9030.512492,-383.047749,148.041188
1271.438347,-11103.089130,612.876398,666.185348
1271.438658,-12287.418637,1762.019645,-0.000000
1271.438969,-12435.459826,2681.334243,222.061783
1271.439281,-10955.047942,2681.334243,-222.061783
1271.439592,-9030.512492,2451.505594,-0.000000
1271.439903,-7031.956449,1455.581446,148.041188
1271.440215,-5181.441594,612.876398,740.205942
1271.440526,-5033.400406,-306.438199,814.226536
1271.440838,-5847.626942,-1685.410096,740.205942
1271.441149,-7402.059420,-1532.190996,296.082377
1271.441460,-9030.512492,-153.219100,-518.144159
1271.441772,-10955.047942,766.095498,-518.144159
1271.442083,-11769.274478,689.485948,-148.041188
1271.442395,-11399.171507,459.657299,-148.041188
1271.442706,-10584.944971,459.657299,444.123565
1271.443017,-9474.636058,-153.219100,888.247130
1271.443329,-6735.874072,-229.828649,1406.391290
1271.443640,-5625.565159,-153.219100,1480.411884
1271.443952,-5477.523971,-536.266849,1406.391290
1271.444263,-6809.894666,-1532.190996,518.144159
1271.444574,-8512.368333,-306.438199,222.061783
1271.444886,-10584.944971,0.000000,444.123565
1271.445197,-11843.295072,1225.752797,148.041188
1271.445508,-11991.336260,1072.533697,-0.000000
1271.445820,-10584.944971,842.705048,-370.102971
1271.446131,-9326.594869,0.000000,-222.061783
1271.446443,-7772.162391,153.219100,-0.000000
1271.446754,-6513.812290,459.657299,888.247130
1271.447065,-6513.812290,-1915.238745,1036.288319
1271.447377,-7254.018232,-1762.019645,1480.411884
1271.447688,-8808.450710,-1532.190996,1184.329507
1271.448000,-10510.924376,-842.705048,666.185348
1271.448311,-11399.171507,-229.828649,-74.020594
1271.448622,-11695.253884,842.705048,-148.041188
1271.448934,-11251.130318,229.828649,-74.020594
1271.449245,-10510.924376,-306.438199,222.061783
1271.449557,-8808.450710,-1455.581446,518.144159
1271.449868,-7698.141797,-1838.629195,1258.350101
1271.450179,-7328.038826,-2221.676944,1628.453072
1271.450491,-7550.100608,-2145.067394,1258.350101
1271.450802,-8586.388927,-1762.019645,518.144159
1271.451113,-9474.636058,-842.705048,370.102971
1271.451425,-9770.718434,536.266849,370.102971
1271.451736,-10214.842000,919.314598,296.082377
1271.452048,-10732.986159,1378.971896,592.164754
1271.452359,-9474.636058,919.314598,1036.288319
1271.452670,-7772.162391,459.657299,1554.432478
1271.452982,-6291.750507,306.438199,1480.411884
1271.453293,-5551.544565,0.000000,1406.391290
1271.453605,-5551.544565,-1225.752797,740.205942
1271.453916,-6143.709319,-995.924147,-148.041188
1271.454227,-8068.244768,-153.219100,-518.144159
1271.454539,-10066.800811,536.266849,-222.061783
1271.454850,-11399.171507,689.485948,-222.061783
1271.455162,-11621.233289,842.705048,-0.000000
1271.455473,-10658.965565,459.657299,222.061783
1271.455784,-9104.533087,689.485948,666.185348
1271.456096,-7105.977043,153.219100,888.247130
1271.456407,-5625.565159,383.047749,1036.288319
1271.456718,-6365.771101,-612.876398,1036.288319
1271.457030,-6291.750507,-766.095498,1406.391290
1271.457341,-8216.285956,-153.219100,592.164754
1271.457653,-10214.842000,612.876398,518.144159
1271.457964,-11621.233289,1302.362347,-0.000000
1271.458275,-12139.377449,1608.800546,-370.102971
1271.458587,-11547.212695,2145.067394,-1036.288319
1271.458898,-10066.800811,1685.410096,-370.102971
1271.459210,-7994.224174,612.876398,-222.061783
1271.459521,-7402.059420,0.000000,592.164754
1271.459832,-7105.977043,-995.924147,1110.308913
1271.460144,-7476.080014,-2068.457845,1184.329507
1271.460455,-9104.533087,-1915.238745,1332.370696
1271.460766,-9770.718434,-842.705048,1036.288319
1271.461078,-10584.944971,306.438199,370.102971
1271.461389,-11547.212695,0.000000,-444.123565
1271.461701,-10436.903782,383.047749,-444.123565
1271.462012,-9474.636058,76.609550,-444.123565
1271.462323,-8808.450710,306.438199,-74.020594
1271.462635,-7476.080014,-153.219100,740.205942
1271.462946,-7179.997637,-1149.143247,962.267725
1271.463258,-7179.997637,-2068.457845,1554.432478
1271.463569,-8142.265362,-1915.238745,592.164754
1271.463880,-9474.636058,-536.266849,592.164754
1271.464192,-11029.068536,536.266849,1184.329507
1271.464503,-11621.233289,919.314598,592.164754
1271.464815,-10955.047942,919.314598,814.226536
1271.465126,-9918.759623,689.485948,518.144159
1271.465437,-8290.306550,459.657299,962.267725
1271.465749,-6513.812290,766.095498,814.226536
1271.466060,-5625.565159,536.266849,1110.308913
1271.466371,-5847.626942,-459.657299,1036.288319
1271.466683,-6735.874072,-1378.971896,962.267725
1271.466994,-7994.224174,-1225.752797,740.205942
1271.467306,-9844.739029,-383.047749,518.144159
1271.467617,-11769.274478,76.609550,-148.041188
1271.467928,-12065.356855,842.705048,-444.123565
1271.468240,-10732.986159,1072.533697,-444.123565
1271.468551,-9474.636058,0.000000,148.041188
1271.468863,-8142.265362,-689.485948,888.247130
1271.469174,-6439.791695,-459.657299,1702.473667
1271.469485,-5921.647536,0.000000,1924.535449
1271.469797,-5699.585753,-689.485948,1924.535449
1271.470108,-6809.894666,-383.047749,1258.350101
1271.470420,-8734.430116,536.266849,296.082377
1271.470731,-10436.903782,995.924147,-222.061783
1271.471042,-11399.171507,1838.629195,-814.226536
1271.471354,-11547.212695,1915.238745,-888.247130
1271.471665,-10436.903782,1455.581446,-592.164754
1271.471976,-9548.656652,0.000000,296.082377
1271.472288,-7920.203579,-842.705048,1554.432478
1271.472599,-7105.977043,-995.924147,1554.432478
1271.472911,-6883.915261,-1378.971896,1332.370696
1271.473222,-7994.224174,-689.485948,222.061783
1271.473533,-7846.182985,76.609550,-74.020594
1271.473845,-9252.574275,919.314598,-444.123565
1271.474156,-10732.986159,766.095498,-1184.329507
1271.474468,-10807.006753,76.609550,-148.041188
1271.474779,-10584.944971,0.000000,-0.000000
1271.475090,-10140.821405,-689.485948,962.267725
1271.475402,-8586.388927,-1455.581446,1110.308913
1271.475713,-7772.162391,-2298.286494,1480.411884
1271.476025,-7179.997637,-2221.676944,1184.329507
1271.476336,-7179.997637,-2145.067394,888.247130
1271.476647,-8734.430116,-1378.971896,-0.000000
1271.476959,-9918.759623,0.000000,296.082377
1271.477270,-10584.944971,536.266849,148.041188
1271.477581,-11399.171507,459.657299,518.144159
1271.477893,-10658.965565,383.047749,518.144159
1271.478204,-9474.636058,612.876398,888.247130
1271.478516,-9252.574275,0.000000,888.247130
1271.478827,-6661.853478,-689.485948,1554.432478
1271.479138,-6069.688724,-1532.190996,962.267725
1271.479450,-6661.853478,-1915.238745,888.247130
1271.479761,-7994.224174,-2068.457845,222.061783
1271.480073,-9474.636058,-842.705048,-0.000000
1271.480384,-10584.944971,689.485948,-0.000000
1271.480695,-11029.068536,842.705048,-222.061783
1271.481007,-10807.006753,919.314598,-0.000000
1271.481318,-9548.656652,766.095498,-0.000000
1271.481630,-8364.327145,919.314598,740.205942
1271.481941,-7105.977043,995.924147,518.144159
1271.482252,-6439.791695,766.095498,1110.308913
1271.482564,-6217.729913,-459.657299,962.267725
1271.482875,-7105.977043,-612.876398,1036.288319
1271.483187,-8512.368333,-842.705048,1036.288319
1271.483498,-10362.883188,-919.314598,1036.288319
1271.483809,-11695.253884,459.657299,-0.000000
1271.484121,-12065.356855,1072.533697,-0.000000
1271.484432,-10955.047942,1685.410096,-370.102971
1271.484744,-8734.430116,689.485948,-0.000000
1271.485055,-6217.729913,689.485948,-0.000000
1271.485366,-5699.585753,306.438199,444.123565
1271.485678,-5699.585753,-766.095498,1036.288319
1271.485989,-6883.915261,-1532.190996,666.185348
1271.486301,-8734.430116,-1455.581446,962.267725
1271.486612,-10436.903782,-995.924147,666.185348
1271.486924,-11473.192101,-229.828649,-0.000000
1271.487235,-11177.109724,76.609550,-0.000000
1271.487546,-10732.986159,536.266849,-666.185348
1271.487858,-9252.574275,76.609550,-0.000000
1271.488169,-8142.265362,-842.705048,-0.000000
1271.488481,-7105.977043,-306.438199,592.164754
1271.488792,-6735.874072,-919.314598,1110.308913
1271.489103,-7328.038826,-1608.800546,1036.288319
1271.489415,-8290.306550,-1455.581446,592.164754
1271.489726,-9622.677246,-766.095498,370.102971
1271.490038,-11029.068536,0.000000,888.247130
1271.490349,-11843.295072,459.657299,148.041188
1271.490661,-11325.150913,306.438199,888.247130
1271.490972,-10436.903782,0.000000,814.226536
1271.491283,-9252.574275,-612.876398,1110.308913
1271.491595,-7328.038826,-383.047749,1332.370696
1271.491906,-6143.709319,-306.438199,1258.350101
1271.492218,-6291.750507,-459.657299,592.164754
1271.492529,-7624.121203,-995.924147,-0.000000
1271.492840,-8808.450710,153.219100,-0.000000
1271.493152,-9918.759623,383.047749,-592.164754
1271.493463,-11473.192101,1149.143247,-740.205942
1271.493775,-11177.109724,1532.190996,-296.082377
1271.494086,-10658.965565,1455.581446,-0.000000
1271.494397,-9844.739029,459.657299,1036.288319
1271.494709,-8290.306550,0.000000,1480.411884
1271.495020,-6143.709319,229.828649,2368.659014
1271.495332,-5329.482782,612.876398,1924.535449
1271.495643,-5551.544565,0.000000,1554.432478
1271.495955,-7105.977043,-536.266849,222.061783
1271.496266,-8808.450710,153.219100,296.082377
1271.496577,-10436.903782,1685.410096,-222.061783
1271.496889,-11251.130318,1991.848295,-148.041188
1271.497200,-10955.047942,1838.629195,-592.164754
1271.497512,-9770.718434,1072.533697,-0.000000
1271.497823,-8364.327145,229.828649,814.226536
1271.498134,-6735.874072,0.000000,1776.494261
1271.498446,-6365.771101,-153.219100,1850.514855
1271.498757,-6587.832884,-689.485948,2146.597232
1271.499069,-7476.080014,-1302.362347,1332.370696
1271.499380,-8438.347739,0.000000,370.102971
1271.499692,-9548.656652,1225.752797,-148.041188
1271.500003,-11251.130318,842.705048,-1110.308913
1271.500314,-10658.965565,0.000000,-592.164754
1271.500626,-10140.821405,76.609550,-592.164754
1271.500937,-9622.677246,-306.438199,-74.020594
1271.501249,-8142.265362,-306.438199,296.082377
1271.501560,-7476.080014,-1302.362347,888.247130
1271.501871,-6957.935855,-1762.019645,1628.453072
1271.502183,-8142.265362,-2298.286494,962.267725
1271.502494,-9252.574275,-1072.533697,1258.350101
1271.502806,-10066.800811,-229.828649,814.226536
1271.503117,-11473.192101,766.095498,148.041188
1271.503428,-11621.233289,1302.362347,148.041188
1271.503740,-10881.027347,842.705048,-370.102971
1271.504051,-9548.656652,153.219100,222.061783
1271.504363,-7772.162391,-842.705048,740.205942
1271.504674,-7031.956449,-1762.019645,1406.391290
1271.504986,-7179.997637,-2604.724693,1850.514855
1271.505297,-7105.977043,-2604.724693,1480.411884
1271.505608,-9474.636058,-2068.457845,962.267725
1271.505920,-9992.780217,0.000000,814.226536
1271.506231,-11103.089130,842.705048,-148.041188
1271.506543,-11325.150913,1685.410096,-148.041188
1271.506854,-10658.965565,1991.848295,-148.041188
1271.507165,-9622.677246,2757.943793,-0.000000
1271.507477,-8142.265362,1762.019645,-0.000000
1271.507788,-6587.832884,995.924147,1110.308913
1271.508100,-5551.544565,-229.828649,1554.432478
1271.508411,-5921.647536,-612.876398,1036.288319
1271.508723,-7105.977043,-383.047749,592.164754
1271.509034,-9104.533087,-306.438199,444.123565
1271.509345,-10732.986159,995.924147,-74.020594
1271.509657,-11917.315666,1455.581446,222.061783
1271.509968,-11843.295072,1532.190996,74.020594
1271.510280,-10436.903782,1302.362347,222.061783
1271.510591,-9030.512492,842.705048,740.205942
1271.510902,-6661.853478,612.876398,1184.329507
1271.511214,-5181.441594,0.000000,1702.473667
1271.511525,-4885.359217,-995.924147,1480.411884
1271.511837,-6217.729913,-1455.581446,1184.329507
1271.512148,-8512.368333,-2221.676944,444.123565
1271.512459,-9844.739029,-766.095498,296.082377
1271.512771,-11399.171507,383.047749,-74.020594
1271.513082,-11251.130318,995.924147,-370.102971
1271.513394,-10658.965565,766.095498,-0.000000
1271.513705,-9178.553681,0.000000,-0.000000
1271.514017,-7105.977043,-919.314598,592.164754
1271.514328,-6217.729913,-383.047749,814.226536
1271.514639,-5773.606348,-153.219100,1036.288319
1271.514951,-6143.709319,-1455.581446,518.144159
1271.515262,-7772.162391,-1685.410096,666.185348
1271.515574,-9400.615463,-1455.581446,444.123565
1271.515885,-11177.109724,-612.876398,962.267725
1271.516196,-12139.377449,0.000000,-0.000000
1271.516508,-12583.501014,306.438199,-0.000000
1271.516819,-11695.253884,383.047749,444.123565
1271.517131,-9622.677246,-919.314598,-0.000000
1271.517442,-7846.182985,-153.219100,740.205942
1271.517754,-7031.956449,-689.485948,666.185348
1271.518065,-6957.935855,-1378.971896,296.082377
1271.518376,-7698.141797,-1378.971896,-0.000000
1271.518688,-9178.553681,-1149.143247,-0.000000
1271.518999,-10362.883188,0.000000,222.061783
1271.519311,-11769.274478,306.438199,148.041188
1271.519622,-12139.377449,1608.800546,296.082377
1271.519933,-11769.274478,536.266849,-0.000000
1271.520245,-9844.739029,229.828649,666.185348
1271.520556,-8290.306550,0.000000,444.123565
1271.520868,-6143.709319,76.609550,1184.329507
1271.521179,-5921.647536,-612.876398,740.205942
1271.521490,-6143.709319,-612.876398,666.185348
1271.521802,-7402.059420,-919.314598,-0.000000
1271.522113,-8956.491898,153.219100,444.123565
1271.522425,-10955.047942,1378.971896,-0.000000
1271.522736,-11917.315666,1762.019645,-0.000000
1271.523048,-11473.192101,1532.190996,-0.000000
1271.523359,-10140.821405,1378.971896,518.144159
1271.523670,-7846.182985,995.924147,370.102971
1271.523982,-6217.729913,536.266849,1184.329507
1271.524293,-4885.359217,-306.438199,1924.535449
1271.524605,-5773.606348,-1302.362347,1332.370696
1271.524916,-7402.059420,-842.705048,962.267725
1271.525227,-8216.285956,459.657299,444.123565
1271.525539,-9252.574275,1072.533697,-222.061783
1271.525850,-10140.821405,1225.752797,-518.144159
1271.526162,-9400.615463,995.924147,-1110.308913
1271.526473,-9326.594869,995.924147,-888.247130
1271.526785,-8808.450710,1072.533697,-0.000000
1271.527096,-7994.224174,-612.876398,592.164754
1271.527407,-7328.038826,-1378.971896,2220.617826
1271.527719,-7328.038826,-2145.067394,2368.659014
1271.528030,-7994.224174,-2068.457845,1924.535449
1271.528342,-9104.533087,-995.924147,1258.350101
1271.528653,-10140.821405,1072.533697,370.102971
1271.528964,-11769.274478,536.266849,-74.020594
1271.529276,-11769.274478,1532.190996,-74.020594
1271.529587,-11029.068536,1302.362347,-296.082377
1271.529899,-9622.677246,842.705048,-74.020594
1271.530210,-8068.244768,0.000000,518.144159
1271.530521,-6883.915261,-536.266849,962.267725
1271.530833,-6809.894666,-1532.190996,962.267725
1271.531144,-7402.059420,-2374.896044,888.247130
1271.531456,-8808.450710,-1532.190996,740.205942
1271.531767,-10362.883188,-919.314598,444.123565
1271.532079,-11547.212695,76.609550,444.123565
1271.532390,-11991.336260,919.314598,-74.020594
1271.532701,-11325.150913,1225.752797,-0.000000
1271.533013,-9696.697840,842.705048,-222.061783
1271.533324,-7772.162391,1149.143247,814.226536
1271.533636,-6587.832884,0.000000,740.205942
1271.533947,-5773.606348,-536.266849,1036.288319
1271.534258,-6661.853478,-1762.019645,370.102971
1271.534570,-7846.182985,-1532.190996,444.123565
1271.534881,-9178.553681,-612.876398,814.226536
1271.535193,-10955.047942,-229.828649,592.164754
1271.535504,-11917.315666,612.876398,444.123565
1271.535816,-11621.233289,919.314598,518.144159
1271.536127,-9918.759623,1378.971896,-0.000000
1271.536438,-8290.306550,1072.533697,444.123565
1271.536750,-6735.874072,612.876398,-0.000000
1271.537061,-5255.462188,0.000000,1036.288319
1271.537373,-5255.462188,-995.924147,814.226536
1271.537684,-6365.771101,-1685.410096,370.102971
1271.537995,-8216.285956,-1378.971896,-74.020594
1271.538307,-9770.718434,-536.266849,222.061783
1271.538618,-11325.150913,-1072.533697,-222.061783
1271.538930,-11621.233289,-536.266849,148.041188
1271.539241,-10807.006753,0.000000,296.082377
1271.539553,-10140.821405,0.000000,296.082377
1271.539864,-8438.347739,-229.828649,1110.308913
1271.540175,-7105.977043,-459.657299,962.267725
1271.540487,-6365.771101,-689.485948,1036.288319
1271.540798,-6661.853478,-1225.752797,592.164754
1271.541110,-7624.121203,-842.705048,296.082377
1271.541421,-9030.512492,0.000000,148.041188
1271.541732,-10658.965565,612.876398,-0.000000
1271.542044,-11843.295072,459.657299,222.061783
1271.542355,-11843.295072,612.876398,-0.000000
1271.542667,-10955.047942,842.705048,-0.000000
1271.542978,-9104.533087,536.266849,592.164754
1271.543289,-7846.182985,-995.924147,1332.370696
1271.543601,-6661.853478,-1072.533697,1628.453072
1271.543912,-6883.915261,-1838.629195,962.267725
1271.544224,-7772.162391,-1302.362347,592.164754
1271.544535,-8956.491898,-306.438199,-0.000000
1271.544847,-10510.924376,612.876398,-296.082377
1271.545158,-11251.130318,383.047749,-222.061783
1271.545469,-10881.027347,229.828649,-0.000000
1271.545781,-10288.862594,689.485948,296.082377
1271.546092,-9474.636058,0.000000,666.185348
1271.546404,-8290.306550,-536.266849,1258.350101
1271.546715,-6513.812290,-383.047749,2072.576638
1271.547026,-6587.832884,-612.876398,1554.432478
1271.547338,-7105.977043,-306.438199,1184.329507
1271.547649,-7846.182985,0.000000,370.102971
1271.547961,-9326.594869,536.266849,-0.000000
1271.548272,-10881.027347,1532.190996,-222.061783
1271.548584,-10955.047942,1838.629195,-0.000000
1271.548895,-10066.800811,1608.800546,-592.164754
1271.549206,-8734.430116,1072.533697,740.205942
1271.549518,-6957.935855,-153.219100,888.247130
1271.549829,-5995.668130,-919.314598,1480.411884
1271.550141,-5847.626942,-1685.410096,1628.453072
1271.550452,-6513.812290,-1762.019645,1480.411884
1271.550763,-7920.203579,-2451.505594,962.267725
1271.551075,-9474.636058,-1072.533697,296.082377
1271.551386,-10658.965565,-459.657299,-74.020594
1271.551698,-11177.109724,-153.219100,-888.247130
1271.552009,-10288.862594,229.828649,-592.164754
1271.552320,-9178.553681,229.828649,-666.185348
1271.552632,-8734.430116,-383.047749,-222.061783
1271.552943,-7994.224174,-995.924147,296.082377
1271.553255,-7031.956449,-1378.971896,888.247130
1271.553566,-7328.038826,-1455.581446,1480.411884
1271.553878,-8734.430116,-1915.238745,1110.308913
1271.554189,-10066.800811,-1455.581446,1036.288319
1271.554500,-11473.192101,-306.438199,962.267725
1271.554812,-11991.336260,919.314598,148.041188
1271.555123,-11695.253884,1762.019645,-148.041188
1271.555435,-10510.924376,1762.019645,-666.185348
1271.555746,-8438.347739,536.266849,-296.082377
1271.556057,-7105.977043,0.000000,-0.000000
1271.556369,-6661.853478,-306.438199,370.102971
1271.556680,-7105.977043,-459.657299,444.123565
1271.556992,-8956.491898,-1455.581446,222.061783
1271.557303,-10362.883188,-842.705048,888.247130
1271.557615,-10436.903782,76.609550,296.082377
1271.557926,-11325.150913,689.485948,222.061783
1271.558237,-11473.192101,1149.143247,-0.000000
1271.558549,-10214.842000,1302.362347,370.102971
1271.558860,-8808.450710,1378.971896,518.144159
1271.559172,-7328.038826,919.314598,1036.288319
1271.559483,-6069.688724,612.876398,1110.308913
1271.559794,-5551.544565,459.657299,962.267725
1271.560106,-6069.688724,76.609550,370.102971
1271.560417,-7105.977043,153.219100,-222.061783
1271.560729,-9622.677246,612.876398,-0.000000
1271.561040,-11843.295072,766.095498,444.123565
1271.561351,-11917.315666,1608.800546,444.123565
1271.561663,-11547.212695,1762.019645,962.267725
1271.561974,-9474.636058,1762.019645,1258.350101
1271.562286,-7772.162391,1225.752797,1332.370696
1271.562597,-5551.544565,229.828649,1406.391290
1271.562909,-4737.318029,153.219100,2072.576638
1271.563220,-5033.400406,-383.047749,814.226536
1271.563531,-6587.832884,-459.657299,370.102971
1271.563843,-8586.388927,-842.705048,-74.020594
1271.564154,-9548.656652,-919.314598,-296.082377
1271.564466,-10584.944971,-536.266849,-444.123565
1271.564777,-10807.006753,-383.047749,296.082377
1271.565088,-10807.006753,-842.705048,222.061783
1271.565400,-10140.821405,-1532.190996,1110.308913
1271.565711,-8882.471304,-1225.752797,1628.453072
1271.566023,-7698.141797,-995.924147,1776.494261
1271.566334,-7031.956449,-919.314598,1776.494261
1271.566646,-7254.018232,-1455.581446,1258.350101
1271.566957,-7846.182985,-689.485948,296.082377
1271.567268,-8290.306550,0.000000,666.185348
1271.567580,-10288.862594,76.609550,-222.061783
1271.567891,-10955.047942,306.438199,148.041188
1271.568203,-11769.274478,-153.219100,-740.205942
1271.568514,-11029.068536,0.000000,-148.041188
1271.568825,-9474.636058,-153.219100,-0.000000
1271.569137,-8660.409521,-306.438199,666.185348
1271.569448,-8438.347739,-1302.362347,1110.308913
1271.569760,-8290.306550,-2834.553343,1406.391290
1271.570071,-9030.512492,-2221.676944,666.185348
1271.570382,-9474.636058,-995.924147,-0.000000
1271.570694,-10510.924376,306.438199,-518.144159
1271.571005,-10881.027347,1762.019645,-1184.329507
1271.571317,-10436.903782,1532.190996,-1628.453072
1271.571628,-9326.594869,1532.190996,-962.267725
1271.571940,-8216.285956,459.657299,-222.061783
1271.572251,-7476.080014,459.657299,444.123565
1271.572562,-7550.100608,-536.266849,1258.350101
1271.572874,-7328.038826,-995.924147,1850.514855
1271.573185,-7994.224174,-1072.533697,1258.350101
1271.573497,-8734.430116,-766.095498,962.267725
1271.573808,-10584.944971,76.609550,-0.000000
1271.574119,-11103.089130,1915.238745,-370.102971
1271.574431,-10881.027347,2681.334243,-814.226536
1271.574742,-9474.636058,2068.457845,-296.082377
1271.575054,-7105.977043,1991.848295,888.247130
1271.575365,-7031.956449,0.000000,1036.288319
1271.575677,-5847.626942,-536.266849,2146.597232
1271.575988,-5625.565159,-1225.752797,2368.659014
1271.576299,-6809.894666,-1608.800546,1924.535449
1271.576611,-8142.265362,-1149.143247,1110.308913
1271.576922,-9548.656652,-383.047749,370.102971
1271.577234,-10288.862594,0.000000,-296.082377
1271.577545,-11103.089130,689.485948,-666.185348
1271.577856,-10140.821405,842.705048,-0.000000
1271.578168,-9622.677246,383.047749,148.041188
1271.578479,-8734.430116,-229.828649,1480.411884
1271.578791,-7476.080014,-919.314598,1628.453072
1271.579102,-6661.853478,-536.266849,2294.638420
1271.579413,-6439.791695,-689.485948,1850.514855
1271.579725,-7698.141797,-766.095498,1184.329507
1271.580036,-8734.430116,-842.705048,518.144159
1271.580348,-10658.965565,536.266849,962.267725
1271.580659,-11399.171507,153.219100,444.123565
1271.580971,-11621.233289,0.000000,592.164754
1271.581282,-10881.027347,0.000000,-0.000000
1271.581593,-9252.574275,153.219100,518.144159
1271.581905,-7550.100608,-919.314598,962.267725
1271.582216,-5847.626942,-1072.533697,1184.329507
1271.582528,-6513.812290,-1685.410096,1110.308913
1271.582839,-7624.121203,-2068.457845,666.185348
1271.583151,-8882.471304,-1302.362347,814.226536
1271.583462,-10288.862594,-459.657299,740.205942
1271.583774,-11251.130318,0.000000,-74.020594
1271.584085,-11399.171507,842.705048,-222.061783
1271.584397,-11251.130318,919.314598,-666.185348
1271.584708,-9474.636058,-229.828649,-74.020594
1271.585020,-8216.285956,0.000000,148.041188
1271.585331,-7254.018232,459.657299,444.123565
1271.585642,-6365.771101,-153.219100,-0.000000
1271.585954,-6883.915261,-383.047749,-74.020594
1271.586265,-7476.080014,0.000000,-0.000000
1271.586577,-9178.553681,536.266849,-0.000000
1271.586888,-11177.109724,842.705048,-0.000000
1271.587200,-11695.253884,1225.752797,-0.000000
1271.587511,-11991.336260,1762.019645,-370.102971
1271.587823,-10140.821405,1991.848295,-0.000000
1271.588134,-8512.368333,919.314598,444.123565
1271.588446,-6365.771101,0.000000,518.144159
1271.588757,-5847.626942,-689.485948,1036.288319
1271.589068,-6809.894666,-919.314598,814.226536
1271.589380,-7772.162391,-1378.971896,370.102971
1271.589691,-9474.636058,-536.266849,-148.041188
1271.590003,-9918.759623,919.314598,-0.000000
1271.590314,-10362.883188,919.314598,-740.205942
1271.590626,-10362.883188,1225.752797,-888.247130
1271.590937,-9400.615463,1302.362347,-370.102971
1271.591249,-8290.306550,383.047749,222.061783
1271.591560,-7550.100608,-229.828649,1184.329507
1271.591872,-6365.771101,0.000000,1628.453072
1271.592183,-6809.894666,-1455.581446,1850.514855
1271.592494,-7328.038826,-1225.752797,1924.535449
1271.592806,-9178.553681,-459.657299,962.267725
1271.593117,-10288.862594,536.266849,740.205942
1271.593429,-11325.150913,1149.143247,444.123565
1271.593740,-11251.130318,995.924147,370.102971
1271.594052,-10066.800811,536.266849,-148.041188
1271.594363,-8438.347739,612.876398,-0.000000
1271.594675,-7624.121203,0.000000,740.205942
1271.594986,-6587.832884,-919.314598,1258.350101
1271.595298,-6735.874072,-1608.800546,1480.411884
1271.595609,-8216.285956,-2145.067394,2072.576638
1271.595921,-9178.553681,-2221.676944,2146.597232
1271.596232,-10436.903782,-1685.410096,1258.350101
1271.596543,-10881.027347,-383.047749,888.247130
1271.596855,-10510.924376,995.924147,-296.082377
1271.597166,-10066.800811,766.095498,-0.000000
1271.597478,-9474.636058,842.705048,-444.123565
1271.597789,-7920.203579,536.266849,518.144159
1271.598101,-6587.832884,0.000000,814.226536
1271.598412,-5773.606348,-153.219100,1332.370696
1271.598724,-6291.750507,-1072.533697,888.247130
1271.599035,-7476.080014,-1762.019645,222.061783
1271.599347,-9104.533087,-459.657299,666.185348
1271.599658,-11251.130318,76.609550,518.144159
1271.599969,-12213.398043,1149.143247,222.061783
1271.600281,-12435.459826,1455.581446,222.061783
1271.600592,-11325.150913,1302.362347,-0.000000
1271.600904,-9474.636058,995.924147,444.123565
1271.601215,-6957.935855,766.095498,962.267725
1271.601527,-5921.647536,0.000000,1184.329507
1271.601838,-5107.421000,-306.438199,1184.329507
1271.602150,-6587.832884,-1455.581446,222.061783
1271.602461,-7920.203579,-1149.143247,-444.123565
1271.602773,-9252.574275,0.000000,-518.144159
1271.603084,-10732.986159,459.657299,-740.205942
1271.603396,-11399.171507,766.095498,-666.185348
1271.603707,-10658.965565,842.705048,-444.123565
1271.604018,-9992.780217,0.000000,296.082377
1271.604330,-8808.450710,229.828649,962.267725
1271.604641,-7698.141797,-689.485948,1406.391290
1271.604953,-6735.874072,-459.657299,1332.370696
1271.605264,-6365.771101,-1378.971896,1184.329507
1271.605576,-7031.956449,-1685.410096,518.144159
1271.605887,-8734.430116,-995.924147,-0.000000
1271.606199,-9844.739029,-153.219100,-74.020594
1271.606510,-11029.068536,153.219100,-148.041188
1271.606822,-11251.130318,-76.609550,-148.041188
1271.607133,-10436.903782,306.438199,-370.102971
1271.607444,-9770.718434,-459.657299,592.164754
1271.607756,-8216.285956,-689.485948,1110.308913
1271.608067,-7254.018232,-1072.533697,1406.391290
1271.608379,-7105.977043,-1225.752797,1554.432478
1271.608690,-7920.203579,-2221.676944,1628.453072
1271.609002,-8512.368333,-1225.752797,1110.308913
1271.609313,-10140.821405,-1149.143247,962.267725
1271.609625,-11029.068536,459.657299,-0.000000
1271.609936,-10955.047942,766.095498,-0.000000
1271.610248,-10214.842000,919.314598,-370.102971
1271.610559,-9104.533087,459.657299,518.144159
1271.610871,-8142.265362,-919.314598,666.185348
1271.611182,-6883.915261,-1302.362347,1924.535449
1271.611493,-6661.853478,-1149.143247,1332.370696
1271.611805,-7179.997637,-842.705048,1110.308913
1271.612116,-8364.327145,-306.438199,666.185348
1271.612428,-9474.636058,0.000000,518.144159
1271.612739,-10732.986159,383.047749,222.061783
1271.613051,-11029.068536,995.924147,296.082377
1271.613362,-10807.006753,1532.190996,-0.000000
1271.613674,-8882.471304,1225.752797,962.267725
1271.613985,-8290.306550,306.438199,666.185348
1271.614297,-6661.853478,-612.876398,1184.329507
1271.614608,-5773.606348,-919.314598,1110.308913
1271.614919,-6587.832884,-1149.143247,740.205942
1271.615231,-8290.306550,-1149.143247,-0.000000
1271.615542,-10066.800811,-153.219100,-74.020594
1271.615854,-10807.006753,612.876398,-296.082377
1271.616165,-11029.068536,919.314598,-444.123565
1271.616477,-10510.924376,1225.752797,-0.000000
1271.616788,-9252.574275,919.314598,-74.020594
1271.617100,-8438.347739,76.609550,518.144159
1271.617411,-7179.997637,-383.047749,666.185348
1271.617723,-6957.935855,-383.047749,1184.329507
1271.618034,-6661.853478,-842.705048,962.267725
1271.618346,-7624.121203,-1685.410096,962.267725
1271.618657,-9178.553681,-1991.848295,-0.000000
1271.618968,-10510.924376,-153.219100,-0.000000
1271.619280,-11325.150913,689.485948,-0.000000
1271.619591,-11621.233289,459.657299,-0.000000
1271.619903,-10658.965565,612.876398,-518.144159
1271.620214,-9474.636058,383.047749,-148.041188
1271.620526,-7846.182985,306.438199,370.102971
1271.620837,-6291.750507,459.657299,1036.288319
1271.621149,-6957.935855,-153.219100,740.205942
1271.621460,-7328.038826,-1225.752797,1332.370696
1271.621772,-8660.409521,-1378.971896,962.267725
1271.622083,-10140.821405,-612.876398,444.123565
1271.622394,-11325.150913,383.047749,-222.061783
1271.622706,-11251.130318,1455.581446,-518.144159
1271.623017,-10214.842000,1072.533697,-592.164754
1271.623329,-9326.594869,919.314598,-370.102971
1271.623640,-8290.306550,536.266849,444.123565
1271.623952,-7550.100608,76.609550,740.205942
1271.624263,-6661.853478,-383.047749,1184.329507
1271.624575,-7476.080014,-766.095498,1036.288319
1271.624886,-8142.265362,-459.657299,1036.288319
1271.625198,-9252.574275,306.438199,222.061783
1271.625509,-10732.986159,1225.752797,148.041188
1271.625821,-11325.150913,1608.800546,222.061783
1271.626132,-10955.047942,1915.238745,370.102971
1271.626443,-9104.533087,1762.019645,222.061783
1271.626755,-7994.224174,842.705048,666.185348
1271.627066,-6365.771101,0.000000,740.205942
1271.627378,-5995.668130,-612.876398,1406.391290
1271.627689,-6513.812290,-1225.752797,1184.329507
1271.628001,-7476.080014,-1532.190996,888.247130
1271.628312,-9474.636058,-1685.410096,592.164754
1271.628624,-10510.924376,76.609550,148.041188
1271.628935,-10881.027347,153.219100,-0.000000
1271.629247,-10732.986159,-229.828649,222.061783
1271.629558,-10066.800811,-306.438199,-0.000000
1271.629869,-9326.594869,-229.828649,592.164754
1271.630181,-8142.265362,-459.657299,1332.370696
1271.630492,-6735.874072,-459.657299,1776.494261
1271.630804,-6439.791695,-1608.800546,1702.473667
1271.631115,-6513.812290,-1838.629195,1702.473667
1271.631427,-8142.265362,-1762.019645,814.226536
1271.631738,-9252.574275,0.000000,-0.000000
1271.632050,-9992.780217,1072.533697,-0.000000
1271.632361,-11103.089130,766.095498,-222.061783
1271.632673,-11103.089130,536.266849,-518.144159
1271.632984,-9696.697840,383.047749,-370.102971
1271.633295,-9252.574275,153.219100,296.082377
1271.633607,-8216.285956,612.876398,1184.329507
1271.633918,-7920.203579,-229.828649,1258.350101
1271.634230,-7846.182985,-766.095498,1184.329507
1271.634541,-7994.224174,-919.314598,1406.391290
1271.634853,-8734.430116,-612.876398,592.164754
1271.635164,-10584.944971,-76.609550,222.061783
1271.635476,-10732.986159,766.095498,-592.164754
1271.635787,-10140.821405,1149.143247,-592.164754
1271.636099,-9770.718434,766.095498,-1110.308913
1271.636410,-8512.368333,536.266849,-74.020594
1271.636722,-7846.182985,-306.438199,148.041188
1271.637033,-6883.915261,-1225.752797,1332.370696
1271.637344,-7179.997637,-1532.190996,1184.329507
1271.637656,-7994.224174,-153.219100,1110.308913
1271.637967,-9548.656652,0.000000,1036.288319
1271.638279,-10510.924376,0.000000,666.185348
1271.638590,-10881.027347,995.924147,-0.000000
1271.638902,-11029.068536,1838.629195,-222.061783
1271.639213,-10066.800811,2068.457845,-296.082377
1271.639525,-8734.430116,842.705048,-0.000000
1271.639836,-7254.018232,0.000000,370.102971
1271.640148,-5921.647536,-536.266849,1110.308913
1271.640459,-5699.585753,-1608.800546,1554.432478
1271.640770,-7179.997637,-2834.553343,1036.288319
1271.641082,-8956.491898,-2298.286494,592.164754
1271.641393,-9770.718434,-383.047749,296.082377
1271.641705,-11029.068536,459.657299,-222.061783
1271.642016,-11399.171507,766.095498,-592.164754
1271.642328,-10510.924376,842.705048,-148.041188
1271.642639,-9474.636058,536.266849,-370.102971
1271.642951,-7402.059420,-766.095498,666.185348
1271.643262,-6661.853478,-842.705048,814.226536
1271.643574,-6439.791695,-1455.581446,1480.411884
1271.643885,-6439.791695,-1991.848295,1480.411884
1271.644197,-7846.182985,-2451.505594,1036.288319
1271.644508,-8956.491898,-1991.848295,962.267725
1271.644819,-10584.944971,-842.705048,814.226536
1271.645131,-11843.295072,-153.219100,444.123565
1271.645442,-11991.336260,-229.828649,370.102971
1271.645754,-10955.047942,0.000000,296.082377
1271.646065,-9696.697840,76.609550,888.247130
1271.646377,-8216.285956,306.438199,1406.391290
1271.646688,-7476.080014,-306.438199,1406.391290
1271.647000,-7031.956449,-459.657299,1406.391290
1271.647311,-6957.935855,-306.438199,1036.288319
1271.647623,-8068.244768,536.266849,888.247130
1271.647934,-9178.553681,1532.190996,518.144159
1271.648245,-10214.842000,1532.190996,-296.082377
1271.648557,-10881.027347,1915.238745,-518.144159
1271.648868,-9770.718434,1762.019645,-888.247130
1271.649180,-8808.450710,1608.800546,-592.164754
1271.649491,-7920.203579,1072.533697,518.144159
1271.649803,-7402.059420,153.219100,1110.308913
1271.650114,-7698.141797,-842.705048,1480.411884
1271.650426,-7772.162391,-1302.362347,2072.576638
1271.650737,-8882.471304,-766.095498,962.267725
1271.651049,-9918.759623,153.219100,740.205942
1271.651360,-10732.986159,689.485948,592.164754
1271.651672,-10881.027347,1072.533697,-0.000000
1271.651983,-9918.759623,1685.410096,296.082377
1271.652294,-9770.718434,766.095498,296.082377
1271.652606,-8142.265362,1149.143247,666.185348
1271.652917,-7254.018232,459.657299,592.164754
1271.653229,-6587.832884,76.609550,1258.350101
1271.653540,-6587.832884,-306.438199,740.205942
1271.653852,-7402.059420,-1149.143247,-148.041188
1271.654163,-8660.409521,0.000000,-666.185348
1271.654475,-8882.471304,1455.581446,-518.144159
1271.654786,-10288.862594,1608.800546,-1110.308913
1271.655098,-10214.842000,842.705048,-740.205942
1271.655409,-8660.409521,1532.190996,-0.000000
1271.655720,-9030.512492,-306.438199,518.144159
1271.656032,-7772.162391,-919.314598,1332.370696
1271.656343,-7105.977043,-842.705048,1628.453072
1271.656655,-6957.935855,-1608.800546,1406.391290
1271.656966,-7179.997637,-2451.505594,888.247130
1271.657278,-9326.594869,-2145.067394,222.061783
1271.657589,-10807.006753,-842.705048,-0.000000
1271.657901,-11991.336260,-383.047749,-148.041188
1271.658212,-12657.521608,0.000000,296.082377
1271.658524,-11695.253884,612.876398,222.061783
1271.658835,-10214.842000,689.485948,296.082377
1271.659147,-8364.327145,229.828649,962.267725
1271.659458,-6957.935855,153.219100,1332.370696
1271.659769,-6957.935855,-383.047749,740.205942
1271.660081,-6291.750507,0.000000,1184.329507
1271.660392,-7994.224174,-919.314598,148.041188
1271.660704,-9326.594869,-612.876398,518.144159
1271.661015,-10732.986159,0.000000,-0.000000
1271.661327,-11547.212695,459.657299,-518.144159
1271.661638,-10807.006753,1378.971896,-592.164754
1271.661950,-9770.718434,536.266849,-296.082377
1271.662261,-8512.368333,383.047749,148.041188
1271.662573,-7846.182985,-766.095498,814.226536
1271.662884,-6883.915261,-1302.362347,1776.494261
1271.663195,-7031.956449,-1455.581446,1850.514855
1271.663507,-7994.224174,-919.314598,1554.432478
1271.663818,-9400.615463,0.000000,1110.308913
1271.664130,-9770.718434,459.657299,1332.370696
1271.664441,-9918.759623,766.095498,518.144159
1271.664753,-10362.883188,1532.190996,518.144159
1271.665064,-9770.718434,2298.286494,148.041188
1271.665376,-8586.388927,1762.019645,296.082377
1271.665687,-7105.977043,689.485948,592.164754
1271.665999,-6069.688724,0.000000,888.247130
1271.666310,-6069.688724,-383.047749,740.205942
1271.666622,-6661.853478,-459.657299,148.041188
1271.666933,-7920.203579,-842.705048,592.164754
1271.667244,-9104.533087,0.000000,370.102971
1271.667556,-10214.842000,306.438199,222.061783
1271.667867,-11103.089130,0.000000,592.164754
1271.668179,-10510.924376,-383.047749,444.123565
1271.668490,-9474.636058,-306.438199,888.247130
1271.668802,-8364.327145,-153.219100,888.247130
1271.669113,-7105.977043,-919.314598,1110.308913
1271.669425,-7254.018232,-2068.457845,1258.350101
1271.669736,-7698.141797,-1149.143247,1184.329507
1271.670048,-8956.491898,-1225.752797,666.185348
1271.670359,-10066.800811,-459.657299,222.061783
1271.670670,-10807.006753,459.657299,296.082377
1271.670982,-11547.212695,766.095498,-222.061783
1271.671293,-10658.965565,689.485948,-74.020594
1271.671605,-9992.780217,383.047749,-370.102971
1271.671916,-8660.409521,1072.533697,518.144159
1271.672228,-7476.080014,536.266849,1110.308913
1271.672539,-6809.894666,-536.266849,1480.411884
1271.672851,-7105.977043,-1302.362347,1332.370696
1271.673162,-7846.182985,-1378.971896,962.267725
1271.673474,-9104.533087,-1149.143247,592.164754
1271.673785,-10288.862594,-612.876398,222.061783
1271.674097,-11547.212695,383.047749,-592.164754
1271.674408,-11695.253884,-229.828649,-518.144159
1271.674719,-10584.944971,-306.438199,-444.123565
1271.675031,-9696.697840,-229.828649,-0.000000
1271.675342,-8364.327145,-536.266849,518.144159
1271.675654,-7031.956449,-536.266849,1036.288319
1271.675965,-6957.935855,-1378.971896,1332.370696
1271.676277,-7031.956449,-1378.971896,1258.350101
1271.676588,-8438.347739,-1225.752797,888.247130
1271.676900,-9622.677246,-383.047749,962.267725
1271.677211,-10510.924376,536.266849,666.185348
1271.677523,-11177.109724,1685.410096,296.082377
1271.677834,-10881.027347,1838.629195,-222.061783
1271.678145,-9104.533087,1302.362347,-74.020594
1271.678457,-6735.874072,383.047749,-0.000000
1271.678768,-5255.462188,-229.828649,-0.000000
1271.679080,-5255.462188,-1072.533697,518.144159
1271.679391,-6587.832884,-2221.676944,296.082377
1271.679703,-7920.203579,-1608.800546,666.185348
1271.680014,-9474.636058,-459.657299,814.226536
1271.680326,-10658.965565,459.657299,370.102971
1271.680637,-11399.171507,76.609550,-0.000000
1271.680949,-10658.965565,0.000000,-0.000000
1271.681260,-10066.800811,383.047749,-74.020594
1271.681571,-8438.347739,0.000000,666.185348
1271.681883,-7846.182985,536.266849,740.205942
1271.682194,-7772.162391,-383.047749,1184.329507
1271.682506,-7179.997637,-1225.752797,1184.329507
1271.682817,-7772.162391,-995.924147,518.144159
1271.683128,-9030.512492,0.000000,-222.061783
1271.683440,-10510.924376,459.657299,-296.082377
1271.683751,-11177.109724,766.095498,-666.185348
1271.684063,-11991.336260,919.314598,-740.205942
1271.684374,-10807.006753,1149.143247,148.041188
1271.684685,-9844.739029,612.876398,592.164754
1271.684997,-8290.306550,0.000000,1924.535449
1271.685308,-7031.956449,-459.657299,1702.473667
1271.685620,-6735.874072,-612.876398,1258.350101
1271.685931,-7254.018232,0.000000,1406.391290
1271.686242,-8068.244768,-612.876398,296.082377
1271.686554,-9696.697840,76.609550,-370.102971
1271.686865,-10510.924376,536.266849,-296.082377
1271.687177,-10807.006753,459.657299,-666.185348
1271.687488,-10066.800811,459.657299,-444.123565
1271.687800,-9326.594869,306.438199,-0.000000
1271.688111,-8512.368333,0.000000,962.267725
1271.688422,-6957.935855,-76.609550,1480.411884
1271.688734,-6365.771101,-766.095498,1924.535449
1271.689045,-6587.832884,-842.705048,1554.432478
1271.689357,-7920.203579,-536.266849,888.247130
1271.689668,-9178.553681,153.219100,666.185348
1271.689979,-9918.759623,766.095498,888.247130
1271.690291,-10881.027347,1302.362347,-0.000000
1271.690602,-10881.027347,1685.410096,148.041188
1271.690914,-9696.697840,1072.533697,-148.041188
1271.691225,-8290.306550,689.485948,666.185348
1271.691536,-6809.894666,-612.876398,296.082377
1271.691848,-5847.626942,-1149.143247,1184.329507
1271.692159,-7031.956449,-1455.581446,814.226536
1271.692471,-8660.409521,-1378.971896,518.144159
1271.692782,-10140.821405,-536.266849,148.041188
1271.693093,-10807.006753,153.219100,518.144159
1271.693405,-11473.192101,536.266849,-0.000000
1271.693716,-11325.150913,-306.438199,518.144159
1271.694028,-9992.780217,-459.657299,-74.020594
1271.694339,-8734.430116,-766.095498,888.247130
1271.694650,-7476.080014,-612.876398,814.226536
1271.694962,-6587.832884,-689.485948,1036.288319
1271.695273,-6513.812290,-1455.581446,888.247130
1271.695585,-6809.894666,-1762.019645,814.226536
1271.695896,-8438.347739,-1072.533697,-148.041188
1271.696208,-10288.862594,842.705048,-74.020594
1271.696519,-11399.171507,1685.410096,-222.061783
1271.696830,-11843.295072,1762.019645,-74.020594
1271.697142,-11399.171507,1685.410096,148.041188
1271.697453,-10066.800811,1149.143247,296.082377
1271.697765,-8364.327145,842.705048,962.267725
1271.698076,-6291.750507,229.828649,1702.473667
1271.698387,-6069.688724,-612.876398,1924.535449
1271.698699,-6439.791695,-1991.848295,1332.370696
1271.699010,-7920.203579,-1762.019645,740.205942
1271.699322,-9252.574275,-1225.752797,148.041188
1271.699633,-10584.944971,-229.828649,-148.041188
1271.699944,-11621.233289,0.000000,-888.247130
1271.700256,-11695.253884,459.657299,-222.061783
1271.700567,-9844.739029,76.609550,222.061783
1271.700879,-8734.430116,76.609550,666.185348
1271.701190,-6513.812290,0.000000,1480.411884
1271.701501,-5847.626942,-229.828649,1924.535449
1271.701813,-6143.709319,-689.485948,1850.514855
1271.702124,-6735.874072,-995.924147,1258.350101
1271.702436,-8364.327145,0.000000,296.082377
1271.702747,-9844.739029,536.266849,814.226536
1271.703059,-11547.212695,1072.533697,-296.082377
1271.703370,-11547.212695,1685.410096,370.102971
1271.703681,-11103.089130,995.924147,-148.041188
1271.703993,-9474.636058,766.095498,148.041188
1271.704304,-7624.121203,0.000000,814.226536
1271.704616,-6439.791695,-612.876398,1110.308913
1271.704927,-6439.791695,-919.314598,1184.329507
1271.705238,-6661.853478,-995.924147,1036.288319
1271.705550,-8364.327145,-1072.533697,370.102971
1271.705861,-9400.615463,0.000000,444.123565
1271.706173,-10955.047942,306.438199,-0.000000
1271.706484,-11991.336260,0.000000,-74.020594
1271.706795,-11621.233289,0.000000,148.041188
1271.707107,-9992.780217,0.000000,370.102971
1271.707418,-8956.491898,-842.705048,666.185348
1271.707730,-7698.141797,-1149.143247,1036.288319
1271.708041,-6217.729913,-689.485948,1406.391290
1271.708352,-6661.853478,-1225.752797,814.226536
1271.708664,-7254.018232,-1225.752797,518.144159
1271.708975,-9178.553681,-536.266849,296.082377
1271.709287,-10658.965565,153.219100,148.041188
1271.709598,-11177.109724,919.314598,-296.082377
1271.709910,-11695.253884,1378.971896,-0.000000
1271.710221,-10584.944971,1455.581446,-222.061783
1271.710532,-9696.697840,689.485948,-0.000000
1271.710844,-7994.224174,153.219100,962.267725
1271.711155,-6513.812290,-459.657299,1850.514855
1271.711467,-6291.750507,-1149.143247,1850.514855
1271.711778,-6809.894666,-2374.896044,962.267725
1271.712089,-7994.224174,-1685.410096,592.164754
1271.712401,-9326.594869,0.000000,-222.061783
1271.712712,-9992.780217,842.705048,-888.247130
1271.713024,-11251.130318,1072.533697,-1628.453072
1271.713335,-10807.006753,919.314598,-1110.308913
1271.713646,-9696.697840,842.705048,-74.020594
1271.713958,-8290.306550,153.219100,740.205942
1271.714269,-7624.121203,-612.876398,1184.329507
1271.714581,-7179.997637,-1302.362347,1998.556043
1271.714892,-6883.915261,-1149.143247,1850.514855
1271.715203,-7179.997637,-536.266849,1184.329507
1271.715515,-8586.388927,536.266849,1480.411884
1271.715826,-9918.759623,919.314598,1184.329507
1271.716138,-11473.192101,1455.581446,-148.041188
1271.716449,-10881.027347,2145.067394,-0.000000
1271.716760,-9992.780217,2068.457845,-814.226536
1271.717072,-8586.388927,1149.143247,-74.020594
1271.717383,-7105.977043,229.828649,370.102971
1271.717695,-5551.544565,-536.266849,1184.329507
1271.718006,-6513.812290,-1225.752797,592.164754
1271.718318,-8068.244768,-1455.581446,1480.411884
1271.718629,-9992.780217,-689.485948,1110.308913
1271.718940,-11029.068536,-459.657299,1036.288319
1271.719252,-11251.130318,-383.047749,592.164754
1271.719563,-10955.047942,0.000000,-0.000000
1271.719875,-9400.615463,153.219100,-296.082377
1271.720186,-8882.471304,0.000000,-148.041188
1271.720497,-7846.182985,-383.047749,592.164754
1271.720809,-6957.935855,-536.266849,814.226536
1271.721120,-6809.894666,-1302.362347,1702.473667
1271.721432,-7624.121203,-1532.190996,1036.288319
1271.721743,-8956.491898,-766.095498,592.164754
1271.722054,-9992.780217,1072.533697,444.123565
1271.722366,-10584.944971,919.314598,-0.000000
1271.722677,-11177.109724,1685.410096,-74.020594
1271.722989,-11325.150913,1915.238745,222.061783
1271.723300,-10140.821405,2068.457845,296.082377
1271.723611,-8512.368333,766.095498,962.267725
1271.723923,-6957.935855,153.219100,1554.432478
1271.724234,-6069.688724,-306.438199,1554.432478
1271.724546,-6217.729913,-1149.143247,888.247130
1271.724857,-7031.956449,-995.924147,518.144159
1271.725169,-9030.512492,-1072.533697,-222.061783
1271.725480,-10658.965565,383.047749,-296.082377
1271.725791,-11399.171507,536.266849,-1036.288319
1271.726103,-11103.089130,459.657299,-518.144159
1271.726414,-9992.780217,76.609550,-222.061783
1271.726726,-9178.553681,-153.219100,444.123565
1271.727037,-7550.100608,0.000000,1554.432478
1271.727348,-6587.832884,0.000000,2220.617826
1271.727660,-6587.832884,0.000000,962.267725
1271.727971,-6661.853478,-689.485948,1184.329507
1271.728283,-8660.409521,-306.438199,444.123565
1271.728594,-9992.780217,229.828649,370.102971
1271.728905,-10955.047942,1608.800546,-370.102971
1271.729217,-11103.089130,1991.848295,-370.102971
1271.729528,-10658.965565,1991.848295,-888.247130
1271.729840,-9326.594869,842.705048,-222.061783
1271.730151,-7772.162391,0.000000,296.082377
1271.730462,-6587.832884,-459.657299,1258.350101
1271.730774,-6365.771101,-919.314598,1554.432478
1271.731085,-7772.162391,-2068.457845,1036.288319
1271.731397,-8882.471304,-1915.238745,1110.308913
1271.731708,-9474.636058,-1378.971896,518.144159
1271.732019,-10881.027347,-383.047749,-0.000000
1271.732331,-10807.006753,459.657299,-222.061783
1271.732642,-10066.800811,229.828649,-74.020594
1271.732954,-9474.636058,-229.828649,370.102971
1271.733265,-8808.450710,-842.705048,888.247130
1271.733577,-7846.182985,-306.438199,1184.329507
1271.733888,-7550.100608,-612.876398,1406.391290
1271.734199,-7476.080014,-229.828649,1332.370696
1271.734511,-8068.244768,-1532.190996,370.102971
1271.734822,-8586.388927,-383.047749,-0.000000
1271.735134,-9696.697840,459.657299,296.082377
1271.735445,-11325.150913,766.095498,-592.164754
1271.735756,-11843.295072,842.705048,-0.000000
1271.736068,-10881.027347,1072.533697,-0.000000
1271.736379,-9474.636058,459.657299,1184.329507
1271.736691,-7772.162391,-153.219100,1702.473667
1271.737002,-6439.791695,-766.095498,2220.617826
1271.737313,-6217.729913,-1608.800546,1628.453072
1271.737625,-6809.894666,-1991.848295,962.267725
1271.737936,-8216.285956,-1149.143247,666.185348
1271.738248,-9548.656652,0.000000,148.041188
1271.738559,-10658.965565,689.485948,-1184.329507
1271.738870,-11029.068536,536.266849,-592.164754
1271.739182,-9844.739029,536.266849,-814.226536
1271.739493,-9030.512492,766.095498,-0.000000
1271.739805,-8216.285956,0.000000,888.247130
1271.740116,-7105.977043,-229.828649,1184.329507
1271.740428,-6217.729913,-612.876398,2220.617826
1271.740739,-6513.812290,-766.095498,1554.432478
1271.741050,-7994.224174,0.000000,814.226536
1271.741362,-9104.533087,383.047749,-0.000000
1271.741673,-10288.862594,842.705048,-222.061783
1271.741985,-10807.006753,1685.410096,-518.144159
1271.742296,-10658.965565,1762.019645,-740.205942
1271.742607,-9178.553681,1225.752797,-222.061783
1271.742919,-8364.327145,0.000000,592.164754
1271.743230,-6513.812290,-842.705048,592.164754
1271.743542,-6439.791695,-1378.971896,1110.308913
1271.743853,-7328.038826,-2145.067394,962.267725
1271.744164,-8142.265362,-1685.410096,1036.288319
1271.744476,-9548.656652,-1072.533697,814.226536
1271.744787,-10214.842000,-612.876398,148.041188
1271.745099,-11103.089130,-383.047749,-222.061783
1271.745410,-11177.109724,0.000000,-222.061783
1271.745721,-10510.924376,0.000000,-370.102971
1271.746033,-9400.615463,-153.219100,-222.061783
1271.746344,-8290.306550,-612.876398,148.041188
1271.746656,-7105.977043,-1149.143247,518.144159
1271.746967,-6513.812290,-1455.581446,592.164754
1271.747278,-7698.141797,-2068.457845,518.144159
1271.747590,-9030.512492,-1378.971896,-0.000000
1271.747901,-10510.924376,153.219100,-0.000000
1271.748213,-11769.274478,1149.143247,592.164754
1271.748524,-11843.295072,1225.752797,296.082377
1271.748836,-11029.068536,1225.752797,592.164754
1271.749147,-9104.533087,306.438199,740.205942
1271.749458,-7328.038826,612.876398,1480.411884
1271.749770,-7254.018232,76.609550,1110.308913
1271.750081,-6661.853478,-229.828649,1480.411884
1271.750393,-7402.059420,-1072.533697,962.267725
1271.750704,-8364.327145,-1149.143247,592.164754
1271.751015,-9252.574275,-229.828649,296.082377
1271.751327,-9770.718434,536.266849,-296.082377
1271.751638,-10510.924376,1225.752797,-814.226536
1271.751950,-9844.739029,1455.581446,-222.061783
1271.752261,-8882.471304,1378.971896,-444.123565
1271.752572,-7846.182985,1302.362347,592.164754
1271.752884,-6513.812290,1149.143247,1554.432478
1271.753195,-5847.626942,306.438199,2368.659014
1271.753507,-5847.626942,76.609550,1850.514855
1271.753818,-6661.853478,-536.266849,1258.350101
1271.754129,-8882.471304,0.000000,518.144159
1271.754441,-9992.780217,383.047749,888.247130
1271.754752,-11251.130318,1378.971896,-370.102971
1271.755064,-11325.150913,1378.971896,-0.000000
1271.755375,-9622.677246,1838.629195,-444.123565
1271.755687,-8068.244768,842.705048,148.041188
1271.755998,-6809.894666,-229.828649,1036.288319
1271.756309,-5995.668130,-689.485948,1850.514855
1271.756621,-6365.771101,-1915.238745,1628.453072
1271.756932,-7476.080014,-1608.800546,1406.391290
1271.757244,-9326.594869,-1072.533697,962.267725
1271.757555,-9992.780217,-689.485948,-0.000000
1271.757866,-11547.212695,-229.828649,-148.041188
1271.758178,-11917.315666,-153.219100,-74.020594
1271.758489,-11695.253884,-306.438199,-222.061783
1271.758801,-9770.718434,-153.219100,592.164754
1271.759112,-8882.471304,-536.266849,-0.000000
1271.759423,-6883.915261,-689.485948,888.247130
1271.759735,-6217.729913,-1302.362347,740.205942
1271.760046,-6439.791695,-1455.581446,444.123565
1271.760358,-7920.203579,-1685.410096,148.041188
1271.760669,-9474.636058,-536.266849,-0.000000
1271.760980,-11991.336260,536.266849,-0.000000
1271.761292,-12805.562797,1225.752797,-74.020594
1271.761603,-12731.542202,612.876398,666.185348
1271.761915,-11325.150913,612.876398,370.102971
1271.762226,-9844.739029,76.609550,962.267725
1271.762538,-8142.265362,-153.219100,962.267725
1271.762849,-6809.894666,153.219100,1702.473667
1271.763160,-6513.812290,-612.876398,1110.308913
1271.763472,-7105.977043,-1685.410096,222.061783
1271.763783,-8290.306550,-1378.971896,-222.061783
1271.764095,-9252.574275,0.000000,-370.102971
1271.764406,-10140.821405,612.876398,-1184.329507
1271.764717,-10584.944971,1072.533697,-444.123565
1271.765029,-10214.842000,842.705048,-296.082377
1271.765340,-9474.636058,0.000000,814.226536
1271.765652,-8216.285956,-306.438199,1702.473667
1271.765963,-6439.791695,-229.828649,2738.761985
1271.766274,-5699.585753,-383.047749,2220.617826
1271.766586,-6143.709319,-766.095498,1776.494261
1271.766897,-7402.059420,-842.705048,592.164754
1271.767209,-8364.327145,383.047749,-222.061783
1271.767520,-10214.842000,1608.800546,-592.164754
1271.767831,-10881.027347,1762.019645,-814.226536
1271.768143,-10584.944971,1762.019645,-814.226536
1271.768454,-9770.718434,1302.362347,-444.123565
1271.768766,-8586.388927,689.485948,814.226536
1271.769077,-7179.997637,-306.438199,1998.556043
1271.769388,-6809.894666,-1225.752797,2442.679609
1271.769700,-7179.997637,-1838.629195,1998.556043
1271.770011,-8142.265362,-1608.800546,1110.308913
1271.770323,-8660.409521,76.609550,-0.000000
1271.770634,-10140.821405,1455.581446,148.041188
1271.770946,-11251.130318,766.095498,-962.267725
1271.771257,-10732.986159,919.314598,-444.123565
1271.771568,-10362.883188,842.705048,-518.144159
1271.771880,-9104.533087,0.000000,222.061783
1271.772191,-7772.162391,-995.924147,740.205942
1271.772503,-7254.018232,-1838.629195,1702.473667
1271.772814,-7550.100608,-2298.286494,1036.288319
1271.773125,-8068.244768,-1915.238745,740.205942
1271.773437,-9622.677246,-612.876398,740.205942
1271.773748,-11177.109724,153.219100,444.123565
1271.774060,-11621.233289,0.000000,518.144159
1271.774371,-11177.109724,383.047749,444.123565
1271.774682,-10066.800811,612.876398,518.144159
1271.774994,-8734.430116,536.266849,518.144159
1271.775305,-8216.285956,76.609550,888.247130
1271.775617,-7105.977043,-153.219100,1036.288319
1271.775928,-5625.565159,-306.438199,1332.370696
1271.776239,-6735.874072,-1302.362347,444.123565
1271.776551,-8290.306550,-1838.629195,-0.000000
1271.776862,-9548.656652,-842.705048,-148.041188
1271.777174,-10288.862594,153.219100,-74.020594
1271.777485,-11547.212695,689.485948,-592.164754
1271.777797,-11251.130318,1072.533697,-0.000000
1271.778108,-9696.697840,995.924147,-0.000000
1271.778419,-8586.388927,842.705048,370.102971
1271.778731,-6217.729913,536.266849,1258.350101
1271.779042,-5329.482782,229.828649,2072.576638
1271.779354,-5995.668130,-612.876398,1480.411884
1271.779665,-7105.977043,-1532.190996,888.247130
1271.779976,-8956.491898,-919.314598,296.082377
1271.780288,-10510.924376,766.095498,222.061783
1271.780599,-11547.212695,1225.752797,-592.164754
1271.780911,-11473.192101,1302.362347,-296.082377
1271.781222,-9992.780217,1378.971896,-296.082377
1271.781533,-8734.430116,536.266849,148.041188
1271.781845,-7105.977043,229.828649,1036.288319
1271.782156,-6661.853478,153.219100,1406.391290
1271.782468,-6809.894666,-229.828649,1110.308913
1271.782779,-7031.956449,-689.485948,1110.308913
1271.783090,-8142.265362,-995.924147,148.041188
1271.783402,-9326.594869,-383.047749,-0.000000
1271.783713,-11251.130318,383.047749,-962.267725
1271.784025,-11177.109724,459.657299,-592.164754
1271.784336,-10510.924376,919.314598,-370.102971
1271.784648,-10066.800811,0.000000,-74.020594
1271.784959,-9030.512492,-689.485948,740.205942
1271.785271,-7624.121203,-766.095498,1406.391290
1271.785582,-6587.832884,-842.705048,2146.597232
1271.785894,-6587.832884,-1225.752797,1554.432478
1271.786205,-8142.265362,-842.705048,296.082377
1271.786517,-9474.636058,459.657299,370.102971
1271.786828,-10436.903782,612.876398,592.164754
1271.787139,-11251.130318,1149.143247,-0.000000
1271.787451,-11843.295072,1608.800546,444.123565
1271.787762,-10658.965565,1532.190996,370.102971
1271.788074,-8364.327145,306.438199,1258.350101
1271.788385,-7254.018232,-383.047749,1776.494261
1271.788697,-6513.812290,-1225.752797,1998.556043
1271.789008,-6735.874072,-1225.752797,1628.453072
1271.789320,-7476.080014,-1149.143247,814.226536
1271.789631,-8586.388927,-766.095498,222.061783
1271.789943,-9622.677246,0.000000,-370.102971
1271.790254,-10510.924376,76.609550,-962.267725
1271.790566,-10881.027347,1149.143247,-592.164754
1271.790877,-10584.944971,842.705048,-296.082377
1271.791189,-9400.615463,383.047749,814.226536
1271.791500,-7846.182985,-383.047749,1628.453072
1271.791811,-6513.812290,-766.095498,2516.700203
1271.792123,-6365.771101,-1149.143247,2368.659014
1271.792434,-6735.874072,-1608.800546,1776.494261
1271.792746,-7994.224174,-995.924147,888.247130
1271.793057,-9696.697840,-306.438199,222.061783
1271.793369,-10732.986159,1302.362347,-296.082377
1271.793680,-11251.130318,1532.190996,-814.226536
1271.793992,-11029.068536,1991.848295,-740.205942
1271.794303,-9918.759623,689.485948,-296.082377
1271.794615,-8734.430116,306.438199,888.247130
1271.794926,-6883.915261,153.219100,1480.411884
1271.795238,-6143.709319,-612.876398,1554.432478
1271.795549,-6587.832884,-1302.362347,1702.473667
1271.795861,-7846.182985,-919.314598,518.144159
1271.796172,-8586.388927,76.609550,222.061783
1271.796483,-9844.739029,689.485948,-0.000000
1271.796795,-11473.192101,1225.752797,-1258.350101
1271.797106,-10955.047942,1225.752797,-666.185348
1271.797418,-10140.821405,1072.533697,-1258.350101
1271.797729,-8586.388927,-459.657299,-0.000000
1271.798041,-8142.265362,-536.266849,-74.020594
1271.798352,-7254.018232,-766.095498,666.185348
1271.798664,-7550.100608,-2145.067394,1110.308913
1271.798975,-8586.388927,-2374.896044,1332.370696
1271.799287,-9844.739029,-1608.800546,814.226536
1271.799598,-10732.986159,-459.657299,740.205942
1271.799910,-11769.274478,0.000000,222.061783
1271.800221,-11547.212695,153.219100,222.061783
1271.800533,-10066.800811,1455.581446,-0.000000
1271.800844,-9030.512492,1225.752797,222.061783
1271.801156,-7846.182985,306.438199,1036.288319
1271.801467,-6735.874072,0.000000,1480.411884
1271.801778,-6291.750507,-842.705048,1258.350101
1271.802090,-6957.935855,-1072.533697,814.226536
1271.802401,-8808.450710,-1608.800546,-148.041188
1271.802713,-8956.491898,153.219100,518.144159
1271.803024,-10140.821405,1378.971896,-296.082377
1271.803336,-11029.068536,1149.143247,-370.102971
1271.803647,-11029.068536,536.266849,296.082377
1271.803959,-10288.862594,459.657299,296.082377
1271.804270,-8586.388927,153.219100,1332.370696
1271.804582,-6217.729913,229.828649,1628.453072
1271.804893,-5477.523971,-612.876398,1628.453072
1271.805205,-5551.544565,-1608.800546,1554.432478
1271.805516,-7105.977043,-1915.238745,592.164754
1271.805828,-9104.533087,-612.876398,444.123565
1271.806139,-10732.986159,612.876398,370.102971
1271.806450,-12065.356855,919.314598,-222.061783
1271.806762,-11621.233289,842.705048,444.123565
1271.807073,-10436.903782,995.924147,-0.000000
1271.807385,-8586.388927,536.266849,1036.288319
1271.807696,-6809.894666,-689.485948,962.267725
1271.808008,-6513.812290,-383.047749,1702.473667
1271.808319,-6291.750507,-1302.362347,1332.370696
1271.808631,-7031.956449,-1455.581446,888.247130
1271.808942,-7994.224174,-842.705048,148.041188
1271.809254,-9696.697840,-306.438199,-74.020594
1271.809565,-11251.130318,153.219100,-518.144159
1271.809877,-10807.006753,919.314598,-296.082377
1271.810188,-9918.759623,76.609550,-666.185348
1271.810500,-9696.697840,-612.876398,-222.061783
1271.810811,-8956.491898,-1302.362347,222.061783
1271.811122,-8068.244768,-1225.752797,1110.308913
1271.811434,-7179.997637,-1762.019645,1702.473667
1271.811745,-7624.121203,-2068.457845,1554.432478
1271.812057,-8956.491898,-1149.143247,1184.329507
1271.812368,-10658.965565,0.000000,370.102971
1271.812680,-10584.944971,536.266849,962.267725
1271.812991,-11103.089130,2068.457845,-222.061783
1271.813303,-10362.883188,2451.505594,-74.020594
1271.813614,-9696.697840,2145.067394,-518.144159
1271.813926,-8364.327145,1149.143247,-74.020594
1271.814237,-6809.894666,1991.848295,518.144159
1271.814549,-6365.771101,153.219100,1332.370696
1271.814860,-7031.956449,-459.657299,740.205942
1271.815172,-8586.388927,-1455.581446,-0.000000
1271.815483,-9474.636058,-1149.143247,-444.123565
1271.815794,-10288.862594,229.828649,-666.185348
1271.816106,-11325.150913,1302.362347,-1110.308913
1271.816417,-11769.274478,612.876398,-518.144159
1271.816729,-10510.924376,0.000000,222.061783
1271.817040,-9400.615463,76.609550,1332.370696
1271.817352,-7254.018232,-536.266849,2146.597232
1271.817663,-6661.853478,0.000000,2294.638420
1271.817975,-6735.874072,-842.705048,1776.494261
1271.818286,-7105.977043,-1149.143247,1258.350101
1271.818598,-8290.306550,306.438199,222.061783
1271.818909,-9622.677246,1302.362347,222.061783
1271.819221,-11251.130318,2145.067394,-148.041188
1271.819532,-10807.006753,2834.553343,-148.041188
1271.819844,-9770.718434,2528.115143,-296.082377
1271.820155,-8216.285956,2374.896044,148.041188
1271.820467,-6809.894666,1608.800546,370.102971
1271.820778,-5699.585753,1302.362347,1406.391290
1271.821089,-5255.462188,0.000000,1406.391290
1271.821401,-6143.709319,-1302.362347,1406.391290
1271.821712,-7994.224174,-1991.848295,1036.288319
1271.822024,-9104.533087,-766.095498,888.247130
1271.822335,-11177.109724,-612.876398,444.123565
1271.822647,-11473.192101,-995.924147,222.061783
1271.822958,-10955.047942,-766.095498,-74.020594
1271.823270,-9918.759623,-995.924147,148.041188
1271.823581,-8882.471304,-1455.581446,518.144159
1271.823893,-7550.100608,-1608.800546,1110.308913
1271.824204,-7105.977043,-1532.190996,1332.370696
1271.824516,-7328.038826,-1762.019645,1480.411884
1271.824827,-8068.244768,-2834.553343,1628.453072
1271.825139,-9474.636058,-1608.800546,962.267725
1271.825450,-10658.965565,-612.876398,814.226536
1271.825761,-11325.150913,919.314598,296.082377
1271.826073,-10955.047942,1225.752797,222.061783
1271.826384,-10362.883188,459.657299,-74.020594
1271.826696,-8956.491898,153.219100,444.123565
1271.827007,-7624.121203,-306.438199,222.061783
1271.827319,-7105.977043,0.000000,1110.308913
1271.827630,-6957.935855,-306.438199,592.164754
1271.827942,-7550.100608,-919.314598,222.061783
1271.828253,-9104.533087,-612.876398,-222.061783
1271.828565,-9770.718434,76.609550,-148.041188
1271.828876,-10807.006753,306.438199,-370.102971
1271.829188,-11843.295072,459.657299,-296.082377
1271.829499,-11399.171507,612.876398,-74.020594
1271.829811,-9844.739029,-306.438199,222.061783
1271.830122,-8512.368333,-153.219100,1184.329507
1271.830433,-7105.977043,-306.438199,1776.494261
1271.830745,-6513.812290,-1072.533697,1554.432478
1271.831056,-6661.853478,-689.485948,740.205942
1271.831368,-7328.038826,0.000000,296.082377
1271.831679,-8734.430116,536.266849,-74.020594
1271.831991,-10658.965565,1608.800546,-444.123565
1271.832302,-11695.253884,2451.505594,-1036.288319
1271.832614,-11251.130318,2834.553343,-444.123565
1271.832925,-9474.636058,2451.505594,-222.061783
1271.833237,-8216.285956,1225.752797,814.226536
1271.833548,-6513.812290,0.000000,1924.535449
1271.833860,-5995.668130,-2068.457845,2368.659014
1271.834171,-6143.709319,-1762.019645,2220.617826
1271.834483,-7772.162391,-1455.581446,814.226536
1271.834794,-9252.574275,-229.828649,-0.000000
1271.835105,-10362.883188,-229.828649,-0.000000
1271.835417,-10807.006753,536.266849,-666.185348
1271.835728,-10288.862594,766.095498,-74.020594
1271.836040,-9474.636058,766.095498,-296.082377
1271.836351,-8512.368333,689.485948,888.247130
1271.836663,-7624.121203,-995.924147,888.247130
1271.836974,-6217.729913,-1225.752797,1554.432478
1271.837286,-5699.585753,-1225.752797,1332.370696
1271.837597,-7105.977043,-1762.019645,1036.288319
1271.837909,-9030.512492,-1149.143247,1332.370696
1271.838220,-10658.965565,-689.485948,666.185348
1271.838532,-11695.253884,0.000000,814.226536
1271.838843,-11917.315666,612.876398,222.061783
1271.839155,-11251.130318,229.828649,814.226536
1271.839466,-9918.759623,-536.266849,-148.041188
1271.839777,-8216.285956,-459.657299,518.144159
1271.840089,-6661.853478,-766.095498,518.144159
1271.840400,-6661.853478,-1455.581446,1184.329507
1271.840712,-7254.018232,-1991.848295,1184.329507
1271.841023,-8660.409521,-2145.067394,444.123565
1271.841335,-10362.883188,-1608.800546,-0.000000
1271.841646,-10288.862594,-612.876398,296.082377
1271.841958,-11769.274478,76.609550,-148.041188
1271.842269,-11991.336260,612.876398,-296.082377
1271.842581,-10881.027347,383.047749,-444.123565
1271.842892,-8808.450710,459.657299,444.123565
1271.843204,-7105.977043,536.266849,518.144159
1271.843515,-6143.709319,-306.438199,1480.411884
1271.843827,-6069.688724,-1225.752797,592.164754
1271.844138,-6217.729913,-1302.362347,370.102971
1271.844450,-8512.368333,-76.609550,-148.041188
1271.844761,-10732.986159,536.266849,-148.041188
1271.845072,-12435.459826,2068.457845,-444.123565
1271.845384,-12213.398043,2374.896044,-0.000000
1271.845695,-10881.027347,2604.724693,-0.000000
1271.846007,-8660.409521,2451.505594,222.061783
1271.846318,-7179.997637,689.485948,1110.308913
1271.846630,-5477.523971,306.438199,1702.473667
1271.846941,-4885.359217,-842.705048,1332.370696
1271.847253,-6513.812290,-612.876398,592.164754
1271.847564,-8290.306550,153.219100,148.041188
1271.847876,-9844.739029,459.657299,-666.185348
1271.848187,-10658.965565,229.828649,-518.144159
1271.848499,-10584.944971,919.314598,-888.247130
1271.848810,-10362.883188,1302.362347,-592.164754
1271.849122,-9030.512492,0.000000,-0.000000
1271.849433,-8290.306550,-842.705048,962.267725
1271.849744,-7179.997637,-1532.190996,1480.411884
1271.850056,-6217.729913,-1378.971896,1850.514855
1271.850367,-6883.915261,-1532.190996,1850.514855
1271.850679,-8364.327145,-1378.971896,962.267725
1271.850990,-9474.636058,-153.219100,370.102971
1271.851302,-10584.944971,76.609550,592.164754
1271.851613,-11621.233289,153.219100,-296.082377
1271.851925,-11769.274478,459.657299,962.267725
1271.852236,-10955.047942,306.438199,222.061783
1271.852548,-9548.656652,229.828649,370.102971
1271.852859,-7550.100608,76.609550,592.164754
1271.853171,-6439.791695,76.609550,1258.350101
1271.853482,-6661.853478,-536.266849,1184.329507
1271.853794,-7254.018232,-919.314598,518.144159
1271.854105,-8956.491898,-612.876398,-0.000000
1271.854416,-9770.718434,459.657299,-0.000000
1271.854728,-11103.089130,1225.752797,-74.020594
1271.855039,-11621.233289,1149.143247,-0.000000
1271.855351,-11029.068536,612.876398,-444.123565
1271.855662,-9622.677246,612.876398,-0.000000
1271.855974,-8290.306550,536.266849,1258.350101
1271.856285,-7031.956449,-383.047749,1702.473667
1271.856597,-5995.668130,-1455.581446,1850.514855
1271.856908,-6587.832884,-2145.067394,1998.556043
1271.857220,-7846.182985,-1915.238745,1776.494261
1271.857531,-9918.759623,-689.485948,1258.350101
1271.857843,-11695.253884,383.047749,370.102971
1271.858154,-11547.212695,1838.629195,-74.020594
1271.858466,-11029.068536,2757.943793,-148.041188
1271.858777,-9400.615463,2145.067394,-0.000000
1271.859088,-8068.244768,1608.800546,1036.288319
1271.859400,-6291.750507,383.047749,1406.391290
1271.859711,-5403.503377,-306.438199,2072.576638
1271.860023,-5847.626942,-612.876398,1332.370696
1271.860334,-7105.977043,-536.266849,148.041188
1271.860646,-8142.265362,-229.828649,-222.061783
1271.860957,-9992.780217,76.609550,-148.041188
1271.861269,-10732.986159,536.266849,-888.247130
1271.861580,-10807.006753,766.095498,-740.205942
1271.861892,-10214.842000,306.438199,-296.082377
1271.862203,-9178.553681,-689.485948,518.144159
1271.862515,-7920.203579,-1378.971896,740.205942
1271.862826,-7105.977043,-995.924147,1554.432478
1271.863138,-6809.894666,-1608.800546,1332.370696
1271.863449,-7772.162391,-1302.362347,1480.411884
1271.863760,-9178.553681,-1149.143247,1110.308913
1271.864072,-10066.800811,-153.219100,740.205942
1271.864383,-10881.027347,306.438199,518.144159
1271.864695,-10955.047942,842.705048,296.082377
1271.865006,-10510.924376,1378.971896,-0.000000
1271.865318,-9400.615463,766.095498,-444.123565
1271.865629,-9030.512492,0.000000,222.061783
1271.865941,-7105.977043,229.828649,740.205942
1271.866252,-6809.894666,-306.438199,888.247130
1271.866564,-7254.018232,-1762.019645,814.226536
1271.866875,-8142.265362,-2068.457845,370.102971
1271.867187,-8882.471304,-1302.362347,-0.000000
1271.867498,-10214.842000,-306.438199,222.061783
1271.867810,-11621.233289,153.219100,-370.102971
1271.868121,-11917.315666,153.219100,444.123565
1271.868433,-10955.047942,689.485948,-0.000000
1271.868744,-9474.636058,612.876398,740.205942
1271.869055,-7772.162391,383.047749,740.205942
1271.869367,-6365.771101,0.000000,1332.370696
1271.869678,-5847.626942,-919.314598,592.164754
1271.869990,-6587.832884,-1532.190996,518.144159
1271.870301,-8808.450710,76.609550,-0.000000
1271.870613,-11103.089130,919.314598,-0.000000
1271.870924,-12065.356855,1149.143247,-0.000000
1271.871236,-11843.295072,1532.190996,148.041188
1271.871547,-10362.883188,1378.971896,-0.000000
1271.871859,-8660.409521,689.485948,444.123565
1271.872170,-6661.853478,0.000000,888.247130
1271.872482,-5107.421000,-766.095498,1554.432478
1271.872793,-5033.400406,-995.924147,1628.453072
1271.873105,-6439.791695,-2221.676944,1110.308913
1271.873416,-7550.100608,-1685.410096,518.144159
1271.873727,-8808.450710,-766.095498,-0.000000
1271.874039,-9918.759623,0.000000,-370.102971
1271.874350,-10362.883188,0.000000,-444.123565
1271.874662,-10881.027347,-229.828649,-814.226536
1271.874973,-10288.862594,-306.438199,-0.000000
1271.875285,-9178.553681,-995.924147,1110.308913
1271.875596,-8512.368333,-995.924147,1184.329507
1271.875908,-7920.203579,-1532.190996,1628.453072
1271.876219,-7550.100608,-1915.238745,1702.473667
1271.876531,-7920.203579,-1072.533697,1258.350101
1271.876842,-8660.409521,383.047749,666.185348
1271.877154,-9992.780217,766.095498,370.102971
1271.877465,-10510.924376,1915.238745,-296.082377
1271.877777,-11103.089130,1915.238745,-592.164754
1271.878088,-9622.677246,1762.019645,-592.164754
1271.878399,-8808.450710,1378.971896,-148.041188
1271.878711,-8068.244768,306.438199,296.082377
1271.879022,-7328.038826,-689.485948,1184.329507
1271.879334,-7402.059420,-1302.362347,1258.350101
