#time,accel_x,accel_y,accel_z
1429.196179,-8438.347739,0.000000,888.247130
1429.196490,-9326.594869,229.828649,-0.000000
1429.196801,-9104.533087,0.000000,444.123565
1429.197112,-8956.491898,-306.438199,592.164754
1429.197424,-9104.533087,0.000000,518.144159
1429.197735,-9030.512492,-153.219100,444.123565
1429.198046,-8956.491898,153.219100,592.164754
1429.198357,-8808.450710,-383.047749,296.082377
1429.198668,-8882.471304,0.000000,592.164754
1429.198979,-9178.553681,76.609550,296.082377
1429.199291,-9104.533087,0.000000,444.123565
1429.199602,-8808.450710,0.000000,666.185348
1429.199913,-8882.471304,0.000000,370.102971
1429.200224,-8956.491898,0.000000,518.144159
1429.200535,-9030.512492,-306.438199,444.123565
1429.200847,-8586.388927,0.000000,666.185348
1429.201158,-9400.615463,76.609550,296.082377
1429.201469,-9030.512492,0.000000,296.082377
1429.201780,-9030.512492,0.000000,592.164754
1429.202091,-9030.512492,-229.828649,592.164754
1429.202402,-8956.491898,-153.219100,666.185348
1429.202714,-8882.471304,76.609550,370.102971
1429.203025,-9104.533087,229.828649,518.144159
1429.203336,-8808.450710,153.219100,666.185348
1429.203647,-8512.368333,-306.438199,592.164754
1429.203958,-8956.491898,0.000000,592.164754
1429.204270,-8956.491898,-153.219100,592.164754
1429.204581,-8956.491898,0.000000,592.164754
1429.204892,-8882.471304,0.000000,592.164754
1429.205203,-8660.409521,-153.219100,592.164754
1429.205514,-8586.388927,229.828649,888.247130
1429.205825,-8660.409521,76.609550,444.123565
1429.206137,-8956.491898,76.609550,666.185348
1429.206448,-8882.471304,-229.828649,592.164754
1429.206759,-8956.491898,-153.219100,592.164754
1429.207070,-9104.533087,0.000000,518.144159
1429.207381,-8956.491898,0.000000,444.123565
1429.207693,-8956.491898,76.609550,444.123565
1429.208004,-8734.430116,0.000000,518.144159
1429.208315,-8882.471304,229.828649,370.102971
1429.208626,-9104.533087,0.000000,296.082377
1429.208937,-9030.512492,-153.219100,444.123565
1429.209248,-9030.512492,0.000000,592.164754
1429.209560,-8882.471304,0.000000,444.123565
1429.209871,-8882.471304,0.000000,444.123565
1429.210182,-8586.388927,0.000000,666.185348
1429.210493,-8364.327145,0.000000,592.164754
1429.210804,-8882.471304,0.000000,370.102971
1429.211115,-8808.450710,0.000000,518.144159
1429.211427,-8956.491898,0.000000,592.164754
1429.211738,-9178.553681,0.000000,666.185348
1429.212049,-8734.430116,0.000000,518.144159
1429.212360,-8660.409521,0.000000,592.164754
1429.212671,-9252.574275,0.000000,370.102971
1429.212983,-8956.491898,383.047749,370.102971
1429.213294,-9104.533087,153.219100,370.102971
1429.213605,-9104.533087,0.000000,370.102971
1429.213916,-9030.512492,76.609550,666.185348
1429.214227,-8956.491898,0.000000,518.144159
1429.214538,-9030.512492,0.000000,592.164754
1429.214850,-9400.615463,-306.438199,148.041188
1429.215161,-9030.512492,153.219100,814.226536
1429.215472,-8512.368333,383.047749,740.205942
1429.215783,-8512.368333,0.000000,222.061783
1429.216094,-9030.512492,-153.219100,222.061783
1429.216406,-9104.533087,-383.047749,370.102971
1429.216717,-8956.491898,0.000000,518.144159
1429.217028,-8956.491898,0.000000,444.123565
1429.217339,-8586.388927,536.266849,518.144159
1429.217650,-8808.450710,-306.438199,518.144159
1429.217961,-8438.347739,-306.438199,814.226536
1429.218273,-8808.450710,0.000000,444.123565
1429.218584,-9030.512492,0.000000,444.123565
1429.218895,-8956.491898,0.000000,592.164754
1429.219206,-8956.491898,0.000000,518.144159
1429.219517,-8956.491898,0.000000,370.102971
1429.219828,-9252.574275,0.000000,296.082377
1429.220140,-9030.512492,306.438199,148.041188
1429.220451,-8956.491898,229.828649,740.205942
1429.220762,-8808.450710,-229.828649,370.102971
1429.221073,-8808.450710,0.000000,518.144159
1429.221384,-8882.471304,0.000000,518.144159
1429.221696,-8956.491898,0.000000,444.123565
1429.222007,-9030.512492,-306.438199,518.144159
1429.222318,-9030.512492,0.000000,740.205942
1429.222629,-8660.409521,0.000000,518.144159
1429.222940,-8956.491898,-153.219100,518.144159
1429.223251,-8808.450710,-459.657299,666.185348
1429.223563,-9030.512492,0.000000,592.164754
1429.223874,-8956.491898,0.000000,666.185348
1429.224185,-9326.594869,0.000000,518.144159
1429.224496,-10955.047942,0.000000,-0.000000
1429.224807,-11029.068536,2528.115143,-0.000000
1429.225119,-8512.368333,4826.401637,666.185348
1429.225430,-7624.121203,3907.087040,518.144159
1429.225741,-6661.853478,1149.143247,1702.473667
1429.226052,-6735.874072,-1072.533697,296.082377
1429.226363,-7402.059420,-1455.581446,-0.000000
1429.226674,-7402.059420,-689.485948,-74.020594
1429.226986,-11177.109724,-766.095498,-1406.391290
1429.227297,-12435.459826,0.000000,-666.185348
1429.227608,-10510.924376,1378.971896,444.123565
1429.227919,-8956.491898,536.266849,1406.391290
1429.228230,-9326.594869,-383.047749,2886.803174
1429.228542,-11843.295072,459.657299,1554.432478
1429.228853,-8290.306550,4443.353888,2368.659014
1429.229164,-4885.359217,5056.230287,1998.556043
1429.229475,-7031.956449,3370.820191,1036.288319
1429.229786,-7550.100608,2604.724693,-666.185348
1429.230097,-7254.018232,3370.820191,-2072.576638
1429.230409,-9178.553681,3447.429741,-1332.370696
1429.230720,-9252.574275,3753.867940,-0.000000
1429.231031,-12879.583391,2298.286494,-1480.411884
1429.231342,-13767.830521,-536.266849,814.226536
1429.231653,-8364.327145,-766.095498,2146.597232
1429.231964,-10066.800811,612.876398,518.144159
1429.232276,-8512.368333,5286.058936,2368.659014
1429.232587,-7846.182985,5362.668486,1480.411884
1429.232898,-7254.018232,2987.772442,2220.617826
1429.233209,-6217.729913,4749.792088,2664.741391
1429.233520,-8068.244768,6818.249932,740.205942
1429.233832,-8586.388927,6894.859482,-1110.308913
1429.234143,-9178.553681,5822.325785,-1406.391290
1429.234454,-9178.553681,5515.887586,-1554.432478
1429.234765,-10066.800811,5439.278036,-1332.370696
1429.235076,-11843.295072,4903.011187,-148.041188
1429.235387,-10955.047942,4060.306139,1554.432478
1429.235699,-10288.862594,3294.210641,2072.576638
1429.236010,-9252.574275,4903.011187,2886.803174
1429.236321,-7254.018232,4903.011187,1702.473667
1429.236632,-5329.482782,5669.106685,666.185348
1429.236943,-5403.503377,4903.011187,1036.288319
1429.237255,-5403.503377,5209.449386,-592.164754
1429.237566,-6143.709319,4596.572988,-1406.391290
1429.237877,-7624.121203,3447.429741,-1036.288319
1429.238188,-8882.471304,2681.334243,-444.123565
1429.238499,-10658.965565,1608.800546,370.102971
1429.238810,-10807.006753,306.438199,962.267725
1429.239122,-11547.212695,229.828649,1554.432478
1429.239433,-11399.171507,306.438199,1702.473667
1429.239744,-9770.718434,2757.943793,2146.597232
1429.240055,-8438.347739,3983.696590,1702.473667
1429.240366,-6439.791695,3677.258390,-0.000000
1429.240677,-6143.709319,3447.429741,-0.000000
1429.240989,-6883.915261,3140.991542,-740.205942
1429.241300,-6809.894666,3753.867940,-1110.308913
1429.241611,-7624.121203,2451.505594,-1480.411884
1429.241922,-9252.574275,-919.314598,-888.247130
1429.242233,-10732.986159,-1302.362347,148.041188
1429.242545,-12287.418637,-2528.115143,592.164754
1429.242856,-13249.686362,-1608.800546,1480.411884
1429.243167,-13249.686362,-689.485948,1702.473667
1429.243478,-12583.501014,919.314598,1406.391290
1429.243789,-11547.212695,2604.724693,296.082377
1429.244100,-8586.388927,4749.792088,-0.000000
1429.244412,-5625.565159,5056.230287,-0.000000
1429.244723,-6513.812290,4903.011187,-222.061783
1429.245034,-7179.997637,4519.963438,666.185348
1429.245345,-8142.265362,3370.820191,-0.000000
1429.245656,-10510.924376,2221.676944,-222.061783
1429.245968,-11843.295072,919.314598,296.082377
1429.246279,-13101.645173,0.000000,-222.061783
1429.246590,-13471.748144,-995.924147,-74.020594
1429.246901,-13175.665768,766.095498,666.185348
1429.247212,-11325.150913,2298.286494,1184.329507
1429.247523,-9918.759623,3983.696590,1406.391290
1429.247835,-7031.956449,4826.401637,2294.638420
1429.248146,-4219.173869,5439.278036,1628.453072
1429.248457,-2368.659014,5975.544884,370.102971
1429.248768,-1776.494261,6741.640382,-814.226536
1429.249079,-2442.679609,4749.792088,-1850.514855
1429.249391,-6069.688724,2911.162892,-2294.638420
1429.249702,-10510.924376,3064.381992,-888.247130
1429.250013,-14137.933492,2834.553343,518.144159
1429.250324,-15914.427753,2987.772442,2368.659014
1429.250635,-15174.221811,2451.505594,3775.050304
1429.250946,-12139.377449,2451.505594,3849.070898
1429.251258,-7402.059420,3217.601092,2960.823768
1429.251569,-3552.988522,4366.744339,1332.370696
1429.251880,-1554.432478,5822.325785,-518.144159
1429.252191,-1258.350101,7201.297681,-1924.535449
1429.252502,-3404.947333,7201.297681,-2368.659014
1429.252813,-6291.750507,4903.011187,-1998.556043
1429.253125,-8660.409521,3140.991542,-592.164754
1429.253436,-10881.027347,766.095498,592.164754
1429.253747,-12287.418637,-1762.019645,1332.370696
1429.254058,-13545.768739,-4060.306139,1850.514855
1429.254369,-13323.706956,-3217.601092,2220.617826
1429.254681,-13249.686362,-995.924147,1850.514855
1429.254992,-12361.439231,1838.629195,1776.494261
1429.255303,-11251.130318,4366.744339,1776.494261
1429.255614,-8882.471304,6205.373534,1554.432478
1429.255925,-6365.771101,6205.373534,1332.370696
1429.256236,-5773.606348,4749.792088,148.041188
1429.256548,-5033.400406,2911.162892,-518.144159
1429.256859,-6809.894666,2298.286494,-2590.720797
1429.257170,-9252.574275,3064.381992,-2886.803174
1429.257481,-11103.089130,3600.648841,-2590.720797
1429.257792,-13175.665768,3524.039291,-1332.370696
1429.258104,-13323.706956,2451.505594,666.185348
1429.258415,-12509.480420,1685.410096,2146.597232
1429.258726,-12657.521608,995.924147,2220.617826
1429.259037,-10881.027347,3064.381992,3034.844362
1429.259348,-9178.553681,6358.592633,1480.411884
1429.259659,-7476.080014,7277.907231,-0.000000
1429.259971,-5921.647536,6588.421283,-888.247130
1429.260282,-5255.462188,4366.744339,-1702.473667
1429.260593,-6661.853478,3370.820191,-2220.617826
1429.260904,-7846.182985,3447.429741,-1332.370696
1429.261215,-8142.265362,2834.553343,-74.020594
1429.261526,-9326.594869,76.609550,1036.288319
1429.261838,-8734.430116,-2757.943793,2664.741391
1429.262149,-7920.203579,-4213.525239,2590.720797
1429.262460,-8660.409521,-1149.143247,1628.453072
1429.262771,-9474.636058,4749.792088,370.102971
1429.263082,-10362.883188,9039.926876,-518.144159
1429.263394,-9474.636058,10648.727422,-518.144159
1429.263705,-9918.759623,7124.688131,888.247130
1429.264016,-9474.636058,5056.230287,592.164754
1429.264327,-8068.244768,3524.039291,1036.288319
1429.264638,-7550.100608,4290.134789,444.123565
1429.264949,-6365.771101,3983.696590,814.226536
1429.265261,-4737.318029,1991.848295,444.123565
1429.265572,-5181.441594,-1455.581446,444.123565
1429.265883,-6217.729913,-1455.581446,962.267725
1429.266194,-8586.388927,1225.752797,-666.185348
1429.266505,-10955.047942,5362.668486,-1184.329507
1429.266817,-12139.377449,7277.907231,-0.000000
1429.267128,-12213.398043,5439.278036,1850.514855
1429.267439,-13619.789333,2068.457845,3478.967927
1429.267751,-13249.686362,995.924147,3182.885551
1429.268062,-9770.718434,3524.039291,2368.659014
1429.268373,-7328.038826,3753.867940,1702.473667
1429.268684,-5329.482782,1072.533697,1184.329507
1429.268996,-3923.091493,-3907.087040,-148.041188
1429.269307,-4885.359217,-6358.592633,-518.144159
1429.269618,-5773.606348,-3064.381992,-0.000000
1429.269930,-7698.141797,2374.896044,-666.185348
1429.270241,-12065.356855,4596.572988,-444.123565
1429.270552,-15470.304188,2834.553343,1332.370696
1429.270864,-17838.963202,1762.019645,1924.535449
1429.271175,-16580.613101,5362.668486,2886.803174
1429.271486,-12509.480420,9193.145976,2220.617826
1429.271798,-7254.018232,7507.735880,370.102971
1429.272109,-3404.947333,1915.238745,222.061783
1429.272420,-1480.411884,-2145.067394,-888.247130
1429.272732,-222.061783,0.000000,-1036.288319
1429.273043,-2590.720797,3294.210641,-1258.350101
1429.273354,-7846.182985,3830.477490,-370.102971
1429.273666,-13397.727550,1685.410096,222.061783
1429.273977,-15914.427753,1149.143247,666.185348
1429.274288,-14952.160028,3294.210641,740.205942
1429.274600,-11991.336260,4060.306139,148.041188
1429.274911,-11029.068536,2298.286494,-740.205942
1429.275222,-9400.615463,0.000000,-1332.370696
1429.275533,-5403.503377,0.000000,-2738.761985
1429.275845,-3404.947333,1608.800546,-888.247130
1429.276156,-4145.153275,1915.238745,1332.370696
1429.276467,-7846.182985,-1685.410096,3997.112087
1429.276779,-10436.903782,-3447.429741,4589.276840
1429.277090,-9696.697840,-383.047749,4293.194464
1429.277401,-9992.780217,4979.620737,1480.411884
1429.277713,-10214.842000,6894.859482,-1406.391290
1429.278024,-9474.636058,5745.716235,-4367.215058
1429.278335,-7105.977043,2911.162892,-5403.503377
1429.278647,-6143.709319,5898.935335,-4737.318029
1429.278958,-10436.903782,7277.907231,-2072.576638
1429.279269,-14656.077652,3370.820191,666.185348
1429.279581,-13989.892304,-1378.971896,3849.070898
1429.279892,-11103.089130,-4290.134789,5403.503377
1429.280203,-8068.244768,-2757.943793,4441.235652
1429.280515,-4071.132681,-1455.581446,1776.494261
1429.280826,-2738.761985,-1532.190996,-1184.329507
1429.281137,-592.164754,-3140.991542,-1036.288319
1429.281449,-2886.803174,-1532.190996,-1110.308913
1429.281760,-11843.295072,-229.828649,-0.000000
1429.282071,-15840.407159,153.219100,1998.556043
1429.282382,-16802.674883,-919.314598,2960.823768
1429.282694,-14137.933492,-919.314598,4219.173869
1429.283005,-11547.212695,-1072.533697,1480.411884
1429.283316,-9030.512492,-2145.067394,-1110.308913
1429.283628,-3701.029710,-2451.505594,-1554.432478
1429.283939,-1406.391290,-1532.190996,-0.000000
1429.284250,-4145.153275,-1762.019645,1110.308913
1429.284562,-9326.594869,-2451.505594,2072.576638
1429.284873,-11177.109724,-2068.457845,3256.906145
1429.285184,-9326.594869,-1608.800546,4293.194464
1429.285496,-9696.697840,-1608.800546,2442.679609
1429.285807,-9548.656652,-2528.115143,-444.123565
1429.286118,-8290.306550,-2604.724693,-3849.070898
1429.286430,-7328.038826,-1455.581446,-3627.009116
1429.286741,-7846.182985,-153.219100,-2220.617826
1429.287052,-12805.562797,-1225.752797,-814.226536
1429.287364,-15840.407159,-2604.724693,1480.411884
1429.287675,-14878.139434,-1225.752797,4293.194464
1429.287986,-11843.295072,1532.190996,5181.441594
1429.288298,-8216.285956,2451.505594,3404.947333
1429.288609,-5033.400406,1762.019645,-296.082377
1429.288920,-1258.350101,2145.067394,-1998.556043
1429.289231,-444.123565,4136.915689,-3034.844362
1429.289543,-7254.018232,5132.839837,-4737.318029
1429.289854,-14434.015869,4979.620737,-4071.132681
1429.290165,-17468.860231,3753.867940,-1406.391290
1429.290477,-16728.654289,2528.115143,2220.617826
1429.290788,-14063.912898,1225.752797,3552.988522
1429.291099,-12583.501014,-2681.334243,1258.350101
1429.291411,-6809.894666,-3447.429741,962.267725
1429.291722,-296.082377,-1532.190996,814.226536
1429.292033,-444.123565,1532.190996,814.226536
1429.292345,-4959.379811,2834.553343,-814.226536
1429.292656,-8660.409521,1991.848295,-962.267725
1429.292967,-8882.471304,2374.896044,888.247130
1429.293279,-8882.471304,2911.162892,2146.597232
1429.293590,-11769.274478,2834.553343,-296.082377
1429.293901,-10881.027347,383.047749,-2368.659014
1429.294213,-7550.100608,-1378.971896,-1628.453072
1429.294524,-5995.668130,-1532.190996,740.205942
1429.294835,-8956.491898,-689.485948,1924.535449
1429.295147,-12065.356855,-1225.752797,1480.411884
1429.295458,-10807.006753,-1915.238745,3330.926739
1429.295769,-8364.327145,-153.219100,4145.153275
1429.296080,-6957.935855,1302.362347,2960.823768
1429.296392,-5255.462188,1072.533697,-370.102971
1429.296703,-2368.659014,-1302.362347,-1628.453072
1429.297014,-962.267725,-2298.286494,-592.164754
1429.297326,-4071.132681,-2221.676944,-222.061783
1429.297637,-10214.842000,-2604.724693,518.144159
1429.297948,-14359.995275,-4519.963438,1258.350101
1429.298260,-15100.201217,-4290.134789,4293.194464
1429.298571,-14804.118840,-2374.896044,4737.318029
1429.298882,-13841.851115,-1608.800546,2442.679609
1429.299194,-11103.089130,-2374.896044,-518.144159
1429.299505,-5329.482782,-995.924147,-666.185348
1429.299816,-3775.050304,766.095498,-518.144159
1429.300128,-5551.544565,1378.971896,-222.061783
1429.300439,-9178.553681,842.705048,-592.164754
1429.300750,-10510.924376,-1072.533697,-0.000000
1429.301062,-10288.862594,-459.657299,1554.432478
1429.301373,-11251.130318,0.000000,592.164754
1429.301684,-12731.542202,-2221.676944,-1258.350101
1429.301996,-10288.862594,-3677.258390,-1036.288319
1429.302307,-8068.244768,-3524.039291,592.164754
1429.302618,-10955.047942,-2374.896044,1850.514855
1429.302929,-12583.501014,-612.876398,1776.494261
1429.303241,-12731.542202,-459.657299,1628.453072
1429.303552,-10214.842000,1532.190996,2960.823768
1429.303863,-8142.265362,3983.696590,1332.370696
1429.304175,-8068.244768,5132.839837,-2368.659014
1429.304486,-6069.688724,6205.373534,-5477.523971
1429.304797,-3923.091493,5745.716235,-3997.112087
1429.305109,-4737.318029,4826.401637,-3034.844362
1429.305420,-10288.862594,3753.867940,-1628.453072
1429.305731,-14285.974681,1762.019645,148.041188
1429.306043,-13175.665768,-306.438199,3182.885551
1429.306354,-11399.171507,0.000000,4811.338623
1429.306665,-9474.636058,842.705048,3404.947333
1429.306977,-6513.812290,153.219100,-1184.329507
1429.307288,-1850.514855,-306.438199,-2590.720797
1429.307599,-740.205942,1608.800546,-2294.638420
1429.307911,-2294.638420,1608.800546,-2442.679609
1429.308222,-7402.059420,766.095498,-1628.453072
1429.308533,-10955.047942,-2681.334243,962.267725
1429.308845,-11103.089130,-3370.820191,4293.194464
1429.309156,-12583.501014,-2451.505594,4367.215058
1429.309467,-11621.233289,-2068.457845,1998.556043
1429.309778,-9252.574275,-1991.848295,518.144159
1429.310090,-5773.606348,-2374.896044,666.185348
1429.310401,-5625.565159,76.609550,740.205942
1429.310712,-7624.121203,995.924147,1110.308913
1429.311024,-9770.718434,-919.314598,1184.329507
1429.311335,-9548.656652,-2451.505594,3478.967927
1429.311646,-8882.471304,-1149.143247,2664.741391
1429.311958,-8216.285956,0.000000,-0.000000
1429.312269,-6587.832884,-2451.505594,-2368.659014
1429.312580,-4589.276840,-3753.867940,-2812.782580
1429.312892,-5625.565159,-3983.696590,-1258.350101
1429.313203,-10732.986159,-3447.429741,-0.000000
1429.313514,-15618.345376,-2834.553343,1924.535449
1429.313826,-16580.613101,-1838.629195,4219.173869
1429.314137,-15840.407159,-1149.143247,5921.647536
1429.314448,-13767.830521,-1225.752797,4219.173869
1429.314760,-9992.780217,306.438199,518.144159
1429.315071,-6809.894666,2604.724693,-3404.947333
1429.315382,-2590.720797,3524.039291,-3256.906145
1429.315694,-2886.803174,2911.162892,-3701.029710
1429.316005,-7550.100608,1685.410096,-2590.720797
1429.316316,-12509.480420,0.000000,-962.267725
1429.316627,-14211.954086,-689.485948,1850.514855
1429.316939,-14804.118840,153.219100,3923.091493
1429.317250,-15988.448347,229.828649,2738.761985
1429.317561,-12731.542202,-919.314598,1480.411884
1429.317873,-7402.059420,-842.705048,740.205942
1429.318184,-4293.194464,766.095498,1110.308913
1429.318495,-5477.523971,1838.629195,-74.020594
1429.318807,-7994.224174,2604.724693,-1258.350101
1429.319118,-8512.368333,3600.648841,-370.102971
1429.319429,-7920.203579,4903.011187,1036.288319
1429.319741,-7328.038826,4826.401637,-148.041188
1429.320052,-7994.224174,2451.505594,-1924.535449
1429.320363,-4959.379811,1608.800546,-2664.741391
1429.320675,-3627.009116,2068.457845,-1702.473667
1429.320986,-6217.729913,2221.676944,-74.020594
1429.321297,-10140.821405,1302.362347,518.144159
1429.321609,-10881.027347,0.000000,2812.782580
1429.321920,-9696.697840,-1072.533697,4515.256246
1429.322231,-9030.512492,383.047749,4293.194464
1429.322543,-7772.162391,1149.143247,518.144159
1429.322854,-5403.503377,766.095498,-2368.659014
1429.323165,-2146.597232,-536.266849,-2072.576638
1429.323477,-2590.720797,-2451.505594,-2294.638420
1429.323788,-6883.915261,-2834.553343,-1554.432478
1429.324099,-9918.759623,-3370.820191,-0.000000
1429.324410,-11769.274478,-4290.134789,2664.741391
1429.324722,-12731.542202,-3600.648841,5181.441594
1429.325033,-12435.459826,-3140.991542,4737.318029
1429.325344,-11991.336260,-3217.601092,2072.576638
1429.325656,-8142.265362,-2757.943793,1184.329507
1429.325967,-5033.400406,-995.924147,-444.123565
1429.326278,-6365.771101,612.876398,-962.267725
1429.326590,-8438.347739,-612.876398,-1702.473667
1429.326901,-9474.636058,-3217.601092,-1258.350101
1429.327212,-9696.697840,-2068.457845,888.247130
1429.327524,-11769.274478,-1225.752797,1110.308913
1429.327835,-13249.686362,-1225.752797,-296.082377
1429.328146,-12509.480420,-1915.238745,-1776.494261
1429.328458,-10955.047942,-1608.800546,-888.247130
1429.328769,-10807.006753,-842.705048,444.123565
1429.329080,-13101.645173,229.828649,740.205942
1429.329392,-14804.118840,1532.190996,1554.432478
1429.329703,-13027.624579,1149.143247,3849.070898
1429.330014,-9696.697840,1149.143247,4737.318029
1429.330326,-8142.265362,1149.143247,2294.638420
1429.330637,-7402.059420,1072.533697,-1850.514855
1429.330948,-4737.318029,2145.067394,-3997.112087
1429.331259,-3849.070898,2604.724693,-3627.009116
1429.331571,-8290.306550,4136.915689,-3256.906145
1429.331882,-13471.748144,2681.334243,-1554.432478
1429.332193,-14508.036463,1455.581446,1184.329507
1429.332505,-12509.480420,995.924147,5551.544565
1429.332816,-10732.986159,1149.143247,5995.668130
1429.333127,-8586.388927,459.657299,2516.700203
1429.333439,-3701.029710,1302.362347,592.164754
1429.333750,-1332.370696,2145.067394,-444.123565
1429.334061,-222.061783,2528.115143,-592.164754
1429.334373,-1998.556043,3677.258390,-2072.576638
1429.334684,-7328.038826,1302.362347,-962.267725
1429.334995,-9548.656652,-689.485948,2368.659014
1429.335307,-8956.491898,-536.266849,3404.947333
1429.335618,-9178.553681,383.047749,2146.597232
1429.335929,-8290.306550,-1378.971896,740.205942
1429.336241,-4145.153275,-2604.724693,-0.000000
1429.336552,-2886.803174,153.219100,-222.061783
1429.336863,-6143.709319,1225.752797,-0.000000
1429.337175,-9622.677246,0.000000,1036.288319
1429.337486,-11695.253884,-689.485948,3627.009116
1429.337797,-11547.212695,153.219100,4145.153275
1429.338108,-9474.636058,-306.438199,2442.679609
1429.338420,-7031.956449,-1149.143247,-1036.288319
1429.338731,-5699.585753,-1838.629195,-2516.700203
1429.339042,-2960.823768,-2757.943793,-1702.473667
1429.339354,-5403.503377,-3447.429741,-2146.597232
1429.339665,-11843.295072,-2757.943793,370.102971
1429.339976,-14952.160028,-2068.457845,1850.514855
1429.340288,-16210.510130,-2528.115143,3404.947333
1429.340599,-15692.365970,-1302.362347,4145.153275
1429.340910,-14582.057057,459.657299,1480.411884
1429.341222,-11547.212695,0.000000,-1850.514855
1429.341533,-7402.059420,-383.047749,-2590.720797
1429.341844,-6217.729913,1838.629195,-1924.535449
1429.342156,-8216.285956,2374.896044,-1850.514855
1429.342467,-11769.274478,536.266849,-1628.453072
1429.342778,-12879.583391,-612.876398,148.041188
1429.343090,-11917.315666,306.438199,2516.700203
1429.343401,-11917.315666,1378.971896,1998.556043
1429.343712,-12731.542202,-1149.143247,148.041188
1429.344024,-11177.109724,-2374.896044,-962.267725
1429.344335,-7772.162391,-229.828649,222.061783
1429.344646,-8364.327145,1302.362347,444.123565
1429.344957,-11103.089130,919.314598,-0.000000
1429.345269,-11695.253884,306.438199,666.185348
1429.345580,-8882.471304,1455.581446,2664.741391
1429.345891,-6661.853478,2145.067394,2664.741391
1429.346203,-5477.523971,2451.505594,148.041188
1429.346514,-5921.647536,1685.410096,-2072.576638
1429.346825,-2886.803174,1378.971896,-370.102971
1429.347137,-592.164754,2757.943793,-74.020594
1429.347448,-5403.503377,2911.162892,-222.061783
1429.347759,-10362.883188,1991.848295,740.205942
1429.348071,-11769.274478,536.266849,2368.659014
1429.348382,-8586.388927,842.705048,4071.132681
1429.348693,-6217.729913,766.095498,2960.823768
1429.349005,-6513.812290,-1762.019645,-0.000000
1429.349316,-5033.400406,-3370.820191,-1480.411884
1429.349627,-2738.761985,-2987.772442,-814.226536
1429.349939,-3775.050304,-1838.629195,-888.247130
1429.350250,-7994.224174,-2451.505594,1258.350101
1429.350561,-11473.192101,-4519.963438,2368.659014
1429.350873,-11695.253884,-4596.572988,4071.132681
1429.351184,-9770.718434,-3370.820191,4515.256246
1429.351495,-9622.677246,-1225.752797,1184.329507
1429.351806,-9104.533087,306.438199,-1258.350101
1429.352118,-6661.853478,995.924147,-2072.576638
1429.352429,-6513.812290,1149.143247,-1628.453072
1429.352740,-9474.636058,1149.143247,-444.123565
1429.353052,-13915.871710,1455.581446,-518.144159
1429.353363,-14137.933492,1072.533697,888.247130
1429.353674,-12953.603985,153.219100,1184.329507
1429.353986,-11843.295072,-383.047749,740.205942
1429.354297,-10436.903782,-1762.019645,-1702.473667
1429.354608,-8956.491898,-2451.505594,-2664.741391
1429.354920,-7254.018232,-612.876398,-592.164754
1429.355231,-9474.636058,0.000000,-0.000000
1429.355542,-13175.665768,-153.219100,1924.535449
1429.355854,-14434.015869,-1149.143247,2516.700203
1429.356165,-13619.789333,229.828649,3701.029710
1429.356476,-12287.418637,1685.410096,3182.885551
1429.356788,-10288.862594,1991.848295,296.082377
1429.357099,-8364.327145,1532.190996,-3330.926739
1429.357410,-4959.379811,2451.505594,-3182.885551
1429.357722,-4589.276840,3370.820191,-1776.494261
1429.358033,-8808.450710,2374.896044,-962.267725
1429.358344,-13101.645173,153.219100,-0.000000
1429.358655,-12879.583391,-383.047749,2590.720797
1429.358967,-10140.821405,229.828649,4589.276840
1429.359278,-8216.285956,459.657299,3552.988522
1429.359589,-5477.523971,-612.876398,296.082377
1429.359901,-4219.173869,-1302.362347,-518.144159
1429.360212,-3627.009116,-306.438199,1480.411884
1429.360523,-2146.597232,2145.067394,148.041188
1429.360835,-6957.935855,2681.334243,518.144159
1429.361146,-9400.615463,-1149.143247,2294.638420
1429.361457,-8956.491898,-2451.505594,3478.967927
1429.361769,-6957.935855,612.876398,3330.926739
1429.362080,-5773.606348,1991.848295,-0.000000
1429.362391,-5847.626942,383.047749,-1110.308913
1429.362703,-2220.617826,-306.438199,-1406.391290
1429.363014,-3923.091493,153.219100,-814.226536
1429.363325,-8290.306550,-2298.286494,888.247130
1429.363637,-11399.171507,-3753.867940,2294.638420
1429.363948,-13915.871710,-3677.258390,2960.823768
1429.364259,-11917.315666,-2068.457845,2960.823768
1429.364571,-10066.800811,-2221.676944,1110.308913
1429.364882,-9326.594869,-2834.553343,-1702.473667
1429.365193,-6365.771101,-1838.629195,-2590.720797
1429.365504,-5329.482782,-842.705048,-2664.741391
1429.365816,-8364.327145,-1915.238745,-1110.308913
1429.366127,-11991.336260,-153.219100,518.144159
1429.366438,-14211.954086,536.266849,1110.308913
1429.366750,-13545.768739,-383.047749,2368.659014
1429.367061,-12435.459826,689.485948,2220.617826
1429.367372,-11399.171507,1455.581446,-148.041188
1429.367684,-9326.594869,1455.581446,-3627.009116
1429.367995,-7994.224174,1455.581446,-2442.679609
1429.368306,-9474.636058,995.924147,-1406.391290
1429.368618,-12139.377449,229.828649,-444.123565
1429.368929,-14582.057057,-1455.581446,-222.061783
1429.369240,-15322.262999,-1685.410096,1258.350101
1429.369552,-11991.336260,0.000000,2220.617826
1429.369863,-10214.842000,1072.533697,518.144159
1429.370175,-9696.697840,-229.828649,-1036.288319
1429.370486,-5625.565159,-459.657299,-74.020594
1429.370798,-4885.359217,459.657299,222.061783
1429.371109,-7698.141797,1455.581446,2442.679609
1429.371421,-10658.965565,995.924147,1480.411884
1429.371732,-11621.233289,1149.143247,2072.576638
1429.372044,-9474.636058,1838.629195,3849.070898
1429.372355,-7402.059420,1991.848295,2590.720797
1429.372667,-5921.647536,1302.362347,-444.123565
1429.372979,-5551.544565,2145.067394,-2294.638420
1429.373290,-2590.720797,2681.334243,-962.267725
1429.373602,-1924.535449,2834.553343,-518.144159
1429.373913,-7328.038826,2298.286494,-0.000000
1429.374225,-10362.883188,919.314598,2072.576638
1429.374536,-9844.739029,76.609550,3775.050304
1429.374848,-6957.935855,536.266849,5255.462188
1429.375160,-6883.915261,-229.828649,2368.659014
1429.375471,-7328.038826,-2298.286494,148.041188
1429.375783,-3478.967927,-2987.772442,222.061783
1429.376094,-2738.761985,-2145.067394,222.061783
1429.376406,-5477.523971,-2987.772442,1628.453072
1429.376717,-10288.862594,-3907.087040,1554.432478
1429.377029,-12731.542202,-3217.601092,2442.679609
1429.377341,-10955.047942,-2757.943793,3478.967927
1429.377652,-8512.368333,-1455.581446,2220.617826
1429.377964,-8734.430116,-1302.362347,-740.205942
1429.378275,-6957.935855,0.000000,-2442.679609
1429.378587,-5181.441594,-919.314598,-2516.700203
1429.378898,-7328.038826,-842.705048,-962.267725
1429.379210,-13027.624579,0.000000,-518.144159
1429.379522,-15914.427753,-1302.362347,296.082377
1429.379833,-14063.912898,-1455.581446,1480.411884
1429.380145,-13915.871710,-1532.190996,1628.453072
1429.380456,-12287.418637,-842.705048,-74.020594
1429.380768,-9770.718434,-383.047749,-3923.091493
1429.381079,-7476.080014,306.438199,-4145.153275
1429.381391,-6661.853478,1225.752797,-1850.514855
1429.381703,-9548.656652,1302.362347,-370.102971
1429.382014,-13323.706956,-842.705048,296.082377
1429.382326,-14137.933492,-995.924147,2146.597232
1429.382637,-12731.542202,0.000000,3182.885551
1429.382949,-12805.562797,1838.629195,962.267725
1429.383260,-11843.295072,2068.457845,-2146.597232
1429.383572,-8512.368333,1838.629195,-3182.885551
1429.383884,-6143.709319,459.657299,-1776.494261
1429.384195,-7254.018232,689.485948,-592.164754
1429.384507,-10807.006753,1378.971896,-0.000000
1429.384818,-10807.006753,612.876398,1480.411884
1429.385130,-9030.512492,459.657299,3256.906145
1429.385441,-7476.080014,612.876398,3627.009116
1429.385753,-6217.729913,919.314598,962.267725
1429.386065,-4737.318029,689.485948,-1184.329507
1429.386376,-1924.535449,459.657299,-148.041188
1429.386688,-1480.411884,1225.752797,666.185348
1429.386999,-6217.729913,1225.752797,1628.453072
1429.387311,-10807.006753,-1608.800546,2516.700203
1429.387622,-11621.233289,-2221.676944,4293.194464
1429.387934,-9030.512492,612.876398,5699.585753
1429.388245,-6735.874072,2145.067394,3034.844362
1429.388557,-6217.729913,1072.533697,-962.267725
1429.388869,-4441.235652,-1072.533697,-1924.535449
1429.389180,-1406.391290,383.047749,-1110.308913
1429.389492,-3256.906145,2604.724693,-444.123565
1429.389803,-8882.471304,306.438199,740.205942
1429.390115,-11843.295072,-2528.115143,2664.741391
1429.390426,-10288.862594,-3447.429741,4071.132681
1429.390738,-9178.553681,-3217.601092,4145.153275
1429.391050,-8734.430116,-3907.087040,1776.494261
1429.391361,-8438.347739,-4213.525239,-1406.391290
1429.391673,-7105.977043,-3524.039291,-1258.350101
1429.391984,-7772.162391,-2451.505594,-1184.329507
1429.392296,-9918.759623,-1149.143247,-222.061783
1429.392607,-13915.871710,-1072.533697,592.164754
1429.392919,-13989.892304,-1072.533697,1998.556043
1429.393231,-11843.295072,153.219100,2146.597232
1429.393542,-11473.192101,1991.848295,-74.020594
1429.393854,-10510.924376,1915.238745,-2220.617826
1429.394165,-7846.182985,995.924147,-3256.906145
1429.394477,-7031.956449,1225.752797,-2072.576638
1429.394788,-10066.800811,2374.896044,-1776.494261
1429.395100,-14656.077652,1225.752797,-666.185348
1429.395412,-16284.530724,0.000000,1184.329507
1429.395723,-14211.954086,-459.657299,2738.761985
1429.396035,-11769.274478,-383.047749,2220.617826
1429.396346,-9844.739029,-766.095498,-1184.329507
1429.396658,-7031.956449,-229.828649,-3849.070898
1429.396969,-4145.153275,1762.019645,-2960.823768
1429.397281,-5477.523971,2604.724693,-1406.391290
1429.397593,-9918.759623,2374.896044,-296.082377
1429.397904,-13027.624579,842.705048,1036.288319
1429.398216,-12731.542202,536.266849,3701.029710
1429.398527,-10288.862594,1838.629195,5033.400406
1429.398839,-7846.182985,2451.505594,1850.514855
1429.399150,-5773.606348,2451.505594,-1036.288319
1429.399462,-4145.153275,1455.581446,-1554.432478
1429.399774,-2368.659014,1455.581446,-518.144159
1429.400085,-4811.338623,3370.820191,-370.102971
1429.400397,-8512.368333,2834.553343,1554.432478
1429.400708,-9770.718434,229.828649,2590.720797
1429.401020,-8586.388927,-995.924147,4219.173869
1429.401331,-5773.606348,0.000000,3256.906145
1429.401643,-4589.276840,0.000000,444.123565
1429.401955,-2294.638420,-2757.943793,-814.226536
1429.402266,-1258.350101,-2987.772442,296.082377
1429.402578,-4293.194464,-2298.286494,1036.288319
1429.402889,-9178.553681,-2757.943793,2072.576638
1429.403201,-12731.542202,-3370.820191,3330.926739
1429.403512,-12361.439231,-1915.238745,4145.153275
1429.403824,-11547.212695,-842.705048,4071.132681
1429.404135,-9844.739029,-1225.752797,1406.391290
1429.404447,-7698.141797,-842.705048,-2146.597232
1429.404759,-4959.379811,76.609550,-2442.679609
1429.405070,-4737.318029,0.000000,-1628.453072
1429.405382,-9104.533087,-766.095498,-0.000000
1429.405693,-13101.645173,-1455.581446,666.185348
1429.406005,-13767.830521,-2757.943793,1776.494261
1429.406316,-13175.665768,-1991.848295,3478.967927
1429.406628,-12435.459826,-1072.533697,1924.535449
1429.406940,-12583.501014,-2298.286494,-1628.453072
1429.407251,-9474.636058,-1915.238745,-2590.720797
1429.407563,-7772.162391,459.657299,-2072.576638
1429.407874,-10140.821405,2374.896044,-1406.391290
1429.408186,-12065.356855,1838.629195,-962.267725
1429.408497,-13841.851115,0.000000,-222.061783
1429.408809,-11621.233289,919.314598,2738.761985
1429.409121,-9104.533087,2298.286494,3404.947333
1429.409432,-9844.739029,1225.752797,-222.061783
1429.409744,-9770.718434,1149.143247,-2442.679609
1429.410055,-7328.038826,2145.067394,-2812.782580
1429.410367,-7846.182985,2834.553343,-2886.803174
1429.410678,-11621.233289,2757.943793,-1850.514855
1429.410990,-14211.954086,459.657299,-444.123565
1429.411302,-12583.501014,-919.314598,2146.597232
1429.411613,-9770.718434,-536.266849,3997.112087
1429.411925,-6957.935855,0.000000,2294.638420
1429.412236,-5107.421000,-153.219100,-296.082377
1429.412548,-3552.988522,-919.314598,-296.082377
1429.412859,148.041188,-229.828649,444.123565
1429.413171,-740.205942,2451.505594,-518.144159
1429.413483,-7698.141797,1455.581446,888.247130
1429.413794,-11991.336260,-995.924147,2960.823768
1429.414106,-11103.089130,-842.705048,4663.297435
1429.414417,-8956.491898,2528.115143,4071.132681
1429.414729,-7328.038826,3064.381992,1702.473667
1429.415040,-5181.441594,153.219100,-1110.308913
1429.415352,-2516.700203,0.000000,-1184.329507
1429.415664,-1776.494261,229.828649,-814.226536
1429.415975,-4959.379811,766.095498,-148.041188
1429.416287,-9474.636058,-536.266849,1924.535449
1429.416598,-11251.130318,-1225.752797,2886.803174
1429.416910,-10955.047942,-3447.429741,3478.967927
1429.417221,-9326.594869,-4596.572988,2738.761985
1429.417533,-8068.244768,-3830.477490,-0.000000
1429.417845,-6513.812290,-2604.724693,-888.247130
1429.418156,-7031.956449,-3064.381992,-740.205942
1429.418468,-10288.862594,-2298.286494,370.102971
1429.418779,-13471.748144,-1225.752797,1110.308913
1429.419091,-14878.139434,-536.266849,1480.411884
1429.419402,-13249.686362,1455.581446,2368.659014
1429.419714,-11843.295072,2987.772442,888.247130
1429.420025,-9770.718434,2221.676944,-1332.370696
1429.420337,-8068.244768,689.485948,-2738.761985
1429.420649,-7105.977043,919.314598,-2072.576638
1429.420960,-9104.533087,2528.115143,-962.267725
1429.421272,-14211.954086,1302.362347,-666.185348
1429.421583,-16284.530724,-459.657299,-148.041188
1429.421895,-15100.201217,-229.828649,1258.350101
1429.422206,-12583.501014,766.095498,2368.659014
1429.422518,-10214.842000,76.609550,1258.350101
1429.422830,-7698.141797,-1072.533697,-888.247130
1429.423141,-4737.318029,-995.924147,-1036.288319
1429.423453,-3849.070898,459.657299,-0.000000
1429.423764,-7846.182985,1915.238745,-518.144159
1429.424076,-11177.109724,2145.067394,-592.164754
1429.424387,-11917.315666,1608.800546,962.267725
1429.424699,-10140.821405,1838.629195,2294.638420
1429.425011,-8660.409521,3140.991542,1628.453072
1429.425322,-8290.306550,2528.115143,-444.123565
1429.425634,-5995.668130,0.000000,-814.226536
1429.425945,-2812.782580,-306.438199,444.123565
1429.426257,-3330.926739,1685.410096,-0.000000
1429.426568,-6587.832884,2374.896044,1332.370696
1429.426880,-10881.027347,-76.609550,1406.391290
1429.427192,-10140.821405,-995.924147,3330.926739
1429.427503,-6735.874072,766.095498,2886.803174
1429.427815,-5773.606348,0.000000,1332.370696
1429.428126,-5181.441594,-2451.505594,-444.123565
1429.428438,-3034.844362,-3294.210641,-222.061783
1429.428749,-1332.370696,-3983.696590,666.185348
1429.429061,-4959.379811,-4749.792088,1258.350101
1429.429373,-10955.047942,-4903.011187,2368.659014
1429.429684,-12731.542202,-3830.477490,2960.823768
1429.429996,-11473.192101,-2298.286494,3701.029710
1429.430307,-9844.739029,-1608.800546,2442.679609
1429.430619,-9992.780217,-995.924147,-370.102971
1429.430930,-8586.388927,459.657299,-2886.803174
1429.431242,-5995.668130,766.095498,-2442.679609
1429.431554,-7031.956449,1455.581446,-1628.453072
1429.431865,-11621.233289,689.485948,-370.102971
1429.432177,-14211.954086,-842.705048,888.247130
1429.432488,-13989.892304,-842.705048,1628.453072
1429.432800,-12731.542202,919.314598,1850.514855
1429.433111,-11695.253884,1915.238745,444.123565
1429.433423,-10732.986159,-995.924147,-1628.453072
1429.433735,-7846.182985,-1608.800546,-2146.597232
1429.434046,-7698.141797,0.000000,-444.123565
1429.434358,-11029.068536,1302.362347,-222.061783
1429.434669,-14211.954086,1149.143247,-592.164754
1429.434981,-15026.180623,1455.581446,-0.000000
1429.435292,-12287.418637,2298.286494,2368.659014
1429.435604,-10658.965565,2834.553343,1036.288319
1429.435915,-10362.883188,2145.067394,-1628.453072
1429.436227,-8364.327145,689.485948,-1924.535449
1429.436539,-5625.565159,536.266849,-0.000000
1429.436850,-6069.688724,995.924147,1480.411884
1429.437162,-10436.903782,306.438199,1998.556043
1429.437473,-13619.789333,306.438199,1628.453072
1429.437785,-10807.006753,1302.362347,3478.967927
1429.438096,-7550.100608,3753.867940,1776.494261
1429.438408,-4515.256246,3907.087040,-1184.329507
1429.438720,-3108.864956,1838.629195,-2812.782580
1429.439031,-2812.782580,-1302.362347,-888.247130
1429.439343,-370.102971,-1455.581446,-148.041188
1429.439654,-4737.318029,689.485948,814.226536
1429.439966,-10066.800811,-842.705048,2812.782580
1429.440277,-10732.986159,-1302.362347,4441.235652
1429.440589,-9918.759623,-1149.143247,6291.750507
1429.440901,-6587.832884,-1302.362347,3701.029710
1429.441212,-5699.585753,-1685.410096,1332.370696
1429.441524,-3923.091493,-2221.676944,-1406.391290
1429.441835,-1258.350101,-612.876398,-1554.432478
1429.442147,-3552.988522,-459.657299,-1110.308913
1429.442458,-7994.224174,-1991.848295,74.020594
1429.442770,-11399.171507,-3677.258390,2294.638420
1429.443082,-12361.439231,-3677.258390,2812.782580
1429.443393,-12287.418637,-2528.115143,3478.967927
1429.443705,-10807.006753,-2987.772442,1480.411884
1429.444016,-9252.574275,-4213.525239,-1036.288319
1429.444328,-6957.935855,-3907.087040,-666.185348
1429.444639,-7402.059420,-2987.772442,-740.205942
1429.444951,-10214.842000,-1225.752797,-74.020594
1429.445263,-13101.645173,-459.657299,-74.020594
1429.445574,-13693.809927,-459.657299,1554.432478
1429.445886,-13545.768739,459.657299,1998.556043
1429.446197,-12583.501014,1762.019645,592.164754
1429.446509,-11695.253884,1991.848295,-2812.782580
1429.446820,-9104.533087,1685.410096,-3478.967927
1429.447132,-7328.038826,2374.896044,-2590.720797
1429.447444,-9474.636058,2451.505594,-2516.700203
1429.447755,-13397.727550,1149.143247,-888.247130
1429.448067,-15766.386565,-229.828649,666.185348
1429.448378,-14359.995275,-153.219100,3182.885551
1429.448690,-12805.562797,536.266849,2664.741391
1429.449001,-11103.089130,76.609550,296.082377
1429.449313,-8438.347739,-459.657299,-2368.659014
1429.449625,-4441.235652,306.438199,-2220.617826
1429.449936,-3997.112087,2068.457845,-1332.370696
1429.450248,-8290.306550,2604.724693,-0.000000
1429.450559,-11103.089130,919.314598,1258.350101
1429.450871,-10584.944971,1532.190996,2812.782580
1429.451182,-7476.080014,3294.210641,4071.132681
1429.451494,-6809.894666,3907.087040,1850.514855
1429.451805,-6587.832884,2451.505594,-740.205942
1429.452117,-3256.906145,1608.800546,-1776.494261
1429.452429,-1332.370696,1991.848295,-666.185348
1429.452740,-2664.741391,3140.991542,-518.144159
1429.453052,-8660.409521,1302.362347,222.061783
1429.453363,-11177.109724,-1378.971896,2368.659014
1429.453675,-8512.368333,-2298.286494,4071.132681
1429.453986,-7698.141797,-2221.676944,3478.967927
1429.454298,-5403.503377,-2145.067394,1480.411884
1429.454610,-5329.482782,-4136.915689,-814.226536
1429.454921,-3552.988522,-4443.353888,740.205942
1429.455233,-3552.988522,-2604.724693,222.061783
1429.455544,-8438.347739,-2145.067394,1554.432478
1429.455856,-11473.192101,-2911.162892,3034.844362
1429.456167,-12805.562797,-2987.772442,4293.194464
1429.456479,-11547.212695,-2681.334243,4219.173869
1429.456791,-9178.553681,-1532.190996,2072.576638
1429.457102,-7920.203579,-1225.752797,-1110.308913
1429.457414,-5551.544565,-459.657299,-2516.700203
1429.457725,-5921.647536,-459.657299,-1702.473667
1429.458037,-9400.615463,-1149.143247,-1628.453072
1429.458348,-14508.036463,-1225.752797,-814.226536
1429.458660,-16358.551318,-153.219100,592.164754
1429.458972,-14656.077652,842.705048,1702.473667
1429.459283,-14063.912898,766.095498,1628.453072
1429.459595,-12583.501014,-612.876398,-444.123565
1429.459906,-8956.491898,-536.266849,-1702.473667
1429.460218,-7328.038826,1072.533697,-1332.370696
1429.460529,-8216.285956,2451.505594,-370.102971
1429.460841,-11843.295072,2145.067394,-74.020594
1429.461153,-13693.809927,919.314598,-0.000000
1429.461464,-12139.377449,766.095498,2368.659014
1429.461776,-11621.233289,1225.752797,1554.432478
1429.462087,-10658.965565,1838.629195,-444.123565
1429.462399,-9770.718434,1838.629195,-3034.844362
1429.462710,-6143.709319,1838.629195,-2368.659014
1429.463022,-5773.606348,1915.238745,-888.247130
1429.463334,-8364.327145,1532.190996,-0.000000
1429.463645,-11547.212695,842.705048,962.267725
1429.463957,-13027.624579,-153.219100,3108.864956
1429.464268,-8512.368333,1225.752797,4441.235652
1429.464580,-5181.441594,2451.505594,2590.720797
1429.464891,-4737.318029,689.485948,148.041188
1429.465203,-3701.029710,-1915.238745,-962.267725
1429.465515,-962.267725,0.000000,-518.144159
1429.465826,-2664.741391,3447.429741,-888.247130
1429.466138,-7550.100608,3217.601092,296.082377
1429.466449,-10732.986159,536.266849,1406.391290
1429.466761,-9918.759623,-383.047749,3256.906145
1429.467072,-6587.832884,0.000000,3701.029710
1429.467384,-6217.729913,-612.876398,1332.370696
1429.467695,-5625.565159,-1302.362347,-1184.329507
1429.468007,-3330.926739,-1455.581446,-1776.494261
1429.468319,-3404.947333,-2068.457845,-592.164754
1429.468630,-6735.874072,-2451.505594,-0.000000
1429.468942,-10955.047942,-2451.505594,1258.350101
1429.469253,-12361.439231,-3140.991542,2368.659014
1429.469565,-12805.562797,-3140.991542,3478.967927
1429.469876,-10732.986159,-2374.896044,2294.638420
1429.470188,-9770.718434,-2374.896044,-0.000000
1429.470500,-8216.285956,-3064.381992,-1036.288319
1429.470811,-6957.935855,-2374.896044,-814.226536
1429.471123,-9696.697840,-995.924147,-888.247130
1429.471434,-12435.459826,0.000000,296.082377
1429.471746,-14359.995275,-995.924147,1110.308913
1429.472058,-13471.748144,-1225.752797,2886.803174
1429.472369,-13175.665768,0.000000,1998.556043
1429.472681,-12953.603985,306.438199,-592.164754
1429.472992,-10140.821405,1072.533697,-2516.700203
1429.473304,-8142.265362,1838.629195,-2220.617826
1429.473616,-8438.347739,2221.676944,-1628.453072
1429.473927,-11843.295072,1685.410096,-1258.350101
1429.474239,-14359.995275,1149.143247,-222.061783
1429.474550,-13175.665768,2068.457845,1924.535449
1429.474862,-10362.883188,2298.286494,2886.803174
1429.475174,-9770.718434,1685.410096,1110.308913
1429.475485,-8142.265362,-229.828649,-2220.617826
1429.475797,-5699.585753,0.000000,-2072.576638
1429.476108,-5329.482782,1455.581446,-148.041188
1429.476420,-6883.915261,2451.505594,-370.102971
1429.476732,-10436.903782,3447.429741,888.247130
1429.477043,-11769.274478,0.000000,2664.741391
1429.477355,-10066.800811,306.438199,4663.297435
1429.477666,-6661.853478,2911.162892,3256.906145
1429.477978,-6291.750507,3524.039291,-222.061783
1429.478289,-4515.256246,2145.067394,-888.247130
1429.478601,-814.226536,2451.505594,-1702.473667
1429.478913,-1110.308913,3600.648841,-888.247130
1429.479224,-7031.956449,1762.019645,-0.000000
1429.479536,-10066.800811,612.876398,1332.370696
1429.479847,-9030.512492,-383.047749,3256.906145
1429.480159,-7772.162391,-306.438199,3627.009116
1429.480471,-7624.121203,-2374.896044,2220.617826
1429.480782,-7179.997637,-3600.648841,296.082377
1429.481094,-4219.173869,-2834.553343,-370.102971
1429.481405,-3478.967927,-2145.067394,-74.020594
1429.481717,-4959.379811,-2374.896044,1110.308913
1429.482029,-10955.047942,-3447.429741,1036.288319
1429.482340,-13397.727550,-4136.915689,3627.009116
1429.482652,-11251.130318,-3600.648841,3182.885551
1429.482963,-10140.821405,-1225.752797,2664.741391
1429.483275,-10732.986159,-1378.971896,-296.082377
1429.483587,-9474.636058,-2298.286494,-2368.659014
1429.483898,-7476.080014,-1838.629195,-2368.659014
1429.484210,-8512.368333,536.266849,-1110.308913
1429.484521,-11991.336260,536.266849,370.102971
1429.484833,-15026.180623,-1532.190996,592.164754
1429.485144,-15026.180623,-1685.410096,1702.473667
1429.485456,-11917.315666,-766.095498,2590.720797
1429.485768,-9992.780217,-766.095498,148.041188
1429.486079,-9548.656652,-842.705048,-2146.597232
1429.486391,-6957.935855,-766.095498,-1480.411884
1429.486702,-7254.018232,-1149.143247,-1184.329507
1429.487014,-11029.068536,76.609550,-444.123565
1429.487326,-15026.180623,1072.533697,148.041188
1429.487637,-15396.283594,1072.533697,1480.411884
1429.487949,-12657.521608,1072.533697,2886.803174
1429.488260,-11251.130318,2298.286494,666.185348
1429.488572,-9030.512492,3064.381992,-1850.514855
1429.488884,-5699.585753,2834.553343,-2738.761985
1429.489195,-3108.864956,2987.772442,-1184.329507
1429.489507,-5995.668130,2757.943793,-740.205942
1429.489818,-11103.089130,1838.629195,444.123565
1429.490130,-11917.315666,995.924147,962.267725
1429.490442,-10584.944971,1225.752797,3256.906145
1429.490753,-8068.244768,1532.190996,3404.947333
1429.491065,-6513.812290,306.438199,962.267725
1429.491376,-6365.771101,-1149.143247,-1332.370696
1429.491688,-2960.823768,-459.657299,-592.164754
1429.491999,-1036.288319,2221.676944,-0.000000
1429.492311,-5699.585753,3064.381992,222.061783
1429.492623,-9844.739029,1149.143247,2146.597232
1429.492934,-9696.697840,-689.485948,3849.070898
1429.493246,-7402.059420,536.266849,4145.153275
1429.493557,-5995.668130,3600.648841,2886.803174
1429.493869,-5847.626942,1838.629195,-296.082377
1429.494181,-4959.379811,-459.657299,-2294.638420
1429.494492,-3182.885551,0.000000,-1628.453072
1429.494804,-4811.338623,-689.485948,-740.205942
1429.495115,-9696.697840,-2987.772442,222.061783
1429.495427,-13101.645173,-4213.525239,2072.576638
1429.495739,-12213.398043,-4749.792088,3034.844362
1429.496050,-10658.965565,-4979.620737,3775.050304
1429.496362,-9474.636058,-3677.258390,1998.556043
1429.496673,-7772.162391,-3217.601092,-814.226536
1429.496985,-6809.894666,-2834.553343,-1480.411884
1429.497297,-7179.997637,-1608.800546,-518.144159
1429.497608,-9548.656652,383.047749,592.164754
1429.497920,-13175.665768,0.000000,1184.329507
1429.498231,-13989.892304,-536.266849,1924.535449
1429.498543,-12361.439231,536.266849,3256.906145
1429.498854,-12065.356855,766.095498,1258.350101
1429.499166,-11621.233289,995.924147,-1554.432478
1429.499478,-9326.594869,459.657299,-2812.782580
1429.499789,-8438.347739,1378.971896,-2072.576638
1429.500101,-11029.068536,1302.362347,-1184.329507
1429.500412,-14211.954086,1072.533697,-592.164754
1429.500724,-14582.057057,0.000000,592.164754
1429.501036,-12361.439231,842.705048,2442.679609
1429.501347,-10066.800811,842.705048,2368.659014
1429.501659,-9474.636058,-612.876398,-962.267725
1429.501970,-7402.059420,-689.485948,-1184.329507
1429.502282,-6069.688724,-612.876398,222.061783
1429.502594,-5551.544565,1149.143247,296.082377
1429.502905,-7476.080014,2451.505594,740.205942
1429.503217,-11991.336260,612.876398,1110.308913
1429.503528,-12287.418637,1149.143247,3997.112087
1429.503840,-8808.450710,2145.067394,4293.194464
1429.504152,-7179.997637,3524.039291,666.185348
1429.504463,-5403.503377,2757.943793,-1702.473667
1429.504775,-2368.659014,1762.019645,-2442.679609
1429.505086,-1036.288319,2757.943793,-1776.494261
1429.505398,-4441.235652,2681.334243,-1702.473667
1429.505710,-8660.409521,995.924147,370.102971
1429.506021,-9474.636058,-1532.190996,2960.823768
1429.506333,-8660.409521,-1455.581446,5773.606348
1429.506644,-8438.347739,-3447.429741,4367.215058
1429.506956,-8216.285956,-3217.601092,1850.514855
1429.507267,-4885.359217,-2145.067394,-0.000000
1429.507579,-2220.617826,-842.705048,-962.267725
1429.507891,-3256.906145,-1302.362347,-1480.411884
1429.508202,-7328.038826,0.000000,-814.226536
1429.508514,-11103.089130,-1608.800546,740.205942
1429.508825,-11843.295072,-2757.943793,2664.741391
1429.509137,-11103.089130,-1072.533697,3256.906145
1429.509449,-11177.109724,-306.438199,1036.288319
1429.509760,-10436.903782,-2451.505594,-1036.288319
1429.510072,-7254.018232,-4060.306139,-1702.473667
1429.510383,-7105.977043,-1991.848295,-1406.391290
1429.510695,-11029.068536,-383.047749,-1332.370696
1429.511007,-13693.809927,-1762.019645,-296.082377
1429.511318,-15248.242405,-2068.457845,370.102971
1429.511630,-13397.727550,-153.219100,2146.597232
1429.511941,-11843.295072,383.047749,1184.329507
1429.512253,-11621.233289,-1149.143247,-1702.473667
1429.512565,-8808.450710,76.609550,-2664.741391
1429.512876,-6513.812290,1149.143247,-1258.350101
1429.513188,-8068.244768,995.924147,-814.226536
1429.513499,-12139.377449,229.828649,1036.288319
1429.513811,-15248.242405,-919.314598,1258.350101
1429.514122,-13397.727550,-536.266849,3182.885551
1429.514434,-12065.356855,1378.971896,2368.659014
1429.514746,-11473.192101,2451.505594,74.020594
1429.515057,-9474.636058,1149.143247,-2590.720797
1429.515369,-5107.421000,1838.629195,-2072.576638
1429.515680,-4737.318029,3677.258390,-740.205942
1429.515992,-8290.306550,4060.306139,-148.041188
1429.516304,-10658.965565,2528.115143,518.144159
1429.516615,-9696.697840,995.924147,2590.720797
1429.516927,-6587.832884,229.828649,4071.132681
1429.517238,-6291.750507,842.705048,3256.906145
1429.517550,-7846.182985,0.000000,-0.000000
1429.517862,-5551.544565,-459.657299,-518.144159
1429.518173,-1406.391290,1225.752797,888.247130
1429.518485,-2886.803174,1378.971896,1406.391290
1429.518796,-8438.347739,-229.828649,1628.453072
1429.519108,-11621.233289,-1915.238745,2368.659014
1429.519420,-8956.491898,229.828649,3701.029710
1429.519731,-6513.812290,2834.553343,3256.906145
1429.520043,-6735.874072,1302.362347,740.205942
1429.520354,-6365.771101,0.000000,-1554.432478
1429.520666,-2960.823768,76.609550,-1110.308913
1429.520977,-1776.494261,-1149.143247,-296.082377
1429.521289,-6439.791695,-1991.848295,1036.288319
1429.521601,-11621.233289,-2757.943793,1776.494261
1429.521912,-12287.418637,-3370.820191,3182.885551
1429.522224,-10658.965565,-3524.039291,3404.947333
1429.522535,-9474.636058,-2604.724693,1480.411884
1429.522847,-8882.471304,-1608.800546,-1554.432478
1429.523159,-7550.100608,-2528.115143,-2738.761985
1429.523470,-6439.791695,-2757.943793,-1554.432478
1429.523782,-7698.141797,-1225.752797,-444.123565
1429.524093,-13249.686362,-2528.115143,-0.000000
1429.524405,-15840.407159,-3600.648841,1258.350101
1429.524717,-14211.954086,-2221.676944,2516.700203
1429.525028,-14285.974681,0.000000,1554.432478
1429.525340,-13101.645173,1302.362347,-444.123565
1429.525651,-10807.006753,995.924147,-2442.679609
1429.525963,-8660.409521,459.657299,-1850.514855
1429.526275,-7550.100608,1838.629195,-740.205942
1429.526586,-10066.800811,2451.505594,-962.267725
1429.526898,-12953.603985,2221.676944,-740.205942
1429.527209,-12065.356855,1149.143247,962.267725
1429.527521,-9474.636058,766.095498,2220.617826
1429.527833,-9992.780217,689.485948,-0.000000
1429.528144,-10214.842000,0.000000,-2442.679609
1429.528456,-7105.977043,76.609550,-2368.659014
1429.528767,-6735.874072,459.657299,-1184.329507
1429.529079,-8808.450710,919.314598,592.164754
1429.529390,-11547.212695,-536.266849,370.102971
1429.529702,-12361.439231,-1378.971896,2960.823768
1429.530014,-11251.130318,536.266849,5699.585753
1429.530325,-7550.100608,3677.258390,3627.009116
1429.530637,-6587.832884,4519.963438,-148.041188
1429.530948,-4515.256246,2834.553343,-1776.494261
1429.531260,0.000000,2528.115143,-1554.432478
1429.531572,-296.082377,4366.744339,-1406.391290
1429.531883,-6587.832884,4136.915689,-1184.329507
1429.532195,-11769.274478,383.047749,888.247130
1429.532506,-10066.800811,-919.314598,3849.070898
1429.532818,-8290.306550,229.828649,4145.153275
1429.533130,-7328.038826,-766.095498,2738.761985
1429.533441,-6439.791695,-3447.429741,-444.123565
1429.533753,-3849.070898,-2911.162892,-740.205942
1429.534064,-1480.411884,-766.095498,-740.205942
1429.534376,-4811.338623,306.438199,-962.267725
1429.534688,-11251.130318,-995.924147,1628.453072
1429.534999,-12657.521608,-2451.505594,3404.947333
1429.535311,-10807.006753,-2451.505594,4293.194464
1429.535622,-8512.368333,-995.924147,3256.906145
1429.535934,-8660.409521,-229.828649,148.041188
1429.536245,-8216.285956,-1838.629195,-1924.535449
1429.536557,-6217.729913,-2834.553343,-1480.411884
1429.536869,-7105.977043,-1149.143247,-888.247130
1429.537180,-11177.109724,-229.828649,74.020594
1429.537492,-14508.036463,-2681.334243,1332.370696
1429.537803,-15174.221811,-3064.381992,2220.617826
1429.538115,-12953.603985,-1149.143247,2886.803174
1429.538427,-11325.150913,-1072.533697,444.123565
1429.538738,-10288.862594,-2221.676944,-1998.556043
1429.539050,-7328.038826,-536.266849,-3404.947333
1429.539361,-7402.059420,1378.971896,-2442.679609
1429.539673,-10584.944971,1378.971896,-1036.288319
1429.539985,-14211.954086,1149.143247,-666.185348
1429.540296,-15174.221811,766.095498,1850.514855
1429.540608,-13545.768739,612.876398,4071.132681
1429.540919,-11251.130318,689.485948,3108.864956
1429.541231,-9178.553681,1685.410096,-444.123565
1429.541543,-7550.100608,2068.457845,-2664.741391
1429.541854,-4367.215058,2068.457845,-1924.535449
1429.542166,-6439.791695,2757.943793,-1998.556043
1429.542477,-11621.233289,3370.820191,-1184.329507
1429.542789,-13249.686362,2068.457845,666.185348
1429.543100,-11251.130318,842.705048,3108.864956
1429.543412,-8512.368333,459.657299,3627.009116
1429.543724,-5995.668130,536.266849,1628.453072
1429.544035,-4441.235652,-1072.533697,-592.164754
1429.544347,-1406.391290,-1072.533697,592.164754
1429.544658,-518.144159,842.705048,888.247130
1429.544970,-6143.709319,2374.896044,962.267725
1429.545282,-10807.006753,1991.848295,1332.370696
1429.545593,-11325.150913,1915.238745,2294.638420
1429.545905,-7772.162391,2834.553343,3775.050304
1429.546216,-5625.565159,2145.067394,2220.617826
1429.546528,-6587.832884,153.219100,-1036.288319
1429.546840,-3108.864956,-1149.143247,-1924.535449
1429.547151,-592.164754,-459.657299,-592.164754
1429.547463,-4737.318029,-1225.752797,-962.267725
1429.547774,-9918.759623,-1762.019645,1110.308913
1429.548086,-13545.768739,-3830.477490,2886.803174
1429.548398,-11473.192101,-4673.182538,4737.318029
1429.548709,-9844.739029,-3753.867940,4071.132681
1429.549021,-9474.636058,-3677.258390,1332.370696
1429.549332,-7772.162391,-3830.477490,-962.267725
1429.549644,-6217.729913,-3447.429741,-1998.556043
1429.549956,-6069.688724,-1455.581446,-1406.391290
1429.550267,-10510.924376,995.924147,-814.226536
1429.550579,-14434.015869,0.000000,148.041188
1429.550890,-14730.098246,-2145.067394,2072.576638
1429.551202,-13767.830521,-2451.505594,2812.782580
1429.551513,-10732.986159,76.609550,2220.617826
1429.551825,-11103.089130,0.000000,-1998.556043
1429.552137,-8882.471304,153.219100,-2590.720797
1429.552448,-7846.182985,2451.505594,-2590.720797
1429.552760,-10436.903782,3753.867940,-2738.761985
1429.553071,-14063.912898,4290.134789,-2368.659014
1429.553383,-15248.242405,2681.334243,-1702.473667
1429.553695,-13915.871710,1378.971896,-0.000000
1429.554006,-11103.089130,229.828649,962.267725
1429.554318,-10955.047942,-1225.752797,-1184.329507
1429.554629,-9252.574275,-1608.800546,-1332.370696
1429.554941,-5181.441594,-766.095498,370.102971
1429.555253,-6365.771101,-842.705048,2516.700203
1429.555564,-8956.491898,-2068.457845,3701.029710
1429.555876,-11621.233289,-1532.190996,1554.432478
1429.556187,-11325.150913,-459.657299,3923.091493
1429.556499,-8882.471304,1608.800546,4367.215058
1429.556811,-8142.265362,2681.334243,814.226536
1429.557122,-7328.038826,3294.210641,-2146.597232
1429.557434,-4515.256246,2298.286494,-1776.494261
1429.557745,-296.082377,2451.505594,370.102971
1429.558057,-3108.864956,3370.820191,888.247130
1429.558368,-9548.656652,1762.019645,1554.432478
1429.558680,-10362.883188,459.657299,2738.761985
1429.558992,-6957.935855,2298.286494,4737.318029
1429.559303,-4737.318029,3907.087040,3404.947333
1429.559615,-4219.173869,842.705048,148.041188
1429.559926,-2664.741391,-2374.896044,-1406.391290
1429.560238,-888.247130,-2145.067394,148.041188
1429.560550,-1480.411884,-995.924147,1628.453072
1429.560861,-7994.224174,-1915.238745,1184.329507
1429.561173,-14063.912898,-3370.820191,1924.535449
1429.561484,-13767.830521,-2451.505594,3330.926739
1429.561796,-11103.089130,-995.924147,3256.906145
1429.562108,-10658.965565,0.000000,296.082377
1429.562419,-9474.636058,383.047749,-1554.432478
1429.562731,-7105.977043,-2068.457845,-1776.494261
1429.563042,-6587.832884,-2374.896044,-444.123565
1429.563354,-9474.636058,536.266849,962.267725
1429.563666,-13397.727550,0.000000,1258.350101
1429.563977,-14508.036463,-2757.943793,2220.617826
1429.564289,-12805.562797,-2911.162892,2664.741391
1429.564600,-11029.068536,-306.438199,1184.329507
1429.564912,-9474.636058,153.219100,-1924.535449
1429.565223,-8216.285956,-1455.581446,-3404.947333
1429.565535,-6809.894666,-1915.238745,-2072.576638
1429.565847,-8660.409521,-842.705048,-1628.453072
1429.566158,-12583.501014,-153.219100,-518.144159
1429.566470,-15692.365970,-842.705048,-740.205942
1429.566781,-14878.139434,-842.705048,1702.473667
1429.567093,-12139.377449,536.266849,2886.803174
1429.567405,-11325.150913,995.924147,-74.020594
1429.567716,-9844.739029,919.314598,-2738.761985
1429.568028,-6291.750507,2068.457845,-2590.720797
1429.568339,-5107.421000,2757.943793,-1184.329507
1429.568651,-7624.121203,1991.848295,-222.061783
1429.568963,-12287.418637,459.657299,-518.144159
1429.569274,-11843.295072,0.000000,2072.576638
1429.569586,-10584.944971,995.924147,3256.906145
1429.569897,-9252.574275,995.924147,2886.803174
1429.570208,-6735.874072,383.047749,-814.226536
1429.570520,-5403.503377,-536.266849,-2072.576638
1429.570831,-2294.638420,0.000000,-0.000000
1429.571143,-2294.638420,1685.410096,-148.041188
1429.571454,-7550.100608,1455.581446,370.102971
1429.571766,-10881.027347,-766.095498,2368.659014
1429.572077,-8290.306550,-612.876398,4885.359217
1429.572389,-6291.750507,1378.971896,3478.967927
1429.572700,-6957.935855,2451.505594,1258.350101
1429.573011,-7476.080014,153.219100,-1776.494261
1429.573323,-3256.906145,306.438199,-1924.535449
1429.573634,-2442.679609,2374.896044,-1628.453072
1429.573946,-6069.688724,2374.896044,-0.000000
1429.574257,-10807.006753,-1838.629195,740.205942
1429.574569,-12731.542202,-3447.429741,2738.761985
1429.574880,-10288.862594,-2451.505594,4293.194464
1429.575191,-9474.636058,-1608.800546,2590.720797
1429.575503,-8290.306550,-1762.019645,370.102971
1429.575814,-6809.894666,-2298.286494,-1480.411884
1429.576126,-5403.503377,-4519.963438,-518.144159
1429.576437,-6587.832884,-2681.334243,-0.000000
1429.576749,-11843.295072,-229.828649,370.102971
1429.577060,-15026.180623,0.000000,518.144159
1429.577371,-14508.036463,-229.828649,2960.823768
1429.577683,-13175.665768,612.876398,2516.700203
1429.577994,-11399.171507,1838.629195,296.082377
1429.578306,-9252.574275,229.828649,-1998.556043
1429.578617,-6069.688724,1455.581446,-2368.659014
1429.578929,-7179.997637,1838.629195,-1850.514855
1429.579240,-9474.636058,1915.238745,-1776.494261
1429.579551,-12805.562797,842.705048,-74.020594
1429.579863,-14211.954086,-383.047749,1258.350101
1429.580174,-12805.562797,0.000000,2294.638420
1429.580486,-11621.233289,153.219100,1258.350101
1429.580797,-9326.594869,-383.047749,-1924.535449
1429.581109,-6735.874072,-2068.457845,-1258.350101
1429.581420,-6439.791695,-2528.115143,296.082377
1429.581731,-7476.080014,-1915.238745,962.267725
1429.582043,-9844.739029,-689.485948,1110.308913
1429.582354,-11843.295072,-1072.533697,2072.576638
1429.582666,-11695.253884,-842.705048,4441.235652
1429.582977,-8660.409521,1225.752797,3478.967927
1429.583289,-7624.121203,1149.143247,-0.000000
1429.583600,-6661.853478,76.609550,-1628.453072
1429.583911,-3256.906145,2374.896044,-1406.391290
1429.584223,-3849.070898,4366.744339,-1628.453072
1429.584534,-8068.244768,3524.039291,-1258.350101
1429.584846,-10584.944971,842.705048,296.082377
1429.585157,-9474.636058,-306.438199,2368.659014
1429.585469,-8068.244768,153.219100,3849.070898
1429.585780,-7328.038826,-383.047749,2442.679609
1429.586092,-5773.606348,-1149.143247,-666.185348
1429.586403,-3108.864956,-2221.676944,-740.205942
1429.586714,-962.267725,-1762.019645,-296.082377
1429.587026,-4589.276840,-1532.190996,-814.226536
1429.587337,-9474.636058,-1149.143247,1036.288319
1429.587649,-11991.336260,-1532.190996,2072.576638
1429.587960,-11399.171507,-1915.238745,3849.070898
1429.588272,-10881.027347,-229.828649,2812.782580
1429.588583,-10214.842000,306.438199,370.102971
1429.588894,-8068.244768,-1455.581446,-1406.391290
1429.589206,-5773.606348,-2068.457845,-1406.391290
1429.589517,-7031.956449,-383.047749,-1036.288319
1429.589829,-11103.089130,229.828649,-740.205942
1429.590140,-14285.974681,-1532.190996,-0.000000
1429.590452,-14508.036463,-1455.581446,1702.473667
1429.590763,-13175.665768,536.266849,2590.720797
1429.591074,-11843.295072,383.047749,518.144159
1429.591386,-9844.739029,-536.266849,-1628.453072
1429.591697,-6883.915261,76.609550,-1776.494261
1429.592009,-5773.606348,766.095498,-814.226536
1429.592320,-7994.224174,229.828649,-518.144159
1429.592632,-10881.027347,0.000000,666.185348
1429.592943,-13101.645173,-1225.752797,2294.638420
1429.593254,-12361.439231,229.828649,3478.967927
1429.593566,-11843.295072,1532.190996,1628.453072
1429.593877,-11473.192101,1149.143247,-1332.370696
1429.594189,-8882.471304,229.828649,-2294.638420
1429.594500,-5625.565159,1225.752797,-1184.329507
1429.594812,-7031.956449,2298.286494,-1258.350101
1429.595123,-10584.944971,1532.190996,-666.185348
1429.595434,-11769.274478,612.876398,1036.288319
1429.595746,-11177.109724,383.047749,3627.009116
1429.596057,-7994.224174,842.705048,4441.235652
1429.596369,-6439.791695,689.485948,1406.391290
1429.596680,-6513.812290,-995.924147,-740.205942
1429.596992,-2664.741391,-689.485948,-0.000000
1429.597303,-1554.432478,919.314598,-666.185348
1429.597615,-5551.544565,2068.457845,444.123565
1429.597926,-9548.656652,766.095498,1184.329507
1429.598237,-10140.821405,0.000000,2516.700203
1429.598549,-8512.368333,842.705048,3330.926739
1429.598860,-7624.121203,1685.410096,1850.514855
1429.599172,-6735.874072,0.000000,-592.164754
1429.599483,-4219.173869,-842.705048,-1480.411884
1429.599795,-3256.906145,-919.314598,-1332.370696
1429.600106,-5181.441594,-1378.971896,-222.061783
1429.600417,-11103.089130,-2068.457845,814.226536
1429.600729,-14211.954086,-4060.306139,2886.803174
1429.601040,-12731.542202,-3830.477490,4293.194464
1429.601352,-11769.274478,-3370.820191,3478.967927
1429.601663,-9844.739029,-2604.724693,1406.391290
1429.601975,-7846.182985,-2681.334243,-1554.432478
1429.602286,-4885.359217,-2604.724693,-1184.329507
1429.602597,-4885.359217,-612.876398,-1554.432478
1429.602909,-8512.368333,995.924147,-518.144159
1429.603220,-12435.459826,995.924147,-0.000000
1429.603532,-13989.892304,-306.438199,1998.556043
1429.603843,-12509.480420,383.047749,2516.700203
1429.604155,-11325.150913,995.924147,740.205942
1429.604466,-10584.944971,76.609550,-1776.494261
1429.604777,-8068.244768,689.485948,-2368.659014
1429.605089,-7476.080014,1762.019645,-1776.494261
1429.605400,-10214.842000,1915.238745,-2220.617826
1429.605712,-13989.892304,1225.752797,444.123565
1429.606023,-14952.160028,-306.438199,518.144159
1429.606335,-12435.459826,229.828649,2738.761985
1429.606646,-10140.821405,842.705048,2220.617826
1429.606957,-7402.059420,-536.266849,-0.000000
1429.607269,-7698.141797,-1608.800546,-1258.350101
1429.607580,-6587.832884,-2145.067394,814.226536
1429.607892,-5329.482782,306.438199,-0.000000
1429.608203,-9326.594869,766.095498,148.041188
1429.608515,-13915.871710,76.609550,1258.350101
1429.608826,-12805.562797,153.219100,3627.009116
1429.609137,-8660.409521,2298.286494,2590.720797
1429.609449,-7402.059420,4060.306139,1036.288319
1429.609760,-5181.441594,2068.457845,-370.102971
1429.610072,-2738.761985,1225.752797,-1702.473667
1429.610383,-1702.473667,3140.991542,-0.000000
1429.610695,-4367.215058,2911.162892,-1110.308913
1429.611006,-8808.450710,919.314598,518.144159
1429.611318,-10807.006753,-536.266849,1628.453072
1429.611629,-8956.491898,-383.047749,3923.091493
1429.611940,-7031.956449,-1608.800546,3552.988522
1429.612252,-6809.894666,-3294.210641,1480.411884
1429.612563,-6217.729913,-3447.429741,-0.000000
1429.612875,-3923.091493,-3370.820191,-0.000000
1429.613186,-4663.297435,-1225.752797,592.164754
1429.613498,-8956.491898,306.438199,814.226536
1429.613809,-12213.398043,-1225.752797,1258.350101
1429.614120,-11843.295072,-2298.286494,2738.761985
1429.614432,-10140.821405,-1455.581446,2960.823768
1429.614743,-9474.636058,-383.047749,740.205942
1429.615055,-9252.574275,-459.657299,-1184.329507
1429.615366,-7994.224174,-1608.800546,-1554.432478
1429.615678,-7179.997637,-1149.143247,-518.144159
1429.615989,-9696.697840,-459.657299,-222.061783
1429.616300,-13101.645173,-766.095498,-518.144159
1429.616612,-13619.789333,-229.828649,444.123565
1429.616923,-12361.439231,919.314598,1332.370696
1429.617235,-9844.739029,1225.752797,1110.308913
1429.617546,-8956.491898,1149.143247,-1554.432478
1429.617858,-7698.141797,-153.219100,-2294.638420
1429.618169,-5995.668130,383.047749,-962.267725
1429.618480,-8364.327145,536.266849,-1110.308913
1429.618792,-12287.418637,536.266849,222.061783
1429.619103,-14656.077652,-1072.533697,1184.329507
1429.619415,-13767.830521,-2451.505594,3108.864956
1429.619726,-10584.944971,-1302.362347,3108.864956
1429.620038,-10658.965565,-1225.752797,370.102971
1429.620349,-8438.347739,-2298.286494,-740.205942
1429.620660,-4811.338623,-2451.505594,-1554.432478
1429.620972,-4737.318029,-612.876398,-296.082377
1429.621283,-7698.141797,-229.828649,222.061783
1429.621595,-11251.130318,-2451.505594,1036.288319
1429.621906,-11917.315666,-2681.334243,2738.761985
1429.622218,-7698.141797,-766.095498,3627.009116
1429.622529,-5477.523971,-612.876398,2072.576638
1429.622841,-5255.462188,-3217.601092,-0.000000
1429.623152,-5255.462188,-5515.887586,-148.041188
1429.623463,-3330.926739,-4290.134789,-0.000000
1429.623775,-4441.235652,-995.924147,518.144159
1429.624086,-8512.368333,-306.438199,962.267725
1429.624398,-11917.315666,-2298.286494,1850.514855
1429.624709,-11843.295072,-2834.553343,2590.720797
1429.625021,-8216.285956,-689.485948,2516.700203
1429.625332,-5847.626942,153.219100,1036.288319
1429.625643,-6883.915261,-1991.848295,-1258.350101
1429.625955,-5699.585753,-3447.429741,-962.267725
1429.626266,-3404.947333,-3907.087040,-1258.350101
1429.626578,-4219.173869,-4673.182538,296.082377
1429.626889,-8956.491898,-5898.935335,2072.576638
1429.627201,-12657.521608,-9193.145976,3404.947333
1429.627512,-13323.706956,-9269.755526,3997.112087
1429.627823,-11843.295072,-6128.763984,2516.700203
1429.628135,-9696.697840,-5592.497135,518.144159
1429.628446,-9400.615463,-7967.393179,-1480.411884
1429.628758,-8586.388927,-8044.002729,-2664.741391
1429.629069,-7105.977043,-5132.839837,-3478.967927
1429.629381,-8142.265362,-766.095498,-2442.679609
1429.629692,-11251.130318,-995.924147,-0.000000
1429.630003,-14285.974681,-3600.648841,2442.679609
1429.630315,-15026.180623,-5286.058936,2960.823768
1429.630626,-12953.603985,-3370.820191,2886.803174
1429.630938,-11177.109724,0.000000,370.102971
1429.631249,-10140.821405,383.047749,-1184.329507
1429.631561,-7402.059420,0.000000,-2590.720797
1429.631872,-6143.709319,-2911.162892,-4737.318029
1429.632183,-6957.935855,-2145.067394,-3849.070898
1429.632495,-9030.512492,995.924147,-2738.761985
1429.632806,-12287.418637,2374.896044,-518.144159
1429.633118,-12953.603985,0.000000,2072.576638
1429.633429,-12953.603985,-3217.601092,2738.761985
1429.633741,-11177.109724,-3447.429741,3330.926739
1429.634052,-7698.141797,-229.828649,2294.638420
1429.634363,-7254.018232,0.000000,1258.350101
1429.634675,-4589.276840,-2298.286494,518.144159
1429.634986,-2664.741391,-3600.648841,-1110.308913
1429.635298,-3997.112087,-4366.744339,-888.247130
1429.635609,-7328.038826,-3907.087040,-74.020594
1429.635921,-10362.883188,-3753.867940,518.144159
1429.636232,-10955.047942,-1302.362347,1110.308913
1429.636544,-11621.233289,-1608.800546,1776.494261
1429.636855,-10362.883188,-2528.115143,2294.638420
1429.637166,-10066.800811,-2451.505594,2886.803174
1429.637478,-8956.491898,-1532.190996,3478.967927
1429.637789,-6217.729913,-1685.410096,2368.659014
1429.638101,-3701.029710,-153.219100,1924.535449
1429.638412,-2368.659014,612.876398,222.061783
1429.638724,-1924.535449,-3370.820191,296.082377
1429.639035,-1850.514855,-5439.278036,148.041188
1429.639346,-3552.988522,-4979.620737,-74.020594
1429.639658,-7179.997637,-3294.210641,-740.205942
1429.639969,-13101.645173,-2451.505594,-1406.391290
1429.640281,-14952.160028,-1072.533697,-0.000000
1429.640592,-15322.262999,-1225.752797,1258.350101
1429.640904,-15322.262999,-3753.867940,3478.967927
1429.641215,-13619.789333,-3983.696590,3923.091493
1429.641526,-10955.047942,-4213.525239,2516.700203
1429.641838,-6513.812290,-3600.648841,1850.514855
1429.642149,-3849.070898,-4596.572988,-222.061783
1429.642461,-2294.638420,-5515.887586,-444.123565
1429.642772,-1850.514855,-5669.106685,-2442.679609
1429.643084,-3404.947333,-6435.202183,-2960.823768
1429.643395,-6735.874072,-5822.325785,-2146.597232
1429.643706,-11621.233289,-5898.935335,-518.144159
1429.644018,-15840.407159,-5209.449386,814.226536
1429.644329,-18949.272115,-5439.278036,2368.659014
1429.644641,-19467.416275,-4979.620737,3701.029710
1429.644952,-17246.798449,-3600.648841,3627.009116
1429.645264,-13767.830521,-3140.991542,1554.432478
1429.645575,-9252.574275,-4443.353888,814.226536
1429.645886,-4885.359217,-5209.449386,-0.000000
1429.646198,-1776.494261,-5975.544884,-370.102971
1429.646509,-666.185348,-5898.935335,-2368.659014
1429.646821,-4367.215058,-4290.134789,-2516.700203
1429.647132,-7920.203579,-2757.943793,-1480.411884
1429.647444,-9622.677246,-1838.629195,-1776.494261
1429.647755,-13249.686362,-689.485948,-74.020594
1429.648067,-14285.974681,-689.485948,296.082377
1429.648378,-14582.057057,0.000000,888.247130
1429.648689,-12213.398043,0.000000,1628.453072
1429.649001,-9252.574275,-1072.533697,740.205942
1429.649312,-7105.977043,-995.924147,148.041188
1429.649624,-6883.915261,-2068.457845,-666.185348
1429.649935,-5551.544565,-1685.410096,-666.185348
1429.650247,-4293.194464,-842.705048,-1332.370696
1429.650558,-5477.523971,-459.657299,-296.082377
1429.650869,-5847.626942,-1838.629195,-444.123565
1429.651181,-5551.544565,-2987.772442,-0.000000
1429.651492,-8142.265362,-3524.039291,-0.000000
1429.651804,-8882.471304,-3217.601092,1036.288319
1429.652115,-10510.924376,-3447.429741,962.267725
1429.652427,-12583.501014,-2911.162892,1406.391290
1429.652738,-12435.459826,-2374.896044,2294.638420
1429.653049,-10214.842000,-2298.286494,1702.473667
1429.653361,-7698.141797,-3370.820191,2368.659014
1429.653672,-5329.482782,-3677.258390,1258.350101
1429.653984,-4737.318029,-3983.696590,444.123565
1429.654295,-4367.215058,-3217.601092,-0.000000
1429.654607,-4219.173869,-2221.676944,-296.082377
1429.654918,-5033.400406,-2451.505594,-592.164754
1429.655229,-6735.874072,-2757.943793,-148.041188
1429.655541,-8882.471304,-3524.039291,-0.000000
1429.655852,-10288.862594,-3677.258390,1184.329507
1429.656164,-12065.356855,-4519.963438,2220.617826
1429.656475,-13249.686362,-5669.106685,3404.947333
1429.656787,-12657.521608,-5592.497135,3256.906145
1429.657098,-13027.624579,-4826.401637,2368.659014
1429.657409,-11843.295072,-2757.943793,1554.432478
1429.657721,-9548.656652,-689.485948,592.164754
1429.658032,-8068.244768,995.924147,-296.082377
1429.658344,-7179.997637,1302.362347,-518.144159
1429.658655,-6661.853478,0.000000,-0.000000
1429.658967,-7031.956449,-459.657299,444.123565
1429.659278,-7328.038826,-1991.848295,1184.329507
1429.659589,-8438.347739,-3677.258390,740.205942
1429.659901,-10362.883188,-4673.182538,740.205942
1429.660212,-11177.109724,-4903.011187,740.205942
1429.660524,-12139.377449,-5439.278036,666.185348
1429.660835,-12953.603985,-5745.716235,1036.288319
1429.661147,-11695.253884,-5822.325785,1258.350101
1429.661458,-9622.677246,-5822.325785,1258.350101
1429.661770,-7550.100608,-5745.716235,1406.391290
1429.662081,-6291.750507,-4903.011187,888.247130
1429.662392,-4885.359217,-3447.429741,1406.391290
1429.662704,-4663.297435,-2911.162892,148.041188
1429.663015,-4737.318029,-1532.190996,518.144159
1429.663327,-6217.729913,-842.705048,148.041188
1429.663638,-9326.594869,-1302.362347,-148.041188
1429.663950,-10436.903782,-2298.286494,-0.000000
1429.664261,-11769.274478,-2604.724693,-148.041188
1429.664572,-11251.130318,-2451.505594,-74.020594
1429.664884,-10807.006753,-1991.848295,-1036.288319
1429.665195,-8142.265362,-1608.800546,-296.082377
1429.665507,-8586.388927,-3217.601092,-592.164754
1429.665818,-7179.997637,-1991.848295,-370.102971
1429.666130,-5255.462188,-1302.362347,-444.123565
1429.666441,-5995.668130,-1991.848295,-518.144159
1429.666752,-7698.141797,-2911.162892,888.247130
1429.667064,-10510.924376,-3294.210641,296.082377
1429.667375,-10140.821405,-2451.505594,1036.288319
1429.667687,-10362.883188,-1455.581446,1110.308913
1429.667998,-9992.780217,-2681.334243,1554.432478
1429.668310,-10510.924376,-4136.915689,296.082377
1429.668621,-9918.759623,-4673.182538,814.226536
1429.668932,-9474.636058,-3217.601092,1258.350101
1429.669244,-10214.842000,-2298.286494,1554.432478
1429.669555,-11917.315666,-1072.533697,1258.350101
1429.669867,-11177.109724,-459.657299,2220.617826
1429.670178,-9770.718434,-1302.362347,1850.514855
1429.670490,-7550.100608,-995.924147,3404.947333
1429.670801,-7031.956449,-842.705048,2590.720797
1429.671112,-8142.265362,-2451.505594,2812.782580
1429.671424,-8068.244768,-3677.258390,3701.029710
1429.671735,-9474.636058,-3294.210641,3478.967927
1429.672047,-9622.677246,-842.705048,5181.441594
1429.672358,-12361.439231,-536.266849,4589.276840
1429.672670,-11843.295072,-1149.143247,5699.585753
1429.672981,-8586.388927,-383.047749,3552.988522
1429.673292,-7476.080014,2145.067394,3923.091493
1429.673604,-6513.812290,2221.676944,3552.988522
1429.673915,-6513.812290,76.609550,3108.864956
1429.674227,-7698.141797,-842.705048,2960.823768
1429.674538,-5181.441594,536.266849,4811.338623
1429.674850,-9326.594869,-383.047749,3330.926739
1429.675161,-11029.068536,76.609550,6217.729913
1429.675472,-10955.047942,-536.266849,6365.771101
1429.675784,-9474.636058,-2068.457845,5847.626942
1429.676095,-7772.162391,-1915.238745,6587.832884
1429.676407,-8364.327145,-536.266849,5255.462188
1429.676718,-6661.853478,536.266849,5477.523971
1429.677030,-5995.668130,1302.362347,3849.070898
1429.677341,-5181.441594,1838.629195,4219.173869
1429.677652,-6735.874072,4213.525239,3552.988522
1429.677964,-8142.265362,3140.991542,4515.256246
1429.678275,-8364.327145,1685.410096,4441.235652
1429.678587,-7402.059420,459.657299,4663.297435
1429.678898,-7328.038826,0.000000,4515.256246
1429.679210,-7772.162391,-1378.971896,4367.215058
1429.679521,-8586.388927,-2604.724693,4663.297435
1429.679832,-7772.162391,-1762.019645,4959.379811
1429.680144,-8364.327145,0.000000,4737.318029
1429.680455,-9770.718434,1149.143247,4071.132681
1429.680767,-11251.130318,689.485948,4737.318029
1429.681078,-10066.800811,2298.286494,4367.215058
1429.681390,-8438.347739,2221.676944,3701.029710
1429.681701,-8068.244768,1149.143247,3256.906145
1429.682012,-7105.977043,0.000000,2812.782580
1429.682324,-7031.956449,-612.876398,2146.597232
1429.682635,-5699.585753,-306.438199,2738.761985
1429.682947,-6217.729913,-1149.143247,2442.679609
1429.683258,-8734.430116,-1378.971896,3701.029710
1429.683570,-10288.862594,-1149.143247,4071.132681
1429.683881,-11251.130318,-612.876398,4293.194464
1429.684192,-11103.089130,76.609550,3923.091493
1429.684504,-10807.006753,1378.971896,3108.864956
1429.684815,-10955.047942,1225.752797,1406.391290
1429.685127,-9770.718434,766.095498,1110.308913
1429.685438,-8512.368333,1685.410096,814.226536
1429.685750,-8512.368333,1225.752797,888.247130
1429.686061,-9918.759623,-612.876398,1702.473667
1429.686372,-10288.862594,-2298.286494,2738.761985
1429.686684,-10584.944971,-2451.505594,3478.967927
1429.686995,-9474.636058,-2374.896044,3997.112087
1429.687307,-9252.574275,-2451.505594,3701.029710
1429.687618,-9030.512492,-1532.190996,2590.720797
1429.687930,-8216.285956,-229.828649,2294.638420
1429.688241,-7846.182985,766.095498,518.144159
1429.688552,-8808.450710,1302.362347,-74.020594
1429.688864,-9770.718434,1991.848295,296.082377
1429.689175,-11325.150913,2451.505594,444.123565
1429.689487,-11473.192101,2068.457845,1924.535449
1429.689798,-11399.171507,229.828649,3478.967927
1429.690110,-11621.233289,-536.266849,4071.132681
1429.690421,-10066.800811,-1302.362347,4663.297435
1429.690732,-7031.956449,-1608.800546,4441.235652
1429.691044,-4367.215058,-2068.457845,3108.864956
1429.691355,-3627.009116,-2068.457845,2442.679609
1429.691667,-4589.276840,-1455.581446,1850.514855
1429.691978,-7105.977043,-306.438199,2812.782580
1429.692290,-10288.862594,1225.752797,3552.988522
1429.692601,-12435.459826,1991.848295,5403.503377
1429.692912,-13841.851115,1149.143247,6439.791695
1429.693224,-12139.377449,-153.219100,6069.688724
1429.693535,-8290.306550,0.000000,5033.400406
1429.693847,-4663.297435,-229.828649,3404.947333
1429.694158,-2960.823768,-229.828649,1776.494261
1429.694470,-2368.659014,229.828649,1554.432478
1429.694781,-3849.070898,0.000000,1924.535449
1429.695092,-7476.080014,-76.609550,2812.782580
1429.695404,-11103.089130,1149.143247,4441.235652
1429.695715,-13989.892304,1762.019645,5329.482782
1429.696027,-13693.809927,995.924147,5699.585753
1429.696338,-10807.006753,383.047749,4959.379811
1429.696650,-8216.285956,0.000000,4071.132681
1429.696961,-6365.771101,-536.266849,3404.947333
1429.697272,-5181.441594,-153.219100,3182.885551
1429.697584,-6661.853478,76.609550,4515.256246
1429.697895,-8956.491898,76.609550,5921.647536
1429.698207,-11399.171507,0.000000,7328.038826
1429.698518,-11843.295072,153.219100,7254.018232
1429.698830,-10732.986159,536.266849,5477.523971
1429.699141,-8216.285956,2298.286494,4071.132681
1429.699452,-6883.915261,2834.553343,1258.350101
1429.699764,-5625.565159,3447.429741,666.185348
1429.700075,-6143.709319,2528.115143,814.226536
1429.700387,-7920.203579,1915.238745,1776.494261
1429.700698,-10214.842000,995.924147,3627.009116
1429.701010,-11843.295072,-919.314598,6217.729913
1429.701321,-13027.624579,-2987.772442,7476.080014
1429.701632,-13841.851115,-3370.820191,8808.450710
1429.701944,-12287.418637,-2834.553343,9844.739029
1429.702255,-11177.109724,-1991.848295,8142.265362
1429.702567,-8068.244768,-1225.752797,6513.812290
1429.702878,-4663.297435,-536.266849,3923.091493
1429.703190,-962.267725,536.266849,962.267725
1429.703501,814.226536,1072.533697,-962.267725
1429.703812,-1554.432478,2451.505594,-740.205942
1429.704124,-5847.626942,1532.190996,1554.432478
1429.704435,-11177.109724,0.000000,4145.153275
1429.704747,-15544.324782,-1762.019645,6439.791695
1429.705058,-18283.086767,-2298.286494,8660.409521
1429.705370,-17024.736666,-1838.629195,8808.450710
1429.705681,-13323.706956,-995.924147,7105.977043
1429.705992,-8290.306550,-153.219100,4589.276840
1429.706304,-4071.132681,-306.438199,2072.576638
1429.706615,-518.144159,766.095498,814.226536
1429.706927,1258.350101,842.705048,296.082377
1429.707238,-222.061783,2528.115143,370.102971
1429.707550,-4219.173869,2221.676944,592.164754
1429.707861,-7105.977043,1838.629195,666.185348
1429.708172,-9844.739029,1072.533697,1110.308913
1429.708484,-12361.439231,0.000000,2146.597232
1429.708795,-14359.995275,-459.657299,2886.803174
1429.709107,-15914.427753,-919.314598,2960.823768
1429.709418,-16136.489536,-689.485948,3701.029710
1429.709729,-14804.118840,-459.657299,4367.215058
1429.710041,-12435.459826,-766.095498,4959.379811
1429.710352,-8956.491898,-766.095498,4515.256246
1429.710664,-5329.482782,-842.705048,2664.741391
1429.710975,-1702.473667,153.219100,-592.164754
1429.711287,370.102971,1608.800546,-3256.906145
1429.711598,-888.247130,1455.581446,-3849.070898
1429.711909,-5625.565159,0.000000,-2220.617826
1429.712221,-12361.439231,-1225.752797,962.267725
1429.712532,-18949.272115,-1685.410096,4811.338623
1429.712844,-23538.548956,-1532.190996,8808.450710
1429.713155,-22502.260637,-1915.238745,10288.862594
1429.713467,-17912.983796,-2987.772442,9474.636058
1429.713778,-9696.697840,-3370.820191,7254.018232
1429.714089,-2738.761985,-2298.286494,2368.659014
1429.714401,3182.885551,0.000000,-1776.494261
1429.714712,4737.318029,1991.848295,-3923.091493
1429.715024,1110.308913,2911.162892,-3034.844362
1429.715335,-6291.750507,2681.334243,-296.082377
1429.715647,-13471.748144,2451.505594,2738.761985
1429.715958,-18431.127956,2298.286494,6291.750507
1429.716269,-18505.148550,1378.971896,7920.203579
1429.716581,-14285.974681,153.219100,8068.244768
1429.716892,-10140.821405,-2374.896044,5477.523971
1429.717204,-5033.400406,-2604.724693,3701.029710
1429.717515,-888.247130,-766.095498,740.205942
1429.717827,0.000000,1608.800546,370.102971
1429.718138,-2368.659014,2221.676944,296.082377
1429.718449,-7402.059420,1225.752797,2146.597232
1429.718761,-10584.944971,1225.752797,3701.029710
1429.719072,-11325.150913,2451.505594,4219.173869
1429.719384,-8956.491898,2451.505594,3256.906145
1429.719695,-7179.997637,153.219100,1850.514855
1429.720007,-6809.894666,-2374.896044,444.123565
1429.720318,-5625.565159,-2757.943793,222.061783
1429.720629,-5921.647536,-459.657299,1480.411884
1429.720941,-9178.553681,383.047749,3775.050304
1429.721252,-12879.583391,76.609550,4959.379811
1429.721564,-15544.324782,-1685.410096,6365.771101
1429.721875,-14063.912898,-229.828649,5847.626942
1429.722187,-8734.430116,1455.581446,3923.091493
1429.722498,-3849.070898,1378.971896,-666.185348
1429.722809,-1258.350101,1302.362347,-5403.503377
1429.723121,0.000000,459.657299,-7624.121203
1429.723432,-1480.411884,842.705048,-5625.565159
1429.723744,-8586.388927,612.876398,-1332.370696
1429.724055,-17616.901420,-842.705048,4441.235652
1429.724367,-25092.981434,-4596.572988,8512.368333
1429.724678,-24204.734303,-5745.716235,9622.677246
1429.724989,-15544.324782,-4519.963438,7624.121203
1429.725301,-8512.368333,-2221.676944,3108.864956
1429.725612,-3923.091493,0.000000,-1776.494261
1429.725924,-1850.514855,536.266849,-5699.585753
1429.726235,296.082377,2528.115143,-6735.874072
1429.726547,-2738.761985,4673.182538,-4663.297435
1429.726858,-8364.327145,4290.134789,-2294.638420
1429.727169,-12583.501014,1762.019645,-0.000000
1429.727481,-15026.180623,-153.219100,1998.556043
1429.727792,-13619.789333,-995.924147,3256.906145
1429.728104,-12213.398043,-1991.848295,2368.659014
1429.728415,-11547.212695,-2374.896044,814.226536
1429.728727,-8438.347739,-1378.971896,-222.061783
1429.729038,-6365.771101,-1608.800546,-814.226536
1429.729349,-5181.441594,153.219100,-1480.411884
1429.729661,-6291.750507,1991.848295,-1406.391290
1429.729972,-6069.688724,1532.190996,-1258.350101
1429.730284,-3849.070898,76.609550,-148.041188
1429.730595,-3701.029710,-1072.533697,-1776.494261
1429.730907,-4885.359217,-383.047749,-2368.659014
1429.731218,-8142.265362,-766.095498,-2590.720797
1429.731529,-10214.842000,153.219100,-1554.432478
1429.731841,-12139.377449,689.485948,814.226536
1429.732152,-14878.139434,-689.485948,1332.370696
1429.732464,-16506.592507,-1225.752797,3182.885551
1429.732775,-14211.954086,-1302.362347,3404.947333
1429.733087,-9252.574275,-383.047749,1702.473667
1429.733398,-4441.235652,383.047749,-1776.494261
1429.733709,-2368.659014,0.000000,-4737.318029
1429.734021,-2886.803174,459.657299,-5699.585753
1429.734332,-4515.256246,766.095498,-4663.297435
1429.734644,-9104.533087,1532.190996,-2664.741391
1429.734955,-14434.015869,459.657299,-592.164754
1429.735267,-16654.633695,-689.485948,3182.885551
1429.735578,-15988.448347,-3907.087040,3849.070898
1429.735889,-12361.439231,-6128.763984,3478.967927
1429.736201,-8882.471304,-4979.620737,1480.411884
1429.736512,-7994.224174,-3140.991542,-222.061783
1429.736824,-7920.203579,-383.047749,-148.041188
1429.737135,-9178.553681,919.314598,-0.000000
1429.737447,-10881.027347,2757.943793,-592.164754
1429.737758,-11473.192101,3140.991542,-370.102971
1429.738069,-8586.388927,3447.429741,-592.164754
1429.738381,-5773.606348,3064.381992,-1110.308913
1429.738692,-4293.194464,2145.067394,-1628.453072
1429.739004,-4811.338623,0.000000,-1554.432478
1429.739315,-6661.853478,-1455.581446,-74.020594
1429.739627,-9696.697840,-995.924147,3108.864956
1429.739938,-12583.501014,-612.876398,4293.194464
1429.740249,-14285.974681,-766.095498,4663.297435
1429.740561,-12805.562797,306.438199,3627.009116
1429.740872,-7698.141797,-536.266849,3108.864956
1429.741184,-3404.947333,0.000000,370.102971
1429.741495,-1850.514855,995.924147,-1850.514855
1429.741807,-2294.638420,842.705048,-2590.720797
1429.742118,-5107.421000,1302.362347,-1702.473667
1429.742429,-7772.162391,2298.286494,592.164754
1429.742741,-10732.986159,2221.676944,2516.700203
1429.743052,-13693.809927,76.609550,3775.050304
1429.743364,-12879.583391,-1532.190996,5255.462188
1429.743675,-10807.006753,-2068.457845,4219.173869
1429.743987,-8808.450710,-1072.533697,2738.761985
1429.744298,-6069.688724,-1378.971896,1184.329507
1429.744609,-4589.276840,-2681.334243,-1332.370696
1429.744921,-5329.482782,-1378.971896,-2368.659014
1429.745232,-7994.224174,1838.629195,-888.247130
1429.745544,-12139.377449,3524.039291,592.164754
1429.745855,-14656.077652,1838.629195,2368.659014
1429.746167,-11917.315666,-766.095498,2812.782580
1429.746478,-6957.935855,-2681.334243,1332.370696
1429.746789,-3923.091493,-2757.943793,-296.082377
1429.747101,-2960.823768,-1225.752797,-1850.514855
1429.747412,-5329.482782,459.657299,-2590.720797
1429.747724,-10288.862594,612.876398,296.082377
1429.748035,-15692.365970,383.047749,2590.720797
1429.748347,-19023.292709,612.876398,3923.091493
1429.748658,-17024.736666,842.705048,3108.864956
1429.748969,-10658.965565,919.314598,-518.144159
1429.749281,-3478.967927,1991.848295,-4293.194464
1429.749592,1628.453072,1608.800546,-6365.771101
1429.749904,2368.659014,459.657299,-5847.626942
1429.750215,-3404.947333,-1532.190996,-2590.720797
1429.750527,-11473.192101,-1532.190996,1184.329507
1429.750838,-17246.798449,-1378.971896,4811.338623
1429.751149,-18875.251521,-2068.457845,6587.832884
1429.751461,-15618.345376,-3140.991542,5625.565159
1429.751772,-10140.821405,-3983.696590,1924.535449
1429.752084,-5181.441594,-2987.772442,-2072.576638
1429.752395,-3108.864956,-153.219100,-5107.421000
1429.752707,-4737.318029,1915.238745,-4219.173869
1429.753018,-7328.038826,1991.848295,-2146.597232
1429.753329,-11177.109724,1455.581446,-888.247130
1429.753641,-12657.521608,1225.752797,1776.494261
1429.753952,-11103.089130,536.266849,2220.617826
1429.754264,-8734.430116,383.047749,1036.288319
1429.754575,-6883.915261,383.047749,-740.205942
1429.754887,-6661.853478,-153.219100,-1776.494261
1429.755198,-8956.491898,-1072.533697,-1332.370696
1429.755509,-10584.944971,-612.876398,-370.102971
1429.755821,-12879.583391,766.095498,-0.000000
1429.756132,-12509.480420,536.266849,444.123565
1429.756444,-9400.615463,459.657299,666.185348
1429.756755,-6365.771101,76.609550,-444.123565
1429.757067,-4441.235652,0.000000,-1406.391290
1429.757378,-4737.318029,229.828649,-1924.535449
1429.757689,-6439.791695,306.438199,-962.267725
1429.758001,-9030.512492,1302.362347,-222.061783
1429.758312,-11325.150913,1455.581446,814.226536
1429.758624,-12213.398043,1455.581446,1258.350101
1429.758935,-11917.315666,229.828649,1406.391290
1429.759247,-9622.677246,-536.266849,1702.473667
1429.759558,-8512.368333,-842.705048,-222.061783
1429.759869,-7920.203579,-1149.143247,-592.164754
1429.760181,-7920.203579,-383.047749,-888.247130
1429.760492,-8882.471304,-459.657299,-1258.350101
1429.760804,-8734.430116,153.219100,148.041188
1429.761115,-9622.677246,1225.752797,1110.308913
1429.761427,-10807.006753,842.705048,2368.659014
1429.761738,-10066.800811,-229.828649,3256.906145
1429.762049,-8512.368333,-1915.238745,3256.906145
1429.762361,-7105.977043,-2374.896044,3034.844362
1429.762672,-5921.647536,-2451.505594,1628.453072
1429.762984,-5181.441594,-2451.505594,-222.061783
1429.763295,-6069.688724,-1532.190996,-666.185348
1429.763607,-9844.739029,995.924147,1184.329507
1429.763918,-15174.221811,1608.800546,3478.967927
1429.764229,-18653.189738,383.047749,5255.462188
1429.764541,-15248.242405,306.438199,4959.379811
1429.764852,-9030.512492,-153.219100,2886.803174
1429.765164,-2960.823768,459.657299,-0.000000
1429.765475,370.102971,1149.143247,-2664.741391
1429.765787,-370.102971,1455.581446,-3552.988522
1429.766098,-5181.441594,1149.143247,-222.061783
1429.766409,-11547.212695,612.876398,3182.885551
1429.766721,-15840.407159,919.314598,5773.606348
1429.767032,-16284.530724,766.095498,6365.771101
1429.767344,-11251.130318,-1762.019645,4515.256246
1429.767655,-5329.482782,-2068.457845,666.185348
1429.767966,0.000000,-383.047749,-2664.741391
1429.768278,1406.391290,842.705048,-3627.009116
1429.768589,-2368.659014,995.924147,-2590.720797
1429.768901,-8216.285956,1378.971896,-222.061783
1429.769212,-14359.995275,2374.896044,1998.556043
1429.769523,-15396.283594,2068.457845,4737.318029
1429.769835,-13249.686362,1225.752797,4293.194464
1429.770146,-9696.697840,76.609550,1332.370696
1429.770457,-5995.668130,-153.219100,-1258.350101
1429.770769,-4367.215058,-766.095498,-2664.741391
1429.771080,-5551.544565,-995.924147,-1924.535449
1429.771391,-9474.636058,76.609550,-740.205942
1429.771703,-13249.686362,383.047749,666.185348
1429.772014,-14285.974681,-612.876398,2442.679609
1429.772325,-13175.665768,-1762.019645,3330.926739
1429.772637,-9030.512492,-1915.238745,1406.391290
1429.772948,-5551.544565,-1991.848295,-74.020594
1429.773259,-4663.297435,-2298.286494,-1628.453072
1429.773571,-5921.647536,-1455.581446,-1258.350101
1429.773882,-8438.347739,459.657299,-814.226536
1429.774193,-12879.583391,459.657299,222.061783
1429.774505,-15026.180623,536.266849,1332.370696
1429.774816,-14508.036463,-766.095498,2664.741391
1429.775127,-11325.150913,-459.657299,2368.659014
1429.775439,-9104.533087,-1072.533697,518.144159
1429.775750,-8068.244768,-536.266849,-1036.288319
1429.776061,-7105.977043,612.876398,-1332.370696
1429.776373,-7550.100608,842.705048,-444.123565
1429.776684,-8586.388927,1225.752797,1036.288319
1429.776995,-10584.944971,919.314598,1480.411884
1429.777307,-9844.739029,76.609550,2664.741391
1429.777618,-7031.956449,-612.876398,1998.556043
1429.777929,-5107.421000,-1685.410096,1702.473667
1429.778241,-4885.359217,-2221.676944,666.185348
1429.778552,-6291.750507,-2221.676944,-370.102971
1429.778863,-7402.059420,-842.705048,-444.123565
1429.779175,-9474.636058,1302.362347,-0.000000
1429.779486,-11177.109724,2451.505594,74.020594
1429.779797,-11695.253884,3217.601092,1480.411884
1429.780109,-11843.295072,2757.943793,2664.741391
1429.780420,-9548.656652,2145.067394,2368.659014
1429.780731,-5699.585753,1455.581446,1480.411884
1429.781043,-2738.761985,689.485948,-1924.535449
1429.781354,-1258.350101,612.876398,-3923.091493
1429.781665,-2812.782580,1608.800546,-3034.844362
1429.781977,-8216.285956,1991.848295,-0.000000
1429.782288,-16432.571912,383.047749,2664.741391
1429.782599,-20429.683999,-1608.800546,4737.318029
1429.782911,-16728.654289,-2757.943793,5477.523971
1429.783222,-9992.780217,-3370.820191,2812.782580
1429.783533,-3923.091493,-2911.162892,-1110.308913
1429.783845,-1036.288319,-1532.190996,-4219.173869
1429.784156,-1480.411884,-689.485948,-5033.400406
1429.784467,-5033.400406,689.485948,-1332.370696
1429.784779,-11843.295072,1455.581446,1184.329507
1429.785090,-17912.983796,1915.238745,3923.091493
1429.785401,-18431.127956,612.876398,4737.318029
1429.785713,-13323.706956,0.000000,2442.679609
1429.786024,-6957.935855,-919.314598,-740.205942
1429.786335,-2886.803174,0.000000,-3108.864956
1429.786647,-2442.679609,-459.657299,-3701.029710
1429.786958,-5625.565159,-1455.581446,-2146.597232
1429.787269,-11177.109724,-612.876398,962.267725
1429.787581,-15766.386565,0.000000,3256.906145
1429.787892,-16950.716072,383.047749,5329.482782
1429.788203,-12731.542202,-536.266849,4885.359217
1429.788515,-7254.018232,-1225.752797,1776.494261
1429.788826,-4589.276840,-1302.362347,-592.164754
1429.789137,-2738.761985,229.828649,-1480.411884
1429.789449,-3552.988522,229.828649,-1850.514855
1429.789760,-7476.080014,536.266849,222.061783
1429.790071,-11917.315666,306.438199,1702.473667
1429.790383,-14434.015869,-229.828649,3627.009116
1429.790694,-13027.624579,-1225.752797,4589.276840
1429.791005,-9326.594869,0.000000,3108.864956
1429.791317,-7105.977043,612.876398,1850.514855
1429.791628,-5773.606348,-229.828649,-0.000000
1429.791939,-5033.400406,-383.047749,-444.123565
1429.792251,-5921.647536,1072.533697,-444.123565
1429.792562,-7772.162391,2757.943793,740.205942
1429.792873,-9622.677246,2681.334243,1258.350101
1429.793185,-9474.636058,919.314598,2442.679609
1429.793496,-8808.450710,-306.438199,3034.844362
1429.793807,-8438.347739,-1915.238745,2294.638420
1429.794119,-7105.977043,-2145.067394,1406.391290
1429.794430,-6365.771101,-1302.362347,-0.000000
1429.794741,-7476.080014,-536.266849,518.144159
1429.795053,-8882.471304,0.000000,148.041188
1429.795364,-10214.842000,459.657299,444.123565
1429.795675,-10955.047942,1302.362347,592.164754
1429.795987,-9622.677246,1225.752797,1776.494261
1429.796298,-7994.224174,153.219100,1184.329507
1429.796609,-7031.956449,0.000000,-888.247130
1429.796921,-6883.915261,-383.047749,-1776.494261
1429.797232,-7031.956449,-689.485948,-2368.659014
1429.797543,-8512.368333,459.657299,-1628.453072
1429.797855,-10807.006753,919.314598,-740.205942
1429.798166,-13471.748144,-536.266849,518.144159
1429.798477,-13989.892304,-1532.190996,1702.473667
1429.798789,-11473.192101,-1991.848295,666.185348
1429.799100,-7550.100608,-1149.143247,-518.144159
1429.799411,-6439.791695,-995.924147,-1998.556043
1429.799723,-7402.059420,-1149.143247,-2664.741391
1429.800034,-8216.285956,-306.438199,-2590.720797
1429.800345,-9326.594869,1149.143247,-2368.659014
1429.800657,-10881.027347,995.924147,-1258.350101
1429.800968,-11991.336260,1225.752797,-666.185348
1429.801279,-11177.109724,76.609550,148.041188
1429.801591,-10140.821405,-919.314598,-814.226536
1429.801902,-10584.944971,-1378.971896,-1554.432478
1429.802213,-9548.656652,-536.266849,-1554.432478
1429.802525,-8808.450710,0.000000,-1480.411884
1429.802836,-8660.409521,0.000000,-740.205942
1429.803147,-9770.718434,-229.828649,-888.247130
1429.803459,-10732.986159,919.314598,-0.000000
1429.803770,-9252.574275,1225.752797,1480.411884
1429.804081,-7698.141797,383.047749,1110.308913
1429.804393,-7624.121203,-766.095498,962.267725
1429.804704,-7476.080014,-1608.800546,518.144159
1429.805015,-6143.709319,-2068.457845,-518.144159
1429.805327,-5403.503377,-2068.457845,-1628.453072
1429.805638,-6513.812290,536.266849,-148.041188
1429.805949,-9474.636058,383.047749,666.185348
1429.806261,-12361.439231,-612.876398,2664.741391
1429.806572,-13693.809927,-1072.533697,4071.132681
1429.806883,-11843.295072,0.000000,3330.926739
1429.807195,-8068.244768,1378.971896,1924.535449
1429.807506,-4515.256246,2374.896044,-296.082377
1429.807817,-3108.864956,1915.238745,-1406.391290
1429.808129,-2738.761985,2374.896044,-666.185348
1429.808440,-6587.832884,1455.581446,592.164754
1429.808751,-11103.089130,459.657299,2368.659014
1429.809063,-12953.603985,-383.047749,4515.256246
1429.809374,-12213.398043,-1378.971896,4589.276840
1429.809685,-9992.780217,-2451.505594,2738.761985
1429.809997,-7328.038826,-2528.115143,1628.453072
1429.810308,-5255.462188,-2298.286494,296.082377
1429.810619,-5255.462188,-689.485948,-74.020594
1429.810931,-7105.977043,0.000000,370.102971
1429.811242,-9844.739029,536.266849,1184.329507
1429.811553,-11769.274478,153.219100,2442.679609
1429.811865,-11621.233289,76.609550,2664.741391
1429.812176,-9844.739029,459.657299,1036.288319
1429.812487,-8068.244768,689.485948,-0.000000
1429.812799,-7179.997637,1685.410096,-740.205942
1429.813110,-7994.224174,459.657299,-444.123565
1429.813421,-9326.594869,0.000000,740.205942
1429.813733,-11769.274478,-536.266849,1332.370696
1429.814044,-12879.583391,76.609550,2960.823768
1429.814355,-10955.047942,-383.047749,2294.638420
1429.814667,-7476.080014,-842.705048,888.247130
1429.814978,-4663.297435,-1762.019645,-740.205942
1429.815289,-3997.112087,-536.266849,-1554.432478
1429.815601,-4885.359217,-536.266849,-1628.453072
1429.815912,-7994.224174,-536.266849,-1480.411884
1429.816223,-11843.295072,612.876398,-148.041188
1429.816535,-13323.706956,383.047749,370.102971
1429.816846,-12435.459826,-919.314598,1406.391290
1429.817157,-10066.800811,-1455.581446,888.247130
1429.817469,-8882.471304,-919.314598,-148.041188
1429.817780,-8956.491898,0.000000,-1258.350101
1429.818091,-9030.512492,306.438199,-1184.329507
1429.818403,-9548.656652,919.314598,-814.226536
1429.818714,-9844.739029,1225.752797,-148.041188
1429.819025,-9844.739029,1149.143247,-1110.308913
1429.819337,-8660.409521,1762.019645,-1036.288319
1429.819648,-7772.162391,2221.676944,-740.205942
1429.819959,-6069.688724,1072.533697,-1184.329507
1429.820271,-5921.647536,-153.219100,-1332.370696
1429.820582,-7772.162391,-1915.238745,-1332.370696
1429.820893,-8290.306550,-1225.752797,-444.123565
1429.821205,-9474.636058,-459.657299,-888.247130
1429.821516,-10436.903782,842.705048,-1406.391290
1429.821827,-10881.027347,1149.143247,-1036.288319
1429.822139,-10140.821405,-229.828649,518.144159
1429.822450,-9252.574275,-689.485948,-370.102971
1429.822761,-8734.430116,-383.047749,-1332.370696
1429.823073,-8142.265362,383.047749,-1924.535449
1429.823384,-7920.203579,689.485948,-1554.432478
1429.823695,-8142.265362,919.314598,-1036.288319
1429.824007,-9400.615463,383.047749,-222.061783
1429.824318,-11547.212695,-766.095498,518.144159
1429.824629,-12213.398043,-689.485948,2146.597232
1429.824941,-11621.233289,0.000000,2220.617826
1429.825252,-9326.594869,-842.705048,1998.556043
1429.825563,-8882.471304,-1838.629195,962.267725
1429.825875,-9104.533087,-1149.143247,518.144159
1429.826186,-7920.203579,-919.314598,444.123565
1429.826497,-6587.832884,-536.266849,222.061783
1429.826809,-7624.121203,383.047749,-222.061783
1429.827120,-9178.553681,2221.676944,1110.308913
1429.827431,-11177.109724,1378.971896,3775.050304
1429.827743,-11917.315666,-1378.971896,4219.173869
1429.828054,-11029.068536,-2451.505594,3923.091493
1429.828365,-9622.677246,-2221.676944,3182.885551
1429.828677,-6217.729913,-1149.143247,2368.659014
1429.828988,-4663.297435,-842.705048,1776.494261
1429.829299,-6217.729913,-919.314598,1184.329507
1429.829611,-10436.903782,-1149.143247,2368.659014
1429.829922,-11843.295072,0.000000,4663.297435
1429.830233,-11547.212695,383.047749,4885.359217
1429.830545,-9844.739029,536.266849,3627.009116
1429.830856,-6735.874072,76.609550,1998.556043
1429.831167,-3923.091493,536.266849,-0.000000
1429.831479,-1924.535449,1608.800546,-222.061783
1429.831790,-3775.050304,3064.381992,518.144159
1429.832101,-7105.977043,2834.553343,1184.329507
1429.832413,-10214.842000,1838.629195,1850.514855
1429.832724,-10658.965565,1149.143247,2368.659014
1429.833035,-9178.553681,153.219100,1924.535449
1429.833347,-7772.162391,459.657299,740.205942
1429.833658,-6809.894666,153.219100,-814.226536
1429.833969,-6809.894666,-153.219100,-1628.453072
1429.834281,-8142.265362,0.000000,-444.123565
1429.834592,-9326.594869,0.000000,-296.082377
1429.834903,-9696.697840,306.438199,-148.041188
1429.835215,-10510.924376,689.485948,888.247130
1429.835526,-10436.903782,-306.438199,2220.617826
1429.835837,-9104.533087,-1378.971896,740.205942
1429.836149,-8734.430116,-2221.676944,-222.061783
1429.836460,-8586.388927,-1149.143247,-592.164754
1429.836771,-8216.285956,-612.876398,-1258.350101
1429.837083,-9400.615463,0.000000,-1332.370696
1429.837394,-11621.233289,536.266849,-1850.514855
1429.837705,-13841.851115,383.047749,-518.144159
1429.838017,-13101.645173,-306.438199,222.061783
1429.838328,-10140.821405,-1072.533697,-74.020594
1429.838639,-8364.327145,-1302.362347,-1406.391290
1429.838951,-6809.894666,-842.705048,-2368.659014
1429.839262,-6291.750507,0.000000,-2294.638420
1429.839573,-8364.327145,0.000000,-1998.556043
1429.839885,-10066.800811,689.485948,-592.164754
1429.840196,-13323.706956,0.000000,74.020594
1429.840507,-13767.830521,459.657299,1702.473667
1429.840819,-11843.295072,0.000000,1924.535449
1429.841130,-9400.615463,-1225.752797,-0.000000
1429.841441,-7105.977043,-1378.971896,-1184.329507
1429.841753,-5773.606348,766.095498,-1702.473667
1429.842064,-5107.421000,536.266849,-2294.638420
1429.842375,-7772.162391,1455.581446,-1480.411884
1429.842687,-10807.006753,1915.238745,370.102971
1429.842998,-11547.212695,1838.629195,1702.473667
1429.843309,-10732.986159,689.485948,2590.720797
1429.843621,-8734.430116,-536.266849,2146.597232
1429.843932,-7254.018232,0.000000,666.185348
1429.844243,-6217.729913,1225.752797,222.061783
1429.844555,-6291.750507,1149.143247,296.082377
1429.844866,-7328.038826,153.219100,1036.288319
1429.845177,-8216.285956,-1149.143247,1480.411884
1429.845489,-9326.594869,-1225.752797,1480.411884
1429.845800,-9030.512492,229.828649,2368.659014
1429.846111,-8438.347739,689.485948,3923.091493
1429.846423,-9696.697840,-689.485948,2738.761985
1429.846734,-9770.718434,-1838.629195,3182.885551
1429.847045,-9326.594869,-1991.848295,3034.844362
1429.847357,-6957.935855,-536.266849,1850.514855
1429.847668,-5699.585753,2221.676944,814.226536
1429.847979,-6587.832884,2145.067394,-296.082377
1429.848291,-7624.121203,383.047749,740.205942
1429.848602,-8216.285956,-536.266849,2294.638420
1429.848913,-9178.553681,0.000000,2368.659014
1429.849225,-10510.924376,-153.219100,1480.411884
1429.849536,-9992.780217,76.609550,1702.473667
1429.849847,-8882.471304,-153.219100,962.267725
1429.850159,-8512.368333,0.000000,814.226536
1429.850470,-9104.533087,689.485948,1480.411884
1429.850781,-9770.718434,306.438199,1480.411884
1429.851093,-8956.491898,0.000000,2220.617826
1429.851404,-7328.038826,-459.657299,1924.535449
1429.851715,-7105.977043,-689.485948,666.185348
1429.852027,-7846.182985,-1302.362347,814.226536
1429.852338,-7920.203579,-612.876398,1258.350101
1429.852649,-9474.636058,-306.438199,-148.041188
1429.852961,-10066.800811,306.438199,-0.000000
1429.853272,-11029.068536,1532.190996,370.102971
1429.853583,-11991.336260,1072.533697,592.164754
1429.853895,-10955.047942,-306.438199,1998.556043
1429.854206,-9474.636058,-1608.800546,740.205942
1429.854517,-8512.368333,-1225.752797,148.041188
1429.854829,-7772.162391,76.609550,-296.082377
1429.855140,-6291.750507,-306.438199,-222.061783
1429.855451,-6957.935855,-536.266849,-0.000000
1429.855763,-9548.656652,-306.438199,1036.288319
1429.856074,-11917.315666,459.657299,2146.597232
1429.856385,-12065.356855,-383.047749,3182.885551
1429.856697,-9326.594869,-1072.533697,1850.514855
1429.857008,-6513.812290,-1838.629195,148.041188
1429.857319,-4663.297435,-2298.286494,-1036.288319
1429.857631,-4737.318029,-689.485948,-1554.432478
1429.857942,-6587.832884,1532.190996,-1258.350101
1429.858253,-9252.574275,1762.019645,-740.205942
1429.858565,-12213.398043,1915.238745,370.102971
1429.858876,-13545.768739,2374.896044,1480.411884
1429.859188,-11399.171507,1455.581446,888.247130
1429.859499,-6957.935855,995.924147,-1406.391290
1429.859810,-4663.297435,919.314598,-3552.988522
1429.860122,-3034.844362,1378.971896,-4367.215058
1429.860433,-4589.276840,306.438199,-3404.947333
1429.860744,-8660.409521,0.000000,-1110.308913
1429.861056,-13175.665768,0.000000,740.205942
1429.861367,-16728.654289,-306.438199,2146.597232
1429.861678,-15100.201217,-1225.752797,3182.885551
1429.861990,-11399.171507,-1685.410096,1184.329507
1429.862301,-7179.997637,-1991.848295,-1332.370696
1429.862612,-4737.318029,-1915.238745,-3330.926739
1429.862924,-4737.318029,-229.828649,-3404.947333
1429.863235,-7846.182985,1532.190996,-2220.617826
1429.863546,-11991.336260,2221.676944,-0.000000
1429.863858,-16136.489536,2451.505594,1480.411884
1429.864169,-15396.283594,383.047749,3034.844362
1429.864480,-11251.130318,-1302.362347,1554.432478
1429.864792,-5699.585753,-1149.143247,-444.123565
1429.865103,-3478.967927,0.000000,-1924.535449
1429.865414,-5033.400406,-919.314598,-1628.453072
1429.865726,-8586.388927,-1532.190996,-592.164754
1429.866037,-12731.542202,-1072.533697,1924.535449
1429.866348,-14211.954086,-536.266849,4515.256246
1429.866660,-13175.665768,-1378.971896,4663.297435
1429.866971,-9548.656652,-1685.410096,3182.885551
1429.867282,-5107.421000,-1532.190996,1480.411884
1429.867594,-2368.659014,-1378.971896,-666.185348
1429.867905,-3404.947333,-995.924147,-962.267725
1429.868216,-5995.668130,229.828649,148.041188
1429.868528,-9474.636058,1149.143247,1258.350101
1429.868839,-13175.665768,2221.676944,3108.864956
1429.869150,-13841.851115,2374.896044,3552.988522
1429.869462,-11029.068536,1149.143247,3404.947333
1429.869773,-7328.038826,153.219100,2886.803174
1429.870084,-5699.585753,-995.924147,1480.411884
1429.870396,-4663.297435,-1072.533697,-0.000000
1429.870707,-3775.050304,689.485948,-444.123565
1429.871018,-5995.668130,306.438199,-1184.329507
1429.871330,-7476.080014,1302.362347,296.082377
1429.871641,-10214.842000,1378.971896,1998.556043
1429.871952,-12361.439231,536.266849,3182.885551
1429.872264,-11399.171507,-612.876398,4885.359217
1429.872575,-7846.182985,-2298.286494,2886.803174
1429.872887,-4885.359217,-1762.019645,296.082377
1429.873198,-4367.215058,-612.876398,-1480.411884
1429.873510,-4441.235652,229.828649,-2368.659014
1429.873821,-7402.059420,919.314598,-1628.453072
1429.874132,-12361.439231,2068.457845,296.082377
1429.874444,-15174.221811,1685.410096,2146.597232
1429.874755,-14656.077652,383.047749,2960.823768
1429.875067,-11325.150913,-306.438199,2072.576638
1429.875378,-7031.956449,-689.485948,-888.247130
1429.875690,-3256.906145,-1072.533697,-3552.988522
1429.876001,-2294.638420,-919.314598,-4219.173869
1429.876312,-4589.276840,-689.485948,-3627.009116
1429.876624,-9474.636058,-919.314598,-1850.514855
1429.876935,-15322.262999,-995.924147,888.247130
1429.877247,-18653.189738,-1072.533697,3182.885551
1429.877558,-17172.777854,-1072.533697,3330.926739
1429.877870,-11177.109724,-1302.362347,1258.350101
1429.878181,-6735.874072,-2757.943793,-1924.535449
1429.878493,-3552.988522,-536.266849,-4367.215058
1429.878804,-2220.617826,306.438199,-4663.297435
1429.879115,-5699.585753,2145.067394,-3552.988522
1429.879427,-11251.130318,2451.505594,-444.123565
1429.879738,-15248.242405,995.924147,1332.370696
1429.880050,-15766.386565,536.266849,2368.659014
1429.880361,-12879.583391,919.314598,1776.494261
1429.880673,-8512.368333,76.609550,-962.267725
1429.880984,-5625.565159,-1149.143247,-3404.947333
1429.881295,-5255.462188,-1225.752797,-3404.947333
1429.881607,-6069.688724,-995.924147,-1850.514855
1429.881918,-9696.697840,-689.485948,-148.041188
1429.882230,-13767.830521,-229.828649,2886.803174
1429.882541,-13989.892304,-383.047749,4515.256246
1429.882853,-10584.944971,-1685.410096,4071.132681
1429.883164,-4737.318029,-2757.943793,2146.597232
1429.883476,-1554.432478,-1225.752797,-1036.288319
1429.883787,-2516.700203,-153.219100,-1036.288319
1429.884098,-5847.626942,459.657299,-740.205942
1429.884410,-10288.862594,306.438199,666.185348
1429.884721,-13027.624579,689.485948,1776.494261
1429.885033,-13841.851115,1378.971896,2886.803174
1429.885344,-10732.986159,1225.752797,2516.700203
1429.885656,-6587.832884,383.047749,962.267725
1429.885967,-4589.276840,-306.438199,-666.185348
1429.886278,-4145.153275,383.047749,-1406.391290
1429.886590,-5181.441594,1225.752797,-370.102971
1429.886901,-7698.141797,995.924147,148.041188
1429.887213,-10288.862594,229.828649,1258.350101
1429.887524,-11399.171507,0.000000,1184.329507
1429.887836,-10066.800811,229.828649,1776.494261
1429.888147,-9178.553681,-689.485948,1702.473667
1429.888459,-8438.347739,-2374.896044,1332.370696
1429.888770,-8438.347739,-3830.477490,740.205942
1429.889081,-7254.018232,-2987.772442,-962.267725
1429.889393,-8216.285956,-689.485948,-1036.288319
1429.889704,-10658.965565,1149.143247,370.102971
1429.890016,-12361.439231,842.705048,962.267725
1429.890327,-13175.665768,842.705048,962.267725
1429.890639,-12435.459826,1685.410096,1480.411884
1429.890950,-10288.862594,1072.533697,1332.370696
1429.891261,-7105.977043,1225.752797,-370.102971
1429.891573,-5403.503377,153.219100,-2664.741391
1429.891884,-5995.668130,-306.438199,-2886.803174
1429.892196,-8438.347739,-995.924147,-814.226536
1429.892507,-12435.459826,76.609550,1406.391290
1429.892819,-14508.036463,-689.485948,4071.132681
1429.893130,-14211.954086,-2451.505594,4441.235652
1429.893441,-11103.089130,-3753.867940,3849.070898
1429.893753,-6587.832884,-2451.505594,2368.659014
1429.894064,-3256.906145,-2145.067394,222.061783
1429.894376,-2442.679609,-1838.629195,-1258.350101
1429.894687,-4219.173869,-229.828649,-1850.514855
1429.894999,-7105.977043,1378.971896,-296.082377
1429.895310,-11547.212695,2451.505594,592.164754
1429.895622,-14656.077652,2068.457845,3108.864956
1429.895933,-14211.954086,842.705048,3404.947333
1429.896244,-10362.883188,0.000000,1924.535449
1429.896556,-6735.874072,153.219100,296.082377
1429.896867,-5255.462188,306.438199,-1110.308913
1429.897179,-3923.091493,766.095498,-1776.494261
1429.897490,-4811.338623,306.438199,-1406.391290
1429.897802,-8364.327145,1072.533697,148.041188
1429.898113,-11029.068536,1685.410096,2294.638420
1429.898424,-11103.089130,1685.410096,2886.803174
1429.898736,-8956.491898,383.047749,2220.617826
1429.899047,-6587.832884,-919.314598,-0.000000
1429.899359,-5181.441594,-1149.143247,-444.123565
1429.899670,-5107.421000,-459.657299,-2072.576638
1429.899982,-7476.080014,0.000000,-1998.556043
1429.900293,-10881.027347,76.609550,-888.247130
1429.900605,-12361.439231,536.266849,666.185348
1429.900916,-14063.912898,1378.971896,1554.432478
1429.901227,-13249.686362,1072.533697,2590.720797
1429.901539,-11843.295072,612.876398,1554.432478
1429.901850,-9548.656652,612.876398,74.020594
1429.902162,-6069.688724,612.876398,-1332.370696
1429.902473,-4441.235652,306.438199,-2368.659014
1429.902785,-3923.091493,612.876398,-2442.679609
1429.903096,-6365.771101,1225.752797,-740.205942
1429.903407,-11621.233289,-612.876398,740.205942
1429.903719,-14582.057057,-2451.505594,3182.885551
1429.904030,-14656.077652,-3140.991542,3256.906145
1429.904342,-11843.295072,-3217.601092,2960.823768
1429.904653,-8068.244768,-3217.601092,1628.453072
1429.904965,-5995.668130,-3064.381992,-666.185348
1429.905276,-5255.462188,-995.924147,-2072.576638
1429.905587,-6661.853478,1532.190996,-1776.494261
1429.905899,-8364.327145,1991.848295,-222.061783
1429.906210,-11325.150913,1762.019645,1406.391290
1429.906522,-12435.459826,1072.533697,2960.823768
1429.906833,-10214.842000,306.438199,1184.329507
1429.907145,-8216.285956,-153.219100,-444.123565
1429.907456,-5625.565159,1225.752797,-1406.391290
1429.907768,-6513.812290,612.876398,-1184.329507
1429.908079,-9326.594869,-919.314598,296.082377
1429.908390,-12435.459826,-995.924147,2072.576638
1429.908702,-13249.686362,0.000000,3330.926739
1429.909013,-11177.109724,153.219100,3404.947333
1429.909325,-7105.977043,-995.924147,1924.535449
1429.909636,-3108.864956,-1685.410096,-148.041188
1429.909948,-2294.638420,-459.657299,-1184.329507
1429.910259,-3701.029710,919.314598,-1406.391290
1429.910570,-7328.038826,1532.190996,-296.082377
1429.910882,-11251.130318,2068.457845,1480.411884
1429.911193,-14285.974681,1762.019645,2442.679609
1429.911505,-14285.974681,536.266849,3404.947333
1429.911816,-10881.027347,0.000000,2812.782580
1429.912128,-6957.935855,76.609550,1110.308913
1429.912439,-5181.441594,0.000000,-74.020594
1429.912751,-5255.462188,-766.095498,-444.123565
1429.913062,-6809.894666,-995.924147,-0.000000
1429.913373,-9844.739029,-153.219100,740.205942
1429.913685,-11769.274478,1685.410096,1850.514855
1429.913996,-10288.862594,1915.238745,1554.432478
1429.914308,-8364.327145,766.095498,1554.432478
1429.914619,-7031.956449,-766.095498,592.164754
1429.914931,-6143.709319,-2221.676944,740.205942
1429.915242,-7105.977043,-2451.505594,222.061783
1429.915553,-7846.182985,-842.705048,148.041188
1429.915865,-10658.965565,0.000000,814.226536
1429.916176,-12953.603985,536.266849,1480.411884
1429.916488,-13693.809927,-229.828649,1924.535449
1429.916799,-13027.624579,229.828649,1480.411884
1429.917111,-9548.656652,1532.190996,1702.473667
1429.917422,-7550.100608,459.657299,-222.061783
1429.917734,-5625.565159,612.876398,-1332.370696
1429.918045,-4885.359217,383.047749,-2072.576638
1429.918356,-5921.647536,229.828649,-1702.473667
1429.918668,-9104.533087,1225.752797,-0.000000
1429.918979,-12287.418637,536.266849,1480.411884
1429.919291,-13471.748144,-536.266849,2516.700203
1429.919602,-12139.377449,-1685.410096,2812.782580
1429.919914,-10140.821405,-1532.190996,1924.535449
1429.920225,-8290.306550,-919.314598,1110.308913
1429.920536,-6957.935855,-919.314598,222.061783
1429.920848,-6439.791695,306.438199,-148.041188
1429.921159,-6735.874072,612.876398,-222.061783
1429.921471,-7105.977043,1455.581446,-0.000000
1429.921782,-7402.059420,536.266849,-148.041188
1429.922094,-7698.141797,1991.848295,1258.350101
1429.922405,-8512.368333,1378.971896,1776.494261
1429.922716,-9474.636058,-153.219100,888.247130
1429.923028,-10955.047942,-1915.238745,370.102971
1429.923339,-10214.842000,-1608.800546,888.247130
1429.923651,-8438.347739,0.000000,518.144159
1429.923962,-7550.100608,306.438199,296.082377
1429.924274,-9548.656652,0.000000,-518.144159
1429.924585,-9696.697840,-919.314598,444.123565
1429.924897,-7402.059420,-689.485948,740.205942
1429.925208,-5847.626942,76.609550,222.061783
1429.925519,-6809.894666,1072.533697,-740.205942
1429.925831,-8438.347739,306.438199,-814.226536
1429.926142,-8734.430116,-153.219100,-888.247130
1429.926454,-9400.615463,919.314598,-888.247130
1429.926765,-11103.089130,1225.752797,814.226536
1429.927077,-12583.501014,1072.533697,740.205942
1429.927388,-11103.089130,0.000000,444.123565
1429.927699,-8586.388927,-1072.533697,-592.164754
1429.928011,-7550.100608,-1455.581446,-1480.411884
1429.928322,-7254.018232,153.219100,-962.267725
1429.928634,-7994.224174,1072.533697,-1184.329507
1429.928945,-10140.821405,919.314598,-888.247130
1429.929257,-11695.253884,76.609550,444.123565
1429.929568,-11991.336260,229.828649,1554.432478
1429.929880,-11029.068536,689.485948,1628.453072
1429.930191,-8808.450710,-766.095498,1406.391290
1429.930502,-7476.080014,-2987.772442,666.185348
1429.930814,-6587.832884,-3677.258390,222.061783
1429.931125,-6365.771101,-2451.505594,-0.000000
1429.931437,-7846.182985,-1915.238745,148.041188
1429.931748,-10436.903782,-612.876398,1554.432478
1429.932060,-12213.398043,-383.047749,2220.617826
1429.932371,-12879.583391,153.219100,1998.556043
1429.932682,-10955.047942,306.438199,2146.597232
1429.932994,-8512.368333,612.876398,1628.453072
1429.933305,-6291.750507,0.000000,-0.000000
1429.933617,-4885.359217,0.000000,-1702.473667
1429.933928,-4737.318029,1455.581446,-1110.308913
1429.934240,-6365.771101,1455.581446,-296.082377
1429.934551,-9844.739029,1072.533697,1554.432478
1429.934862,-13397.727550,-153.219100,2960.823768
1429.935174,-14063.912898,-1149.143247,4737.318029
1429.935485,-11621.233289,-1302.362347,4737.318029
1429.935797,-7698.141797,-1302.362347,2812.782580
1429.936108,-4737.318029,-1762.019645,-444.123565
1429.936420,-2368.659014,-1302.362347,-1998.556043
1429.936731,-2368.659014,153.219100,-2738.761985
1429.937043,-4811.338623,1838.629195,-1258.350101
1429.937354,-9400.615463,2374.896044,-148.041188
1429.937665,-13915.871710,1991.848295,1776.494261
1429.937977,-14508.036463,1072.533697,3330.926739
1429.938288,-12361.439231,766.095498,2368.659014
1429.938600,-10140.821405,1378.971896,518.144159
1429.938911,-7476.080014,1991.848295,-518.144159
1429.939223,-5625.565159,1838.629195,-1554.432478
1429.939534,-4589.276840,536.266849,-1850.514855
1429.939845,-6069.688724,306.438199,-1628.453072
1429.940157,-9104.533087,995.924147,-148.041188
1429.940468,-10807.006753,1991.848295,1702.473667
1429.940780,-11547.212695,-612.876398,1850.514855
1429.941091,-9918.759623,-1455.581446,888.247130
1429.941403,-8290.306550,-2221.676944,370.102971
1429.941714,-7624.121203,-2604.724693,-222.061783
1429.942026,-6735.874072,-1991.848295,-1332.370696
1429.942337,-8068.244768,-1378.971896,-1776.494261
1429.942648,-10066.800811,-689.485948,-1628.453072
1429.942960,-11695.253884,-229.828649,-0.000000
1429.943271,-12065.356855,-229.828649,1258.350101
1429.943583,-11621.233289,612.876398,1184.329507
1429.943894,-11547.212695,-1072.533697,-148.041188
1429.944206,-9474.636058,-306.438199,-1110.308913
1429.944517,-6957.935855,1302.362347,-2368.659014
1429.944828,-6957.935855,1991.848295,-1776.494261
1429.945140,-8290.306550,1378.971896,-814.226536
1429.945451,-10955.047942,-306.438199,370.102971
1429.945763,-11917.315666,-1378.971896,1998.556043
1429.946074,-9400.615463,-1072.533697,2886.803174
1429.946386,-8660.409521,-1302.362347,1110.308913
1429.946697,-7105.977043,-2604.724693,370.102971
1429.947008,-5847.626942,-2757.943793,-666.185348
1429.947320,-5699.585753,-1685.410096,-1332.370696
1429.947631,-7698.141797,229.828649,-962.267725
1429.947943,-11325.150913,1685.410096,-666.185348
1429.948254,-12953.603985,1991.848295,1406.391290
1429.948566,-13693.809927,919.314598,2960.823768
1429.948877,-11843.295072,-459.657299,3034.844362
1429.949189,-9770.718434,-689.485948,2368.659014
1429.949500,-7328.038826,0.000000,740.205942
1429.949811,-4441.235652,153.219100,-148.041188
1429.950123,-3923.091493,0.000000,-592.164754
1429.950434,-6217.729913,-383.047749,518.144159
1429.950746,-10436.903782,229.828649,1480.411884
1429.951057,-11325.150913,459.657299,3701.029710
1429.951369,-9548.656652,306.438199,3478.967927
1429.951680,-8068.244768,229.828649,2146.597232
1429.951991,-6143.709319,-383.047749,888.247130
1429.952303,-3923.091493,-842.705048,-296.082377
1429.952614,-3627.009116,459.657299,-962.267725
1429.952926,-5625.565159,766.095498,-222.061783
1429.953237,-9252.574275,1991.848295,296.082377
1429.953549,-12139.377449,459.657299,2220.617826
1429.953860,-12583.501014,-995.924147,3330.926739
1429.954172,-11177.109724,-1608.800546,2812.782580
1429.954483,-9622.677246,-1302.362347,1480.411884
1429.954794,-7402.059420,-919.314598,-222.061783
1429.955106,-6291.750507,-842.705048,-1110.308913
1429.955417,-6809.894666,-536.266849,-814.226536
1429.955729,-8808.450710,229.828649,-148.041188
