#time,accel_x,accel_y,accel_z
1490.778330,-8956.491898,0.000000,592.164754
1490.778642,-8808.450710,-153.219100,518.144159
1490.778953,-8808.450710,0.000000,592.164754
1490.779264,-8882.471304,0.000000,518.144159
1490.779576,-8956.491898,459.657299,666.185348
1490.779887,-9104.533087,0.000000,592.164754
1490.780199,-8438.347739,-153.219100,518.144159
1490.780510,-8808.450710,76.609550,444.123565
1490.780822,-8956.491898,0.000000,592.164754
1490.781133,-8660.409521,-153.219100,592.164754
1490.781444,-8882.471304,-383.047749,592.164754
1490.781756,-8882.471304,76.609550,444.123565
1490.782067,-9104.533087,-306.438199,444.123565
1490.782379,-8512.368333,-383.047749,666.185348
1490.782690,-8882.471304,-229.828649,148.041188
1490.783002,-8956.491898,0.000000,444.123565
1490.783313,-8956.491898,0.000000,592.164754
1490.783624,-8956.491898,0.000000,444.123565
1490.783936,-8882.471304,0.000000,592.164754
1490.784247,-8808.450710,383.047749,592.164754
1490.784559,-8956.491898,0.000000,592.164754
1490.784870,-9030.512492,-383.047749,592.164754
1490.785182,-8512.368333,0.000000,444.123565
1490.785493,-8734.430116,0.000000,740.205942
1490.785805,-9030.512492,0.000000,444.123565
1490.786116,-8956.491898,-229.828649,444.123565
1490.786427,-8808.450710,76.609550,444.123565
1490.786739,-8734.430116,76.609550,518.144159
1490.787050,-8586.388927,-229.828649,592.164754
1490.787362,-9030.512492,0.000000,444.123565
1490.787673,-9326.594869,76.609550,370.102971
1490.787985,-9030.512492,-229.828649,518.144159
1490.788296,-9104.533087,0.000000,370.102971
1490.788607,-8882.471304,-153.219100,518.144159
1490.788919,-9104.533087,-306.438199,592.164754
1490.789230,-8808.450710,-383.047749,740.205942
1490.789542,-9030.512492,-306.438199,444.123565
1490.789853,-8586.388927,383.047749,888.247130
1490.790165,-9104.533087,-153.219100,518.144159
1490.790476,-8734.430116,0.000000,444.123565
1490.790787,-9030.512492,0.000000,444.123565
1490.791099,-9104.533087,0.000000,518.144159
1490.791410,-8956.491898,-459.657299,222.061783
1490.791722,-8660.409521,-306.438199,370.102971
1490.792033,-8808.450710,-306.438199,-0.000000
1490.792345,-8734.430116,153.219100,518.144159
1490.792656,-8956.491898,0.000000,518.144159
1490.792967,-9030.512492,0.000000,296.082377
1490.793279,-8808.450710,0.000000,444.123565
1490.793590,-9030.512492,-76.609550,370.102971
1490.793902,-9104.533087,153.219100,814.226536
1490.794213,-9030.512492,0.000000,518.144159
1490.794525,-8882.471304,76.609550,-0.000000
1490.794836,-8734.430116,0.000000,370.102971
1490.795147,-8808.450710,0.000000,518.144159
1490.795459,-8734.430116,0.000000,666.185348
1490.795770,-8882.471304,0.000000,518.144159
1490.796082,-8956.491898,0.000000,740.205942
1490.796393,-8734.430116,306.438199,666.185348
1490.796705,-8808.450710,-383.047749,814.226536
1490.797016,-9030.512492,153.219100,592.164754
1490.797327,-8882.471304,-153.219100,370.102971
1490.797639,-8734.430116,0.000000,444.123565
1490.797950,-8882.471304,0.000000,740.205942
1490.798262,-8956.491898,-306.438199,740.205942
1490.798573,-9104.533087,0.000000,444.123565
1490.798885,-8734.430116,0.000000,296.082377
1490.799196,-8882.471304,0.000000,370.102971
1490.799507,-9030.512492,459.657299,592.164754
1490.799819,-8734.430116,0.000000,296.082377
1490.800130,-8808.450710,0.000000,444.123565
1490.800442,-8882.471304,-153.219100,666.185348
1490.800753,-8956.491898,-153.219100,444.123565
1490.801065,-8882.471304,0.000000,592.164754
1490.801376,-8734.430116,-229.828649,518.144159
1490.801687,-8438.347739,-76.609550,740.205942
1490.801999,-8956.491898,0.000000,148.041188
1490.802310,-8882.471304,0.000000,444.123565
1490.802622,-8956.491898,0.000000,518.144159
1490.802933,-9104.533087,-153.219100,592.164754
1490.803245,-9104.533087,-153.219100,518.144159
1490.803556,-9104.533087,306.438199,518.144159
1490.803867,-8956.491898,229.828649,592.164754
1490.804179,-8734.430116,0.000000,444.123565
1490.804490,-8956.491898,-459.657299,888.247130
1490.804802,-8882.471304,0.000000,296.082377
1490.805113,-8956.491898,-229.828649,518.144159
1490.805425,-8882.471304,0.000000,740.205942
1490.805736,-9030.512492,229.828649,444.123565
1490.806047,-8808.450710,-383.047749,444.123565
1490.806359,-8882.471304,-306.438199,296.082377
1490.806670,-8734.430116,-383.047749,222.061783
1490.806982,-8808.450710,0.000000,444.123565
1490.807293,-8882.471304,0.000000,666.185348
1490.807605,-9400.615463,0.000000,592.164754
1490.807916,-11325.150913,689.485948,148.041188
1490.808227,-11399.171507,2451.505594,370.102971
1490.808539,-8734.430116,5286.058936,666.185348
1490.808850,-7328.038826,3064.381992,962.267725
1490.809162,-6661.853478,1455.581446,1332.370696
1490.809473,-7031.956449,-1149.143247,-222.061783
1490.809785,-7476.080014,-995.924147,-0.000000
1490.810096,-7698.141797,-612.876398,-148.041188
1490.810407,-11917.315666,-1225.752797,-1184.329507
1490.810719,-12657.521608,153.219100,-518.144159
1490.811030,-9992.780217,459.657299,1036.288319
1490.811342,-8956.491898,0.000000,1480.411884
1490.811653,-9252.574275,-689.485948,3256.906145
1490.811965,-11991.336260,689.485948,1332.370696
1490.812276,-7920.203579,4749.792088,2516.700203
1490.812587,-4737.318029,5669.106685,1850.514855
1490.812899,-7624.121203,3370.820191,444.123565
1490.813210,-7402.059420,2451.505594,-666.185348
1490.813522,-7476.080014,3140.991542,-2368.659014
1490.813833,-8882.471304,3600.648841,-740.205942
1490.814145,-8660.409521,3217.601092,-222.061783
1490.814456,-13323.706956,1685.410096,-1258.350101
1490.814768,-13693.809927,-1225.752797,1480.411884
1490.815079,-8364.327145,-1378.971896,2516.700203
1490.815390,-10214.842000,689.485948,1110.308913
1490.815702,-8364.327145,5362.668486,3182.885551
1490.816013,-7105.977043,4903.011187,1110.308913
1490.816325,-6809.894666,2145.067394,2368.659014
1490.816636,-6143.709319,3370.820191,2368.659014
1490.816948,-7920.203579,6205.373534,518.144159
1490.817259,-8216.285956,6665.030833,-888.247130
1490.817570,-9474.636058,5056.230287,-888.247130
1490.817882,-9992.780217,3907.087040,-1036.288319
1490.818193,-10881.027347,5209.449386,-888.247130
1490.818505,-12805.562797,5822.325785,-222.061783
1490.818816,-10955.047942,5745.716235,1480.411884
1490.819128,-10510.924376,4366.744339,1850.514855
1490.819439,-8882.471304,5898.935335,2664.741391
1490.819750,-6291.750507,5515.887586,740.205942
1490.820062,-5329.482782,6281.983084,-0.000000
1490.820373,-5181.441594,5975.544884,370.102971
1490.820685,-5773.606348,6052.154434,-222.061783
1490.820996,-6957.935855,4443.353888,-1184.329507
1490.821308,-8290.306550,3524.039291,-814.226536
1490.821619,-9178.553681,2757.943793,-592.164754
1490.821930,-10584.944971,1762.019645,740.205942
1490.822242,-10881.027347,689.485948,1110.308913
1490.822553,-11103.089130,-153.219100,1776.494261
1490.822865,-10362.883188,536.266849,2294.638420
1490.823176,-9252.574275,2221.676944,2442.679609
1490.823488,-7772.162391,3830.477490,1480.411884
1490.823799,-6587.832884,3907.087040,296.082377
1490.824110,-6735.874072,3983.696590,-592.164754
1490.824422,-6809.894666,4060.306139,-888.247130
1490.824733,-6883.915261,4366.744339,-1332.370696
1490.825045,-7624.121203,1915.238745,-1184.329507
1490.825356,-9252.574275,-1072.533697,-518.144159
1490.825668,-10362.883188,-2757.943793,222.061783
1490.825979,-12065.356855,-2374.896044,814.226536
1490.826290,-13249.686362,-1915.238745,1628.453072
1490.826602,-12953.603985,-1072.533697,1702.473667
1490.826913,-12065.356855,766.095498,1554.432478
1490.827225,-10955.047942,2528.115143,444.123565
1490.827536,-8068.244768,4060.306139,-74.020594
1490.827848,-6069.688724,4290.134789,-74.020594
1490.828159,-5699.585753,4366.744339,592.164754
1490.828470,-6513.812290,3524.039291,592.164754
1490.828782,-8586.388927,2374.896044,-74.020594
1490.829093,-10732.986159,1302.362347,-0.000000
1490.829405,-12657.521608,536.266849,-296.082377
1490.829716,-13619.789333,76.609550,-148.041188
1490.830028,-14137.933492,-612.876398,-222.061783
1490.830339,-13471.748144,919.314598,444.123565
1490.830650,-11695.253884,2068.457845,740.205942
1490.830962,-9548.656652,3524.039291,1480.411884
1490.831273,-7105.977043,3907.087040,1850.514855
1490.831585,-3923.091493,4903.011187,2220.617826
1490.831896,-2960.823768,5592.497135,296.082377
1490.832208,-1702.473667,6128.763984,-518.144159
1490.832519,-2960.823768,4826.401637,-1924.535449
1490.832830,-6587.832884,3753.867940,-1850.514855
1490.833142,-10881.027347,2681.334243,-962.267725
1490.833453,-14878.139434,3294.210641,-0.000000
1490.833765,-16210.510130,4136.915689,1850.514855
1490.834076,-15174.221811,3907.087040,3034.844362
1490.834388,-11991.336260,4213.525239,3404.947333
1490.834699,-7402.059420,3600.648841,2664.741391
1490.835010,-3627.009116,4749.792088,1480.411884
1490.835322,-1332.370696,5898.935335,296.082377
1490.835633,-1184.329507,7431.126331,-1628.453072
1490.835945,-3256.906145,7277.907231,-2368.659014
1490.836256,-6217.729913,5209.449386,-2220.617826
1490.836568,-8216.285956,3217.601092,-518.144159
1490.836879,-9622.677246,1072.533697,666.185348
1490.837190,-11251.130318,-1608.800546,1184.329507
1490.837502,-12139.377449,-3370.820191,1998.556043
1490.837813,-13175.665768,-3524.039291,2294.638420
1490.838125,-13175.665768,0.000000,1554.432478
1490.838436,-12879.583391,3217.601092,1480.411884
1490.838748,-11029.068536,5056.230287,1628.453072
1490.839059,-8734.430116,6128.763984,1258.350101
1490.839370,-6291.750507,5822.325785,1776.494261
1490.839682,-5625.565159,4596.572988,296.082377
1490.839993,-5033.400406,3447.429741,-0.000000
1490.840305,-7031.956449,1915.238745,-2220.617826
1490.840616,-8734.430116,2451.505594,-2072.576638
1490.840928,-10955.047942,2911.162892,-2368.659014
1490.841239,-12287.418637,2757.943793,-962.267725
1490.841550,-12509.480420,2068.457845,296.082377
1490.841862,-12657.521608,459.657299,2146.597232
1490.842173,-13323.706956,383.047749,2442.679609
1490.842485,-12213.398043,2451.505594,2368.659014
1490.842796,-10140.821405,5975.544884,1258.350101
1490.843108,-8068.244768,6971.469032,1110.308913
1490.843419,-5625.565159,5745.716235,-74.020594
1490.843731,-5107.421000,3294.210641,-740.205942
1490.844042,-6513.812290,1991.848295,-1776.494261
1490.844353,-8142.265362,2298.286494,-1184.329507
1490.844665,-9696.697840,2834.553343,-518.144159
1490.844976,-9844.739029,1455.581446,296.082377
1490.845288,-8290.306550,-2528.115143,2368.659014
1490.845599,-7698.141797,-4979.620737,2220.617826
1490.845911,-8586.388927,-1608.800546,2220.617826
1490.846222,-9474.636058,4519.963438,518.144159
1490.846533,-10807.006753,9346.365076,-1036.288319
1490.846845,-10140.821405,11108.384721,-222.061783
1490.847156,-9326.594869,9116.536426,444.123565
1490.847468,-8734.430116,5056.230287,-0.000000
1490.847779,-7476.080014,3447.429741,592.164754
1490.848091,-6957.935855,4136.915689,-148.041188
1490.848402,-5995.668130,4749.792088,518.144159
1490.848713,-5403.503377,2451.505594,1036.288319
1490.849025,-5625.565159,-1685.410096,740.205942
1490.849336,-6957.935855,-2757.943793,814.226536
1490.849648,-8660.409521,229.828649,-74.020594
1490.849959,-11177.109724,5592.497135,-1110.308913
1490.850271,-12731.542202,8350.440928,-666.185348
1490.850582,-13175.665768,6511.811733,1628.453072
1490.850893,-13619.789333,2681.334243,3108.864956
1490.851205,-13101.645173,1608.800546,3627.009116
1490.851516,-10066.800811,3753.867940,2812.782580
1490.851828,-6587.832884,4673.182538,1480.411884
1490.852139,-3701.029710,2298.286494,1554.432478
1490.852450,-2886.803174,-2451.505594,-222.061783
1490.852762,-3775.050304,-6052.154434,-1184.329507
1490.853073,-4885.359217,-1915.238745,-592.164754
1490.853384,-7772.162391,3370.820191,-518.144159
1490.853696,-11843.295072,5362.668486,-740.205942
1490.854007,-16210.510130,2911.162892,518.144159
1490.854318,-18727.210333,1225.752797,2516.700203
1490.854630,-15988.448347,4290.134789,3701.029710
1490.854941,-12361.439231,7354.516781,2368.659014
1490.855252,-7846.182985,6818.249932,962.267725
1490.855564,-3478.967927,2374.896044,-296.082377
1490.855875,-1036.288319,-1762.019645,-1406.391290
1490.856186,0.000000,-229.828649,-1258.350101
1490.856498,-2590.720797,2374.896044,-592.164754
1490.856809,-8956.491898,2681.334243,-296.082377
1490.857120,-14063.912898,919.314598,888.247130
1490.857432,-17024.736666,2068.457845,-0.000000
1490.857743,-16580.613101,4060.306139,-0.000000
1490.858054,-13619.789333,4903.011187,-0.000000
1490.858366,-11843.295072,3524.039291,-1554.432478
1490.858677,-9696.697840,1762.019645,-1998.556043
1490.858989,-5477.523971,3600.648841,-1776.494261
1490.859300,-3627.009116,2834.553343,296.082377
1490.859611,-4219.173869,1532.190996,2368.659014
1490.859923,-6809.894666,-919.314598,3034.844362
1490.860234,-9474.636058,-1149.143247,3108.864956
1490.860545,-9844.739029,2911.162892,2812.782580
1490.860857,-10510.924376,7967.393179,-592.164754
1490.861168,-10955.047942,9269.755526,-2516.700203
1490.861479,-9770.718434,7124.688131,-4589.276840
1490.861791,-7846.182985,5669.106685,-4737.318029
1490.862102,-8660.409521,7201.297681,-2294.638420
1490.862413,-12065.356855,8350.440928,-666.185348
1490.862725,-13989.892304,5209.449386,2516.700203
1490.863036,-11769.274478,766.095498,4959.379811
1490.863347,-8364.327145,-2451.505594,5033.400406
1490.863659,-4737.318029,-842.705048,3182.885551
1490.863970,-4367.215058,2145.067394,-222.061783
1490.864281,-3108.864956,2987.772442,-1776.494261
1490.864593,-2146.597232,4213.525239,-2146.597232
1490.864904,-9030.512492,5439.278036,-1110.308913
1490.865216,-14582.057057,6281.983084,740.205942
1490.865527,-15396.283594,6818.249932,2738.761985
1490.865838,-13915.871710,4749.792088,3849.070898
1490.866150,-10214.842000,3447.429741,2294.638420
1490.866461,-7328.038826,2528.115143,296.082377
1490.866772,-3330.926739,1532.190996,-1110.308913
1490.867084,-3256.906145,-842.705048,-148.041188
1490.867395,-5773.606348,-2221.676944,1036.288319
1490.867706,-7476.080014,-229.828649,2294.638420
1490.868018,-11029.068536,-1378.971896,2960.823768
1490.868329,-11621.233289,-3140.991542,4515.256246
1490.868640,-9696.697840,-1991.848295,2738.761985
1490.868952,-7994.224174,842.705048,-1184.329507
1490.869263,-6143.709319,3140.991542,-888.247130
1490.869574,-8734.430116,2451.505594,-2368.659014
1490.869886,-11029.068536,3753.867940,-1702.473667
1490.870197,-10807.006753,4596.572988,1332.370696
1490.870508,-11991.336260,1915.238745,2368.659014
1490.870820,-11769.274478,536.266849,3108.864956
1490.871131,-9548.656652,3524.039291,1554.432478
1490.871442,-7624.121203,4826.401637,518.144159
1490.871754,-6735.874072,3064.381992,-888.247130
1490.872065,-7105.977043,4136.915689,-1184.329507
1490.872377,-10807.006753,5362.668486,-2516.700203
1490.872688,-12065.356855,5669.106685,-2664.741391
1490.872999,-11769.274478,5132.839837,-2738.761985
1490.873311,-11473.192101,5209.449386,-2664.741391
1490.873622,-11029.068536,4826.401637,-74.020594
1490.873933,-9474.636058,1608.800546,1702.473667
1490.874245,-9992.780217,-1455.581446,2294.638420
1490.874556,-10140.821405,-1608.800546,3701.029710
1490.874867,-9696.697840,-459.657299,2960.823768
1490.875179,-7476.080014,1149.143247,444.123565
1490.875490,-4589.276840,2451.505594,-1480.411884
1490.875801,-5625.565159,1532.190996,-2516.700203
1490.876113,-5403.503377,1608.800546,-2590.720797
1490.876424,-6957.935855,3524.039291,-2072.576638
1490.876735,-11251.130318,2528.115143,444.123565
1490.877047,-11991.336260,0.000000,2294.638420
1490.877358,-11177.109724,-2068.457845,1628.453072
1490.877669,-9252.574275,-2451.505594,2664.741391
1490.877981,-6957.935855,-1838.629195,2368.659014
1490.878292,-6217.729913,-1378.971896,222.061783
1490.878604,-7105.977043,995.924147,814.226536
1490.878915,-7105.977043,689.485948,2072.576638
1490.879226,-6735.874072,-306.438199,2368.659014
1490.879538,-7105.977043,-536.266849,1776.494261
1490.879849,-5995.668130,689.485948,444.123565
1490.880160,-4663.297435,1302.362347,-444.123565
1490.880472,-6365.771101,1532.190996,-1924.535449
1490.880783,-9622.677246,1991.848295,-1110.308913
1490.881094,-12213.398043,-153.219100,-296.082377
1490.881406,-13693.809927,-2681.334243,666.185348
1490.881717,-14730.098246,-1685.410096,1776.494261
1490.882028,-13915.871710,-536.266849,2738.761985
1490.882340,-11621.233289,-383.047749,1850.514855
1490.882651,-9474.636058,-1225.752797,2146.597232
1490.882962,-7031.956449,-1608.800546,1998.556043
1490.883274,-5329.482782,-1455.581446,814.226536
1490.883585,-5033.400406,1532.190996,888.247130
1490.883896,-8216.285956,1608.800546,-1406.391290
1490.884208,-9178.553681,2911.162892,-2294.638420
1490.884519,-11843.295072,1838.629195,-2294.638420
1490.884830,-13767.830521,153.219100,-518.144159
1490.885142,-12509.480420,-459.657299,518.144159
1490.885453,-12361.439231,-1762.019645,666.185348
1490.885765,-12583.501014,-2451.505594,2664.741391
1490.886076,-10807.006753,-3294.210641,2886.803174
1490.886387,-10066.800811,-2757.943793,2664.741391
1490.886699,-8734.430116,0.000000,2294.638420
1490.887010,-6513.812290,2681.334243,518.144159
1490.887321,-4959.379811,3907.087040,-592.164754
1490.887633,-3330.926739,3830.477490,-814.226536
1490.887944,-3404.947333,3064.381992,-1776.494261
1490.888255,-4737.318029,919.314598,-1332.370696
1490.888567,-5995.668130,229.828649,-444.123565
1490.888878,-9696.697840,76.609550,-444.123565
1490.889189,-9992.780217,-536.266849,-0.000000
1490.889501,-10955.047942,-1302.362347,296.082377
1490.889812,-11695.253884,-1762.019645,814.226536
1490.890123,-9770.718434,-1225.752797,1258.350101
1490.890435,-9474.636058,-689.485948,1628.453072
1490.890746,-8734.430116,-766.095498,2368.659014
1490.891057,-6069.688724,-1532.190996,2590.720797
1490.891369,-4219.173869,-689.485948,962.267725
1490.891680,-1554.432478,766.095498,-222.061783
1490.891992,-2738.761985,766.095498,-1628.453072
1490.892303,-6069.688724,0.000000,-2590.720797
1490.892614,-9548.656652,-229.828649,-1998.556043
1490.892926,-14434.015869,-612.876398,-814.226536
1490.893237,-15248.242405,-766.095498,1258.350101
1490.893548,-16432.571912,-2681.334243,1258.350101
1490.893860,-16062.468941,-2221.676944,1850.514855
1490.894171,-12509.480420,-306.438199,1850.514855
1490.894482,-10362.883188,229.828649,1554.432478
1490.894794,-8660.409521,1685.410096,1184.329507
1490.895105,-7254.018232,3907.087040,-296.082377
1490.895416,-4737.318029,3753.867940,-1554.432478
1490.895728,-3775.050304,1685.410096,-1850.514855
1490.896039,-5107.421000,536.266849,-1406.391290
1490.896350,-5995.668130,0.000000,-592.164754
1490.896662,-10066.800811,-1149.143247,222.061783
1490.896973,-14434.015869,-2681.334243,1258.350101
1490.897284,-15988.448347,-2451.505594,2368.659014
1490.897596,-16210.510130,-1532.190996,2146.597232
1490.897907,-14508.036463,-1225.752797,2368.659014
1490.898218,-10584.944971,-383.047749,1184.329507
1490.898530,-9030.512492,0.000000,370.102971
1490.898841,-7105.977043,1149.143247,-74.020594
1490.899153,-3627.009116,2451.505594,-222.061783
1490.899464,-296.082377,1378.971896,296.082377
1490.899775,-148.041188,-1532.190996,888.247130
1490.900087,-666.185348,-3600.648841,1480.411884
1490.900398,-4145.153275,-4826.401637,370.102971
1490.900709,-10066.800811,-4366.744339,1258.350101
1490.901021,-12805.562797,-1991.848295,2294.638420
1490.901332,-15692.365970,-2068.457845,2368.659014
1490.901643,-16580.613101,-1991.848295,2442.679609
1490.901955,-14878.139434,-1378.971896,2368.659014
1490.902266,-10955.047942,1838.629195,1480.411884
1490.902577,-7328.038826,4903.011187,296.082377
1490.902889,-3552.988522,5209.449386,-74.020594
1490.903200,74.020594,3753.867940,-962.267725
1490.903511,1480.411884,1072.533697,-1332.370696
1490.903823,592.164754,459.657299,-1258.350101
1490.904134,-4515.256246,229.828649,-2220.617826
1490.904445,-11769.274478,0.000000,-2220.617826
1490.904757,-16580.613101,383.047749,444.123565
1490.905068,-18431.127956,-306.438199,1998.556043
1490.905380,-18727.210333,-919.314598,3108.864956
1490.905691,-18283.086767,-1991.848295,3182.885551
1490.906002,-13915.871710,-842.705048,1480.411884
1490.906314,-9252.574275,1838.629195,-222.061783
1490.906625,-6143.709319,4366.744339,-1480.411884
1490.906936,-3330.926739,4213.525239,-1776.494261
1490.907248,-518.144159,1838.629195,-2664.741391
1490.907559,0.000000,-153.219100,-2072.576638
1490.907870,-2886.803174,-766.095498,-592.164754
1490.908182,-8068.244768,-3677.258390,-370.102971
1490.908493,-13397.727550,-3753.867940,1554.432478
1490.908804,-16802.674883,-4060.306139,3627.009116
1490.909116,-18579.169144,-4596.572988,4885.359217
1490.909427,-17246.798449,-4213.525239,4515.256246
1490.909738,-13989.892304,-2221.676944,2220.617826
1490.910050,-10288.862594,-229.828649,222.061783
1490.910361,-5551.544565,1455.581446,-740.205942
1490.910672,-2812.782580,2987.772442,-1924.535449
1490.910984,-1850.514855,2221.676944,-1184.329507
1490.911295,-592.164754,995.924147,-444.123565
1490.911606,-1406.391290,-689.485948,-74.020594
1490.911918,-3330.926739,0.000000,-592.164754
1490.912229,-6957.935855,612.876398,-0.000000
1490.912541,-11325.150913,766.095498,1184.329507
1490.912852,-15544.324782,-842.705048,2368.659014
1490.913163,-17024.736666,-766.095498,3478.967927
1490.913475,-16950.716072,-1072.533697,2146.597232
1490.913786,-13989.892304,153.219100,1850.514855
1490.914097,-10510.924376,1302.362347,148.041188
1490.914409,-7105.977043,1532.190996,-1554.432478
1490.914720,-5107.421000,1225.752797,-2146.597232
1490.915031,-3923.091493,842.705048,-1258.350101
1490.915343,-3330.926739,1378.971896,-1036.288319
1490.915654,-6587.832884,842.705048,-1036.288319
1490.915965,-8364.327145,536.266849,444.123565
1490.916277,-10436.903782,-1072.533697,740.205942
1490.916588,-12435.459826,-1532.190996,2886.803174
1490.916899,-14359.995275,-2298.286494,3849.070898
1490.917211,-13471.748144,-2374.896044,3404.947333
1490.917522,-10658.965565,-2681.334243,1998.556043
1490.917833,-9770.718434,-2068.457845,370.102971
1490.918145,-7698.141797,459.657299,-518.144159
1490.918456,-6291.750507,3064.381992,-2146.597232
1490.918768,-7402.059420,4060.306139,-2960.823768
1490.919079,-4737.318029,4673.182538,-1480.411884
1490.919390,-3108.864956,2221.676944,-814.226536
1490.919702,-5033.400406,-1225.752797,1036.288319
1490.920013,-4737.318029,-1532.190996,2220.617826
1490.920324,-6587.832884,-1608.800546,1554.432478
1490.920636,-9696.697840,-995.924147,2886.803174
1490.920947,-13027.624579,-1455.581446,2590.720797
1490.921258,-13397.727550,-1455.581446,962.267725
1490.921570,-12583.501014,-995.924147,-592.164754
1490.921881,-11843.295072,1225.752797,-444.123565
1490.922192,-9918.759623,3140.991542,-1628.453072
1490.922504,-9918.759623,2221.676944,-2516.700203
1490.922815,-8734.430116,919.314598,-444.123565
1490.923126,-2960.823768,536.266849,1184.329507
1490.923438,-3701.029710,-459.657299,148.041188
1490.923749,-4885.359217,-229.828649,1554.432478
1490.924060,-3997.112087,-229.828649,1332.370696
1490.924372,-9622.677246,-1225.752797,666.185348
1490.924683,-12361.439231,-1225.752797,4071.132681
1490.924994,-14952.160028,-1991.848295,1702.473667
1490.925306,-16654.633695,-1149.143247,592.164754
1490.925617,-13323.706956,229.828649,1776.494261
1490.925929,-11769.274478,0.000000,-888.247130
1490.926240,-8956.491898,536.266849,-518.144159
1490.926551,-7105.977043,459.657299,-0.000000
1490.926863,-7031.956449,-1302.362347,1554.432478
1490.927174,-5033.400406,-1532.190996,1776.494261
1490.927485,-3775.050304,76.609550,2812.782580
1490.927797,-3627.009116,-766.095498,1628.453072
1490.928108,-4441.235652,-3294.210641,1036.288319
1490.928419,-6513.812290,-3370.820191,1110.308913
1490.928731,-8956.491898,-2374.896044,1554.432478
1490.929042,-12953.603985,-1149.143247,444.123565
1490.929353,-15026.180623,-1608.800546,1258.350101
1490.929665,-14804.118840,-306.438199,-592.164754
1490.929976,-11917.315666,1685.410096,-888.247130
1490.930287,-9104.533087,2757.943793,-888.247130
1490.930599,-8290.306550,2145.067394,-2072.576638
1490.930910,-7550.100608,1991.848295,-1110.308913
1490.931221,-4145.153275,3064.381992,444.123565
1490.931533,-2368.659014,1685.410096,2294.638420
1490.931844,-2220.617826,-1378.971896,3330.926739
1490.932155,-3552.988522,-3907.087040,2072.576638
1490.932467,-6957.935855,-2528.115143,-0.000000
1490.932778,-12879.583391,-153.219100,-1702.473667
1490.933090,-16654.633695,2834.553343,-2146.597232
1490.933401,-17542.880825,3600.648841,-2738.761985
1490.933712,-18875.251521,1915.238745,-2368.659014
1490.934024,-16136.489536,1762.019645,-222.061783
1490.934335,-12657.521608,2145.067394,-0.000000
1490.934646,-9770.718434,2298.286494,888.247130
1490.934958,-5625.565159,2068.457845,2294.638420
1490.935269,-666.185348,919.314598,1924.535449
1490.935580,0.000000,0.000000,1406.391290
1490.935892,-3108.864956,-1455.581446,740.205942
1490.936203,-6661.853478,-2298.286494,-1036.288319
1490.936514,-9992.780217,229.828649,-1480.411884
1490.936826,-12435.459826,1608.800546,-0.000000
1490.937137,-13471.748144,0.000000,296.082377
1490.937448,-13767.830521,-2681.334243,1850.514855
1490.937760,-13101.645173,-3830.477490,1110.308913
1490.938071,-9326.594869,-766.095498,1776.494261
1490.938382,-6291.750507,1915.238745,370.102971
1490.938694,-6587.832884,3370.820191,370.102971
1490.939005,-4589.276840,2681.334243,2146.597232
1490.939317,-1110.308913,0.000000,2738.761985
1490.939628,1110.308913,-842.705048,4737.318029
1490.939939,-296.082377,-3524.039291,2738.761985
1490.940251,-5773.606348,-4366.744339,962.267725
1490.940562,-8290.306550,-2528.115143,592.164754
1490.940873,-12731.542202,-2451.505594,-0.000000
1490.941185,-14434.015869,-1991.848295,1110.308913
1490.941496,-15100.201217,-2451.505594,-296.082377
1490.941807,-16654.633695,-1378.971896,-814.226536
1490.942119,-14359.995275,919.314598,666.185348
1490.942430,-11917.315666,1838.629195,-0.000000
1490.942741,-10214.842000,2221.676944,2072.576638
1490.943053,-4885.359217,2221.676944,4071.132681
1490.943364,-888.247130,-229.828649,2812.782580
1490.943675,-740.205942,-1149.143247,1036.288319
1490.943987,-2442.679609,612.876398,-962.267725
1490.944298,-6439.791695,2298.286494,-3108.864956
1490.944609,-12361.439231,1378.971896,-2738.761985
1490.944921,-19245.354492,1302.362347,-1924.535449
1490.945232,-20503.704593,1455.581446,-962.267725
1490.945543,-18727.210333,229.828649,-0.000000
1490.945855,-16432.571912,-766.095498,1850.514855
1490.946166,-12287.418637,-1149.143247,1776.494261
1490.946478,-8882.471304,383.047749,1110.308913
1490.946789,-4663.297435,612.876398,3182.885551
1490.947100,148.041188,1072.533697,2368.659014
1490.947412,-1776.494261,536.266849,444.123565
1490.947723,-2368.659014,229.828649,222.061783
1490.948034,-2960.823768,0.000000,-2886.803174
1490.948346,-5995.668130,-459.657299,-1850.514855
1490.948657,-10955.047942,-766.095498,-444.123565
1490.948968,-15470.304188,-1455.581446,444.123565
1490.949280,-14359.995275,-3064.381992,1406.391290
1490.949591,-12435.459826,-2451.505594,1184.329507
1490.949902,-11399.171507,-536.266849,1036.288319
1490.950214,-8068.244768,2374.896044,-1332.370696
1490.950525,-5995.668130,2528.115143,-1998.556043
1490.950836,-3552.988522,1532.190996,-148.041188
1490.951148,-1998.556043,2068.457845,1924.535449
1490.951459,-962.267725,1072.533697,2220.617826
1490.951771,-2294.638420,-2221.676944,1924.535449
1490.952082,-4367.215058,-5132.839837,2738.761985
1490.952394,-8068.244768,-5209.449386,1110.308913
1490.952705,-12065.356855,-1915.238745,-0.000000
1490.953017,-16432.571912,-536.266849,-1184.329507
1490.953328,-17764.942608,-842.705048,-1628.453072
1490.953640,-16136.489536,383.047749,-814.226536
1490.953951,-14656.077652,842.705048,-74.020594
1490.954263,-11843.295072,1608.800546,666.185348
1490.954574,-10955.047942,1455.581446,1184.329507
1490.954886,-9992.780217,1532.190996,1924.535449
1490.955197,-5329.482782,2911.162892,1628.453072
1490.955508,-3256.906145,2374.896044,518.144159
1490.955820,-3330.926739,1915.238745,592.164754
1490.956131,-4145.153275,689.485948,-1406.391290
1490.956443,-7920.203579,-612.876398,-518.144159
1490.956754,-12805.562797,-1608.800546,1036.288319
1490.957066,-15988.448347,-2068.457845,1702.473667
1490.957377,-14582.057057,-3294.210641,2442.679609
1490.957689,-13249.686362,-2987.772442,1036.288319
1490.958000,-11177.109724,-1608.800546,814.226536
1490.958312,-8438.347739,536.266849,-518.144159
1490.958623,-8586.388927,1991.848295,-1924.535449
1490.958935,-7328.038826,5209.449386,-148.041188
1490.959246,-4663.297435,4060.306139,2072.576638
1490.959558,-3034.844362,229.828649,2294.638420
1490.959869,-1332.370696,-995.924147,3627.009116
1490.960180,-1184.329507,-2068.457845,2368.659014
1490.960492,-5625.565159,-2757.943793,1998.556043
1490.960803,-9104.533087,-2681.334243,2368.659014
1490.961115,-12213.398043,-2528.115143,814.226536
1490.961426,-13249.686362,-1455.581446,-74.020594
1490.961738,-13175.665768,0.000000,-1702.473667
1490.962049,-11991.336260,2145.067394,-2368.659014
1490.962361,-10510.924376,3677.258390,-2516.700203
1490.962672,-9992.780217,2528.115143,-962.267725
1490.962984,-7105.977043,1991.848295,1332.370696
1490.963295,-3997.112087,1838.629195,2812.782580
1490.963607,-1332.370696,1685.410096,3552.988522
1490.963918,-1998.556043,-919.314598,2220.617826
1490.964230,-5329.482782,-2221.676944,962.267725
1490.964541,-9252.574275,-2604.724693,370.102971
1490.964852,-13545.768739,-1302.362347,-1628.453072
1490.965164,-16654.633695,766.095498,-1702.473667
1490.965475,-17320.819043,1072.533697,-2072.576638
1490.965787,-16580.613101,153.219100,-1776.494261
1490.966098,-15100.201217,-612.876398,-444.123565
1490.966410,-12065.356855,842.705048,-962.267725
1490.966721,-9548.656652,2451.505594,-0.000000
1490.967033,-6957.935855,2068.457845,1258.350101
1490.967344,-3108.864956,536.266849,2812.782580
1490.967656,-592.164754,-1072.533697,1776.494261
1490.967967,0.000000,-2987.772442,2072.576638
1490.968279,-3182.885551,-4903.011187,-0.000000
1490.968590,-7254.018232,-4673.182538,-0.000000
1490.968902,-12657.521608,-3370.820191,-0.000000
1490.969213,-15766.386565,-2834.553343,592.164754
1490.969524,-16876.695478,-2604.724693,-370.102971
1490.969836,-17542.880825,-1455.581446,-518.144159
1490.970147,-13101.645173,1072.533697,666.185348
1490.970459,-9548.656652,1608.800546,-592.164754
1490.970770,-7994.224174,1532.190996,296.082377
1490.971082,-4293.194464,2221.676944,1554.432478
1490.971393,-592.164754,2068.457845,1036.288319
1490.971705,518.144159,919.314598,3108.864956
1490.972016,-1258.350101,-766.095498,3108.864956
1490.972328,-3552.988522,-2451.505594,1628.453072
1490.972639,-10066.800811,-1915.238745,370.102971
1490.972951,-15988.448347,536.266849,-444.123565
1490.973262,-16728.654289,1915.238745,-1406.391290
1490.973574,-15322.262999,1838.629195,-1258.350101
1490.973885,-15026.180623,306.438199,222.061783
1490.974197,-12657.521608,-153.219100,444.123565
1490.974508,-9104.533087,1302.362347,296.082377
1490.974819,-6587.832884,3140.991542,2146.597232
1490.975131,-3775.050304,2834.553343,2442.679609
1490.975442,-2220.617826,2145.067394,2294.638420
1490.975754,-3552.988522,1072.533697,296.082377
1490.976065,-4885.359217,229.828649,-444.123565
1490.976377,-7105.977043,306.438199,-962.267725
1490.976688,-11991.336260,76.609550,-222.061783
1490.977000,-15840.407159,-612.876398,518.144159
1490.977311,-15100.201217,-1991.848295,1702.473667
1490.977623,-14211.954086,-2604.724693,2516.700203
1490.977934,-11177.109724,-1685.410096,2368.659014
1490.978246,-7476.080014,229.828649,-0.000000
1490.978557,-6291.750507,383.047749,-1332.370696
1490.978869,-4071.132681,1915.238745,-0.000000
1490.979180,-1776.494261,1991.848295,-370.102971
1490.979491,-1998.556043,766.095498,-222.061783
1490.979803,-4737.318029,-766.095498,740.205942
1490.980114,-6809.894666,-2757.943793,1406.391290
1490.980426,-8512.368333,-2221.676944,1184.329507
1490.980737,-12213.398043,-612.876398,1776.494261
1490.981049,-14359.995275,-1991.848295,2294.638420
1490.981360,-15174.221811,-3600.648841,1480.411884
1490.981672,-15322.262999,-1838.629195,666.185348
1490.981983,-12213.398043,2451.505594,-592.164754
1490.982295,-10066.800811,3677.258390,-2442.679609
1490.982606,-8216.285956,2528.115143,-1628.453072
1490.982918,-4885.359217,1685.410096,-888.247130
1490.983229,-2738.761985,1608.800546,-0.000000
1490.983541,-2516.700203,306.438199,1110.308913
1490.983852,-4811.338623,-383.047749,888.247130
1490.984163,-9992.780217,-1225.752797,148.041188
1490.984475,-12657.521608,-842.705048,296.082377
1490.984786,-15396.283594,-459.657299,370.102971
1490.985098,-16876.695478,-766.095498,1184.329507
1490.985409,-14582.057057,-1915.238745,1332.370696
1490.985721,-12953.603985,-2987.772442,888.247130
1490.986032,-10436.903782,-2145.067394,-0.000000
1490.986344,-7698.141797,-1608.800546,296.082377
1490.986655,-7550.100608,-536.266849,518.144159
1490.986967,-6143.709319,1149.143247,444.123565
1490.987278,-5403.503377,1915.238745,148.041188
1490.987590,-5033.400406,919.314598,-370.102971
1490.987901,-4367.215058,1838.629195,-148.041188
1490.988213,-6661.853478,1302.362347,592.164754
1490.988524,-8290.306550,-459.657299,2220.617826
1490.988835,-11251.130318,-2911.162892,3034.844362
1490.989147,-11547.212695,-3294.210641,3034.844362
1490.989458,-10807.006753,-2145.067394,1480.411884
1490.989770,-10510.924376,-919.314598,222.061783
1490.990081,-7846.182985,919.314598,-2368.659014
1490.990393,-5847.626942,1685.410096,-2738.761985
1490.990704,-5847.626942,2145.067394,-2442.679609
1490.991016,-7179.997637,1762.019645,-370.102971
1490.991327,-6143.709319,459.657299,1924.535449
1490.991639,-4071.132681,76.609550,2812.782580
1490.991950,-3404.947333,-842.705048,5255.462188
1490.992262,-4959.379811,-3217.601092,3182.885551
1490.992573,-10140.821405,-2528.115143,2368.659014
1490.992885,-13693.809927,-1149.143247,962.267725
1490.993196,-13841.851115,1838.629195,-1480.411884
1490.993508,-14730.098246,2834.553343,-2146.597232
1490.993819,-14508.036463,1838.629195,-2072.576638
1490.994130,-11769.274478,536.266849,-1406.391290
1490.994442,-9474.636058,-306.438199,-296.082377
1490.994753,-8290.306550,536.266849,1924.535449
1490.995065,-6957.935855,689.485948,2072.576638
1490.995376,-3849.070898,1225.752797,2146.597232
1490.995688,-4663.297435,689.485948,1258.350101
1490.995999,-6217.729913,-459.657299,222.061783
1490.996311,-7254.018232,-919.314598,-740.205942
1490.996622,-12139.377449,76.609550,-1036.288319
1490.996934,-13767.830521,766.095498,666.185348
1490.997245,-12361.439231,-842.705048,518.144159
1490.997557,-13471.748144,-3753.867940,962.267725
1490.997868,-11843.295072,-4060.306139,1332.370696
1490.998180,-9770.718434,-2068.457845,-148.041188
1490.998491,-8586.388927,1455.581446,-1036.288319
1490.998802,-9400.615463,2911.162892,-370.102971
1490.999114,-8216.285956,2221.676944,296.082377
1490.999425,-3627.009116,459.657299,1110.308913
1490.999737,-2294.638420,-1149.143247,2738.761985
1491.000048,-1776.494261,-2528.115143,2664.741391
1491.000360,-4811.338623,-3600.648841,1258.350101
1491.000671,-9104.533087,-2911.162892,888.247130
1491.000983,-11695.253884,-1838.629195,666.185348
1491.001294,-12953.603985,-612.876398,-370.102971
1491.001606,-14434.015869,689.485948,-1036.288319
1491.001917,-13397.727550,2298.286494,-1702.473667
1491.002229,-10362.883188,2757.943793,-814.226536
1491.002540,-8734.430116,2145.067394,148.041188
1491.002852,-6883.915261,1455.581446,2368.659014
1491.003163,-2738.761985,689.485948,2590.720797
1491.003474,-1184.329507,-383.047749,1702.473667
1491.003786,-3404.947333,-919.314598,592.164754
1491.004097,-6439.791695,-766.095498,-1036.288319
1491.004409,-9770.718434,0.000000,-2294.638420
1491.004720,-14211.954086,919.314598,-2294.638420
1491.005032,-16358.551318,919.314598,-444.123565
1491.005343,-17246.798449,-306.438199,814.226536
1491.005655,-15692.365970,-1762.019645,1850.514855
1491.005966,-12583.501014,-1378.971896,2590.720797
1491.006278,-9030.512492,0.000000,3034.844362
1491.006589,-5921.647536,1685.410096,1554.432478
1491.006901,-4441.235652,2528.115143,1406.391290
1491.007212,-3108.864956,1532.190996,-74.020594
1491.007524,-2072.576638,76.609550,-1036.288319
1491.007835,-3330.926739,995.924147,-1628.453072
1491.008146,-5699.585753,153.219100,-1332.370696
1491.008458,-9252.574275,-995.924147,-888.247130
1491.008769,-14211.954086,-2145.067394,1702.473667
1491.009081,-15914.427753,-2451.505594,2146.597232
1491.009392,-14508.036463,-1608.800546,2812.782580
1491.009704,-13693.809927,-1455.581446,1628.453072
1491.010015,-12065.356855,1915.238745,-0.000000
1491.010327,-7772.162391,2987.772442,-0.000000
1491.010638,-3923.091493,1532.190996,-1110.308913
1491.010950,-2886.803174,76.609550,1258.350101
1491.011261,-1554.432478,-1762.019645,1850.514855
1491.011573,-740.205942,-2681.334243,1184.329507
1491.011884,-2738.761985,-1991.848295,1184.329507
1491.012196,-7105.977043,-2221.676944,-1480.411884
1491.012507,-12287.418637,-1149.143247,-1332.370696
1491.012819,-16950.716072,383.047749,-592.164754
1491.013130,-17172.777854,1915.238745,-0.000000
1491.013441,-16580.613101,1685.410096,962.267725
1491.013753,-15100.201217,306.438199,2442.679609
1491.014064,-11695.253884,459.657299,3108.864956
1491.014376,-6809.894666,229.828649,2146.597232
1491.014687,-4589.276840,1455.581446,1184.329507
1491.014999,-3701.029710,2757.943793,-592.164754
1491.015310,-2886.803174,3524.039291,-1998.556043
1491.015622,-4737.318029,2681.334243,-3034.844362
1491.015933,-4959.379811,612.876398,-2368.659014
1491.016245,-7624.121203,0.000000,-1628.453072
1491.016556,-12065.356855,-1762.019645,1554.432478
1491.016868,-15470.304188,-2145.067394,3330.926739
1491.017179,-16802.674883,-3830.477490,4219.173869
1491.017491,-13915.871710,-2298.286494,4441.235652
1491.017802,-11473.192101,-1225.752797,2664.741391
1491.018113,-7846.182985,-153.219100,-74.020594
1491.018425,-5329.482782,1302.362347,-2368.659014
1491.018736,-4589.276840,2451.505594,-1480.411884
1491.019048,-3330.926739,2451.505594,-444.123565
1491.019359,-3478.967927,-229.828649,-0.000000
1491.019671,-5921.647536,-2298.286494,888.247130
1491.019982,-6513.812290,-3600.648841,1924.535449
1491.020294,-8290.306550,-2757.943793,1184.329507
1491.020605,-11843.295072,-1685.410096,1998.556043
1491.020917,-13323.706956,-1302.362347,1036.288319
1491.021228,-13175.665768,-1378.971896,888.247130
1491.021540,-11547.212695,-995.924147,1110.308913
1491.021851,-10658.965565,919.314598,296.082377
1491.022163,-8512.368333,1608.800546,-518.144159
1491.022474,-8290.306550,2451.505594,-0.000000
1491.022785,-7476.080014,1455.581446,1554.432478
1491.023097,-4071.132681,689.485948,592.164754
1491.023408,-3552.988522,1378.971896,-370.102971
1491.023720,-4441.235652,2451.505594,-1258.350101
1491.024031,-7105.977043,842.705048,-2220.617826
1491.024343,-10881.027347,612.876398,-1998.556043
1491.024654,-13397.727550,1532.190996,148.041188
1491.024966,-16580.613101,-153.219100,1332.370696
1491.025277,-16654.633695,-1378.971896,2220.617826
1491.025589,-15174.221811,-1915.238745,2220.617826
1491.025900,-12435.459826,-612.876398,1184.329507
1491.026212,-8882.471304,1532.190996,518.144159
1491.026523,-6439.791695,2298.286494,-518.144159
1491.026835,-5773.606348,2221.676944,-0.000000
1491.027146,-4219.173869,612.876398,592.164754
1491.027458,-2146.597232,536.266849,-1110.308913
1491.027769,-3701.029710,-229.828649,-296.082377
1491.028080,-4885.359217,-766.095498,-296.082377
1491.028392,-8586.388927,-2451.505594,370.102971
1491.028703,-11843.295072,-3983.696590,1480.411884
1491.029015,-13249.686362,-4749.792088,2072.576638
1491.029326,-13767.830521,-3830.477490,2442.679609
1491.029638,-13101.645173,-1378.971896,888.247130
1491.029949,-12953.603985,459.657299,-666.185348
1491.030261,-9770.718434,2221.676944,-1480.411884
1491.030572,-7550.100608,3753.867940,-1036.288319
1491.030884,-5477.523971,3753.867940,370.102971
1491.031195,-1480.411884,2451.505594,1924.535449
1491.031507,740.205942,-229.828649,1850.514855
1491.031818,-1998.556043,-2145.067394,2368.659014
1491.032130,-4515.256246,-3064.381992,2294.638420
1491.032441,-7624.121203,-1149.143247,-1036.288319
1491.032752,-13175.665768,536.266849,-1554.432478
1491.033064,-16654.633695,612.876398,-2294.638420
1491.033375,-17172.777854,0.000000,-1924.535449
1491.033687,-15766.386565,459.657299,-888.247130
1491.033998,-14211.954086,919.314598,2146.597232
1491.034310,-11769.274478,-306.438199,2812.782580
1491.034621,-10140.821405,-689.485948,2442.679609
1491.034933,-7031.956449,1378.971896,4219.173869
1491.035244,-1110.308913,2451.505594,2368.659014
1491.035556,-888.247130,1762.019645,296.082377
1491.035867,-3256.906145,-459.657299,-370.102971
1491.036179,-5403.503377,-1762.019645,-3034.844362
1491.036490,-8882.471304,-306.438199,-1628.453072
1491.036802,-13249.686362,459.657299,-0.000000
1491.037113,-16580.613101,-1838.629195,1628.453072
1491.037424,-16210.510130,-4673.182538,2072.576638
1491.037736,-14952.160028,-4673.182538,2146.597232
1491.038047,-11917.315666,-995.924147,2220.617826
1491.038359,-8438.347739,1915.238745,962.267725
1491.038670,-7179.997637,3524.039291,-0.000000
1491.038982,-4145.153275,3677.258390,1258.350101
1491.039293,-1332.370696,842.705048,1924.535449
1491.039605,666.185348,-1149.143247,1480.411884
1491.039916,-740.205942,-1991.848295,888.247130
1491.040228,-3775.050304,-2145.067394,-444.123565
1491.040539,-8068.244768,-2451.505594,-0.000000
1491.040851,-13471.748144,-2681.334243,-296.082377
1491.041162,-15766.386565,-2757.943793,-0.000000
1491.041474,-16506.592507,-229.828649,-1406.391290
1491.041785,-16580.613101,2145.067394,-1036.288319
1491.042096,-14878.139434,3830.477490,-444.123565
1491.042408,-10955.047942,3677.258390,-0.000000
1491.042719,-8290.306550,2987.772442,2072.576638
1491.043031,-3108.864956,1838.629195,4367.215058
1491.043342,1850.514855,995.924147,2516.700203
1491.043654,1702.473667,0.000000,-0.000000
1491.043965,-3478.967927,919.314598,-2072.576638
1491.044277,-7772.162391,1455.581446,-2516.700203
1491.044588,-13397.727550,1072.533697,-3701.029710
1491.044900,-18061.024985,1149.143247,-1554.432478
1491.045211,-17690.922014,0.000000,-148.041188
1491.045523,-16950.716072,-1915.238745,1406.391290
1491.045834,-15174.221811,-2987.772442,3404.947333
1491.046146,-11843.295072,-1072.533697,1628.453072
1491.046457,-9548.656652,536.266849,1184.329507
1491.046769,-5699.585753,2221.676944,2146.597232
1491.047080,-1628.453072,1915.238745,2294.638420
1491.047391,-518.144159,0.000000,444.123565
1491.047703,-2220.617826,-1608.800546,-296.082377
1491.048014,-4589.276840,-1838.629195,-148.041188
1491.048326,-6291.750507,-1608.800546,-222.061783
1491.048637,-12065.356855,-1685.410096,1406.391290
1491.048949,-13989.892304,-2987.772442,3182.885551
1491.049260,-13323.706956,-4596.572988,1554.432478
1491.049572,-13471.748144,-3907.087040,1184.329507
1491.049883,-11695.253884,0.000000,518.144159
1491.050195,-9252.574275,2604.724693,-1998.556043
1491.050506,-9326.594869,2374.896044,-2146.597232
1491.050818,-8586.388927,2987.772442,-1036.288319
1491.051129,-4663.297435,3447.429741,444.123565
1491.051440,-3108.864956,2374.896044,1184.329507
1491.051752,-2886.803174,0.000000,3182.885551
1491.052063,-1332.370696,-2987.772442,3256.906145
1491.052375,-3256.906145,-4290.134789,1850.514855
1491.052686,-9252.574275,-3447.429741,1480.411884
1491.052998,-15026.180623,-2528.115143,-888.247130
1491.053309,-17024.736666,0.000000,-2368.659014
1491.053620,-16580.613101,2298.286494,-1480.411884
1491.053932,-15174.221811,1762.019645,-814.226536
1491.054243,-14582.057057,-229.828649,-518.144159
1491.054555,-12879.583391,0.000000,1406.391290
1491.054866,-9474.636058,842.705048,3034.844362
1491.055177,-4293.194464,1149.143247,2812.782580
1491.055489,-1702.473667,1838.629195,2368.659014
1491.055800,-3997.112087,842.705048,-0.000000
1491.056112,-1924.535449,153.219100,-0.000000
1491.056423,-4145.153275,1378.971896,-666.185348
1491.056735,-10436.903782,766.095498,592.164754
1491.057046,-14656.077652,-536.266849,962.267725
1491.057357,-15914.427753,-2451.505594,740.205942
1491.057669,-13619.789333,-919.314598,148.041188
1491.057980,-11843.295072,1455.581446,-518.144159
1491.058292,-9252.574275,2834.553343,-2220.617826
1491.058603,-9474.636058,2757.943793,-2960.823768
1491.058915,-8364.327145,4136.915689,-222.061783
1491.059226,-4145.153275,3830.477490,1924.535449
1491.059537,-2146.597232,1302.362347,2220.617826
1491.059849,-2368.659014,-1991.848295,3701.029710
1491.060160,-2516.700203,-5132.839837,3478.967927
1491.060472,-3627.009116,-5515.887586,2220.617826
1491.060783,-7920.203579,-2834.553343,962.267725
1491.061095,-12953.603985,-1991.848295,-222.061783
1491.061406,-14730.098246,-2221.676944,-1036.288319
1491.061717,-15396.283594,-919.314598,-1110.308913
1491.062029,-15322.262999,1455.581446,-962.267725
1491.062340,-13027.624579,2911.162892,-1480.411884
1491.062652,-11399.171507,4136.915689,-962.267725
1491.062963,-7846.182985,3140.991542,1924.535449
1491.063275,-3775.050304,842.705048,2072.576638
1491.063586,0.000000,919.314598,3182.885551
1491.063897,0.000000,612.876398,2590.720797
1491.064209,-1998.556043,-842.705048,1184.329507
1491.064520,-8734.430116,-2221.676944,-1850.514855
1491.064832,-13915.871710,383.047749,-2294.638420
1491.065143,-15766.386565,1072.533697,-2072.576638
1491.065454,-17987.004391,-995.924147,-518.144159
1491.065766,-18801.230927,-2145.067394,888.247130
1491.066077,-16432.571912,-1532.190996,518.144159
1491.066389,-13027.624579,-1302.362347,1332.370696
1491.066700,-9548.656652,0.000000,1776.494261
1491.067012,-6883.915261,1608.800546,888.247130
1491.067323,-1776.494261,3140.991542,962.267725
1491.067634,444.123565,-153.219100,1998.556043
1491.067946,370.102971,-2374.896044,814.226536
1491.068257,-1332.370696,-1455.581446,370.102971
1491.068569,-7698.141797,-2451.505594,444.123565
1491.068880,-12213.398043,-3907.087040,1924.535449
1491.069192,-16284.530724,-3753.867940,1480.411884
1491.069503,-16580.613101,-1225.752797,222.061783
1491.069814,-15544.324782,919.314598,-1998.556043
1491.070126,-12805.562797,995.924147,-1998.556043
1491.070437,-8512.368333,2221.676944,-1628.453072
1491.070749,-5773.606348,2451.505594,-814.226536
1491.071060,-3404.947333,2451.505594,-0.000000
1491.071372,-2072.576638,2451.505594,2886.803174
1491.071683,-1924.535449,919.314598,2590.720797
1491.071994,444.123565,-689.485948,3775.050304
1491.072306,-814.226536,-1991.848295,1998.556043
1491.072617,-8956.491898,-3294.210641,148.041188
1491.072929,-15396.283594,-1838.629195,-740.205942
1491.073240,-16580.613101,1149.143247,-2590.720797
1491.073551,-17987.004391,1302.362347,-1628.453072
1491.073863,-17690.922014,-536.266849,-296.082377
1491.074174,-14582.057057,-1685.410096,296.082377
1491.074486,-13249.686362,-689.485948,-518.144159
1491.074797,-9474.636058,2451.505594,1480.411884
1491.075109,-4737.318029,3294.210641,1776.494261
1491.075420,-1850.514855,4136.915689,518.144159
1491.075731,74.020594,3677.258390,1036.288319
1491.076043,-2590.720797,-383.047749,-444.123565
1491.076354,-5551.544565,-995.924147,-1258.350101
1491.076666,-10584.944971,2221.676944,-740.205942
1491.076977,-15544.324782,3294.210641,740.205942
1491.077289,-16284.530724,459.657299,1036.288319
1491.077600,-16506.592507,-3447.429741,1924.535449
1491.077911,-12213.398043,-3907.087040,3108.864956
1491.078223,-8068.244768,-2374.896044,962.267725
1491.078534,-7846.182985,-153.219100,-962.267725
1491.078846,-6365.771101,1915.238745,-1332.370696
1491.079157,-3849.070898,1685.410096,-888.247130
1491.079469,-2220.617826,-153.219100,-0.000000
1491.079780,-2146.597232,-1532.190996,2146.597232
1491.080091,-3034.844362,-2834.553343,3108.864956
1491.080403,-4515.256246,-3294.210641,3552.988522
1491.080714,-10214.842000,-3524.039291,3849.070898
1491.081026,-13175.665768,-2528.115143,3923.091493
1491.081337,-13915.871710,-1302.362347,2368.659014
1491.081649,-13767.830521,-612.876398,1628.453072
1491.081960,-12657.521608,383.047749,-0.000000
1491.082271,-10140.821405,1915.238745,-2590.720797
1491.082583,-9104.533087,3370.820191,-2590.720797
1491.082894,-7624.121203,2145.067394,-1628.453072
1491.083206,-5403.503377,1149.143247,-814.226536
1491.083517,-5773.606348,76.609550,-518.144159
1491.083828,-6217.729913,0.000000,1036.288319
1491.084140,-4663.297435,459.657299,1628.453072
1491.084451,-5699.585753,459.657299,1554.432478
1491.084763,-9622.677246,-919.314598,2368.659014
1491.085074,-13545.768739,-3294.210641,2072.576638
1491.085386,-14211.954086,-2987.772442,1332.370696
1491.085697,-15470.304188,536.266849,370.102971
1491.086008,-15840.407159,2221.676944,-1110.308913
1491.086320,-11991.336260,2221.676944,-2220.617826
1491.086631,-10510.924376,1685.410096,-2516.700203
1491.086943,-7994.224174,842.705048,-1184.329507
1491.087254,-4663.297435,536.266849,296.082377
1491.087566,-5107.421000,306.438199,-518.144159
1491.087877,-4515.256246,536.266849,1554.432478
1491.088188,-4811.338623,-1149.143247,1480.411884
1491.088500,-7254.018232,-2451.505594,2146.597232
1491.088811,-9622.677246,-1915.238745,2590.720797
1491.089123,-11843.295072,-1302.362347,2294.638420
1491.089434,-11991.336260,-1455.581446,2220.617826
1491.089746,-11399.171507,-1302.362347,1554.432478
1491.090057,-9326.594869,0.000000,-592.164754
1491.090368,-7328.038826,306.438199,-2812.782580
1491.090680,-6735.874072,1072.533697,-3182.885551
1491.090991,-5995.668130,4366.744339,-3404.947333
1491.091303,-5773.606348,5209.449386,-3182.885551
1491.091614,-5995.668130,3753.867940,-1184.329507
1491.091926,-6809.894666,536.266849,1776.494261
1491.092237,-4885.359217,-536.266849,4367.215058
1491.092548,-7402.059420,-2451.505594,4589.276840
1491.092860,-10881.027347,-4749.792088,4811.338623
1491.093171,-11917.315666,-3983.696590,2072.576638
1491.093483,-12213.398043,-689.485948,-222.061783
1491.093794,-11917.315666,1378.971896,-1850.514855
1491.094105,-12287.418637,1532.190996,-2368.659014
1491.094417,-11991.336260,689.485948,-2960.823768
1491.094728,-11695.253884,-153.219100,-1628.453072
1491.095040,-10881.027347,0.000000,-0.000000
1491.095351,-8216.285956,-1072.533697,1480.411884
1491.095663,-6365.771101,-919.314598,2590.720797
1491.095974,-4663.297435,-1072.533697,3256.906145
1491.096285,-4441.235652,-306.438199,2146.597232
1491.096597,-8216.285956,689.485948,1184.329507
1491.096908,-12139.377449,1378.971896,-962.267725
1491.097220,-12435.459826,612.876398,-814.226536
1491.097531,-13101.645173,-153.219100,-296.082377
1491.097843,-12879.583391,0.000000,-148.041188
1491.098154,-11917.315666,-536.266849,-814.226536
1491.098465,-8882.471304,-1072.533697,-0.000000
1491.098777,-9474.636058,-919.314598,148.041188
1491.099088,-7328.038826,-383.047749,1332.370696
1491.099400,-3849.070898,0.000000,296.082377
1491.099711,-2886.803174,-306.438199,518.144159
1491.100023,-2664.741391,-383.047749,2072.576638
1491.100334,-3849.070898,-1762.019645,2220.617826
1491.100645,-7254.018232,-3217.601092,1776.494261
1491.100957,-11177.109724,-2681.334243,2664.741391
1491.101268,-11621.233289,-1302.362347,2072.576638
1491.101580,-13471.748144,-612.876398,1110.308913
1491.101891,-14582.057057,1455.581446,222.061783
1491.102202,-12139.377449,2451.505594,-962.267725
1491.102514,-9474.636058,2604.724693,-1406.391290
1491.102825,-6957.935855,3217.601092,-296.082377
1491.103137,-3256.906145,3217.601092,740.205942
1491.103448,-962.267725,1149.143247,296.082377
1491.103760,-2516.700203,-612.876398,2072.576638
1491.104071,-4293.194464,-689.485948,592.164754
1491.104382,-7105.977043,689.485948,-666.185348
1491.104694,-11991.336260,459.657299,-1036.288319
1491.105005,-14952.160028,766.095498,-1036.288319
1491.105317,-14952.160028,459.657299,-740.205942
1491.105628,-15026.180623,-1532.190996,444.123565
1491.105940,-14063.912898,-2834.553343,1924.535449
1491.106251,-11177.109724,-3140.991542,1998.556043
1491.106562,-7920.203579,-2068.457845,2368.659014
1491.106874,-6143.709319,-1762.019645,1998.556043
1491.107185,-5995.668130,-2911.162892,-0.000000
1491.107497,-4737.318029,-2221.676944,-1332.370696
1491.107808,-4811.338623,-459.657299,-1554.432478
1491.108120,-6587.832884,-1149.143247,-222.061783
1491.108431,-8512.368333,-3370.820191,-0.000000
1491.108742,-11251.130318,-4519.963438,222.061783
1491.109054,-13989.892304,-5592.497135,1924.535449
1491.109365,-13767.830521,-3677.258390,3182.885551
1491.109677,-13915.871710,-1915.238745,1776.494261
1491.109988,-13397.727550,153.219100,1332.370696
1491.110300,-10140.821405,0.000000,962.267725
1491.110611,-6439.791695,153.219100,444.123565
1491.110922,-4515.256246,689.485948,-222.061783
1491.111234,-3108.864956,1915.238745,-1406.391290
1491.111545,-1998.556043,0.000000,-1776.494261
1491.111857,-1998.556043,-1762.019645,-2368.659014
1491.112168,-4515.256246,-1532.190996,-1036.288319
1491.112479,-7031.956449,-2145.067394,-296.082377
1491.112791,-11769.274478,-3907.087040,1776.494261
1491.113102,-16580.613101,-5592.497135,4219.173869
1491.113414,-15544.324782,-4903.011187,3997.112087
1491.113725,-14656.077652,-4673.182538,2368.659014
1491.114037,-12583.501014,-3830.477490,1924.535449
1491.114348,-8216.285956,-4366.744339,1332.370696
1491.114659,-5551.544565,-4366.744339,-962.267725
1491.114971,-5329.482782,-3983.696590,-148.041188
1491.115282,-5107.421000,-4596.572988,296.082377
1491.115594,-4515.256246,-4213.525239,-222.061783
1491.115905,-4959.379811,-3064.381992,-74.020594
1491.116217,-6957.935855,-2221.676944,148.041188
1491.116528,-9992.780217,-2604.724693,888.247130
1491.116839,-11325.150913,-3064.381992,2146.597232
1491.117151,-11991.336260,-2911.162892,4145.153275
1491.117462,-13693.809927,-4903.011187,3627.009116
1491.117774,-12213.398043,-3907.087040,1036.288319
1491.118085,-9622.677246,-1225.752797,-1776.494261
1491.118397,-7179.997637,459.657299,-3404.947333
1491.118708,-6143.709319,1072.533697,-3552.988522
1491.119019,-7105.977043,0.000000,-3997.112087
1491.119331,-7550.100608,-383.047749,-2368.659014
1491.119642,-8216.285956,-2757.943793,888.247130
1491.119954,-9474.636058,-4290.134789,1554.432478
1491.120265,-9104.533087,-3830.477490,1924.535449
1491.120577,-6587.832884,-3524.039291,2220.617826
1491.120888,-6143.709319,-6358.592633,2072.576638
1491.121199,-8438.347739,-4903.011187,2368.659014
1491.121511,-10510.924376,-3983.696590,1184.329507
1491.121822,-11695.253884,-3983.696590,1480.411884
1491.122134,-11547.212695,-6052.154434,2072.576638
1491.122445,-11769.274478,-5515.887586,296.082377
1491.122756,-9252.574275,-3524.039291,-2220.617826
1491.123068,-5699.585753,-1991.848295,-2738.761985
1491.123379,-5551.544565,-2451.505594,-1554.432478
1491.123691,-6957.935855,-3064.381992,666.185348
1491.124002,-9400.615463,-1762.019645,2294.638420
1491.124314,-10436.903782,-2221.676944,3478.967927
1491.124625,-9844.739029,-3677.258390,4293.194464
1491.124936,-9474.636058,-2911.162892,2664.741391
1491.125248,-7846.182985,0.000000,-518.144159
1491.125559,-6069.688724,-459.657299,-1628.453072
1491.125871,-7105.977043,-2145.067394,-1258.350101
1491.126182,-10955.047942,-1685.410096,-222.061783
1491.126494,-12879.583391,-995.924147,-222.061783
1491.126805,-11991.336260,-2757.943793,518.144159
1491.127116,-9770.718434,-3753.867940,962.267725
1491.127428,-8364.327145,-2834.553343,222.061783
1491.127739,-6513.812290,-1302.362347,-2368.659014
1491.128051,-4737.318029,-1225.752797,-2368.659014
1491.128362,-6587.832884,-1455.581446,814.226536
1491.128674,-9474.636058,-1378.971896,3182.885551
1491.128985,-12509.480420,-2221.676944,4441.235652
1491.129296,-13989.892304,-4136.915689,4737.318029
1491.129608,-10732.986159,-4596.572988,4737.318029
1491.129919,-6439.791695,-2987.772442,1776.494261
1491.130231,-3997.112087,-2068.457845,-1406.391290
1491.130542,-3256.906145,-3907.087040,-3256.906145
1491.130853,-2886.803174,-5362.668486,-3108.864956
1491.131165,-2590.720797,-3524.039291,-1036.288319
1491.131476,-7105.977043,-4366.744339,1036.288319
1491.131788,-12139.377449,-7201.297681,3108.864956
1491.132099,-13323.706956,-8273.831378,4293.194464
1491.132411,-11177.109724,-6435.202183,4663.297435
1491.132722,-7698.141797,-5669.106685,3478.967927
1491.133033,-7179.997637,-7277.907231,1184.329507
1491.133345,-7772.162391,-8886.707777,-814.226536
1491.133656,-6143.709319,-6435.202183,-2368.659014
1491.133968,-6069.688724,-2911.162892,-1924.535449
1491.134279,-8734.430116,-995.924147,-1258.350101
1491.134591,-12287.418637,-3217.601092,592.164754
1491.134902,-13767.830521,-6281.983084,1998.556043
1491.135213,-11917.315666,-4366.744339,2220.617826
1491.135525,-10881.027347,919.314598,1480.411884
1491.135836,-10955.047942,2604.724693,-740.205942
1491.136148,-9474.636058,0.000000,-2072.576638
1491.136459,-8290.306550,-689.485948,-3256.906145
1491.136771,-7031.956449,1608.800546,-3404.947333
1491.137082,-8882.471304,3294.210641,-2886.803174
1491.137393,-11769.274478,2834.553343,-1036.288319
1491.137705,-11843.295072,229.828649,962.267725
1491.138016,-11695.253884,-3600.648841,2664.741391
1491.138328,-10362.883188,-4979.620737,3404.947333
1491.138639,-8956.491898,-3294.210641,1036.288319
1491.138951,-7846.182985,-1915.238745,-222.061783
1491.139262,-6439.791695,-2451.505594,-962.267725
1491.139573,-5255.462188,-4673.182538,-2516.700203
1491.139885,-6587.832884,-5745.716235,-2072.576638
1491.140196,-8142.265362,-4903.011187,518.144159
1491.140508,-10955.047942,-4979.620737,2442.679609
1491.140819,-11325.150913,-4826.401637,3552.988522
1491.141130,-12065.356855,-3524.039291,3182.885551
1491.141442,-10658.965565,-3140.991542,3478.967927
1491.141753,-8586.388927,-2451.505594,2072.576638
1491.142065,-6809.894666,-995.924147,1850.514855
1491.142376,-5181.441594,0.000000,-0.000000
1491.142688,-4219.173869,153.219100,-370.102971
1491.142999,-3256.906145,689.485948,-518.144159
1491.143310,-2960.823768,-536.266849,-444.123565
1491.143622,-3627.009116,-3524.039291,-0.000000
1491.143933,-5625.565159,-5898.935335,-222.061783
1491.144245,-8512.368333,-4673.182538,-74.020594
1491.144556,-12583.501014,-1685.410096,148.041188
1491.144868,-15100.201217,-689.485948,1406.391290
1491.145179,-15618.345376,-383.047749,2368.659014
1491.145490,-14137.933492,-3600.648841,4219.173869
1491.145802,-10732.986159,-5592.497135,4441.235652
1491.146113,-7772.162391,-4903.011187,2960.823768
1491.146425,-4737.318029,-4366.744339,1258.350101
1491.146736,-2220.617826,-4749.792088,-962.267725
1491.147048,-1628.453072,-6128.763984,-2072.576638
1491.147359,-3478.967927,-5898.935335,-2368.659014
1491.147670,-6069.688724,-5132.839837,-1554.432478
1491.147982,-9474.636058,-6281.983084,-888.247130
1491.148293,-13767.830521,-6741.640382,1036.288319
1491.148605,-16358.551318,-5669.106685,2294.638420
1491.148916,-16432.571912,-4596.572988,3182.885551
1491.149228,-16062.468941,-4979.620737,3256.906145
1491.149539,-14952.160028,-4903.011187,2516.700203
1491.149850,-11621.233289,-2298.286494,1776.494261
1491.150162,-8290.306550,-1455.581446,592.164754
1491.150473,-5625.565159,-2834.553343,-0.000000
1491.150785,-3923.091493,-5592.497135,-370.102971
1491.151096,-3256.906145,-5898.935335,-1702.473667
1491.151407,-4441.235652,-4519.963438,-2368.659014
1491.151719,-7254.018232,-2681.334243,-2220.617826
1491.152030,-10362.883188,-1225.752797,-2146.597232
1491.152342,-14063.912898,-306.438199,-888.247130
1491.152653,-14878.139434,0.000000,1036.288319
1491.152965,-14804.118840,-306.438199,2146.597232
1491.153276,-12731.542202,153.219100,1702.473667
1491.153588,-8660.409521,-306.438199,518.144159
1491.153899,-4737.318029,-1225.752797,-888.247130
1491.154211,-3552.988522,-2145.067394,-1776.494261
1491.154522,-2738.761985,-2221.676944,-1998.556043
1491.154834,-3330.926739,-1455.581446,-1628.453072
1491.155145,-6069.688724,-1762.019645,-222.061783
1491.155457,-7846.182985,-2987.772442,296.082377
1491.155768,-9326.594869,-3064.381992,888.247130
1491.156080,-9474.636058,-2604.724693,1332.370696
1491.156391,-9104.533087,-2451.505594,1406.391290
1491.156703,-9178.553681,-3447.429741,1628.453072
1491.157014,-10510.924376,-3524.039291,1480.411884
1491.157326,-10584.944971,-2221.676944,2072.576638
1491.157637,-10510.924376,-1838.629195,1702.473667
1491.157949,-9474.636058,-1991.848295,1924.535449
1491.158260,-7698.141797,-2911.162892,1332.370696
1491.158572,-6291.750507,-3677.258390,518.144159
1491.158883,-5847.626942,-4136.915689,-0.000000
1491.159195,-5255.462188,-3370.820191,-0.000000
1491.159506,-6069.688724,-2911.162892,-296.082377
1491.159818,-7105.977043,-3370.820191,444.123565
1491.160130,-8808.450710,-4060.306139,592.164754
1491.160441,-10584.944971,-4213.525239,1702.473667
1491.160753,-11473.192101,-4213.525239,2368.659014
1491.161064,-11843.295072,-4903.011187,2294.638420
1491.161376,-11547.212695,-4519.963438,1924.535449
1491.161687,-11769.274478,-3983.696590,1184.329507
1491.161999,-10436.903782,-2298.286494,370.102971
1491.162310,-9844.739029,-612.876398,-518.144159
1491.162622,-8956.491898,919.314598,-0.000000
1491.162933,-8364.327145,459.657299,-148.041188
1491.163245,-8142.265362,0.000000,-0.000000
1491.163556,-8068.244768,-842.705048,814.226536
1491.163868,-7772.162391,-1915.238745,1110.308913
1491.164179,-8512.368333,-3983.696590,962.267725
1491.164491,-10066.800811,-4826.401637,1036.288319
1491.164802,-10140.821405,-5132.839837,666.185348
1491.165114,-10658.965565,-4903.011187,-148.041188
1491.165425,-11621.233289,-5439.278036,370.102971
1491.165737,-11103.089130,-6511.811733,1036.288319
1491.166048,-9474.636058,-6435.202183,518.144159
1491.166360,-7920.203579,-5439.278036,1332.370696
1491.166671,-7179.997637,-4903.011187,1036.288319
1491.166983,-6513.812290,-3677.258390,1332.370696
1491.167295,-6069.688724,-2451.505594,1406.391290
1491.167606,-5255.462188,-1302.362347,1184.329507
1491.167918,-5921.647536,-612.876398,1036.288319
1491.168229,-7254.018232,-536.266849,-370.102971
1491.168541,-8438.347739,-612.876398,-0.000000
1491.168852,-10140.821405,-2068.457845,-1110.308913
1491.169164,-10066.800811,-1455.581446,-74.020594
1491.169475,-9992.780217,-766.095498,-1332.370696
1491.169787,-7328.038826,-1149.143247,-592.164754
1491.170098,-8512.368333,-3140.991542,-592.164754
1491.170410,-8438.347739,-2987.772442,592.164754
1491.170721,-6291.750507,-1991.848295,740.205942
1491.171033,-7254.018232,-2681.334243,814.226536
1491.171344,-8660.409521,-3753.867940,1628.453072
1491.171656,-11103.089130,-3217.601092,1036.288319
1491.171967,-11177.109724,-2528.115143,592.164754
1491.172279,-10510.924376,-383.047749,740.205942
1491.172590,-10362.883188,-1838.629195,1110.308913
1491.172902,-10288.862594,-2987.772442,-0.000000
1491.173213,-9326.594869,-4060.306139,-0.000000
1491.173525,-9400.615463,-3217.601092,1258.350101
1491.173837,-10140.821405,-2221.676944,1998.556043
1491.174148,-12065.356855,-1608.800546,1776.494261
1491.174460,-11843.295072,-536.266849,2220.617826
1491.174771,-10510.924376,-1072.533697,2442.679609
1491.175083,-8808.450710,-842.705048,3627.009116
1491.175394,-7105.977043,-306.438199,2664.741391
1491.175706,-7994.224174,-1685.410096,2442.679609
1491.176017,-7624.121203,-3294.210641,3552.988522
1491.176329,-8438.347739,-2834.553343,3108.864956
1491.176640,-8438.347739,-689.485948,4663.297435
1491.176952,-11177.109724,-995.924147,3849.070898
1491.177263,-11547.212695,-1225.752797,4811.338623
1491.177575,-8512.368333,-689.485948,4145.153275
1491.177886,-7698.141797,1685.410096,4441.235652
1491.178198,-7402.059420,1455.581446,4071.132681
1491.178509,-6883.915261,0.000000,3849.070898
1491.178821,-8216.285956,-1072.533697,3330.926739
1491.179132,-4737.318029,0.000000,5477.523971
1491.179444,-8216.285956,-919.314598,3627.009116
1491.179755,-10214.842000,-995.924147,5403.503377
1491.180067,-10066.800811,0.000000,6143.709319
1491.180378,-8734.430116,-1838.629195,5477.523971
1491.180690,-7476.080014,-1838.629195,6217.729913
1491.181002,-8290.306550,-1149.143247,4811.338623
1491.181313,-7105.977043,-153.219100,5329.482782
1491.181625,-6291.750507,612.876398,4441.235652
1491.181936,-5995.668130,766.095498,4811.338623
1491.182248,-7402.059420,2528.115143,4515.256246
1491.182559,-9252.574275,2451.505594,4811.338623
1491.182871,-8660.409521,1915.238745,5255.462188
1491.183182,-7328.038826,842.705048,4885.359217
1491.183494,-7402.059420,612.876398,3997.112087
1491.183805,-7402.059420,76.609550,3775.050304
1491.184117,-7550.100608,-1685.410096,4367.215058
1491.184428,-7476.080014,-1072.533697,3997.112087
1491.184740,-8512.368333,306.438199,4737.318029
1491.185051,-9992.780217,842.705048,3997.112087
1491.185363,-11621.233289,459.657299,4737.318029
1491.185674,-10584.944971,1455.581446,4515.256246
1491.185986,-7994.224174,1302.362347,4071.132681
1491.186297,-8142.265362,995.924147,3034.844362
1491.186609,-7328.038826,-995.924147,2442.679609
1491.186920,-7105.977043,-689.485948,1554.432478
1491.187232,-6069.688724,-153.219100,1924.535449
1491.187544,-7105.977043,-1072.533697,2220.617826
1491.187855,-9696.697840,-1378.971896,2960.823768
1491.188167,-11547.212695,-1762.019645,3849.070898
1491.188478,-11843.295072,-459.657299,4441.235652
1491.188790,-11547.212695,153.219100,3701.029710
1491.189101,-11843.295072,1149.143247,3182.885551
1491.189413,-10510.924376,1149.143247,1924.535449
1491.189724,-9178.553681,1455.581446,1258.350101
1491.190036,-7772.162391,1455.581446,740.205942
1491.190347,-7994.224174,1302.362347,1480.411884
1491.190659,-9252.574275,-306.438199,1998.556043
1491.190970,-9696.697840,-1991.848295,2886.803174
1491.191282,-10288.862594,-2604.724693,3627.009116
1491.191593,-9474.636058,-2757.943793,4145.153275
1491.191905,-8882.471304,-2757.943793,3775.050304
1491.192216,-8142.265362,-3064.381992,2738.761985
1491.192528,-6809.894666,-1378.971896,1924.535449
1491.192839,-6143.709319,-383.047749,518.144159
1491.193151,-6735.874072,1072.533697,148.041188
1491.193462,-8734.430116,1455.581446,518.144159
1491.193774,-11103.089130,1838.629195,1406.391290
1491.194085,-12953.603985,1915.238745,2960.823768
1491.194397,-13471.748144,1302.362347,4293.194464
1491.194709,-13101.645173,536.266849,4219.173869
1491.195020,-10436.903782,0.000000,3923.091493
1491.195332,-6587.832884,-306.438199,2664.741391
1491.195643,-2960.823768,-1225.752797,1406.391290
1491.195955,-1776.494261,-1302.362347,1036.288319
1491.196266,-3923.091493,-1302.362347,1110.308913
1491.196578,-7476.080014,0.000000,2368.659014
1491.196889,-10955.047942,612.876398,4367.215058
1491.197201,-14211.954086,1532.190996,5847.626942
1491.197512,-15544.324782,1532.190996,6291.750507
1491.197824,-13323.706956,689.485948,6069.688724
1491.198135,-9030.512492,-536.266849,4737.318029
1491.198447,-5033.400406,-306.438199,2812.782580
1491.198758,-2960.823768,-459.657299,1480.411884
1491.199070,-2812.782580,-536.266849,962.267725
1491.199381,-4071.132681,-536.266849,2220.617826
1491.199693,-7698.141797,-612.876398,3775.050304
1491.200004,-11843.295072,-76.609550,5403.503377
1491.200316,-14508.036463,0.000000,6291.750507
1491.200627,-13619.789333,0.000000,6439.791695
1491.200939,-10510.924376,0.000000,5181.441594
1491.201251,-7846.182985,-612.876398,3923.091493
1491.201562,-5995.668130,-995.924147,2960.823768
1491.201874,-5625.565159,-459.657299,2960.823768
1491.202185,-7031.956449,229.828649,4959.379811
1491.202497,-9474.636058,536.266849,6587.832884
1491.202808,-12065.356855,76.609550,7846.182985
1491.203120,-12361.439231,-153.219100,8290.306550
1491.203431,-10288.862594,0.000000,6661.853478
1491.203743,-7254.018232,2068.457845,3849.070898
1491.204054,-4663.297435,2987.772442,1702.473667
1491.204366,-3627.009116,2834.553343,-222.061783
1491.204677,-4737.318029,2451.505594,-222.061783
1491.204989,-7179.997637,2145.067394,1110.308913
1491.205300,-9992.780217,1455.581446,3923.091493
1491.205612,-12509.480420,-612.876398,6513.812290
1491.205923,-14434.015869,-2757.943793,8068.244768
1491.206235,-13989.892304,-3983.696590,9326.594869
1491.206546,-11251.130318,-2528.115143,8882.471304
1491.206858,-8438.347739,-1532.190996,7476.080014
1491.207169,-5995.668130,-919.314598,5033.400406
1491.207481,-3997.112087,0.000000,2886.803174
1491.207792,-1554.432478,1225.752797,518.144159
1491.208104,-1406.391290,2757.943793,-518.144159
1491.208416,-3552.988522,3217.601092,-148.041188
1491.208727,-6661.853478,2221.676944,1628.453072
1491.209039,-10140.821405,459.657299,2960.823768
1491.209350,-13545.768739,-1149.143247,5255.462188
1491.209662,-16728.654289,-1532.190996,7031.956449
1491.209973,-17172.777854,-1608.800546,7476.080014
1491.210285,-14359.995275,-1378.971896,6439.791695
1491.210596,-10288.862594,-1455.581446,5181.441594
1491.210908,-6513.812290,-1532.190996,3849.070898
1491.211219,-3849.070898,-1225.752797,3182.885551
1491.211531,-2220.617826,-383.047749,2146.597232
1491.211842,-2368.659014,0.000000,1924.535449
1491.212154,-4663.297435,0.000000,1184.329507
1491.212465,-5995.668130,842.705048,222.061783
1491.212777,-7402.059420,842.705048,-0.000000
1491.213088,-11843.295072,-153.219100,592.164754
1491.213400,-14508.036463,0.000000,3034.844362
1491.213711,-18727.210333,0.000000,4885.359217
1491.214023,-19763.498651,0.000000,7179.997637
1491.214334,-17098.757260,-459.657299,8142.265362
1491.214646,-10955.047942,-1378.971896,6069.688724
1491.214958,-3701.029710,-842.705048,3404.947333
1491.215269,1776.494261,306.438199,1036.288319
1491.215581,2664.741391,1455.581446,-1998.556043
1491.215892,1036.288319,1532.190996,-3478.967927
1491.216204,-3330.926739,1072.533697,-3552.988522
1491.216515,-7772.162391,459.657299,-1258.350101
1491.216827,-12509.480420,76.609550,2146.597232
1491.217138,-17987.004391,-1149.143247,5033.400406
1491.217450,-21391.951724,-2068.457845,7624.121203
1491.217761,-20133.601622,-2145.067394,9104.533087
1491.218073,-15026.180623,-1532.190996,9030.512492
1491.218384,-9326.594869,-766.095498,7328.038826
1491.218696,-3775.050304,-1225.752797,3034.844362
1491.219007,1480.411884,-842.705048,-1480.411884
1491.219319,4885.359217,1915.238745,-5403.503377
1491.219630,3404.947333,4749.792088,-5033.400406
1491.219942,-3775.050304,2757.943793,-2738.761985
1491.220253,-12509.480420,2221.676944,592.164754
1491.220565,-19615.457463,1762.019645,4811.338623
1491.220876,-22798.343014,153.219100,7846.182985
1491.221188,-19689.478057,-536.266849,9178.553681
1491.221499,-14434.015869,-1302.362347,7179.997637
1491.221811,-8438.347739,-2068.457845,4293.194464
1491.222123,-1776.494261,-1838.629195,1480.411884
1491.222434,148.041188,153.219100,296.082377
1491.222746,-1258.350101,1225.752797,1406.391290
1491.223057,-6291.750507,459.657299,2738.761985
1491.223369,-11621.233289,-689.485948,4367.215058
1491.223680,-13323.706956,76.609550,5403.503377
1491.223992,-11547.212695,1302.362347,5107.421000
1491.224303,-8586.388927,0.000000,3552.988522
1491.224615,-6957.935855,-2604.724693,3182.885551
1491.224926,-7624.121203,-3217.601092,3923.091493
1491.225238,-8586.388927,-1149.143247,6217.729913
1491.225549,-11177.109724,459.657299,7994.224174
1491.225861,-13545.768739,153.219100,8956.491898
1491.226172,-12879.583391,383.047749,9844.739029
1491.226484,-8586.388927,0.000000,7846.182985
1491.226795,-3108.864956,919.314598,5255.462188
1491.227107,296.082377,2604.724693,148.041188
1491.227418,1184.329507,3294.210641,-2146.597232
1491.227730,-888.247130,3370.820191,-2294.638420
1491.228041,-5699.585753,1225.752797,592.164754
1491.228353,-11769.274478,995.924147,5181.441594
1491.228665,-17246.798449,-536.266849,8512.368333
1491.228976,-18209.066173,-2298.286494,11621.233289
1491.229288,-14063.912898,-4290.134789,11547.212695
1491.229599,-9252.574275,-4213.525239,7994.224174
1491.229911,-4885.359217,-2221.676944,5921.647536
1491.230222,-2664.741391,-229.828649,2590.720797
1491.230534,-4219.173869,2145.067394,-888.247130
1491.230845,-4737.318029,3983.696590,-296.082377
1491.231157,-5477.523971,4290.134789,-518.144159
1491.231468,-7772.162391,3217.601092,666.185348
1491.231780,-9474.636058,1149.143247,2590.720797
1491.232091,-10658.965565,-383.047749,4737.318029
1491.232403,-10510.924376,-3370.820191,4885.359217
1491.232714,-10584.944971,-4060.306139,4071.132681
1491.233026,-11399.171507,-2451.505594,4959.379811
1491.233337,-12657.521608,-536.266849,5181.441594
1491.233649,-13619.789333,-306.438199,4367.215058
1491.233960,-12657.521608,-383.047749,2516.700203
1491.234272,-10288.862594,0.000000,1184.329507
1491.234583,-6143.709319,919.314598,592.164754
1491.234895,-3404.947333,0.000000,-1110.308913
1491.235206,-2368.659014,153.219100,-2368.659014
1491.235518,-5255.462188,-383.047749,-1554.432478
1491.235830,-7920.203579,-1149.143247,-370.102971
1491.236141,-10362.883188,-1225.752797,666.185348
1491.236453,-13693.809927,-306.438199,2072.576638
1491.236764,-16284.530724,536.266849,4959.379811
1491.237076,-17394.839637,383.047749,3997.112087
1491.237387,-14656.077652,689.485948,3034.844362
1491.237699,-8808.450710,306.438199,962.267725
1491.238010,-4663.297435,76.609550,-444.123565
1491.238322,-1702.473667,459.657299,-3775.050304
1491.238633,-370.102971,1302.362347,-5995.668130
1491.238945,-2220.617826,1838.629195,-5847.626942
1491.239256,-6143.709319,1915.238745,-2442.679609
1491.239568,-10955.047942,1302.362347,1554.432478
1491.239879,-14952.160028,-1302.362347,3923.091493
1491.240191,-15544.324782,-3753.867940,6365.771101
1491.240502,-13915.871710,-3524.039291,6439.791695
1491.240814,-10066.800811,-2145.067394,4885.359217
1491.241125,-5921.647536,-1302.362347,1850.514855
1491.241437,-4811.338623,-1455.581446,-592.164754
1491.241748,-5403.503377,-766.095498,-2294.638420
1491.242060,-6143.709319,995.924147,-2072.576638
1491.242372,-8364.327145,1455.581446,-1998.556043
1491.242683,-9474.636058,383.047749,-962.267725
1491.242995,-10658.965565,-153.219100,962.267725
1491.243306,-11769.274478,383.047749,2442.679609
1491.243618,-10955.047942,536.266849,3552.988522
1491.243929,-9696.697840,76.609550,2960.823768
1491.244241,-8068.244768,0.000000,2886.803174
1491.244552,-7624.121203,-306.438199,2812.782580
1491.244864,-8364.327145,0.000000,1924.535449
1491.245175,-9326.594869,536.266849,1406.391290
1491.245487,-11769.274478,1685.410096,222.061783
1491.245798,-12361.439231,2068.457845,740.205942
1491.246110,-10658.965565,0.000000,370.102971
1491.246421,-10140.821405,-842.705048,888.247130
1491.246733,-10066.800811,-1455.581446,1776.494261
1491.247044,-8290.306550,-2757.943793,1776.494261
1491.247356,-4737.318029,-2221.676944,888.247130
1491.247667,-3108.864956,229.828649,2368.659014
1491.247979,-6143.709319,612.876398,4737.318029
1491.248290,-10584.944971,-383.047749,5403.503377
1491.248602,-13101.645173,-459.657299,4219.173869
1491.248913,-12213.398043,1915.238745,3552.988522
1491.249225,-9104.533087,1225.752797,1702.473667
1491.249537,-5403.503377,766.095498,-1184.329507
1491.249848,-4145.153275,306.438199,-3997.112087
1491.250160,-3552.988522,-1455.581446,-4219.173869
1491.250471,-4737.318029,-2068.457845,-2960.823768
1491.250783,-7772.162391,536.266849,-74.020594
1491.251094,-12953.603985,2298.286494,4071.132681
1491.251406,-16062.468941,-766.095498,7031.956449
1491.251717,-14285.974681,-2987.772442,6809.894666
1491.252029,-9474.636058,-1225.752797,3775.050304
1491.252340,-1850.514855,1608.800546,444.123565
1491.252652,1628.453072,536.266849,-3701.029710
1491.252963,-444.123565,153.219100,-6587.832884
1491.253275,-5033.400406,1149.143247,-6957.935855
1491.253586,-11621.233289,2451.505594,-3849.070898
1491.253898,-16950.716072,2068.457845,370.102971
1491.254209,-19689.478057,0.000000,3182.885551
1491.254521,-17320.819043,-2298.286494,3552.988522
1491.254832,-12657.521608,-2987.772442,3108.864956
1491.255143,-8734.430116,-1149.143247,2812.782580
1491.255455,-3997.112087,536.266849,518.144159
1491.255766,-2664.741391,919.314598,-1258.350101
1491.256078,-3701.029710,612.876398,-1406.391290
1491.256389,-5033.400406,0.000000,-2368.659014
1491.256701,-6661.853478,1072.533697,-2664.741391
1491.257012,-8364.327145,2221.676944,-2590.720797
1491.257324,-10214.842000,1225.752797,-1628.453072
1491.257635,-14137.933492,-1072.533697,-222.061783
1491.257946,-14508.036463,-2757.943793,1480.411884
1491.258258,-14878.139434,-3140.991542,1850.514855
1491.258569,-14359.995275,-1915.238745,1776.494261
1491.258881,-10658.965565,229.828649,2072.576638
1491.259192,-6587.832884,229.828649,-74.020594
1491.259504,-5329.482782,536.266849,740.205942
1491.259815,-5773.606348,383.047749,1332.370696
1491.260127,-6217.729913,0.000000,1406.391290
1491.260438,-7105.977043,153.219100,1332.370696
1491.260749,-7254.018232,-1378.971896,444.123565
1491.261061,-7328.038826,-2987.772442,-2590.720797
1491.261372,-6587.832884,-689.485948,-4071.132681
1491.261684,-8512.368333,1378.971896,-1850.514855
1491.261995,-12879.583391,-689.485948,1110.308913
1491.262307,-17616.901420,-2451.505594,4663.297435
1491.262618,-18653.189738,-2911.162892,6365.771101
1491.262930,-14508.036463,-2757.943793,5995.668130
1491.263241,-8734.430116,-1072.533697,3775.050304
1491.263552,-2368.659014,1302.362347,-296.082377
1491.263864,2590.720797,2757.943793,-4663.297435
1491.264175,3330.926739,1532.190996,-7476.080014
1491.264487,444.123565,1915.238745,-5181.441594
1491.264798,-7698.141797,3524.039291,-2738.761985
1491.265110,-16284.530724,3064.381992,1406.391290
1491.265421,-20651.745782,0.000000,3404.947333
1491.265733,-19245.354492,-1685.410096,4663.297435
1491.266044,-13249.686362,-1072.533697,4515.256246
1491.266356,-9178.553681,-1225.752797,962.267725
1491.266667,-5033.400406,-1302.362347,-1036.288319
1491.266978,-2590.720797,-612.876398,-2812.782580
1491.267290,-3849.070898,1608.800546,-2590.720797
1491.267601,-5329.482782,3217.601092,-740.205942
1491.267913,-6957.935855,3294.210641,-296.082377
1491.268224,-7550.100608,1532.190996,-74.020594
1491.268536,-7031.956449,383.047749,-518.144159
1491.268847,-7476.080014,-383.047749,148.041188
1491.269159,-9474.636058,229.828649,1036.288319
1491.269470,-12879.583391,-612.876398,1702.473667
1491.269781,-14804.118840,-2068.457845,2738.761985
1491.270093,-14730.098246,-2911.162892,4367.215058
1491.270404,-12805.562797,-2298.286494,3404.947333
1491.270716,-9400.615463,-1225.752797,2960.823768
1491.271027,-5625.565159,-766.095498,1036.288319
1491.271339,-4145.153275,-459.657299,-148.041188
1491.271650,-2960.823768,-306.438199,888.247130
1491.271962,-4737.318029,383.047749,370.102971
1491.272273,-7772.162391,536.266849,1110.308913
1491.272584,-8660.409521,536.266849,1184.329507
1491.272896,-9918.759623,306.438199,962.267725
1491.273207,-11325.150913,1149.143247,2960.823768
1491.273519,-13619.789333,76.609550,3034.844362
1491.273830,-14434.015869,-842.705048,4737.318029
1491.274142,-11621.233289,-1915.238745,5329.482782
1491.274453,-11251.130318,-2145.067394,3552.988522
1491.274765,-10140.821405,-1608.800546,1480.411884
1491.275076,-7624.121203,536.266849,666.185348
1491.275387,-7179.997637,2451.505594,-370.102971
1491.275699,-5329.482782,1991.848295,-370.102971
1491.276010,-3552.988522,-995.924147,-2072.576638
1491.276322,-3552.988522,-536.266849,-2220.617826
1491.276633,-4219.173869,1455.581446,370.102971
1491.276945,-7772.162391,1072.533697,1850.514855
1491.277256,-12287.418637,-1302.362347,3108.864956
1491.277568,-15618.345376,-1608.800546,4293.194464
1491.277879,-15618.345376,-1455.581446,3034.844362
1491.278191,-10732.986159,229.828649,1480.411884
1491.278502,-6735.874072,2757.943793,-1258.350101
1491.278813,-6735.874072,1762.019645,-3997.112087
1491.279125,-4737.318029,229.828649,-5255.462188
1491.279436,-3182.885551,1378.971896,-5033.400406
1491.279748,-2960.823768,2987.772442,-4293.194464
1491.280059,-5625.565159,1225.752797,-2886.803174
1491.280371,-9400.615463,-1149.143247,-1480.411884
1491.280682,-10436.903782,-1072.533697,444.123565
1491.280994,-11547.212695,-1072.533697,1258.350101
1491.281305,-12065.356855,-1378.971896,1850.514855
1491.281616,-13841.851115,-1378.971896,1406.391290
1491.281928,-13471.748144,-1532.190996,-74.020594
1491.282239,-9770.718434,-2221.676944,-1702.473667
1491.282551,-7179.997637,-2374.896044,-2146.597232
1491.282862,-7550.100608,-536.266849,-3182.885551
1491.283174,-6883.915261,1378.971896,-3627.009116
1491.283485,-8956.491898,536.266849,-3775.050304
1491.283797,-10140.821405,306.438199,-1554.432478
1491.284108,-11769.274478,612.876398,-0.000000
1491.284419,-11695.253884,689.485948,592.164754
1491.284731,-9474.636058,0.000000,518.144159
1491.285042,-9178.553681,-536.266849,1036.288319
1491.285354,-9548.656652,-766.095498,1480.411884
1491.285665,-10362.883188,-229.828649,1554.432478
1491.285977,-11251.130318,0.000000,3034.844362
1491.286288,-11399.171507,0.000000,2886.803174
1491.286600,-10807.006753,-766.095498,1998.556043
1491.286911,-9622.677246,-459.657299,222.061783
1491.287222,-7179.997637,1072.533697,-962.267725
1491.287534,-5921.647536,1608.800546,-1332.370696
1491.287845,-4219.173869,1685.410096,-1036.288319
1491.288157,-4589.276840,306.438199,-740.205942
1491.288468,-7328.038826,229.828649,1036.288319
1491.288780,-9770.718434,-689.485948,3404.947333
1491.289091,-11769.274478,383.047749,4737.318029
1491.289403,-12361.439231,1455.581446,5403.503377
1491.289714,-12879.583391,459.657299,5107.421000
1491.290026,-10658.965565,-1302.362347,4441.235652
1491.290337,-6661.853478,-919.314598,1998.556043
1491.290648,-5107.421000,76.609550,-592.164754
1491.290960,-3627.009116,153.219100,-1110.308913
1491.291271,-3997.112087,-459.657299,-1332.370696
1491.291583,-4441.235652,-383.047749,-1554.432478
1491.291894,-6069.688724,0.000000,666.185348
1491.292206,-9696.697840,-1532.190996,3182.885551
1491.292517,-11473.192101,-1608.800546,4293.194464
1491.292829,-12139.377449,689.485948,4145.153275
1491.293140,-12657.521608,1378.971896,4219.173869
1491.293451,-9696.697840,995.924147,2812.782580
1491.293763,-6217.729913,-919.314598,-296.082377
1491.294074,-4071.132681,383.047749,-1924.535449
1491.294386,-5255.462188,1149.143247,-666.185348
1491.294697,-9770.718434,153.219100,-518.144159
1491.295009,-12805.562797,-766.095498,148.041188
1491.295320,-13989.892304,-1762.019645,1184.329507
1491.295632,-11843.295072,-2451.505594,1850.514855
1491.295943,-7772.162391,-766.095498,-0.000000
1491.296254,-5773.606348,-536.266849,-2590.720797
1491.296566,-4293.194464,-1608.800546,-3034.844362
1491.296877,-3923.091493,-1762.019645,-2738.761985
1491.297189,-7698.141797,1685.410096,-370.102971
1491.297500,-12509.480420,3447.429741,1406.391290
1491.297812,-17542.880825,1455.581446,2886.803174
1491.298123,-16284.530724,229.828649,3256.906145
1491.298435,-11991.336260,1149.143247,740.205942
1491.298746,-8586.388927,2528.115143,-2072.576638
1491.299057,-5255.462188,1302.362347,-3256.906145
1491.299369,-3849.070898,689.485948,-4737.318029
1491.299680,-2590.720797,-153.219100,-3775.050304
1491.299992,-5699.585753,-995.924147,-2220.617826
1491.300303,-10066.800811,-1149.143247,-444.123565
1491.300615,-10955.047942,0.000000,3552.988522
1491.300926,-12287.418637,153.219100,3478.967927
1491.301238,-11843.295072,-612.876398,2960.823768
1491.301549,-11473.192101,383.047749,3108.864956
1491.301861,-11251.130318,766.095498,2368.659014
1491.302172,-9030.512492,766.095498,2368.659014
1491.302483,-6957.935855,-1378.971896,-666.185348
1491.302795,-5551.544565,-383.047749,-592.164754
1491.303106,-6069.688724,-766.095498,-666.185348
1491.303418,-7846.182985,-2145.067394,-296.082377
1491.303729,-8142.265362,-1608.800546,1702.473667
1491.304041,-9548.656652,-1991.848295,2146.597232
1491.304352,-11399.171507,-3447.429741,2812.782580
1491.304664,-10955.047942,-3217.601092,2960.823768
1491.304975,-9104.533087,-689.485948,2220.617826
1491.305286,-6661.853478,1455.581446,222.061783
1491.305598,-7476.080014,2145.067394,888.247130
1491.305909,-9918.759623,995.924147,2220.617826
1491.306221,-10584.944971,229.828649,2146.597232
1491.306532,-9474.636058,-612.876398,1628.453072
1491.306844,-8734.430116,0.000000,-518.144159
1491.307155,-8216.285956,919.314598,-1702.473667
1491.307467,-8438.347739,2145.067394,-2220.617826
1491.307778,-6883.915261,0.000000,-1924.535449
1491.308089,-6957.935855,-1378.971896,-3034.844362
1491.308401,-7920.203579,-459.657299,-1998.556043
1491.308712,-8142.265362,2068.457845,148.041188
1491.309024,-10214.842000,2681.334243,1776.494261
1491.309335,-12435.459826,2221.676944,2146.597232
1491.309647,-13397.727550,1378.971896,2220.617826
1491.309958,-11029.068536,842.705048,2368.659014
1491.310270,-6661.853478,76.609550,1110.308913
1491.310581,-4737.318029,153.219100,-2516.700203
1491.310892,-4737.318029,-842.705048,-4367.215058
1491.311204,-5921.647536,-919.314598,-4441.235652
1491.311515,-7550.100608,-1149.143247,-1702.473667
1491.311827,-9992.780217,-383.047749,-518.144159
1491.312138,-13027.624579,-1225.752797,1332.370696
1491.312450,-13841.851115,-1455.581446,2664.741391
1491.312761,-10955.047942,-766.095498,1998.556043
1491.313073,-8808.450710,306.438199,1702.473667
1491.313384,-6217.729913,1302.362347,1184.329507
1491.313696,-6735.874072,229.828649,1184.329507
1491.314007,-7402.059420,-1455.581446,592.164754
1491.314318,-8290.306550,-2068.457845,1924.535449
1491.314630,-10510.924376,-1455.581446,1628.453072
1491.314941,-11177.109724,-1072.533697,2812.782580
1491.315253,-10288.862594,-1378.971896,1702.473667
1491.315564,-9400.615463,-2221.676944,518.144159
1491.315876,-8290.306550,-766.095498,1776.494261
1491.316187,-8882.471304,-689.485948,1702.473667
1491.316499,-8438.347739,-76.609550,1998.556043
1491.316810,-7550.100608,1149.143247,1480.411884
1491.317121,-8068.244768,2451.505594,-0.000000
1491.317433,-7624.121203,3600.648841,1332.370696
1491.317744,-7105.977043,2374.896044,962.267725
1491.318056,-7624.121203,1608.800546,1850.514855
1491.318367,-8216.285956,229.828649,2368.659014
1491.318679,-9326.594869,-919.314598,2442.679609
1491.318990,-9770.718434,-995.924147,888.247130
1491.319302,-9918.759623,0.000000,-0.000000
1491.319613,-7994.224174,-612.876398,-0.000000
1491.319924,-6735.874072,-229.828649,370.102971
1491.320236,-8512.368333,-229.828649,-222.061783
1491.320547,-7920.203579,-919.314598,-888.247130
1491.320859,-6439.791695,-229.828649,-1184.329507
1491.321170,-6735.874072,1149.143247,-814.226536
1491.321482,-9030.512492,1225.752797,-296.082377
1491.321793,-11029.068536,-153.219100,-74.020594
1491.322105,-12435.459826,-689.485948,222.061783
1491.322416,-13101.645173,689.485948,1110.308913
1491.322727,-14211.954086,0.000000,1702.473667
1491.323039,-13915.871710,-919.314598,2812.782580
1491.323350,-11695.253884,-2374.896044,148.041188
1491.323662,-6957.935855,-2451.505594,-666.185348
1491.323973,-2664.741391,-1762.019645,-1850.514855
1491.324285,-3552.988522,-689.485948,-3034.844362
1491.324596,-7105.977043,-536.266849,-2590.720797
1491.324908,-9474.636058,-689.485948,-962.267725
1491.325219,-13989.892304,0.000000,888.247130
1491.325531,-15026.180623,1455.581446,2368.659014
1491.325842,-14063.912898,1302.362347,1554.432478
1491.326153,-10584.944971,-842.705048,1258.350101
1491.326465,-7402.059420,-1915.238745,370.102971
1491.326776,-6735.874072,-919.314598,-1776.494261
1491.327088,-5699.585753,76.609550,-1480.411884
1491.327399,-8290.306550,995.924147,-222.061783
1491.327711,-8956.491898,689.485948,148.041188
1491.328022,-8364.327145,1149.143247,-0.000000
1491.328334,-8364.327145,1455.581446,-1036.288319
1491.328645,-6661.853478,1302.362347,-518.144159
1491.328956,-4219.173869,1838.629195,-1110.308913
1491.329268,-4145.153275,1838.629195,-518.144159
1491.329579,-7402.059420,1378.971896,888.247130
1491.329891,-10510.924376,-1608.800546,1998.556043
1491.330202,-10955.047942,-1991.848295,3775.050304
1491.330514,-10658.965565,-919.314598,4367.215058
1491.330825,-10362.883188,-842.705048,2886.803174
1491.331137,-9918.759623,-1532.190996,1924.535449
1491.331448,-7920.203579,-612.876398,1998.556043
1491.331759,-5699.585753,689.485948,740.205942
1491.332071,-6143.709319,689.485948,-814.226536
1491.332382,-7402.059420,306.438199,-814.226536
1491.332694,-6291.750507,383.047749,-370.102971
1491.333005,-6735.874072,919.314598,74.020594
1491.333317,-8512.368333,1302.362347,1998.556043
1491.333628,-10584.944971,612.876398,3775.050304
1491.333940,-12509.480420,-1532.190996,4959.379811
1491.334251,-12731.542202,-3753.867940,5995.668130
1491.334562,-10732.986159,-3677.258390,3256.906145
1491.334874,-9030.512492,-1532.190996,1036.288319
1491.335185,-8512.368333,0.000000,-962.267725
1491.335497,-6513.812290,0.000000,-1480.411884
1491.335808,-5921.647536,0.000000,-2590.720797
1491.336120,-6883.915261,-153.219100,-2368.659014
1491.336431,-9252.574275,459.657299,-1480.411884
1491.336743,-10732.986159,766.095498,-0.000000
1491.337054,-12361.439231,2068.457845,1480.411884
1491.337366,-14656.077652,1685.410096,1924.535449
1491.337677,-14359.995275,-383.047749,2072.576638
1491.337988,-11325.150913,-1608.800546,1258.350101
1491.338300,-7179.997637,-995.924147,-740.205942
1491.338611,-4885.359217,689.485948,-2368.659014
1491.338923,-7031.956449,-383.047749,-1998.556043
1491.339234,-9474.636058,-459.657299,-814.226536
1491.339546,-8586.388927,-612.876398,-444.123565
1491.339857,-7254.018232,536.266849,-0.000000
1491.340169,-7031.956449,1072.533697,-1258.350101
1491.340480,-7031.956449,1685.410096,-1406.391290
1491.340791,-6809.894666,1302.362347,-1998.556043
1491.341103,-6513.812290,1685.410096,-1406.391290
1491.341414,-9252.574275,689.485948,-1406.391290
1491.341726,-11103.089130,766.095498,666.185348
1491.342037,-11621.233289,0.000000,1332.370696
1491.342349,-11177.109724,-1149.143247,2146.597232
1491.342660,-9844.739029,-1378.971896,2368.659014
1491.342972,-8660.409521,-1378.971896,1776.494261
1491.343283,-7105.977043,0.000000,962.267725
1491.343594,-4811.338623,0.000000,-0.000000
1491.343906,-4145.153275,0.000000,-1184.329507
1491.344217,-5625.565159,1302.362347,-1776.494261
1491.344529,-7105.977043,459.657299,-296.082377
1491.344840,-8364.327145,-995.924147,1332.370696
1491.345152,-12213.398043,-689.485948,2072.576638
1491.345463,-15766.386565,76.609550,3552.988522
1491.345775,-16358.551318,-612.876398,4663.297435
1491.346086,-15174.221811,-2451.505594,4663.297435
1491.346397,-11695.253884,-1532.190996,3552.988522
1491.346709,-7105.977043,-1225.752797,518.144159
1491.347020,-3701.029710,-1149.143247,-1702.473667
1491.347332,-2664.741391,229.828649,-1332.370696
1491.347643,-2960.823768,2221.676944,-1036.288319
1491.347955,-4663.297435,1685.410096,814.226536
1491.348266,-7698.141797,0.000000,2072.576638
1491.348578,-12287.418637,229.828649,3478.967927
1491.348889,-13915.871710,766.095498,3627.009116
1491.349201,-13101.645173,383.047749,2072.576638
1491.349512,-11843.295072,842.705048,444.123565
1491.349823,-8142.265362,-306.438199,-296.082377
1491.350135,-5773.606348,-1225.752797,-2072.576638
1491.350446,-5773.606348,-1225.752797,-1998.556043
1491.350758,-7994.224174,-842.705048,-1036.288319
1491.351069,-9400.615463,-1532.190996,-0.000000
1491.351381,-9992.780217,383.047749,1628.453072
1491.351692,-10807.006753,2374.896044,1998.556043
1491.352004,-10140.821405,1455.581446,1406.391290
1491.352315,-7031.956449,-1225.752797,-0.000000
1491.352626,-3034.844362,-1225.752797,-3256.906145
1491.352938,-2294.638420,612.876398,-4293.194464
1491.353249,-5847.626942,612.876398,-2442.679609
1491.353561,-11917.315666,229.828649,-0.000000
1491.353872,-16950.716072,-2681.334243,2294.638420
1491.354183,-18431.127956,-3600.648841,4219.173869
1491.354495,-15766.386565,-2834.553343,3627.009116
1491.354806,-11473.192101,0.000000,740.205942
1491.355117,-6439.791695,1149.143247,-2368.659014
1491.355429,-2072.576638,1685.410096,-3997.112087
1491.355740,296.082377,2145.067394,-4811.338623
1491.356051,-2442.679609,3294.210641,-3034.844362
1491.356363,-7105.977043,2068.457845,-814.226536
1491.356674,-11103.089130,-995.924147,2516.700203
1491.356986,-14063.912898,-1225.752797,2442.679609
1491.357297,-13989.892304,0.000000,2368.659014
1491.357608,-12953.603985,0.000000,1554.432478
1491.357920,-10288.862594,-1685.410096,1628.453072
1491.358231,-8956.491898,-2528.115143,370.102971
1491.358542,-8290.306550,-1838.629195,-1776.494261
1491.358854,-8068.244768,0.000000,-740.205942
1491.359165,-7402.059420,995.924147,296.082377
1491.359476,-6217.729913,2068.457845,592.164754
1491.359788,-6439.791695,1838.629195,1332.370696
1491.360099,-7254.018232,76.609550,1184.329507
1491.360411,-7624.121203,76.609550,1998.556043
1491.360722,-7624.121203,383.047749,1036.288319
1491.361033,-9104.533087,1378.971896,1036.288319
1491.361345,-10881.027347,-459.657299,-148.041188
1491.361656,-11029.068536,-1225.752797,740.205942
1491.361967,-11103.089130,-1378.971896,1924.535449
1491.362279,-11251.130318,-1302.362347,2146.597232
1491.362590,-11547.212695,-1455.581446,3108.864956
1491.362902,-9622.677246,-1455.581446,2368.659014
1491.363213,-7920.203579,-919.314598,3404.947333
1491.363524,-7328.038826,0.000000,2146.597232
1491.363836,-4589.276840,1455.581446,1258.350101
1491.364147,-3404.947333,1302.362347,-1406.391290
1491.364458,-3627.009116,766.095498,-666.185348
1491.364770,-5107.421000,-919.314598,-1036.288319
1491.365081,-8290.306550,-306.438199,-296.082377
1491.365392,-12657.521608,766.095498,1702.473667
1491.365704,-16950.716072,-1072.533697,3256.906145
1491.366015,-18801.230927,-1685.410096,3923.091493
1491.366327,-17468.860231,-536.266849,2812.782580
1491.366638,-13841.851115,76.609550,1850.514855
1491.366949,-9104.533087,-612.876398,592.164754
1491.367261,-3256.906145,76.609550,-962.267725
1491.367572,666.185348,919.314598,-4145.153275
1491.367883,1184.329507,1149.143247,-4515.256246
1491.368195,0.000000,0.000000,-518.144159
1491.368506,-4515.256246,-919.314598,-296.082377
1491.368817,-11621.233289,0.000000,740.205942
1491.369129,-16950.716072,229.828649,2146.597232
1491.369440,-19023.292709,919.314598,3997.112087
1491.369752,-18283.086767,1455.581446,3849.070898
1491.370063,-13767.830521,383.047749,888.247130
1491.370374,-7920.203579,-2298.286494,-2072.576638
1491.370686,-2442.679609,-1225.752797,-4515.256246
1491.370997,1406.391290,1072.533697,-5181.441594
1491.371308,-888.247130,2145.067394,-4441.235652
1491.371620,-4959.379811,1072.533697,-1258.350101
1491.371931,-9326.594869,-383.047749,962.267725
1491.372243,-11177.109724,-1072.533697,1924.535449
1491.372554,-9844.739029,842.705048,2738.761985
1491.372865,-11547.212695,459.657299,1036.288319
1491.373177,-10732.986159,0.000000,444.123565
1491.373488,-9992.780217,-612.876398,370.102971
1491.373799,-10214.842000,-995.924147,444.123565
1491.374111,-11251.130318,-1072.533697,1628.453072
1491.374422,-11769.274478,-2145.067394,1702.473667
1491.374733,-11103.089130,-2451.505594,-0.000000
1491.375045,-8956.491898,-1378.971896,-0.000000
1491.375356,-7550.100608,1991.848295,-518.144159
1491.375668,-6587.832884,1991.848295,-518.144159
1491.375979,-6883.915261,612.876398,-296.082377
1491.376290,-7105.977043,-536.266849,148.041188
1491.376602,-8142.265362,229.828649,962.267725
1491.376913,-10140.821405,1455.581446,3034.844362
1491.377224,-11991.336260,919.314598,4145.153275
1491.377536,-13471.748144,-1302.362347,4071.132681
1491.377847,-13619.789333,-2145.067394,4885.359217
1491.378158,-11991.336260,-1838.629195,3849.070898
1491.378470,-10436.903782,-1762.019645,814.226536
1491.378781,-8438.347739,0.000000,-888.247130
1491.379093,-4959.379811,383.047749,-2368.659014
1491.379404,-2442.679609,919.314598,-2886.803174
1491.379715,-2960.823768,2221.676944,-1036.288319
1491.380027,-6735.874072,842.705048,444.123565
1491.380338,-8068.244768,306.438199,2442.679609
1491.380649,-10436.903782,-766.095498,3108.864956
1491.380961,-13619.789333,1072.533697,4293.194464
1491.381272,-14211.954086,842.705048,4737.318029
1491.381584,-12139.377449,-1378.971896,1776.494261
1491.381895,-6957.935855,-2757.943793,-888.247130
1491.382206,-2738.761985,-1302.362347,-2812.782580
1491.382518,-1628.453072,-919.314598,-4441.235652
1491.382829,-4959.379811,995.924147,-3552.988522
1491.383140,-10362.883188,1762.019645,-74.020594
1491.383452,-14137.933492,229.828649,2590.720797
1491.383763,-13767.830521,306.438199,4367.215058
1491.384074,-9992.780217,1991.848295,2738.761985
1491.384386,-4293.194464,2145.067394,222.061783
1491.384697,-814.226536,306.438199,-3256.906145
1491.385009,-1184.329507,-229.828649,-4367.215058
1491.385320,-6365.771101,1455.581446,-3478.967927
1491.385631,-13175.665768,536.266849,888.247130
1491.385943,-18653.189738,-1608.800546,3997.112087
1491.386254,-19837.519246,-2757.943793,4515.256246
1491.386565,-16358.551318,-2757.943793,1628.453072
1491.386877,-9104.533087,-1915.238745,-0.000000
1491.387188,-2886.803174,-306.438199,-1332.370696
1491.387499,74.020594,1302.362347,-4589.276840
1491.387811,-444.123565,383.047749,-4441.235652
1491.388122,-4959.379811,-612.876398,-1924.535449
1491.388434,-9770.718434,459.657299,1998.556043
1491.388745,-13767.830521,689.485948,3701.029710
1491.389056,-15840.407159,-229.828649,3701.029710
1491.389368,-15248.242405,-842.705048,3775.050304
1491.389679,-14285.974681,-842.705048,2812.782580
1491.389990,-10584.944971,229.828649,592.164754
1491.390302,-8216.285956,-919.314598,-814.226536
1491.390613,-7698.141797,-842.705048,-1850.514855
1491.390924,-7476.080014,0.000000,-1702.473667
1491.391236,-6735.874072,1762.019645,-296.082377
1491.391547,-6587.832884,2757.943793,666.185348
1491.391859,-6661.853478,1455.581446,2072.576638
1491.392170,-7402.059420,-1455.581446,2220.617826
1491.392481,-7179.997637,-1915.238745,2146.597232
1491.392793,-6439.791695,-536.266849,888.247130
1491.393104,-7402.059420,0.000000,222.061783
1491.393415,-9992.780217,-459.657299,222.061783
1491.393727,-12657.521608,-229.828649,444.123565
1491.394038,-12879.583391,229.828649,2146.597232
1491.394350,-11399.171507,-1149.143247,2886.803174
1491.394661,-10732.986159,-1991.848295,1702.473667
1491.394972,-9326.594869,-1455.581446,814.226536
1491.395284,-7846.182985,-306.438199,-0.000000
1491.395595,-7402.059420,995.924147,-74.020594
1491.395906,-6439.791695,1685.410096,-0.000000
1491.396218,-5107.421000,-689.485948,-2368.659014
1491.396529,-2886.803174,-1072.533697,-2590.720797
1491.396840,-4071.132681,1608.800546,-1110.308913
1491.397152,-8068.244768,2145.067394,444.123565
1491.397463,-13989.892304,536.266849,2812.782580
1491.397775,-18061.024985,-1149.143247,3552.988522
1491.398086,-17098.757260,-1608.800546,3997.112087
1491.398397,-11547.212695,-153.219100,2886.803174
1491.398709,-7105.977043,766.095498,-1184.329507
1491.399020,-4145.153275,1072.533697,-3923.091493
1491.399331,-2368.659014,612.876398,-5181.441594
1491.399643,-888.247130,1149.143247,-4515.256246
1491.399954,-2664.741391,2374.896044,-2516.700203
1491.400265,-9326.594869,306.438199,518.144159
1491.400577,-13397.727550,-2451.505594,2220.617826
1491.400888,-14285.974681,-2298.286494,2368.659014
1491.401200,-12953.603985,0.000000,2516.700203
1491.401511,-10732.986159,766.095498,1406.391290
1491.401822,-9696.697840,-1225.752797,518.144159
1491.402134,-7476.080014,-2834.553343,-1332.370696
1491.402445,-5847.626942,-2068.457845,-2368.659014
1491.402756,-8586.388927,919.314598,-1110.308913
1491.403068,-11399.171507,1838.629195,1480.411884
1491.403379,-13101.645173,1149.143247,1406.391290
1491.403691,-10584.944971,-842.705048,1110.308913
1491.404002,-7698.141797,-229.828649,-0.000000
1491.404313,-4589.276840,1302.362347,-1258.350101
1491.404625,-2220.617826,2145.067394,-2072.576638
1491.404936,-5921.647536,1072.533697,-2294.638420
1491.405247,-11769.274478,-1225.752797,1480.411884
1491.405559,-16506.592507,0.000000,4367.215058
1491.405870,-18949.272115,153.219100,7476.080014
1491.406181,-17690.922014,-612.876398,7994.224174
1491.406493,-12583.501014,-2681.334243,5477.523971
1491.406804,-6587.832884,-2911.162892,1406.391290
1491.407116,0.000000,-919.314598,-1924.535449
1491.407427,2442.679609,0.000000,-3701.029710
1491.407738,888.247130,842.705048,-3478.967927
1491.408050,-4737.318029,689.485948,-1332.370696
1491.408361,-9474.636058,-459.657299,1554.432478
1491.408672,-12953.603985,0.000000,3478.967927
1491.408984,-14952.160028,1532.190996,5255.462188
1491.409295,-14063.912898,1378.971896,4811.338623
1491.409606,-12435.459826,-995.924147,2738.761985
1491.409918,-9918.759623,-1072.533697,1406.391290
1491.410229,-8660.409521,1149.143247,592.164754
1491.410541,-7920.203579,1302.362347,-0.000000
1491.410852,-5773.606348,-689.485948,-1184.329507
1491.411163,-3034.844362,-2451.505594,-3034.844362
1491.411475,-740.205942,842.705048,-2886.803174
1491.411786,-1702.473667,3140.991542,-1110.308913
1491.412097,-5847.626942,0.000000,-1036.288319
1491.412409,-10436.903782,-1608.800546,814.226536
1491.412720,-14285.974681,-2145.067394,1184.329507
1491.413032,-13915.871710,-459.657299,2146.597232
1491.413343,-13249.686362,1991.848295,962.267725
1491.413654,-12583.501014,842.705048,-444.123565
1491.413966,-9844.739029,-689.485948,-814.226536
1491.414277,-8512.368333,-1762.019645,-1258.350101
1491.414588,-7624.121203,-459.657299,-1036.288319
1491.414900,-9104.533087,229.828649,-222.061783
1491.415211,-10288.862594,-612.876398,-518.144159
1491.415522,-8068.244768,-383.047749,-1480.411884
1491.415834,-6143.709319,1532.190996,-2590.720797
1491.416145,-3997.112087,1685.410096,-1628.453072
1491.416457,-6513.812290,689.485948,-2220.617826
1491.416768,-9474.636058,-689.485948,-148.041188
1491.417079,-11769.274478,-1225.752797,1554.432478
1491.417391,-15100.201217,-1915.238745,2294.638420
1491.417702,-14508.036463,-919.314598,2294.638420
1491.418013,-13101.645173,229.828649,2368.659014
1491.418325,-12879.583391,-612.876398,1184.329507
1491.418636,-10362.883188,-689.485948,444.123565
1491.418947,-9474.636058,-306.438199,-666.185348
1491.419259,-6735.874072,2451.505594,-1184.329507
1491.419570,-3034.844362,2757.943793,-888.247130
1491.419882,-3775.050304,689.485948,-1702.473667
1491.420193,-6143.709319,-612.876398,296.082377
1491.420504,-9178.553681,-995.924147,1332.370696
1491.420816,-8956.491898,-689.485948,2590.720797
1491.421127,-10807.006753,-306.438199,3701.029710
1491.421438,-12583.501014,-1455.581446,4589.276840
1491.421750,-11917.315666,-2911.162892,3923.091493
1491.422061,-11325.150913,-2221.676944,2960.823768
1491.422372,-8512.368333,-383.047749,2812.782580
1491.422684,-5477.523971,306.438199,1554.432478
1491.422995,-2812.782580,153.219100,740.205942
1491.423307,-2294.638420,1302.362347,666.185348
1491.423618,-4441.235652,612.876398,-0.000000
1491.423929,-5773.606348,612.876398,222.061783
1491.424241,-6365.771101,995.924147,518.144159
1491.424552,-8956.491898,919.314598,296.082377
1491.424863,-11103.089130,-612.876398,962.267725
1491.425175,-13767.830521,-842.705048,1850.514855
1491.425486,-14804.118840,-383.047749,3182.885551
1491.425798,-11917.315666,-1685.410096,2738.761985
1491.426109,-9548.656652,-2911.162892,1702.473667
1491.426420,-6957.935855,-1915.238745,1406.391290
1491.426732,-6513.812290,1225.752797,222.061783
1491.427043,-7624.121203,0.000000,-1110.308913
1491.427354,-7031.956449,1225.752797,-666.185348
1491.427666,-7698.141797,2374.896044,-1406.391290
1491.427977,-7254.018232,1685.410096,-1628.453072
1491.428288,-7328.038826,1149.143247,-2146.597232
1491.428600,-8142.265362,0.000000,-2072.576638
1491.428911,-9252.574275,612.876398,-1406.391290
1491.429223,-11695.253884,-383.047749,-592.164754
1491.429534,-13175.665768,-383.047749,370.102971
1491.429845,-14878.139434,153.219100,1850.514855
1491.430157,-15248.242405,-306.438199,2072.576638
1491.430468,-12731.542202,-306.438199,1258.350101
1491.430779,-8216.285956,229.828649,-592.164754
1491.431091,-3034.844362,229.828649,-1406.391290
1491.431402,-370.102971,0.000000,-2590.720797
1491.431713,0.000000,-459.657299,-4219.173869
1491.432025,-2220.617826,689.485948,-3849.070898
1491.432336,-7402.059420,459.657299,-962.267725
1491.432648,-13101.645173,-1838.629195,1332.370696
1491.432959,-15618.345376,-1072.533697,2886.803174
1491.433270,-16580.613101,-536.266849,2368.659014
1491.433582,-15692.365970,0.000000,2886.803174
1491.433893,-11843.295072,76.609550,1480.411884
1491.434204,-9992.780217,306.438199,444.123565
1491.434516,-8438.347739,229.828649,296.082377
1491.434827,-6365.771101,-1302.362347,-0.000000
1491.435139,-5773.606348,-1149.143247,518.144159
1491.435450,-4737.318029,1149.143247,1184.329507
1491.435761,-4589.276840,0.000000,1628.453072
1491.436073,-6217.729913,-2757.943793,962.267725
1491.436384,-7179.997637,-2451.505594,2146.597232
1491.436695,-9104.533087,-1838.629195,1702.473667
1491.437007,-10436.903782,-1685.410096,2294.638420
1491.437318,-13249.686362,-459.657299,2960.823768
1491.437629,-15248.242405,0.000000,3627.009116
1491.437941,-13619.789333,-229.828649,3256.906145
1491.438252,-11399.171507,689.485948,2738.761985
1491.438564,-8734.430116,2681.334243,1702.473667
1491.438875,-8068.244768,1915.238745,-296.082377
1491.439186,-4737.318029,1608.800546,-0.000000
1491.439498,-2886.803174,1455.581446,-2146.597232
1491.439809,-2516.700203,1455.581446,-2442.679609
1491.440120,-3849.070898,842.705048,-1036.288319
1491.440432,-8068.244768,459.657299,222.061783
1491.440743,-10732.986159,-383.047749,1258.350101
1491.441054,-13397.727550,-1378.971896,1332.370696
1491.441366,-14137.933492,-1532.190996,1850.514855
1491.441677,-13323.706956,0.000000,2368.659014
1491.441989,-11251.130318,-153.219100,1406.391290
1491.442300,-8142.265362,-1378.971896,-148.041188
1491.442611,-6291.750507,-536.266849,-1628.453072
1491.442923,-3404.947333,536.266849,-2220.617826
1491.443234,-3182.885551,1762.019645,-1776.494261
1491.443545,-4589.276840,1149.143247,-1184.329507
1491.443857,-6587.832884,612.876398,-814.226536
1491.444168,-8438.347739,0.000000,-222.061783
1491.444480,-9030.512492,-383.047749,962.267725
1491.444791,-11177.109724,-1225.752797,1406.391290
1491.445102,-11177.109724,-1532.190996,1998.556043
1491.445414,-12065.356855,-2221.676944,740.205942
1491.445725,-11177.109724,-689.485948,592.164754
1491.446036,-10510.924376,0.000000,1776.494261
1491.446348,-12213.398043,-766.095498,2146.597232
1491.446659,-10288.862594,-1378.971896,1480.411884
1491.446970,-7920.203579,-1455.581446,-148.041188
1491.447282,-6143.709319,1149.143247,-592.164754
1491.447593,-3923.091493,3064.381992,-888.247130
1491.447905,-4293.194464,2374.896044,-1110.308913
1491.448216,-7031.956449,229.828649,-962.267725
1491.448527,-11547.212695,-459.657299,1110.308913
1491.448839,-14952.160028,-919.314598,3034.844362
1491.449150,-14434.015869,-536.266849,3849.070898
1491.449461,-14359.995275,0.000000,2442.679609
1491.449773,-12509.480420,-2221.676944,1554.432478
1491.450084,-9030.512492,-2911.162892,814.226536
1491.450395,-6365.771101,-1302.362347,-74.020594
1491.450707,-5699.585753,-842.705048,-74.020594
1491.451018,-6809.894666,-766.095498,370.102971
1491.451330,-6735.874072,229.828649,518.144159
1491.451641,-7179.997637,1378.971896,296.082377
1491.451952,-7105.977043,1072.533697,296.082377
1491.452264,-6365.771101,1302.362347,-74.020594
1491.452575,-6069.688724,2451.505594,-666.185348
1491.452886,-7550.100608,2068.457845,-592.164754
1491.453198,-11621.233289,2221.676944,666.185348
1491.453509,-13989.892304,1149.143247,2442.679609
1491.453821,-13249.686362,-689.485948,1776.494261
1491.454132,-9622.677246,-2451.505594,-0.000000
1491.454443,-7698.141797,-1608.800546,-814.226536
1491.454755,-6661.853478,-229.828649,-444.123565
1491.455066,-5995.668130,842.705048,-444.123565
1491.455377,-7994.224174,-536.266849,-222.061783
1491.455682,-8512.368333,-842.705048,1184.329507
1491.455994,-8956.491898,-612.876398,2146.597232
1491.456305,-6439.791695,-536.266849,1924.535449
1491.456617,-6365.771101,-1455.581446,148.041188
1491.456928,-8734.430116,-1532.190996,-148.041188
1491.457240,-8512.368333,-842.705048,-740.205942
1491.457551,-10436.903782,459.657299,-296.082377
1491.457863,-12805.562797,842.705048,1776.494261
1491.458174,-14359.995275,-919.314598,1406.391290
1491.458486,-14434.015869,-2145.067394,1406.391290
1491.458797,-9844.739029,0.000000,740.205942
1491.459109,-5033.400406,766.095498,666.185348
1491.459420,-2368.659014,153.219100,-1036.288319
1491.459732,-1850.514855,919.314598,-1110.308913
1491.460043,-3923.091493,1225.752797,-814.226536
1491.460355,-7254.018232,919.314598,1406.391290
1491.460666,-11251.130318,689.485948,3108.864956
1491.460978,-12731.542202,842.705048,1776.494261
1491.461289,-11547.212695,0.000000,592.164754
1491.461600,-10658.965565,0.000000,222.061783
1491.461912,-9770.718434,766.095498,296.082377
1491.462223,-10658.965565,995.924147,222.061783
1491.462535,-11769.274478,-1378.971896,1998.556043
1491.462846,-11991.336260,-2068.457845,2442.679609
1491.463158,-11621.233289,153.219100,3034.844362
1491.463469,-6143.709319,842.705048,2368.659014
1491.463781,-2442.679609,153.219100,-296.082377
1491.464092,-1924.535449,-1302.362347,-666.185348
1491.464404,-814.226536,-1302.362347,-592.164754
1491.464715,-3997.112087,76.609550,-370.102971
1491.465027,-9770.718434,0.000000,1258.350101
1491.465338,-16580.613101,-153.219100,2590.720797
1491.465650,-19689.478057,-1455.581446,4145.153275
1491.465961,-17320.819043,-1225.752797,3034.844362
1491.466273,-13619.789333,-153.219100,1924.535449
1491.466584,-9104.533087,-842.705048,222.061783
1491.466896,-5921.647536,-1149.143247,-1036.288319
1491.467207,-3256.906145,-919.314598,-1406.391290
1491.467518,-2072.576638,-383.047749,-2072.576638
1491.467830,-3775.050304,306.438199,-3330.926739
1491.468141,-5107.421000,2374.896044,-296.082377
1491.468453,-7920.203579,1072.533697,-74.020594
1491.468764,-11843.295072,-383.047749,370.102971
1491.469076,-14656.077652,76.609550,1036.288319
1491.469387,-15618.345376,1149.143247,1332.370696
1491.469699,-14211.954086,995.924147,1332.370696
1491.470010,-11843.295072,-1072.533697,370.102971
1491.470322,-9770.718434,-2298.286494,-1480.411884
1491.470633,-6735.874072,-1532.190996,-3034.844362
1491.470945,-3182.885551,-919.314598,-3552.988522
1491.471256,-2516.700203,1225.752797,-3627.009116
1491.471568,-4219.173869,2374.896044,-3330.926739
1491.471879,-4959.379811,2451.505594,-2368.659014
1491.472191,-6143.709319,612.876398,-2442.679609
1491.472502,-7476.080014,1378.971896,-1776.494261
1491.472814,-6661.853478,1685.410096,-962.267725
1491.473125,-7920.203579,383.047749,-2442.679609
1491.473437,-9622.677246,995.924147,-1628.453072
1491.473748,-12953.603985,1225.752797,-74.020594
1491.474059,-15766.386565,536.266849,1258.350101
1491.474371,-15470.304188,-766.095498,1480.411884
1491.474682,-12139.377449,-2298.286494,-296.082377
1491.474994,-7846.182985,-1915.238745,-2960.823768
1491.475305,-3552.988522,76.609550,-4293.194464
1491.475617,-740.205942,689.485948,-6439.791695
1491.475928,-888.247130,153.219100,-6587.832884
1491.476240,-4885.359217,0.000000,-3256.906145
1491.476551,-10955.047942,-766.095498,-444.123565
1491.476863,-15470.304188,-536.266849,2220.617826
1491.477174,-18283.086767,-229.828649,3330.926739
1491.477486,-17987.004391,-766.095498,3627.009116
1491.477797,-17320.819043,-1762.019645,1628.453072
1491.478109,-13619.789333,-2834.553343,592.164754
1491.478420,-8956.491898,-2757.943793,-2368.659014
1491.478732,-6069.688724,-2145.067394,-3701.029710
1491.479043,-3849.070898,-1532.190996,-3775.050304
1491.479355,-5699.585753,-1149.143247,-5329.482782
1491.479666,-6735.874072,459.657299,-2442.679609
1491.479977,-7846.182985,1685.410096,-1480.411884
1491.480289,-9548.656652,2221.676944,-222.061783
1491.480600,-11843.295072,2451.505594,666.185348
1491.480912,-12657.521608,1685.410096,1184.329507
1491.481223,-10436.903782,76.609550,-0.000000
1491.481535,-7031.956449,-995.924147,-1998.556043
1491.481846,-4663.297435,-536.266849,-5255.462188
1491.482158,-4589.276840,-306.438199,-5921.647536
1491.482469,-5403.503377,459.657299,-3552.988522
1491.482781,-8216.285956,459.657299,-2368.659014
1491.483092,-12509.480420,-766.095498,-1258.350101
1491.483404,-13175.665768,-842.705048,-370.102971
1491.483715,-8956.491898,0.000000,-1258.350101
1491.484027,-3775.050304,1608.800546,-3775.050304
1491.484338,-1110.308913,3294.210641,-5181.441594
1491.484650,-1776.494261,689.485948,-6883.915261
1491.484961,-4293.194464,306.438199,-5403.503377
1491.485273,-8216.285956,459.657299,-1998.556043
1491.485584,-12657.521608,0.000000,-0.000000
1491.485895,-16580.613101,-2068.457845,296.082377
1491.486207,-15470.304188,-2068.457845,-888.247130
1491.486518,-11399.171507,-1302.362347,-3997.112087
1491.486830,-6661.853478,536.266849,-5551.544565
1491.487141,-5699.585753,2528.115143,-6365.771101
1491.487453,-7698.141797,2451.505594,-6809.894666
1491.487764,-8808.450710,842.705048,-4367.215058
1491.488076,-10066.800811,0.000000,-1924.535449
1491.488387,-9770.718434,0.000000,-1628.453072
1491.488699,-8290.306550,-306.438199,-1184.329507
1491.489010,-7328.038826,-2834.553343,-2886.803174
1491.489322,-9030.512492,-3370.820191,-2368.659014
1491.489633,-11991.336260,-2451.505594,-814.226536
1491.489945,-14952.160028,-1532.190996,-1036.288319
1491.490256,-16210.510130,-536.266849,-1702.473667
1491.490568,-14508.036463,-153.219100,-1554.432478
1491.490879,-9918.759623,76.609550,-3034.844362
1491.491191,-4663.297435,0.000000,-6069.688724
1491.491502,-2442.679609,1378.971896,-7476.080014
1491.491814,-3775.050304,2068.457845,-6143.709319
1491.492125,-8808.450710,1838.629195,-2886.803174
1491.492436,-14656.077652,1378.971896,296.082377
1491.492748,-18579.169144,0.000000,2368.659014
1491.493059,-18209.066173,-1072.533697,3923.091493
1491.493371,-12583.501014,-1915.238745,1776.494261
1491.493682,-4515.256246,-1532.190996,-1332.370696
1491.493994,814.226536,-3217.601092,-4293.194464
1491.494305,962.267725,-4443.353888,-5773.606348
1491.494617,-1850.514855,-2757.943793,-4811.338623
1491.494928,-6735.874072,-229.828649,-2664.741391
1491.495240,-12287.418637,1762.019645,-222.061783
1491.495551,-17172.777854,1915.238745,1406.391290
1491.495863,-15544.324782,2298.286494,1480.411884
1491.496174,-10214.842000,2374.896044,-962.267725
1491.496486,-4663.297435,2834.553343,-2812.782580
1491.496797,-1406.391290,1149.143247,-4293.194464
1491.497109,-1184.329507,0.000000,-5699.585753
1491.497420,-3330.926739,-1149.143247,-4145.153275
1491.497732,-7846.182985,-1532.190996,-2072.576638
1491.498043,-12879.583391,-1378.971896,-74.020594
1491.498354,-14952.160028,0.000000,518.144159
1491.498666,-14656.077652,536.266849,-666.185348
1491.498977,-12509.480420,153.219100,-1184.329507
1491.499289,-9844.739029,919.314598,-3256.906145
1491.499600,-5847.626942,1608.800546,-4663.297435
1491.499912,-2664.741391,1302.362347,-5995.668130
1491.500223,-1406.391290,-383.047749,-6291.750507
1491.500535,-2516.700203,-842.705048,-5625.565159
1491.500846,-6513.812290,-383.047749,-3849.070898
1491.501158,-11991.336260,-306.438199,-592.164754
1491.501469,-18949.272115,-459.657299,1480.411884
1491.501781,-22872.363608,919.314598,2368.659014
1491.502092,-20355.663405,1149.143247,1036.288319
1491.502404,-13323.706956,306.438199,-2294.638420
1491.502715,-4293.194464,0.000000,-5329.482782
1491.503027,3256.906145,-153.219100,-9400.615463
1491.503338,6143.709319,-229.828649,-9992.780217
1491.503650,2590.720797,-1302.362347,-8512.368333
1491.503961,-5773.606348,-2068.457845,-3775.050304
1491.504272,-15396.283594,-2145.067394,666.185348
1491.504584,-23168.445985,-1072.533697,3701.029710
1491.504895,-25833.187376,0.000000,4071.132681
1491.505207,-21465.972318,1302.362347,2516.700203
1491.505518,-12287.418637,1838.629195,-592.164754
1491.505830,-2960.823768,612.876398,-3701.029710
1491.506141,2738.761985,-1225.752797,-5773.606348
1491.506453,3775.050304,-2221.676944,-7254.018232
1491.506764,814.226536,-459.657299,-5625.565159
1491.507076,-3552.988522,689.485948,-4293.194464
1491.507387,-9622.677246,-306.438199,-2886.803174
1491.507699,-14804.118840,-1302.362347,-1554.432478
1491.508010,-17394.839637,-1225.752797,-296.082377
1491.508322,-17616.901420,-995.924147,-0.000000
1491.508633,-16728.654289,-1149.143247,370.102971
1491.508945,-14434.015869,-383.047749,444.123565
1491.509256,-10362.883188,-919.314598,-148.041188
1491.509568,-5255.462188,-995.924147,-962.267725
1491.509879,-1036.288319,-153.219100,-1998.556043
1491.510190,888.247130,919.314598,-4145.153275
1491.510502,888.247130,1302.362347,-5551.544565
1491.510813,-1998.556043,1149.143247,-6365.771101
1491.511125,-6883.915261,1608.800546,-6143.709319
1491.511436,-11621.233289,1532.190996,-5033.400406
1491.511748,-14434.015869,766.095498,-4145.153275
1491.512059,-15396.283594,-459.657299,-2738.761985
1491.512371,-14878.139434,-1608.800546,-1702.473667
1491.512682,-12953.603985,-1685.410096,-444.123565
1491.512994,-11029.068536,-1685.410096,-148.041188
1491.513305,-8734.430116,-1762.019645,296.082377
1491.513617,-7698.141797,-1455.581446,-814.226536
1491.513928,-5625.565159,76.609550,-2368.659014
1491.514240,-4145.153275,1149.143247,-4589.276840
1491.514551,-2590.720797,1302.362347,-7254.018232
1491.514863,-3552.988522,1302.362347,-8734.430116
1491.515174,-5921.647536,1991.848295,-8586.388927
1491.515486,-9400.615463,1455.581446,-7179.997637
1491.515797,-13693.809927,612.876398,-4589.276840
1491.516109,-18875.251521,-766.095498,-370.102971
1491.516420,-21317.931130,-1378.971896,1184.329507
1491.516731,-19393.395680,-1685.410096,2294.638420
1491.517043,-14285.974681,-1302.362347,962.267725
1491.517354,-8660.409521,-766.095498,-814.226536
1491.517666,-3404.947333,-536.266849,-2812.782580
1491.517977,518.144159,0.000000,-5995.668130
1491.518289,1850.514855,383.047749,-6439.791695
1491.518600,-1998.556043,459.657299,-6439.791695
1491.518912,-7179.997637,0.000000,-4071.132681
1491.519223,-13471.748144,-383.047749,-2072.576638
1491.519535,-16876.695478,-306.438199,1110.308913
1491.519846,-18431.127956,-1149.143247,2664.741391
1491.520158,-17172.777854,-1532.190996,3330.926739
1491.520469,-12361.439231,-766.095498,1702.473667
1491.520781,-7624.121203,-766.095498,-666.185348
1491.521092,-2812.782580,-1072.533697,-1850.514855
1491.521404,-740.205942,536.266849,-3034.844362
1491.521715,-1036.288319,2221.676944,-4145.153275
1491.522027,-3256.906145,2221.676944,-3330.926739
1491.522338,-7402.059420,1455.581446,-2368.659014
1491.522649,-11029.068536,1991.848295,-2072.576638
1491.522961,-12731.542202,1762.019645,-1258.350101
1491.523272,-12139.377449,306.438199,-592.164754
1491.523584,-10955.047942,-2145.067394,-740.205942
1491.523895,-8290.306550,-2757.943793,-444.123565
1491.524207,-5699.585753,-2604.724693,-814.226536
1491.524518,-5255.462188,-2681.334243,-592.164754
1491.524830,-5329.482782,-2221.676944,-148.041188
1491.525141,-6513.812290,-689.485948,-740.205942
1491.525453,-8512.368333,229.828649,-1554.432478
1491.525764,-9104.533087,2374.896044,-2590.720797
1491.526076,-10584.944971,3064.381992,-4071.132681
1491.526387,-10732.986159,3830.477490,-4959.379811
1491.526699,-10732.986159,3217.601092,-5107.421000
1491.527010,-10881.027347,1455.581446,-4293.194464
1491.527322,-11103.089130,-229.828649,-2368.659014
1491.527633,-10955.047942,-1838.629195,-888.247130
1491.527945,-10658.965565,-2221.676944,-74.020594
1491.528256,-9992.780217,-2451.505594,-222.061783
1491.528567,-9104.533087,-1991.848295,-888.247130
1491.528879,-7846.182985,-766.095498,-2368.659014
1491.529190,-7698.141797,689.485948,-4145.153275
1491.529502,-7402.059420,1685.410096,-5107.421000
1491.529813,-8142.265362,1915.238745,-5847.626942
1491.530125,-8142.265362,1225.752797,-4885.359217
1491.530436,-9474.636058,229.828649,-4589.276840
1491.530748,-11177.109724,-1072.533697,-2664.741391
1491.531059,-12435.459826,-2451.505594,-740.205942
1491.531371,-13249.686362,-3140.991542,592.164754
1491.531682,-13471.748144,-2374.896044,1110.308913
1491.531994,-11621.233289,-1072.533697,962.267725
1491.532305,-9030.512492,0.000000,-1036.288319
1491.532617,-6661.853478,-229.828649,-2294.638420
1491.532928,-3849.070898,306.438199,-3849.070898
1491.533240,-3627.009116,995.924147,-4737.318029
1491.533551,-3478.967927,1225.752797,-5403.503377
1491.533863,-5181.441594,0.000000,-4441.235652
1491.534174,-9474.636058,-1072.533697,-3478.967927
1491.534486,-8882.471304,-1302.362347,-1554.432478
1491.534797,-11547.212695,-2528.115143,-1332.370696
1491.535108,-11621.233289,-4366.744339,888.247130
1491.535420,-10658.965565,-3370.820191,-370.102971
1491.535731,-10658.965565,-1225.752797,-1110.308913
1491.536043,-6069.688724,-229.828649,-74.020594
1491.536354,-8438.347739,-1455.581446,-2368.659014
1491.536666,-7031.956449,-766.095498,-2072.576638
1491.536977,-8142.265362,536.266849,-4293.194464
1491.537289,-9548.656652,612.876398,-3775.050304
