#time,accel_x,accel_y,accel_z
1363.128133,-8956.491898,0.000000,296.082377
1363.128444,-8734.430116,76.609550,444.123565
1363.128756,-9178.553681,0.000000,444.123565
1363.129068,-9030.512492,0.000000,444.123565
1363.129379,-9030.512492,-306.438199,444.123565
1363.129691,-8882.471304,0.000000,518.144159
1363.130002,-8956.491898,0.000000,370.102971
1363.130314,-8660.409521,306.438199,814.226536
1363.130626,-8808.450710,76.609550,592.164754
1363.130937,-8956.491898,-689.485948,444.123565
1363.131249,-8956.491898,-306.438199,592.164754
1363.131561,-9030.512492,-229.828649,444.123565
1363.131872,-8882.471304,0.000000,518.144159
1363.132184,-8956.491898,0.000000,444.123565
1363.132495,-9030.512492,-76.609550,444.123565
1363.132807,-8586.388927,-459.657299,518.144159
1363.133119,-9030.512492,229.828649,370.102971
1363.133430,-9030.512492,0.000000,518.144159
1363.133742,-9030.512492,0.000000,370.102971
1363.134054,-9030.512492,-229.828649,444.123565
1363.134365,-8882.471304,-306.438199,592.164754
1363.134677,-8882.471304,0.000000,444.123565
1363.134988,-8956.491898,153.219100,666.185348
1363.135300,-9030.512492,0.000000,296.082377
1363.135612,-9030.512492,383.047749,296.082377
1363.135923,-8882.471304,-383.047749,444.123565
1363.136235,-8882.471304,-229.828649,518.144159
1363.136547,-8956.491898,-306.438199,592.164754
1363.136858,-8808.450710,0.000000,518.144159
1363.137170,-8882.471304,0.000000,518.144159
1363.137482,-9030.512492,0.000000,148.041188
1363.137793,-8956.491898,0.000000,592.164754
1363.138105,-8956.491898,-229.828649,444.123565
1363.138416,-8882.471304,-383.047749,370.102971
1363.138728,-8956.491898,0.000000,592.164754
1363.139040,-9030.512492,0.000000,592.164754
1363.139351,-9030.512492,0.000000,444.123565
1363.139663,-8586.388927,0.000000,666.185348
1363.139975,-9252.574275,0.000000,-0.000000
1363.140286,-9030.512492,689.485948,296.082377
1363.140598,-8734.430116,0.000000,888.247130
1363.140909,-8882.471304,0.000000,518.144159
1363.141221,-8882.471304,0.000000,518.144159
1363.141533,-9104.533087,0.000000,444.123565
1363.141844,-8808.450710,-153.219100,444.123565
1363.142156,-8512.368333,0.000000,370.102971
1363.142468,-8660.409521,0.000000,222.061783
1363.142779,-8882.471304,-306.438199,370.102971
1363.143091,-8734.430116,-536.266849,370.102971
1363.143402,-9030.512492,-306.438199,666.185348
1363.143714,-9030.512492,0.000000,666.185348
1363.144026,-8734.430116,0.000000,592.164754
1363.144337,-8808.450710,229.828649,518.144159
1363.144649,-8956.491898,153.219100,518.144159
1363.144961,-8882.471304,-229.828649,370.102971
1363.145272,-8660.409521,0.000000,592.164754
1363.145584,-8882.471304,-383.047749,592.164754
1363.145895,-8956.491898,0.000000,592.164754
1363.146207,-8660.409521,-153.219100,666.185348
1363.146519,-9178.553681,0.000000,444.123565
1363.146830,-8882.471304,76.609550,592.164754
1363.147142,-8882.471304,153.219100,370.102971
1363.147454,-9030.512492,-536.266849,296.082377
1363.147765,-8660.409521,76.609550,518.144159
1363.148077,-9104.533087,0.000000,296.082377
1363.148388,-8956.491898,-76.609550,666.185348
1363.148700,-9030.512492,-153.219100,666.185348
1363.149012,-8808.450710,-229.828649,518.144159
1363.149323,-8882.471304,76.609550,592.164754
1363.149635,-8882.471304,76.609550,444.123565
1363.149947,-8734.430116,229.828649,222.061783
1363.150258,-8586.388927,153.219100,666.185348
1363.150570,-8734.430116,-229.828649,592.164754
1363.150882,-8882.471304,0.000000,518.144159
1363.151193,-8956.491898,-153.219100,666.185348
1363.151505,-8882.471304,0.000000,592.164754
1363.151816,-9030.512492,0.000000,518.144159
1363.152128,-8438.347739,-229.828649,518.144159
1363.152440,-8734.430116,0.000000,296.082377
1363.152751,-9400.615463,229.828649,-0.000000
1363.153063,-9030.512492,0.000000,592.164754
1363.153375,-9030.512492,76.609550,518.144159
1363.153686,-8882.471304,0.000000,444.123565
1363.153998,-8956.491898,0.000000,592.164754
1363.154309,-9030.512492,0.000000,444.123565
1363.154621,-8734.430116,0.000000,592.164754
1363.154933,-8882.471304,229.828649,666.185348
1363.155244,-9178.553681,-383.047749,296.082377
1363.155556,-9104.533087,0.000000,518.144159
1363.155868,-8956.491898,-459.657299,666.185348
1363.156179,-8882.471304,-153.219100,666.185348
1363.156491,-8882.471304,-229.828649,666.185348
1363.156802,-8660.409521,306.438199,740.205942
1363.157114,-9326.594869,153.219100,444.123565
1363.157426,-8956.491898,229.828649,666.185348
1363.157737,-8734.430116,0.000000,296.082377
1363.158049,-9030.512492,0.000000,666.185348
1363.158361,-8956.491898,0.000000,518.144159
1363.158672,-8882.471304,76.609550,444.123565
1363.158984,-8882.471304,0.000000,370.102971
1363.159295,-9178.553681,0.000000,370.102971
1363.159607,-8956.491898,76.609550,1110.308913
1363.159919,-8660.409521,-153.219100,444.123565
1363.160230,-8808.450710,153.219100,592.164754
1363.160542,-8808.450710,-229.828649,444.123565
1363.160854,-8956.491898,76.609550,518.144159
1363.161165,-10955.047942,383.047749,222.061783
1363.161477,-11695.253884,2528.115143,370.102971
1363.161788,-8808.450710,4673.182538,518.144159
1363.162100,-7920.203579,4213.525239,444.123565
1363.162412,-6661.853478,842.705048,1480.411884
1363.162723,-6735.874072,-1378.971896,148.041188
1363.163035,-7328.038826,-1302.362347,-0.000000
1363.163347,-7105.977043,-536.266849,-370.102971
1363.163658,-11325.150913,-766.095498,-1258.350101
1363.163970,-13101.645173,-383.047749,-666.185348
1363.164282,-10658.965565,689.485948,296.082377
1363.164593,-9400.615463,-766.095498,1332.370696
1363.164905,-9104.533087,-536.266849,2886.803174
1363.165216,-11769.274478,229.828649,1702.473667
1363.165528,-9252.574275,4213.525239,2442.679609
1363.165840,-5107.421000,5209.449386,2368.659014
1363.166151,-6883.915261,3600.648841,592.164754
1363.166463,-6957.935855,2911.162892,-370.102971
1363.166775,-6809.894666,3447.429741,-2516.700203
1363.167086,-9252.574275,3370.820191,-1776.494261
1363.167398,-9252.574275,3753.867940,-296.082377
1363.167709,-12287.418637,2528.115143,-1554.432478
1363.168021,-14285.974681,-459.657299,962.267725
1363.168333,-8882.471304,-1149.143247,2812.782580
1363.168644,-10436.903782,689.485948,1036.288319
1363.168956,-7846.182985,5362.668486,2886.803174
1363.169268,-8068.244768,6588.421283,1628.453072
1363.169579,-8068.244768,2911.162892,1924.535449
1363.169891,-5699.585753,4519.963438,1924.535449
1363.170202,-7254.018232,6894.859482,-0.000000
1363.170514,-7846.182985,7124.688131,-888.247130
1363.170826,-9918.759623,5898.935335,-1480.411884
1363.171137,-9770.718434,5056.230287,-1776.494261
1363.171449,-9474.636058,5898.935335,-1480.411884
1363.171761,-11325.150913,5132.839837,444.123565
1363.172072,-11843.295072,4213.525239,1258.350101
1363.172384,-11843.295072,3753.867940,2294.638420
1363.172695,-8660.409521,5132.839837,2442.679609
1363.173007,-6439.791695,5439.278036,1998.556043
1363.173319,-5699.585753,5592.497135,370.102971
1363.173630,-5699.585753,5362.668486,148.041188
1363.173942,-4959.379811,5362.668486,-592.164754
1363.174254,-5329.482782,4749.792088,-888.247130
1363.174565,-7624.121203,4060.306139,-592.164754
1363.174877,-10066.800811,2374.896044,-666.185348
1363.175188,-10510.924376,1225.752797,592.164754
1363.175500,-10510.924376,306.438199,962.267725
1363.175812,-10510.924376,-842.705048,1998.556043
1363.176123,-11251.130318,76.609550,1554.432478
1363.176435,-10288.862594,2374.896044,1924.535449
1363.176747,-8364.327145,3294.210641,1554.432478
1363.177058,-7105.977043,2834.553343,370.102971
1363.177370,-6661.853478,3294.210641,-222.061783
1363.177682,-7105.977043,3294.210641,-592.164754
1363.177993,-6439.791695,3524.039291,-1184.329507
1363.178305,-7031.956449,2451.505594,-1184.329507
1363.178616,-8808.450710,0.000000,-740.205942
1363.178928,-10584.944971,-1838.629195,222.061783
1363.179240,-12583.501014,-2068.457845,814.226536
1363.179551,-13767.830521,-1532.190996,1406.391290
1363.179863,-14137.933492,-536.266849,1406.391290
1363.180175,-13471.748144,1072.533697,1036.288319
1363.180486,-11547.212695,2604.724693,370.102971
1363.180798,-8734.430116,4290.134789,-74.020594
1363.181109,-6365.771101,4673.182538,-592.164754
1363.181421,-5921.647536,5286.058936,592.164754
1363.181733,-5773.606348,5056.230287,666.185348
1363.182044,-7402.059420,3447.429741,-0.000000
1363.182356,-9252.574275,1991.848295,296.082377
1363.182668,-11547.212695,919.314598,-0.000000
1363.182979,-13027.624579,919.314598,-0.000000
1363.183291,-14063.912898,383.047749,-370.102971
1363.183602,-13989.892304,919.314598,444.123565
1363.183914,-11917.315666,2374.896044,370.102971
1363.184226,-9844.739029,3753.867940,1554.432478
1363.184537,-7698.141797,4366.744339,2146.597232
1363.184849,-4071.132681,5286.058936,1628.453072
1363.185161,-1554.432478,6205.373534,518.144159
1363.185472,-666.185348,6435.202183,-74.020594
1363.185784,-1924.535449,4749.792088,-1998.556043
1363.186095,-5625.565159,3753.867940,-1480.411884
1363.186407,-10584.944971,2604.724693,-814.226536
1363.186719,-13545.768739,3064.381992,518.144159
1363.187030,-15544.324782,2987.772442,1850.514855
1363.187342,-15692.365970,2834.553343,3330.926739
1363.187654,-13397.727550,2298.286494,3552.988522
1363.187965,-8216.285956,2757.943793,2960.823768
1363.188277,-3701.029710,2834.553343,1924.535449
1363.188589,-1998.556043,5286.058936,222.061783
1363.188900,-1850.514855,7048.078582,-962.267725
1363.189212,-3330.926739,6971.469032,-2220.617826
1363.189523,-5921.647536,5362.668486,-2220.617826
1363.189835,-8512.368333,3677.258390,-1036.288319
1363.190147,-9992.780217,1072.533697,-0.000000
1363.190458,-11621.233289,-919.314598,666.185348
1363.190770,-12361.439231,-2451.505594,1702.473667
1363.191082,-12583.501014,-2911.162892,2220.617826
1363.191393,-12805.562797,-1072.533697,1480.411884
1363.191705,-12139.377449,1225.752797,2072.576638
1363.192016,-11695.253884,3830.477490,1776.494261
1363.192328,-10362.883188,5439.278036,1554.432478
1363.192640,-7994.224174,6665.030833,1480.411884
1363.192951,-7254.018232,4903.011187,-74.020594
1363.193263,-6217.729913,3447.429741,-296.082377
1363.193575,-6735.874072,2911.162892,-1924.535449
1363.193886,-8068.244768,3600.648841,-3034.844362
1363.194198,-9696.697840,3600.648841,-2664.741391
1363.194509,-11843.295072,2987.772442,-1258.350101
1363.194821,-12731.542202,2298.286494,-296.082377
1363.195133,-12657.521608,1225.752797,2072.576638
1363.195444,-12879.583391,919.314598,2516.700203
1363.195756,-11991.336260,2451.505594,2368.659014
1363.196068,-9696.697840,4826.401637,1258.350101
1363.196379,-7550.100608,5669.106685,-0.000000
1363.196691,-6069.688724,4979.620737,-222.061783
1363.197002,-5625.565159,3370.820191,-666.185348
1363.197314,-5625.565159,1915.238745,-962.267725
1363.197626,-5773.606348,1302.362347,-888.247130
1363.197937,-6957.935855,383.047749,-222.061783
1363.198249,-8512.368333,-689.485948,1036.288319
1363.198561,-8068.244768,-2451.505594,2294.638420
1363.198872,-7328.038826,-4136.915689,2146.597232
1363.199184,-8512.368333,-2911.162892,2368.659014
1363.199495,-8956.491898,229.828649,1406.391290
1363.199807,-10510.924376,4366.744339,296.082377
1363.200119,-10140.821405,7431.126331,-740.205942
1363.200430,-9992.780217,6358.592633,-0.000000
1363.200742,-8734.430116,4136.915689,814.226536
1363.201054,-7254.018232,1149.143247,814.226536
1363.201365,-6809.894666,536.266849,1406.391290
1363.201677,-6513.812290,229.828649,2146.597232
1363.201989,-6587.832884,-766.095498,1924.535449
1363.202300,-5403.503377,-1685.410096,1406.391290
1363.202608,-5181.441594,-2757.943793,148.041188
1363.202920,-7254.018232,-2528.115143,-296.082377
1363.203231,-9326.594869,-689.485948,-1258.350101
1363.203542,-12213.398043,1378.971896,-1776.494261
1363.203854,-14285.974681,2834.553343,-1184.329507
1363.204165,-15100.201217,3140.991542,962.267725
1363.204476,-14285.974681,1455.581446,2220.617826
1363.204788,-13323.706956,-1302.362347,2294.638420
1363.205099,-10436.903782,-2374.896044,2220.617826
1363.205410,-7402.059420,-1532.190996,2368.659014
1363.205722,-5477.523971,-3217.601092,1776.494261
1363.206033,-3034.844362,-4443.353888,1924.535449
1363.206344,-4367.215058,-6665.030833,1110.308913
1363.206656,-5181.441594,-6818.249932,222.061783
1363.206967,-7105.977043,-2528.115143,-2220.617826
1363.207278,-10436.903782,2528.115143,-3182.885551
1363.207590,-13619.789333,4366.744339,-2886.803174
1363.207901,-16580.613101,3370.820191,-518.144159
1363.208212,-16136.489536,1072.533697,1702.473667
1363.208524,-14730.098246,-1915.238745,2960.823768
1363.208835,-11843.295072,-2145.067394,3849.070898
1363.209146,-8438.347739,-766.095498,2072.576638
1363.209458,-3923.091493,689.485948,1184.329507
1363.209769,-296.082377,-459.657299,148.041188
1363.210080,-444.123565,-2528.115143,444.123565
1363.210392,-1184.329507,-3447.429741,-2072.576638
1363.210703,-5181.441594,0.000000,-3330.926739
1363.211014,-9474.636058,3983.696590,-2886.803174
1363.211326,-13397.727550,5286.058936,-3182.885551
1363.211637,-17320.819043,4596.572988,-814.226536
1363.211948,-17468.860231,1915.238745,888.247130
1363.212260,-15618.345376,1072.533697,3108.864956
1363.212571,-12139.377449,-995.924147,3849.070898
1363.212882,-7624.121203,-689.485948,4145.153275
1363.213194,-3182.885551,-2451.505594,3701.029710
1363.213505,-370.102971,-3830.477490,2812.782580
1363.213816,1924.535449,-5132.839837,962.267725
1363.214128,0.000000,-2987.772442,-4145.153275
1363.214439,-4737.318029,1302.362347,-5699.585753
1363.214750,-9474.636058,5592.497135,-5255.462188
1363.215062,-13323.706956,7507.735880,-3256.906145
1363.215373,-17468.860231,4903.011187,-148.041188
1363.215684,-21021.848753,1149.143247,3849.070898
1363.215996,-20207.622217,-1302.362347,6143.709319
1363.216307,-16506.592507,383.047749,4885.359217
1363.216618,-9844.739029,2298.286494,3627.009116
1363.216930,-222.061783,2374.896044,962.267725
1363.217241,3034.844362,-229.828649,-0.000000
1363.217552,3552.988522,-4673.182538,-296.082377
1363.217864,3330.926739,-5822.325785,-3404.947333
1363.218175,-3330.926739,1149.143247,-2812.782580
1363.218486,-11029.068536,4060.306139,-3256.906145
1363.218798,-17764.942608,5286.058936,-1406.391290
1363.219109,-21762.054695,2834.553343,814.226536
1363.219420,-20873.807564,153.219100,3034.844362
1363.219732,-18431.127956,-1149.143247,5255.462188
1363.220043,-14285.974681,-612.876398,4663.297435
1363.220354,-9844.739029,612.876398,3182.885551
1363.220665,-1924.535449,-1302.362347,3478.967927
1363.220977,1332.370696,-4136.915689,2368.659014
1363.221288,2738.761985,-7354.516781,3404.947333
1363.221599,5107.421000,-5132.839837,-2516.700203
1363.221911,0.000000,-306.438199,-2960.823768
1363.222222,-6217.729913,2834.553343,-4293.194464
1363.222533,-13471.748144,4366.744339,-3627.009116
1363.222845,-19541.436869,3294.210641,296.082377
1363.223156,-21688.034101,-995.924147,3552.988522
1363.223467,-21614.013506,-3370.820191,7328.038826
1363.223779,-17912.983796,-2987.772442,6069.688724
1363.224090,-13175.665768,-1455.581446,4515.256246
1363.224401,-3478.967927,-2911.162892,3478.967927
1363.224713,2072.576638,-3753.867940,1110.308913
1363.225024,3775.050304,-4443.353888,-0.000000
1363.225335,4441.235652,-2987.772442,-4367.215058
1363.225647,-370.102971,1455.581446,-4367.215058
1363.225958,-5181.441594,5439.278036,-5403.503377
1363.226269,-12287.418637,5745.716235,-4145.153275
1363.226581,-18727.210333,3064.381992,-740.205942
1363.226892,-21984.116477,153.219100,2516.700203
1363.227203,-21317.931130,-153.219100,5255.462188
1363.227515,-17468.860231,-459.657299,4737.318029
1363.227826,-12953.603985,-842.705048,2886.803174
1363.228137,-4663.297435,-2528.115143,2294.638420
1363.228449,1776.494261,-4443.353888,592.164754
1363.228760,2738.761985,-6511.811733,-962.267725
1363.229071,4071.132681,-5209.449386,-4515.256246
1363.229383,74.020594,459.657299,-5699.585753
1363.229694,-5921.647536,3370.820191,-6291.750507
1363.230005,-13249.686362,3983.696590,-3627.009116
1363.230317,-21021.848753,2911.162892,370.102971
1363.230628,-23908.651927,536.266849,3256.906145
1363.230939,-22650.301825,0.000000,5921.647536
1363.231251,-17838.963202,0.000000,4885.359217
1363.231562,-11991.336260,842.705048,2812.782580
1363.231873,-3849.070898,0.000000,1850.514855
1363.232185,4367.215058,-2374.896044,-0.000000
1363.232496,4219.173869,-4596.572988,-1258.350101
1363.232807,1702.473667,-2221.676944,-3034.844362
1363.233119,-2368.659014,3753.867940,-5625.565159
1363.233430,-7550.100608,5822.325785,-5255.462188
1363.233741,-13249.686362,5592.497135,-4071.132681
1363.234053,-18579.169144,4060.306139,-148.041188
1363.234364,-19541.436869,1838.629195,2072.576638
1363.234675,-19319.375086,459.657299,5107.421000
1363.234987,-16580.613101,612.876398,6143.709319
1363.235298,-10658.965565,-459.657299,4737.318029
1363.235609,-5477.523971,-1608.800546,5847.626942
1363.235921,814.226536,-5898.935335,4589.276840
1363.236232,4737.318029,-7354.516781,-0.000000
1363.236543,2516.700203,-2298.286494,-2886.803174
1363.236855,-2738.761985,1302.362347,-5477.523971
1363.237166,-7624.121203,5286.058936,-5921.647536
1363.237477,-13101.645173,5822.325785,-3034.844362
1363.237789,-18061.024985,2757.943793,296.082377
1363.238100,-20059.581028,-1225.752797,4737.318029
1363.238411,-18135.045579,-2374.896044,5921.647536
1363.238723,-15396.283594,766.095498,5921.647536
1363.239034,-10658.965565,-153.219100,5773.606348
1363.239345,-3775.050304,-2987.772442,5181.441594
1363.239657,1998.556043,-3830.477490,3404.947333
1363.239968,4441.235652,-4596.572988,-444.123565
1363.240279,1554.432478,-2145.067394,-3404.947333
1363.240591,-2368.659014,2987.772442,-4663.297435
1363.240902,-6957.935855,6128.763984,-4737.318029
1363.241213,-12139.377449,4366.744339,-3182.885551
1363.241525,-16654.633695,1685.410096,-444.123565
1363.241836,-20207.622217,-306.438199,3108.864956
1363.242147,-18949.272115,-1072.533697,5625.565159
1363.242459,-17024.736666,-2374.896044,6217.729913
1363.242770,-12287.418637,-2298.286494,5995.668130
1363.243081,-5329.482782,-2987.772442,4885.359217
1363.243393,-1110.308913,-5592.497135,2812.782580
1363.243704,2220.617826,-5209.449386,-74.020594
1363.244015,740.205942,-1685.410096,-3849.070898
1363.244327,-1924.535449,2911.162892,-6069.688724
1363.244638,-6661.853478,5132.839837,-5995.668130
1363.244949,-13101.645173,4290.134789,-4293.194464
1363.245261,-17172.777854,2451.505594,-888.247130
1363.245572,-19541.436869,-1532.190996,2442.679609
1363.245883,-19097.313304,-2681.334243,4441.235652
1363.246194,-15988.448347,-153.219100,4737.318029
1363.246506,-10510.924376,-383.047749,3404.947333
1363.246817,-4515.256246,-3983.696590,4293.194464
1363.247128,-2368.659014,-6665.030833,2590.720797
1363.247440,518.144159,-6358.592633,-518.144159
1363.247751,518.144159,-459.657299,-3775.050304
1363.248062,-3330.926739,3140.991542,-6291.750507
1363.248374,-7994.224174,4903.011187,-6957.935855
1363.248685,-11991.336260,5209.449386,-5181.441594
1363.248996,-15322.262999,2834.553343,-2294.638420
1363.249308,-18505.148550,-459.657299,1554.432478
1363.249619,-18801.230927,153.219100,4219.173869
1363.249930,-16654.633695,1072.533697,4441.235652
1363.250242,-10658.965565,-383.047749,5033.400406
1363.250553,-4811.338623,-3370.820191,5107.421000
1363.250864,-1924.535449,-5439.278036,3701.029710
1363.251176,1480.411884,-5745.716235,-962.267725
1363.251487,1702.473667,0.000000,-4811.338623
1363.251798,-2368.659014,4443.353888,-6143.709319
1363.252110,-7179.997637,6052.154434,-7105.977043
1363.252421,-13545.768739,3907.087040,-3330.926739
1363.252732,-17024.736666,766.095498,-370.102971
1363.253044,-19245.354492,-459.657299,3627.009116
1363.253355,-18653.189738,0.000000,5403.503377
1363.253666,-15766.386565,459.657299,4811.338623
1363.253978,-10288.862594,76.609550,4959.379811
1363.254289,-4885.359217,-3370.820191,4737.318029
1363.254600,148.041188,-5515.887586,2886.803174
1363.254912,2072.576638,-1838.629195,-1258.350101
1363.255223,-1406.391290,459.657299,-3330.926739
1363.255534,-5107.421000,4290.134789,-4145.153275
1363.255846,-7846.182985,6818.249932,-4441.235652
1363.256157,-11769.274478,6205.373534,-3034.844362
1363.256468,-15988.448347,3140.991542,814.226536
1363.256780,-17024.736666,995.924147,2516.700203
1363.257091,-16062.468941,2528.115143,4589.276840
1363.257402,-14730.098246,1762.019645,5921.647536
1363.257714,-8808.450710,-1532.190996,6143.709319
1363.258025,-4515.256246,-3907.087040,4811.338623
1363.258336,-148.041188,-5286.058936,2442.679609
1363.258648,1332.370696,-5209.449386,-814.226536
1363.258959,-444.123565,-766.095498,-1998.556043
1363.259270,-3923.091493,4826.401637,-4737.318029
1363.259582,-8956.491898,3983.696590,-3849.070898
1363.259893,-13175.665768,1149.143247,-1406.391290
1363.260204,-16876.695478,0.000000,1850.514855
1363.260516,-17542.880825,229.828649,3997.112087
1363.260827,-16580.613101,-229.828649,4811.338623
1363.261138,-12731.542202,-1302.362347,5477.523971
1363.261450,-7698.141797,-766.095498,4737.318029
1363.261761,-3849.070898,-3830.477490,4441.235652
1363.262072,-962.267725,-5592.497135,2294.638420
1363.262384,-1110.308913,-2987.772442,-444.123565
1363.262695,-2812.782580,1915.238745,-3404.947333
1363.263006,-5699.585753,4903.011187,-5181.441594
1363.263318,-9326.594869,5515.887586,-4515.256246
1363.263629,-12805.562797,4290.134789,-2960.823768
1363.263940,-15026.180623,766.095498,-0.000000
1363.264252,-16136.489536,-2145.067394,2368.659014
1363.264563,-16728.654289,-1685.410096,3627.009116
1363.264874,-12509.480420,0.000000,3627.009116
1363.265186,-9326.594869,-2451.505594,4219.173869
1363.265497,-5847.626942,-6358.592633,4737.318029
1363.265808,-444.123565,-7354.516781,1406.391290
1363.266120,-222.061783,-4136.915689,-1554.432478
1363.266431,-2072.576638,-689.485948,-3997.112087
1363.266742,-5773.606348,3524.039291,-5625.565159
1363.267054,-10288.862594,4443.353888,-5329.482782
1363.267365,-13767.830521,2987.772442,-3108.864956
1363.267676,-16876.695478,229.828649,444.123565
1363.267988,-18357.107362,-76.609550,2220.617826
1363.268299,-17838.963202,2068.457845,2960.823768
1363.268610,-12879.583391,1915.238745,3330.926739
1363.268922,-6587.832884,-1838.629195,2886.803174
1363.269233,-3775.050304,-3447.429741,4071.132681
1363.269544,-2368.659014,-4903.011187,1702.473667
1363.269856,-592.164754,-3064.381992,-2294.638420
1363.270167,-2516.700203,3370.820191,-4589.276840
1363.270478,-5403.503377,7201.297681,-6513.812290
1363.270789,-9992.780217,6818.249932,-5181.441594
1363.271101,-14285.974681,4060.306139,-2294.638420
1363.271412,-16284.530724,1685.410096,-0.000000
1363.271723,-17394.839637,1072.533697,3034.844362
1363.272035,-15766.386565,919.314598,4071.132681
1363.272346,-10955.047942,2298.286494,3997.112087
1363.272657,-7105.977043,-1608.800546,4663.297435
1363.272969,-1850.514855,-5592.497135,4515.256246
1363.273280,1702.473667,-4826.401637,1110.308913
1363.273591,666.185348,-2681.334243,-1554.432478
1363.273903,-3997.112087,919.314598,-3478.967927
1363.274214,-8142.265362,3753.867940,-4515.256246
1363.274525,-11695.253884,4519.963438,-3108.864956
1363.274837,-15248.242405,2681.334243,-0.000000
1363.275148,-17320.819043,0.000000,1480.411884
1363.275459,-16728.654289,995.924147,3478.967927
1363.275771,-15766.386565,2604.724693,4441.235652
1363.276082,-9992.780217,459.657299,4441.235652
1363.276393,-4145.153275,-1378.971896,5329.482782
1363.276705,-148.041188,-3677.258390,4663.297435
1363.277016,1036.288319,-5056.230287,1332.370696
1363.277327,-666.185348,-2604.724693,-740.205942
1363.277639,-3034.844362,2757.943793,-2294.638420
1363.277950,-7179.997637,4519.963438,-4367.215058
1363.278261,-12583.501014,2374.896044,-3182.885551
1363.278573,-15026.180623,2145.067394,-814.226536
1363.278884,-17542.880825,1225.752797,1776.494261
1363.279195,-17172.777854,-536.266849,4219.173869
1363.279507,-15026.180623,-995.924147,4515.256246
1363.279818,-11399.171507,-1149.143247,4367.215058
1363.280129,-4959.379811,-2911.162892,4219.173869
1363.280441,-370.102971,-4979.620737,3627.009116
1363.280752,444.123565,-5745.716235,962.267725
1363.281063,-1480.411884,-1838.629195,-1184.329507
1363.281375,-3775.050304,766.095498,-3330.926739
1363.281686,-8438.347739,3294.210641,-4219.173869
1363.281997,-13175.665768,3830.477490,-2516.700203
1363.282309,-15914.427753,1838.629195,-296.082377
1363.282620,-17987.004391,-1608.800546,1850.514855
1363.282931,-17764.942608,-1915.238745,3627.009116
1363.283243,-15026.180623,995.924147,3552.988522
1363.283554,-11399.171507,-306.438199,3034.844362
1363.283865,-5477.523971,-3600.648841,3478.967927
1363.284177,-1036.288319,-5592.497135,2220.617826
1363.284488,148.041188,-5362.668486,-222.061783
1363.284799,-1110.308913,-1915.238745,-2590.720797
1363.285111,-4367.215058,2681.334243,-4515.256246
1363.285422,-8142.265362,4290.134789,-5329.482782
1363.285733,-11917.315666,4136.915689,-3552.988522
1363.286045,-15396.283594,1915.238745,-1628.453072
1363.286356,-17542.880825,919.314598,888.247130
1363.286667,-17024.736666,459.657299,2590.720797
1363.286979,-13545.768739,612.876398,3256.906145
1363.287290,-8882.471304,153.219100,2960.823768
1363.287601,-6587.832884,-2451.505594,2738.761985
1363.287913,-1184.329507,-4979.620737,1628.453072
1363.288224,592.164754,-2604.724693,-740.205942
1363.288535,-1702.473667,76.609550,-3552.988522
1363.288847,-5403.503377,3217.601092,-5255.462188
1363.289158,-9696.697840,4903.011187,-5255.462188
1363.289469,-13249.686362,4673.182538,-2738.761985
1363.289781,-16802.674883,2068.457845,-74.020594
1363.290092,-18209.066173,-306.438199,2442.679609
1363.290403,-17542.880825,0.000000,3256.906145
1363.290715,-12287.418637,1302.362347,3701.029710
1363.291026,-8216.285956,76.609550,3923.091493
1363.291337,-5329.482782,-3447.429741,4811.338623
1363.291649,-148.041188,-4903.011187,1184.329507
1363.291960,74.020594,-3830.477490,-1110.308913
1363.292271,-1628.453072,-306.438199,-2812.782580
1363.292583,-4959.379811,4596.572988,-4663.297435
1363.292894,-9844.739029,5056.230287,-4293.194464
1363.293205,-13027.624579,2757.943793,-1924.535449
1363.293517,-15766.386565,459.657299,1850.514855
1363.293828,-17098.757260,-919.314598,3849.070898
1363.294139,-17172.777854,0.000000,5255.462188
1363.294451,-14211.954086,306.438199,5551.544565
1363.294762,-7772.162391,0.000000,5033.400406
1363.295073,-1480.411884,-2145.067394,3923.091493
1363.295385,2368.659014,-4519.963438,592.164754
1363.295696,1332.370696,-4596.572988,-1184.329507
1363.296007,-888.247130,-919.314598,-2738.761985
1363.296318,-4737.318029,2604.724693,-3256.906145
1363.296630,-10955.047942,2451.505594,-1924.535449
1363.296941,-16284.530724,995.924147,444.123565
1363.297252,-17987.004391,229.828649,2886.803174
1363.297564,-18357.107362,-229.828649,4219.173869
1363.297875,-16506.592507,229.828649,4441.235652
1363.298186,-12361.439231,1762.019645,3330.926739
1363.298498,-6661.853478,-153.219100,2960.823768
1363.298809,-2368.659014,-3677.258390,2368.659014
1363.299120,296.082377,-5362.668486,962.267725
1363.299432,518.144159,-4213.525239,-1554.432478
1363.299743,-2590.720797,0.000000,-2738.761985
1363.300054,-6365.771101,1378.971896,-3552.988522
1363.300366,-10881.027347,2987.772442,-3034.844362
1363.300677,-13989.892304,1991.848295,-518.144159
1363.300988,-16802.674883,-842.705048,1924.535449
1363.301300,-17542.880825,-1838.629195,4071.132681
1363.301611,-16358.551318,-306.438199,4885.359217
1363.301922,-12361.439231,-612.876398,4589.276840
1363.302234,-6883.915261,-3447.429741,4219.173869
1363.302545,-2220.617826,-4290.134789,2294.638420
1363.302856,444.123565,-5056.230287,370.102971
1363.303168,592.164754,-2911.162892,-2368.659014
1363.303479,-2368.659014,1302.362347,-4663.297435
1363.303790,-7550.100608,4290.134789,-5403.503377
1363.304102,-12213.398043,5209.449386,-3997.112087
1363.304413,-15544.324782,3064.381992,-1036.288319
1363.304724,-17394.839637,1149.143247,2516.700203
1363.305036,-17542.880825,306.438199,3923.091493
1363.305347,-14582.057057,536.266849,4293.194464
1363.305658,-9770.718434,842.705048,3256.906145
1363.305970,-6661.853478,-689.485948,2886.803174
1363.306281,-2960.823768,-3830.477490,1702.473667
1363.306592,370.102971,-3677.258390,-1332.370696
1363.306904,0.000000,-1225.752797,-3923.091493
1363.307215,-3775.050304,2374.896044,-5921.647536
1363.307526,-8734.430116,4366.744339,-6661.853478
1363.307837,-11991.336260,4596.572988,-3849.070898
1363.308149,-16062.468941,1302.362347,-222.061783
1363.308460,-20133.601622,-1685.410096,3478.967927
1363.308771,-19911.539840,-689.485948,4441.235652
1363.309083,-17838.963202,1072.533697,3997.112087
1363.309394,-8660.409521,1072.533697,3701.029710
1363.309705,-3849.070898,-842.705048,2886.803174
1363.310017,-1924.535449,-4519.963438,1924.535449
1363.310328,3478.967927,-5209.449386,-888.247130
1363.310639,1554.432478,-1838.629195,-2886.803174
1363.310951,-3034.844362,1302.362347,-4219.173869
1363.311262,-7920.203579,4443.353888,-4367.215058
1363.311573,-13989.892304,2757.943793,-2294.638420
1363.311885,-16876.695478,536.266849,-0.000000
1363.312196,-18135.045579,306.438199,3775.050304
1363.312507,-16950.716072,383.047749,4885.359217
1363.312819,-14211.954086,1149.143247,5255.462188
1363.313130,-10732.986159,-306.438199,4515.256246
1363.313441,-4737.318029,-3140.991542,4145.153275
1363.313753,370.102971,-3447.429741,1036.288319
1363.314064,1702.473667,-2834.553343,-1184.329507
1363.314375,222.061783,-1532.190996,-2812.782580
1363.314686,-2886.803174,1378.971896,-4293.194464
1363.314998,-8364.327145,3064.381992,-3701.029710
1363.315309,-14359.995275,2298.286494,-666.185348
1363.315620,-18135.045579,1072.533697,2220.617826
1363.315932,-19319.375086,536.266849,4441.235652
1363.316243,-17246.798449,0.000000,5107.421000
1363.316554,-14211.954086,-459.657299,5181.441594
1363.316866,-8586.388927,-1532.190996,4367.215058
1363.317177,-1036.288319,-1838.629195,3330.926739
1363.317488,2368.659014,-4213.525239,814.226536
1363.317800,2368.659014,-5132.839837,-370.102971
1363.318111,-962.267725,-2451.505594,-2368.659014
1363.318422,-5625.565159,1072.533697,-3701.029710
1363.318734,-10658.965565,3064.381992,-3182.885551
1363.319045,-15618.345376,2681.334243,-1924.535449
1363.319356,-17912.983796,1685.410096,962.267725
1363.319668,-17912.983796,-153.219100,3330.926739
1363.319979,-16950.716072,-689.485948,4515.256246
1363.320290,-13249.686362,459.657299,4663.297435
1363.320602,-8364.327145,-536.266849,4293.194464
1363.320913,-3256.906145,-2834.553343,2368.659014
1363.321224,0.000000,-3600.648841,518.144159
1363.321535,1258.350101,-1072.533697,-2220.617826
1363.321847,-296.082377,842.705048,-4367.215058
1363.322158,-4219.173869,3217.601092,-5625.565159
1363.322469,-9918.759623,4903.011187,-5107.421000
1363.322781,-14804.118840,4903.011187,-2664.741391
1363.323092,-18061.024985,3064.381992,666.185348
1363.323403,-19467.416275,689.485948,3404.947333
1363.323715,-17987.004391,229.828649,4589.276840
1363.324026,-12435.459826,536.266849,3256.906145
1363.324337,-7624.121203,0.000000,3108.864956
1363.324649,-3330.926739,-2681.334243,2072.576638
1363.324960,2072.576638,-4136.915689,-518.144159
1363.325271,2368.659014,-2834.553343,-2886.803174
1363.325583,-1258.350101,-1072.533697,-4219.173869
1363.325894,-5699.585753,2221.676944,-5107.421000
1363.326205,-11547.212695,4290.134789,-4293.194464
1363.326517,-15766.386565,2987.772442,-1480.411884
1363.326828,-18727.210333,689.485948,1850.514855
1363.327139,-18949.272115,-689.485948,3997.112087
1363.327451,-16432.571912,0.000000,5033.400406
1363.327762,-12805.562797,0.000000,3997.112087
1363.328073,-7846.182985,-1838.629195,4737.318029
1363.328384,-1554.432478,-2528.115143,2220.617826
1363.328696,1924.535449,-3217.601092,-74.020594
1363.329007,1332.370696,-1991.848295,-2442.679609
1363.329318,-2146.597232,995.924147,-4589.276840
1363.329630,-6513.812290,4979.620737,-4811.338623
1363.329941,-11325.150913,5286.058936,-3404.947333
1363.330252,-15618.345376,3677.258390,-74.020594
1363.330564,-17764.942608,1378.971896,2738.761985
1363.330875,-17764.942608,-1149.143247,4959.379811
1363.331186,-15174.221811,-2681.334243,5921.647536
1363.331498,-12509.480420,-1762.019645,4737.318029
1363.331809,-6513.812290,-2451.505594,5255.462188
1363.332120,-1184.329507,-3370.820191,1628.453072
1363.332432,592.164754,-4979.620737,444.123565
1363.332743,1036.288319,-3217.601092,-1776.494261
1363.333054,-2146.597232,383.047749,-2516.700203
1363.333366,-6439.791695,2298.286494,-3775.050304
1363.333677,-11917.315666,2987.772442,-1924.535449
1363.333988,-15396.283594,3447.429741,296.082377
1363.334300,-17246.798449,1608.800546,2812.782580
1363.334611,-18727.210333,-842.705048,4959.379811
1363.334922,-16654.633695,-766.095498,5625.565159
1363.335233,-11991.336260,-229.828649,5107.421000
1363.335545,-6291.750507,-1302.362347,5033.400406
1363.335856,-1776.494261,-4443.353888,2146.597232
1363.336167,518.144159,-5592.497135,-74.020594
1363.336479,962.267725,-2987.772442,-2886.803174
1363.336790,-2368.659014,1072.533697,-3775.050304
1363.337101,-6957.935855,4596.572988,-5181.441594
1363.337413,-12065.356855,5745.716235,-3552.988522
1363.337724,-15174.221811,4136.915689,-666.185348
1363.338035,-16580.613101,536.266849,2516.700203
1363.338347,-16580.613101,-842.705048,4811.338623
1363.338658,-14952.160028,-383.047749,4589.276840
1363.338969,-10510.924376,0.000000,3775.050304
1363.339281,-5403.503377,-2221.676944,3701.029710
1363.339592,-1998.556043,-4290.134789,1184.329507
1363.339903,666.185348,-4443.353888,-814.226536
1363.340215,148.041188,-2604.724693,-3330.926739
1363.340526,-3997.112087,306.438199,-5403.503377
1363.340837,-7994.224174,4136.915689,-4811.338623
1363.341149,-12139.377449,4826.401637,-4219.173869
1363.341460,-16062.468941,2068.457845,-1184.329507
1363.341771,-18727.210333,153.219100,2368.659014
1363.342082,-18875.251521,842.705048,3775.050304
1363.342394,-15766.386565,1838.629195,3997.112087
1363.342705,-11399.171507,689.485948,4219.173869
1363.343016,-6143.709319,-2068.457845,2886.803174
1363.343328,-1776.494261,-3370.820191,1406.391290
1363.343639,-74.020594,-2987.772442,-2442.679609
1363.343950,-1110.308913,-919.314598,-4515.256246
1363.344262,-4885.359217,2757.943793,-6291.750507
1363.344573,-8660.409521,5362.668486,-5625.565159
1363.344884,-12213.398043,4519.963438,-3256.906145
1363.345196,-15544.324782,1302.362347,-222.061783
1363.345507,-18283.086767,0.000000,3552.988522
1363.345818,-17172.777854,-383.047749,4885.359217
1363.346130,-14285.974681,1225.752797,4441.235652
1363.346441,-11103.089130,689.485948,4071.132681
1363.346752,-4367.215058,-1455.581446,2812.782580
1363.347064,0.000000,-2834.553343,814.226536
1363.347375,1850.514855,-3907.087040,-962.267725
1363.347686,-296.082377,-1685.410096,-3108.864956
1363.347998,-4515.256246,1532.190996,-3701.029710
1363.348309,-8512.368333,3677.258390,-2886.803174
1363.348620,-13027.624579,2298.286494,-666.185348
1363.348931,-15470.304188,229.828649,1776.494261
1363.349243,-17320.819043,-1072.533697,3627.009116
1363.349554,-16876.695478,-306.438199,5995.668130
1363.349865,-14730.098246,1072.533697,4885.359217
1363.350177,-9770.718434,689.485948,4885.359217
1363.350488,-3701.029710,-1302.362347,4293.194464
1363.350799,-740.205942,-6281.983084,2294.638420
1363.351111,1110.308913,-4596.572988,148.041188
1363.351422,0.000000,-229.828649,-2146.597232
1363.351733,-3478.967927,2987.772442,-3997.112087
1363.352045,-7772.162391,4519.963438,-3182.885551
1363.352356,-12657.521608,3677.258390,-1628.453072
1363.352667,-15248.242405,1378.971896,1258.350101
1363.352979,-16876.695478,-1302.362347,3923.091493
1363.353290,-17394.839637,-1838.629195,4885.359217
1363.353601,-14211.954086,383.047749,5033.400406
1363.353913,-9326.594869,-612.876398,4737.318029
1363.354224,-4219.173869,-3907.087040,4293.194464
1363.354535,-814.226536,-6435.202183,3182.885551
1363.354847,814.226536,-6128.763984,-0.000000
1363.355158,-666.185348,-2221.676944,-2294.638420
1363.355469,-4737.318029,2221.676944,-4589.276840
1363.355780,-9474.636058,4366.744339,-4219.173869
1363.356092,-13471.748144,3753.867940,-3330.926739
1363.356403,-16210.510130,1455.581446,-74.020594
1363.356714,-17172.777854,153.219100,2664.741391
1363.357026,-17542.880825,919.314598,3775.050304
1363.357337,-14952.160028,1378.971896,3701.029710
1363.357648,-9400.615463,229.828649,3034.844362
1363.357960,-5033.400406,-2757.943793,2220.617826
1363.358271,-1332.370696,-4826.401637,-0.000000
1363.358582,-222.061783,-4443.353888,-2812.782580
1363.358894,-2442.679609,-383.047749,-5403.503377
1363.359205,-5403.503377,3753.867940,-5699.585753
1363.359516,-9474.636058,4136.915689,-4811.338623
1363.359828,-13619.789333,2681.334243,-2590.720797
1363.360139,-16580.613101,306.438199,-444.123565
1363.360450,-17690.922014,-459.657299,2294.638420
1363.360762,-17098.757260,612.876398,3701.029710
1363.361073,-13915.871710,1149.143247,2590.720797
1363.361384,-8586.388927,536.266849,2516.700203
1363.361696,-3330.926739,-2374.896044,1998.556043
1363.362007,0.000000,-4596.572988,888.247130
1363.362318,518.144159,-4366.744339,-1258.350101
1363.362629,-2516.700203,-1072.533697,-3330.926739
1363.362941,-5995.668130,2451.505594,-4589.276840
1363.363252,-9696.697840,4366.744339,-3997.112087
1363.363563,-13619.789333,3370.820191,-2220.617826
1363.363875,-16728.654289,1149.143247,592.164754
1363.364186,-17172.777854,536.266849,3108.864956
1363.364497,-16728.654289,1225.752797,4293.194464
1363.364809,-13175.665768,2528.115143,4441.235652
1363.365120,-8068.244768,612.876398,3775.050304
1363.365431,-2738.761985,-2987.772442,3108.864956
1363.365743,518.144159,-6511.811733,1258.350101
1363.366054,370.102971,-4366.744339,-1036.288319
1363.366365,-2590.720797,536.266849,-2516.700203
1363.366677,-7254.018232,3830.477490,-3627.009116
1363.366988,-11769.274478,3524.039291,-2072.576638
1363.367299,-14878.139434,1225.752797,444.123565
1363.367611,-16802.674883,-229.828649,2516.700203
1363.367922,-16802.674883,-153.219100,3923.091493
1363.368233,-15840.407159,536.266849,4663.297435
1363.368545,-11103.089130,1532.190996,4589.276840
1363.368856,-5551.544565,0.000000,4663.297435
1363.369167,-962.267725,-3753.867940,4145.153275
1363.369478,1554.432478,-4749.792088,1998.556043
1363.369790,-370.102971,-3294.210641,-0.000000
1363.370101,-2960.823768,842.705048,-3034.844362
1363.370412,-6291.750507,3524.039291,-4219.173869
1363.370724,-10807.006753,3600.648841,-3256.906145
1363.371035,-14508.036463,919.314598,-814.226536
1363.371346,-17246.798449,-1915.238745,2072.576638
1363.371658,-17764.942608,-2068.457845,4071.132681
1363.371969,-16950.716072,-383.047749,4959.379811
1363.372280,-13175.665768,383.047749,4219.173869
1363.372592,-7476.080014,-842.705048,3775.050304
1363.372903,-2220.617826,-3677.258390,2812.782580
1363.373214,1628.453072,-4749.792088,740.205942
1363.373526,1406.391290,-2834.553343,-1554.432478
1363.373837,-1628.453072,766.095498,-3923.091493
1363.374148,-6661.853478,3983.696590,-4145.153275
1363.374460,-12139.377449,4060.306139,-3923.091493
1363.374771,-15100.201217,2451.505594,-1258.350101
1363.375082,-17912.983796,0.000000,592.164754
1363.375394,-18135.045579,-1225.752797,2664.741391
1363.375705,-16062.468941,76.609550,2886.803174
1363.376016,-11695.253884,612.876398,2664.741391
1363.376327,-5551.544565,-1225.752797,3478.967927
1363.376639,-888.247130,-4826.401637,2442.679609
1363.376950,2368.659014,-5362.668486,518.144159
1363.377261,1776.494261,-4443.353888,-2368.659014
1363.377573,-1554.432478,0.000000,-4737.318029
1363.377884,-6809.894666,3447.429741,-5551.544565
1363.378195,-12139.377449,4443.353888,-4367.215058
1363.378507,-17098.757260,1762.019645,-1258.350101
1363.378818,-20281.642811,-1149.143247,2072.576638
1363.379129,-20059.581028,-1149.143247,3775.050304
1363.379441,-16876.695478,1302.362347,3330.926739
1363.379752,-12213.398043,2145.067394,2590.720797
1363.380063,-6365.771101,-842.705048,2146.597232
1363.380375,-222.061783,-2987.772442,592.164754
1363.380686,1850.514855,-4060.306139,-888.247130
1363.380997,-222.061783,-1685.410096,-2590.720797
1363.381309,-4589.276840,2528.115143,-4219.173869
1363.381620,-8734.430116,5056.230287,-4515.256246
1363.381931,-13545.768739,4596.572988,-3108.864956
1363.382243,-16728.654289,2145.067394,-222.061783
1363.382554,-18653.189738,995.924147,2220.617826
1363.382865,-17394.839637,612.876398,3330.926739
1363.383176,-14508.036463,1838.629195,3404.947333
1363.383488,-11325.150913,842.705048,4367.215058
1363.383799,-4219.173869,-1838.629195,4071.132681
1363.384110,962.267725,-2911.162892,2220.617826
1363.384422,1702.473667,-5439.278036,148.041188
1363.384733,222.061783,-2911.162892,-2442.679609
1363.385044,-3849.070898,1685.410096,-3404.947333
1363.385356,-8660.409521,3753.867940,-4367.215058
1363.385667,-13249.686362,2834.553343,-962.267725
1363.385978,-16062.468941,459.657299,1332.370696
1363.386290,-18135.045579,-1378.971896,3997.112087
1363.386601,-18061.024985,-1225.752797,6217.729913
1363.386912,-14508.036463,-383.047749,5773.606348
1363.387224,-7772.162391,689.485948,5107.421000
1363.387535,-2294.638420,-1532.190996,3775.050304
1363.387846,1554.432478,-4826.401637,1702.473667
1363.388158,2960.823768,-4366.744339,-666.185348
1363.388469,222.061783,0.000000,-2738.761985
1363.388780,-4367.215058,4366.744339,-3627.009116
1363.389092,-9252.574275,6358.592633,-3997.112087
1363.389403,-15692.365970,5286.058936,-2146.597232
1363.389714,-16506.592507,1838.629195,1332.370696
1363.390025,-17468.860231,-2451.505594,3330.926739
1363.390337,-16950.716072,-1838.629195,5033.400406
1363.390648,-13619.789333,0.000000,4811.338623
1363.390959,-9030.512492,-1532.190996,3108.864956
1363.391271,-3404.947333,-2911.162892,3849.070898
1363.391582,1036.288319,-5362.668486,1850.514855
1363.391893,2442.679609,-5822.325785,-962.267725
1363.392205,148.041188,-2987.772442,-2442.679609
1363.392516,-5329.482782,1455.581446,-4293.194464
1363.392827,-10584.944971,4060.306139,-4515.256246
1363.393139,-14878.139434,2911.162892,-1850.514855
1363.393450,-18949.272115,766.095498,1258.350101
1363.393761,-20207.622217,-1072.533697,3330.926739
1363.394073,-18283.086767,76.609550,3997.112087
1363.394384,-14211.954086,1225.752797,3552.988522
1363.394695,-8216.285956,76.609550,3108.864956
1363.395007,-2368.659014,-1838.629195,2146.597232
1363.395318,814.226536,-3677.258390,-0.000000
1363.395629,1924.535449,-2834.553343,-2442.679609
1363.395941,-1332.370696,689.485948,-4663.297435
1363.396252,-5477.523971,4290.134789,-5477.523971
1363.396563,-10510.924376,5745.716235,-4441.235652
1363.396874,-14878.139434,3294.210641,-2220.617826
1363.397186,-18727.210333,766.095498,666.185348
1363.397497,-18949.272115,-995.924147,3552.988522
1363.397808,-16802.674883,-536.266849,4589.276840
1363.398120,-14730.098246,766.095498,3923.091493
1363.398431,-7994.224174,-383.047749,3849.070898
1363.398742,-1628.453072,-1915.238745,1850.514855
1363.399054,2294.638420,-3830.477490,148.041188
1363.399365,2146.597232,-2911.162892,-2738.761985
1363.399676,-1110.308913,153.219100,-4885.359217
1363.399988,-5551.544565,4366.744339,-5921.647536
1363.400299,-12361.439231,5898.935335,-4441.235652
1363.400610,-15840.407159,4826.401637,-1184.329507
1363.400922,-18653.189738,1915.238745,1924.535449
1363.401233,-18727.210333,-383.047749,5107.421000
1363.401544,-15914.427753,-689.485948,5403.503377
1363.401856,-11991.336260,76.609550,5181.441594
1363.402167,-4959.379811,306.438199,4071.132681
1363.402478,-296.082377,-2604.724693,1850.514855
1363.402790,1850.514855,-4673.182538,-518.144159
1363.403101,1406.391290,-2451.505594,-1702.473667
1363.403412,-2886.803174,1455.581446,-3923.091493
1363.403723,-8142.265362,4366.744339,-4737.318029
1363.404035,-11843.295072,5132.839837,-2220.617826
1363.404346,-15248.242405,2604.724693,-888.247130
1363.404657,-17320.819043,-1302.362347,2886.803174
1363.404969,-17320.819043,-2451.505594,5329.482782
1363.405280,-16210.510130,-1302.362347,5699.585753
1363.405592,-12139.377449,0.000000,4811.338623
1363.405904,-6735.874072,-2145.067394,4515.256246
1363.406215,-1924.535449,-4519.963438,3775.050304
1363.406527,2294.638420,-4979.620737,1110.308913
1363.406838,1702.473667,-4290.134789,-1776.494261
1363.407150,-2294.638420,-1532.190996,-3701.029710
1363.407461,-7476.080014,2911.162892,-4441.235652
1363.407773,-12139.377449,4903.011187,-2664.741391
1363.408084,-16210.510130,2681.334243,-222.061783
1363.408396,-18949.272115,0.000000,2886.803174
1363.408707,-18727.210333,-2374.896044,5107.421000
1363.409019,-16062.468941,-459.657299,5329.482782
1363.409330,-10214.842000,383.047749,4145.153275
1363.409642,-5625.565159,-1378.971896,4219.173869
1363.409953,-1406.391290,-3447.429741,2368.659014
1363.410265,1554.432478,-4673.182538,-0.000000
1363.410576,148.041188,-1991.848295,-2664.741391
1363.410888,-3330.926739,1838.629195,-4367.215058
1363.411199,-8438.347739,5439.278036,-5625.565159
1363.411511,-12583.501014,5592.497135,-3997.112087
1363.411822,-15470.304188,2451.505594,-1406.391290
1363.412134,-17616.901420,-919.314598,1998.556043
1363.412446,-17098.757260,-1225.752797,4589.276840
1363.412757,-15544.324782,-995.924147,4959.379811
1363.413069,-10732.986159,-229.828649,4293.194464
1363.413380,-4885.359217,-2068.457845,3997.112087
1363.413692,-148.041188,-3830.477490,1554.432478
1363.414003,1924.535449,-4519.963438,-1702.473667
1363.414315,222.061783,-2757.943793,-4663.297435
1363.414626,-4145.153275,1378.971896,-6069.688724
1363.414938,-8956.491898,5132.839837,-5847.626942
1363.415249,-13915.871710,5362.668486,-3256.906145
1363.415561,-17987.004391,2911.162892,-296.082377
1363.415872,-19763.498651,-689.485948,3627.009116
1363.416184,-18209.066173,-995.924147,4811.338623
1363.416495,-14137.933492,1149.143247,4441.235652
1363.416807,-9030.512492,2221.676944,2812.782580
1363.417118,-2812.782580,0.000000,2368.659014
1363.417430,1110.308913,-2911.162892,-370.102971
1363.417741,2368.659014,-4290.134789,-1554.432478
1363.418053,-962.267725,-766.095498,-3775.050304
1363.418364,-6291.750507,3294.210641,-4663.297435
1363.418676,-11325.150913,5822.325785,-4367.215058
1363.418988,-15544.324782,4826.401637,-2664.741391
1363.419299,-17764.942608,1838.629195,296.082377
1363.419611,-18505.148550,-919.314598,2516.700203
1363.419922,-16950.716072,-153.219100,4737.318029
1363.420234,-14656.077652,612.876398,4737.318029
1363.420545,-8586.388927,-689.485948,4663.297435
1363.420857,-1850.514855,-2068.457845,4071.132681
1363.421168,1184.329507,-4213.525239,1554.432478
1363.421480,2220.617826,-4596.572988,-148.041188
1363.421791,-888.247130,-1838.629195,-2738.761985
1363.422103,-5107.421000,1915.238745,-4737.318029
1363.422414,-10732.986159,4826.401637,-4219.173869
1363.422726,-14952.160028,4366.744339,-1480.411884
1363.423037,-17542.880825,1302.362347,1702.473667
1363.423349,-18801.230927,-1915.238745,4737.318029
1363.423660,-17024.736666,-1532.190996,5699.585753
1363.423972,-13101.645173,306.438199,5329.482782
1363.424283,-7031.956449,0.000000,4293.194464
1363.424595,-2072.576638,-2604.724693,3849.070898
1363.424906,740.205942,-4519.963438,1628.453072
1363.425218,2590.720797,-4213.525239,-222.061783
1363.425530,-1184.329507,-383.047749,-2812.782580
1363.425841,-5551.544565,2911.162892,-3627.009116
1363.426153,-10214.842000,4903.011187,-3256.906145
1363.426464,-14730.098246,2834.553343,-1110.308913
1363.426776,-16136.489536,-536.266849,1850.514855
1363.427087,-17542.880825,-2298.286494,4293.194464
1363.427399,-17320.819043,-1302.362347,5181.441594
1363.427710,-13323.706956,-995.924147,4959.379811
1363.428022,-8734.430116,-2068.457845,3552.988522
1363.428333,-2368.659014,-2451.505594,3997.112087
1363.428645,1554.432478,-3677.258390,1036.288319
1363.428956,2960.823768,-3217.601092,-1628.453072
1363.429268,296.082377,0.000000,-3997.112087
1363.429579,-5033.400406,3294.210641,-5329.482782
1363.429891,-10362.883188,4136.915689,-4663.297435
1363.430202,-15470.304188,3140.991542,-2516.700203
1363.430514,-19097.313304,459.657299,666.185348
1363.430825,-19911.539840,-2757.943793,3627.009116
1363.431137,-17320.819043,-1991.848295,4663.297435
1363.431448,-13989.892304,-842.705048,3182.885551
1363.431760,-8438.347739,-1991.848295,3034.844362
1363.432072,-2220.617826,-4519.963438,2072.576638
1363.432383,740.205942,-5822.325785,592.164754
1363.432695,1998.556043,-4596.572988,-1702.473667
1363.433006,-1776.494261,-612.876398,-3701.029710
1363.433318,-6217.729913,3217.601092,-4885.359217
1363.433629,-11177.109724,5745.716235,-4219.173869
1363.433941,-15470.304188,4826.401637,-2220.617826
1363.434252,-19615.457463,2451.505594,444.123565
1363.434564,-20207.622217,1378.971896,3478.967927
1363.434875,-17172.777854,1685.410096,3478.967927
1363.435187,-13101.645173,2451.505594,3478.967927
1363.435498,-9178.553681,1225.752797,3182.885551
1363.435810,-1924.535449,-2145.067394,2072.576638
1363.436121,3330.926739,-2834.553343,-222.061783
1363.436433,3849.070898,-2221.676944,-2590.720797
1363.436744,-296.082377,0.000000,-4367.215058
1363.437056,-6439.791695,3524.039291,-4811.338623
1363.437367,-12139.377449,4903.011187,-3478.967927
1363.437679,-16876.695478,3140.991542,-0.000000
1363.437990,-19467.416275,0.000000,2294.638420
1363.438302,-19245.354492,-1378.971896,4663.297435
1363.438614,-16580.613101,-689.485948,5329.482782
1363.438925,-10732.986159,-612.876398,3775.050304
1363.439237,-4293.194464,-1072.533697,4219.173869
1363.439548,-740.205942,-2528.115143,2146.597232
1363.439860,1776.494261,-3983.696590,518.144159
1363.440171,0.000000,-1685.410096,-2220.617826
1363.440483,-3404.947333,2528.115143,-2812.782580
1363.440794,-7105.977043,5669.106685,-3478.967927
1363.441106,-11621.233289,5209.449386,-3256.906145
1363.441417,-14211.954086,3753.867940,-592.164754
1363.441729,-16432.571912,612.876398,1998.556043
1363.442040,-16802.674883,-1685.410096,4589.276840
1363.442352,-14804.118840,-612.876398,5403.503377
1363.442663,-10510.924376,-383.047749,5551.544565
1363.442975,-4515.256246,-2221.676944,4737.318029
1363.443286,-1184.329507,-4213.525239,2886.803174
1363.443598,1628.453072,-4826.401637,370.102971
1363.443909,1332.370696,-3370.820191,-1480.411884
1363.444221,-1998.556043,-229.828649,-3404.947333
1363.444532,-7179.997637,2911.162892,-3923.091493
1363.444844,-13471.748144,2757.943793,-2442.679609
1363.445156,-16580.613101,306.438199,-296.082377
1363.445467,-18653.189738,-2528.115143,2960.823768
1363.445779,-18653.189738,-3140.991542,4589.276840
1363.446090,-16654.633695,-1915.238745,4589.276840
1363.446402,-12213.398043,-1838.629195,3701.029710
1363.446713,-6513.812290,-3294.210641,3997.112087
1363.447025,-1702.473667,-4596.572988,3330.926739
1363.447336,1184.329507,-6358.592633,1110.308913
1363.447648,444.123565,-3140.991542,-1924.535449
1363.447959,-2294.638420,1532.190996,-4219.173869
1363.448271,-6291.750507,4903.011187,-5403.503377
1363.448582,-11103.089130,4903.011187,-4515.256246
1363.448894,-15470.304188,2298.286494,-2072.576638
1363.449205,-18505.148550,-306.438199,962.267725
1363.449517,-18505.148550,-383.047749,4219.173869
1363.449828,-17468.860231,-536.266849,4219.173869
1363.450140,-13175.665768,-536.266849,3997.112087
1363.450451,-7550.100608,-2604.724693,3997.112087
1363.450763,-1406.391290,-3983.696590,2368.659014
1363.451074,2812.782580,-3524.039291,-296.082377
1363.451386,1998.556043,-1455.581446,-3701.029710
1363.451697,-2812.782580,1532.190996,-5403.503377
1363.452009,-7624.121203,5056.230287,-6217.729913
1363.452321,-11991.336260,6052.154434,-4589.276840
1363.452632,-16284.530724,4060.306139,-1258.350101
1363.452944,-19245.354492,459.657299,2516.700203
1363.453255,-19023.292709,-612.876398,3997.112087
1363.453567,-15766.386565,229.828649,4885.359217
1363.453878,-9474.636058,1149.143247,4145.153275
1363.454190,-3849.070898,0.000000,3330.926739
1363.454501,-148.041188,-3600.648841,1850.514855
1363.454813,2220.617826,-3370.820191,-296.082377
1363.455124,-222.061783,-766.095498,-3849.070898
1363.455436,-4145.153275,4826.401637,-5477.523971
1363.455747,-8882.471304,7814.174080,-6069.688724
1363.456059,-13027.624579,6435.202183,-3775.050304
1363.456370,-16580.613101,2221.676944,-592.164754
1363.456682,-17987.004391,-1455.581446,2812.782580
1363.456993,-16580.613101,-1302.362347,5773.606348
1363.457305,-14063.912898,0.000000,5995.668130
1363.457616,-8808.450710,-995.924147,5255.462188
1363.457928,-3478.967927,-2911.162892,4737.318029
1363.458239,370.102971,-4673.182538,1776.494261
1363.458551,1258.350101,-4366.744339,-814.226536
1363.458863,-1406.391290,-842.705048,-2886.803174
1363.459174,-4663.297435,3370.820191,-3775.050304
1363.459486,-9474.636058,4749.792088,-3923.091493
1363.459797,-13989.892304,2068.457845,-1924.535449
1363.460109,-16580.613101,-306.438199,1110.308913
1363.460420,-17838.963202,-1991.848295,3330.926739
1363.460732,-17172.777854,-229.828649,4515.256246
1363.461043,-14211.954086,1378.971896,4071.132681
1363.461355,-9844.739029,459.657299,4071.132681
1363.461666,-4441.235652,-3217.601092,4737.318029
1363.461978,-370.102971,-5592.497135,3330.926739
1363.462289,1406.391290,-5362.668486,1480.411884
1363.462601,-1702.473667,-2451.505594,-1406.391290
1363.462912,-4737.318029,2528.115143,-3552.988522
1363.463224,-8660.409521,4290.134789,-4663.297435
1363.463535,-12657.521608,3140.991542,-3256.906145
1363.463847,-15544.324782,383.047749,-518.144159
1363.464158,-17838.963202,-1225.752797,2294.638420
1363.464470,-18579.169144,-2145.067394,4885.359217
1363.464781,-15618.345376,-1225.752797,6069.688724
1363.465093,-9770.718434,-3140.991542,6069.688724
1363.465405,-3849.070898,-5286.058936,5699.585753
1363.465716,592.164754,-6358.592633,2664.741391
1363.466028,1776.494261,-5132.839837,-1406.391290
1363.466339,0.000000,-383.047749,-4663.297435
1363.466651,-3775.050304,4596.572988,-6217.729913
1363.466962,-9178.553681,5362.668486,-5477.523971
1363.467274,-14285.974681,3294.210641,-2812.782580
1363.467585,-17690.922014,459.657299,592.164754
1363.467897,-18653.189738,-842.705048,2738.761985
1363.468208,-16802.674883,1072.533697,4219.173869
1363.468520,-12509.480420,2145.067394,4293.194464
1363.468831,-7402.059420,459.657299,3923.091493
1363.469143,-3256.906145,-3753.867940,3627.009116
1363.469454,370.102971,-3983.696590,1036.288319
1363.469766,222.061783,-2221.676944,-2072.576638
1363.470077,-2886.803174,2221.676944,-4885.359217
1363.470389,-6217.729913,6128.763984,-6291.750507
1363.470700,-10214.842000,5592.497135,-5773.606348
1363.471012,-14137.933492,3294.210641,-3775.050304
1363.471323,-16802.674883,842.705048,-148.041188
1363.471635,-18875.251521,-1225.752797,2368.659014
1363.471947,-18431.127956,459.657299,4737.318029
1363.472258,-13323.706956,153.219100,5255.462188
1363.472570,-7920.203579,-1838.629195,4367.215058
1363.472881,-2442.679609,-3524.039291,4367.215058
1363.473193,1998.556043,-4903.011187,1036.288319
1363.473504,1924.535449,-3524.039291,-2294.638420
1363.473816,-1702.473667,919.314598,-4589.276840
1363.474127,-7031.956449,4979.620737,-5773.606348
1363.474439,-11177.109724,5515.887586,-3923.091493
1363.474750,-15692.365970,3217.601092,-1332.370696
1363.475062,-18653.189738,153.219100,1776.494261
1363.475373,-18653.189738,-383.047749,3849.070898
1363.475685,-16654.633695,995.924147,4959.379811
1363.475996,-10584.944971,1149.143247,4811.338623
1363.476308,-5403.503377,-1532.190996,5033.400406
1363.476619,-1628.453072,-4136.915689,4737.318029
1363.476931,814.226536,-5286.058936,2442.679609
1363.477242,148.041188,-3140.991542,-814.226536
1363.477554,-2442.679609,1532.190996,-3108.864956
1363.477865,-7031.956449,5056.230287,-4663.297435
1363.478177,-10732.986159,3907.087040,-3775.050304
1363.478489,-13693.809927,1608.800546,-1184.329507
1363.478800,-16432.571912,-1072.533697,1998.556043
1363.479112,-17394.839637,-2068.457845,4441.235652
1363.479423,-15840.407159,-536.266849,5847.626942
1363.479735,-10732.986159,229.828649,5551.544565
1363.480046,-5995.668130,-1915.238745,5477.523971
1363.480358,-1406.391290,-4213.525239,4737.318029
1363.480669,2516.700203,-4673.182538,1480.411884
1363.480981,1332.370696,-2451.505594,-1924.535449
1363.481292,-2664.741391,1072.533697,-4293.194464
1363.481604,-7994.224174,4826.401637,-5551.544565
1363.481915,-11991.336260,4136.915689,-4071.132681
1363.482227,-15914.427753,995.924147,-444.123565
1363.482538,-17838.963202,-1762.019645,2886.803174
1363.482850,-18209.066173,-2145.067394,4515.256246
1363.483161,-16432.571912,-459.657299,5107.421000
1363.483473,-10362.883188,919.314598,4811.338623
1363.483784,-5403.503377,-1838.629195,3997.112087
1363.484096,-888.247130,-3907.087040,3849.070898
1363.484407,1406.391290,-4519.963438,-74.020594
1363.484719,222.061783,-2374.896044,-3478.967927
1363.485031,-2960.823768,2451.505594,-5107.421000
1363.485342,-7105.977043,5362.668486,-6069.688724
1363.485654,-11695.253884,3600.648841,-4145.153275
1363.485965,-16284.530724,0.000000,-1184.329507
1363.486277,-18431.127956,-1072.533697,2146.597232
1363.486588,-18801.230927,-1072.533697,3627.009116
1363.486900,-16506.592507,689.485948,4293.194464
1363.487211,-10140.821405,1685.410096,3478.967927
1363.487523,-4811.338623,-766.095498,2664.741391
1363.487834,592.164754,-2987.772442,1850.514855
1363.488146,2590.720797,-3830.477490,-814.226536
1363.488457,222.061783,-2681.334243,-3627.009116
1363.488769,-4293.194464,1455.581446,-4663.297435
1363.489080,-9474.636058,3907.087040,-4885.359217
1363.489392,-14063.912898,3217.601092,-2960.823768
1363.489703,-17912.983796,383.047749,222.061783
1363.490015,-19911.539840,-1838.629195,2664.741391
1363.490326,-18801.230927,-1532.190996,4515.256246
1363.490638,-15914.427753,1378.971896,4219.173869
1363.490949,-9474.636058,2068.457845,3701.029710
1363.491261,-3849.070898,-1608.800546,2664.741391
1363.491573,518.144159,-4979.620737,1332.370696
1363.491884,1554.432478,-4826.401637,-740.205942
1363.492196,-962.267725,-306.438199,-3552.988522
1363.492507,-4145.153275,4979.620737,-4589.276840
1363.492819,-9400.615463,5975.544884,-4885.359217
1363.493130,-13767.830521,3217.601092,-2368.659014
1363.493442,-16580.613101,383.047749,666.185348
1363.493753,-17616.901420,76.609550,3404.947333
1363.494065,-17912.983796,536.266849,4885.359217
1363.494376,-14211.954086,2068.457845,5921.647536
1363.494688,-8068.244768,919.314598,4515.256246
1363.494999,-2294.638420,-2068.457845,4219.173869
1363.495311,2146.597232,-4519.963438,1628.453072
1363.495622,2294.638420,-4213.525239,-1110.308913
1363.495934,-1184.329507,-842.705048,-3108.864956
1363.496245,-5255.462188,3600.648841,-4737.318029
1363.496557,-10510.924376,4826.401637,-4885.359217
1363.496868,-14508.036463,3524.039291,-1776.494261
1363.497180,-17394.839637,306.438199,1702.473667
1363.497491,-18727.210333,-2068.457845,4737.318029
1363.497803,-16950.716072,-689.485948,6513.812290
1363.498114,-12361.439231,766.095498,6143.709319
1363.498426,-6883.915261,689.485948,4441.235652
1363.498738,-1924.535449,-2834.553343,3849.070898
1363.499049,1924.535449,-4903.011187,296.082377
1363.499361,2590.720797,-3907.087040,-2368.659014
1363.499672,-1184.329507,229.828649,-4441.235652
1363.499984,-6957.935855,3753.867940,-4811.338623
1363.500295,-12509.480420,3447.429741,-3701.029710
1363.500607,-16210.510130,1072.533697,-444.123565
1363.500918,-18579.169144,-1762.019645,2516.700203
1363.501230,-18949.272115,-2604.724693,5255.462188
1363.501541,-17172.777854,-689.485948,4959.379811
1363.501853,-12657.521608,1072.533697,4367.215058
1363.502164,-5921.647536,153.219100,3330.926739
1363.502476,-888.247130,-2681.334243,3182.885551
1363.502787,2146.597232,-4673.182538,-0.000000
1363.503099,1628.453072,-3217.601092,-2294.638420
1363.503410,-1480.411884,-1149.143247,-4071.132681
1363.503722,-6735.874072,2604.724693,-4885.359217
1363.504033,-11917.315666,3524.039291,-3775.050304
1363.504345,-15766.386565,1455.581446,-1110.308913
1363.504656,-18061.024985,-2068.457845,2146.597232
1363.504968,-18579.169144,-3370.820191,4367.215058
1363.505279,-17024.736666,-612.876398,4515.256246
1363.505591,-13027.624579,1838.629195,3256.906145
1363.505902,-7105.977043,0.000000,2442.679609
1363.506214,-1924.535449,-2987.772442,1776.494261
1363.506525,1184.329507,-4213.525239,-222.061783
1363.506837,666.185348,-2681.334243,-2812.782580
1363.507148,-2590.720797,689.485948,-4959.379811
1363.507460,-6809.894666,4136.915689,-5773.606348
1363.507771,-11103.089130,5056.230287,-4293.194464
1363.508083,-15248.242405,2604.724693,-1480.411884
1363.508394,-18949.272115,-689.485948,2072.576638
1363.508706,-19393.395680,-1762.019645,5107.421000
1363.509017,-17172.777854,0.000000,4959.379811
1363.509329,-11917.315666,1302.362347,3775.050304
1363.509640,-6069.688724,-383.047749,2590.720797
1363.509952,-222.061783,-2145.067394,1036.288319
1363.510263,3108.864956,-3370.820191,-1628.453072
1363.510575,1998.556043,-1991.848295,-3849.070898
1363.510886,-2442.679609,1838.629195,-5477.523971
1363.511198,-7772.162391,4673.182538,-5477.523971
1363.511509,-13175.665768,4136.915689,-3404.947333
1363.511821,-17024.736666,1532.190996,-0.000000
1363.512132,-19245.354492,-919.314598,2886.803174
1363.512444,-18949.272115,-1838.629195,4663.297435
1363.512755,-15470.304188,229.828649,5033.400406
1363.513067,-10658.965565,766.095498,4441.235652
1363.513378,-4811.338623,-995.924147,3997.112087
1363.513690,-518.144159,-3447.429741,1628.453072
1363.514001,1258.350101,-4136.915689,-740.205942
1363.514313,-296.082377,-919.314598,-2960.823768
1363.514624,-4219.173869,3140.991542,-3552.988522
1363.514936,-7846.182985,5592.497135,-3182.885551
1363.515247,-12509.480420,4213.525239,-1702.473667
1363.515559,-15914.427753,2068.457845,1184.329507
1363.515870,-17542.880825,-306.438199,3404.947333
1363.516182,-18357.107362,-766.095498,5033.400406
1363.516493,-15248.242405,612.876398,5255.462188
1363.516805,-9474.636058,1149.143247,3775.050304
1363.517116,-3627.009116,-1302.362347,3330.926739
1363.517428,1332.370696,-3064.381992,2590.720797
1363.517739,2738.761985,-4979.620737,-444.123565
1363.518051,222.061783,-3140.991542,-2368.659014
1363.518362,-3108.864956,1072.533697,-2738.761985
1363.518674,-8068.244768,2528.115143,-3478.967927
1363.518985,-13619.789333,2145.067394,-1702.473667
1363.519297,-17098.757260,-459.657299,1258.350101
1363.519608,-18061.024985,-2451.505594,4145.153275
1363.519919,-18209.066173,-919.314598,5403.503377
1363.520231,-15396.283594,612.876398,5921.647536
1363.520542,-10214.842000,-229.828649,4589.276840
1363.520854,-5033.400406,-2374.896044,3552.988522
1363.521165,-148.041188,-3830.477490,1850.514855
1363.521477,2590.720797,-3370.820191,-1480.411884
1363.521788,444.123565,0.000000,-4441.235652
1363.522100,-3404.947333,3217.601092,-4885.359217
1363.522411,-8660.409521,4903.011187,-4737.318029
1363.522723,-13471.748144,2451.505594,-2368.659014
1363.523034,-16580.613101,229.828649,370.102971
1363.523346,-18061.024985,-2145.067394,3627.009116
1363.523657,-17764.942608,-2604.724693,4811.338623
1363.523969,-14508.036463,-1378.971896,3849.070898
1363.524280,-9178.553681,-459.657299,2664.741391
1363.524592,-3478.967927,-2068.457845,1998.556043
1363.524903,-148.041188,-4213.525239,-592.164754
1363.525215,1036.288319,-4519.963438,-2072.576638
1363.525526,-740.205942,-1685.410096,-4293.194464
1363.525838,-4959.379811,1762.019645,-4737.318029
1363.526149,-9474.636058,4136.915689,-4737.318029
1363.526461,-14730.098246,3064.381992,-2516.700203
1363.526772,-18431.127956,1072.533697,740.205942
1363.527084,-20059.581028,-459.657299,3182.885551
1363.527395,-19467.416275,919.314598,4441.235652
1363.527707,-15396.283594,3217.601092,3923.091493
1363.528018,-10066.800811,1915.238745,2960.823768
1363.528330,-3627.009116,-842.705048,1702.473667
1363.528641,1406.391290,-3294.210641,-370.102971
1363.528953,2442.679609,-2298.286494,-2960.823768
1363.529264,-814.226536,1455.581446,-4811.338623
1363.529576,-5329.482782,4749.792088,-5921.647536
1363.529887,-10807.006753,5592.497135,-5033.400406
1363.530199,-14804.118840,4290.134789,-1850.514855
1363.530510,-17394.839637,1608.800546,1628.453072
1363.530822,-18875.251521,-1149.143247,4515.256246
1363.531133,-16950.716072,-1302.362347,5847.626942
1363.531445,-12509.480420,-459.657299,5255.462188
1363.531756,-6661.853478,-1225.752797,4885.359217
1363.532068,-1332.370696,-2451.505594,3182.885551
1363.532379,1258.350101,-3600.648841,1184.329507
1363.532691,1110.308913,-3753.867940,-962.267725
1363.533002,-1628.453072,-459.657299,-3256.906145
1363.533314,-5477.523971,3753.867940,-4367.215058
1363.533625,-9918.759623,5209.449386,-3330.926739
1363.533937,-13471.748144,3600.648841,-740.205942
1363.534248,-15692.365970,0.000000,2590.720797
1363.534560,-17838.963202,-1762.019645,4367.215058
1363.534871,-16506.592507,0.000000,6513.812290
1363.535183,-12953.603985,1455.581446,6217.729913
1363.535494,-7179.997637,306.438199,5477.523971
1363.535805,-1924.535449,-3064.381992,3627.009116
1363.536117,1850.514855,-5209.449386,814.226536
1363.536428,1776.494261,-3447.429741,-1998.556043
1363.536740,-1406.391290,0.000000,-4145.153275
1363.537051,-6143.709319,4290.134789,-4737.318029
1363.537363,-11843.295072,2987.772442,-2738.761985
1363.537674,-16284.530724,383.047749,-222.061783
1363.537986,-17912.983796,-2298.286494,2738.761985
1363.538297,-18579.169144,-2834.553343,5033.400406
1363.538609,-17320.819043,-1762.019645,5921.647536
1363.538920,-12435.459826,-1072.533697,4737.318029
1363.539232,-7179.997637,-1838.629195,3404.947333
1363.539543,-2294.638420,-3217.601092,2886.803174
1363.539855,1628.453072,-3983.696590,370.102971
1363.540166,1332.370696,-3447.429741,-2442.679609
1363.540478,-1924.535449,612.876398,-4737.318029
1363.540789,-6143.709319,4213.525239,-5477.523971
1363.541101,-10510.924376,4903.011187,-4145.153275
1363.541412,-15322.262999,2528.115143,-1998.556043
1363.541724,-18579.169144,-306.438199,1332.370696
1363.542035,-19097.313304,-1072.533697,3849.070898
1363.542347,-16506.592507,229.828649,4737.318029
1363.542658,-12509.480420,1838.629195,3775.050304
1363.542970,-7105.977043,0.000000,2960.823768
1363.543281,-2368.659014,-3140.991542,888.247130
1363.543593,1110.308913,-4366.744339,-1036.288319
1363.543904,148.041188,-2374.896044,-3775.050304
1363.544216,-1924.535449,2451.505594,-5699.585753
1363.544527,-7031.956449,5592.497135,-5773.606348
1363.544839,-11769.274478,4060.306139,-3701.029710
1363.545150,-15026.180623,1302.362347,-962.267725
1363.545462,-17690.922014,-1532.190996,1702.473667
1363.545773,-17616.901420,-1762.019645,4441.235652
1363.546085,-17172.777854,612.876398,4293.194464
1363.546396,-12731.542202,1762.019645,3182.885551
1363.546708,-7254.018232,383.047749,2146.597232
1363.547019,-1776.494261,-2145.067394,1110.308913
1363.547331,1332.370696,-3064.381992,-1036.288319
1363.547642,444.123565,-842.705048,-3182.885551
1363.547954,-2590.720797,2451.505594,-4885.359217
1363.548265,-6143.709319,4903.011187,-4367.215058
1363.548577,-10807.006753,4443.353888,-2960.823768
1363.548888,-14804.118840,2068.457845,-148.041188
1363.549200,-17987.004391,0.000000,2516.700203
1363.549511,-19097.313304,-919.314598,4885.359217
1363.549823,-17764.942608,536.266849,5847.626942
1363.550134,-12435.459826,1838.629195,4071.132681
1363.550446,-6513.812290,-383.047749,4071.132681
1363.550757,-1036.288319,-4519.963438,1924.535449
1363.551069,2220.617826,-5286.058936,-74.020594
1363.551380,0.000000,-1378.971896,-3182.885551
1363.551692,-3701.029710,3830.477490,-3997.112087
1363.552003,-7179.997637,4826.401637,-3923.091493
1363.552314,-11843.295072,2987.772442,-1924.535449
1363.552626,-14730.098246,612.876398,962.267725
1363.552937,-16580.613101,-1838.629195,4071.132681
1363.553249,-17838.963202,-2298.286494,5921.647536
1363.553560,-15988.448347,-536.266849,6143.709319
1363.553872,-10140.821405,995.924147,5477.523971
1363.554183,-5033.400406,-1991.848295,4589.276840
1363.554495,-666.185348,-4903.011187,3034.844362
1363.554806,1036.288319,-5132.839837,666.185348
1363.555118,444.123565,-1762.019645,-2294.638420
1363.555429,-2590.720797,3294.210641,-3330.926739
1363.555741,-7031.956449,5056.230287,-3775.050304
1363.556052,-11103.089130,2987.772442,-1628.453072
1363.556364,-14878.139434,-842.705048,814.226536
1363.556675,-16876.695478,-2681.334243,4071.132681
1363.556987,-17764.942608,-1378.971896,5329.482782
1363.557298,-16432.571912,1149.143247,4885.359217
1363.557610,-11695.253884,1072.533697,4441.235652
1363.557921,-5699.585753,-2451.505594,3997.112087
1363.558233,-518.144159,-4903.011187,1998.556043
1363.558544,1776.494261,-4213.525239,-518.144159
1363.558856,-444.123565,-459.657299,-3478.967927
1363.559167,-3182.885551,4366.744339,-5033.400406
1363.559479,-7698.141797,5132.839837,-5329.482782
1363.559790,-11917.315666,2757.943793,-3330.926739
1363.560102,-15544.324782,0.000000,-296.082377
1363.560413,-18505.148550,-1225.752797,2368.659014
1363.560725,-18949.272115,-459.657299,3627.009116
1363.561036,-16284.530724,612.876398,3701.029710
1363.561348,-10881.027347,842.705048,3182.885551
1363.561659,-4441.235652,-2068.457845,3478.967927
1363.561971,-666.185348,-5515.887586,1480.411884
1363.562282,1702.473667,-5592.497135,-1332.370696
1363.562594,74.020594,-1685.410096,-4737.318029
1363.562905,-3330.926739,2834.553343,-6143.709319
1363.563217,-8512.368333,4826.401637,-6217.729913
1363.563528,-13175.665768,2298.286494,-3627.009116
1363.563840,-16580.613101,-1072.533697,444.123565
1363.564151,-19689.478057,-2451.505594,2886.803174
1363.564463,-19541.436869,0.000000,4515.256246
1363.564774,-16284.530724,2757.943793,4071.132681
1363.565086,-10955.047942,1608.800546,3108.864956
1363.565397,-4145.153275,-1991.848295,2590.720797
1363.565709,666.185348,-3830.477490,-222.061783
1363.566020,1924.535449,-2145.067394,-2146.597232
1363.566332,-740.205942,1762.019645,-4811.338623
1363.566643,-4737.318029,5132.839837,-5107.421000
1363.566955,-10140.821405,4979.620737,-4367.215058
1363.567266,-13545.768739,2221.676944,-1998.556043
1363.567578,-16654.633695,76.609550,1036.288319
1363.567889,-19097.313304,-306.438199,3627.009116
1363.568201,-18653.189738,995.924147,4441.235652
1363.568512,-13989.892304,1838.629195,4441.235652
1363.568823,-8808.450710,689.485948,3923.091493
1363.569135,-2442.679609,-2451.505594,4589.276840
1363.569446,1628.453072,-5209.449386,2294.638420
1363.569758,1554.432478,-5132.839837,148.041188
1363.570069,-962.267725,-1532.190996,-2146.597232
1363.570381,-4959.379811,2757.943793,-3997.112087
1363.570692,-9548.656652,4060.306139,-3775.050304
1363.571004,-13619.789333,2221.676944,-370.102971
1363.571315,-17246.798449,-766.095498,2072.576638
1363.571627,-18505.148550,-1915.238745,5107.421000
1363.571938,-17172.777854,0.000000,5773.606348
1363.572250,-13101.645173,1455.581446,5181.441594
1363.572561,-7254.018232,612.876398,4367.215058
1363.572873,-1850.514855,-2451.505594,3108.864956
1363.573184,1776.494261,-4366.744339,1110.308913
1363.573496,2960.823768,-1915.238745,-592.164754
1363.573807,-814.226536,1225.752797,-3256.906145
1363.574119,-5625.565159,4903.011187,-3627.009116
1363.574430,-10436.903782,4443.353888,-2590.720797
1363.574742,-14211.954086,1532.190996,-444.123565
1363.575053,-17098.757260,-612.876398,2072.576638
1363.575365,-18061.024985,-1685.410096,4071.132681
1363.575676,-17246.798449,-306.438199,4145.153275
1363.575988,-13545.768739,-229.828649,4589.276840
1363.576299,-7994.224174,-1378.971896,4367.215058
1363.576611,-2960.823768,-3830.477490,3330.926739
1363.576922,518.144159,-5745.716235,1554.432478
1363.577234,1776.494261,-4366.744339,-1628.453072
1363.577545,-296.082377,-306.438199,-4367.215058
1363.577857,-4219.173869,3830.477490,-5403.503377
1363.578168,-9844.739029,3677.258390,-4367.215058
1363.578480,-15026.180623,1302.362347,-1110.308913
1363.578791,-18949.272115,-1149.143247,2220.617826
1363.579103,-20207.622217,-2068.457845,3923.091493
1363.579414,-17987.004391,-766.095498,4737.318029
1363.579726,-13249.686362,612.876398,3256.906145
1363.580037,-7031.956449,-459.657299,1998.556043
1363.580349,-962.267725,-3294.210641,-0.000000
1363.580660,1554.432478,-4749.792088,-2072.576638
1363.580972,1184.329507,-2374.896044,-3404.947333
1363.581283,-2812.782580,1991.848295,-4663.297435
1363.581595,-7772.162391,4749.792088,-5107.421000
1363.581906,-12287.418637,4213.525239,-3256.906145
1363.582218,-16210.510130,2145.067394,-1258.350101
1363.582529,-18579.169144,-306.438199,1184.329507
1363.582841,-18949.272115,-459.657299,3256.906145
1363.583152,-17246.798449,689.485948,4145.153275
1363.583464,-12583.501014,1608.800546,2442.679609
1363.583775,-6661.853478,-766.095498,2368.659014
1363.584087,-1776.494261,-3447.429741,962.267725
1363.584398,1702.473667,-4903.011187,-666.185348
1363.584709,1702.473667,-3140.991542,-3256.906145
1363.585021,-2072.576638,995.924147,-4737.318029
1363.585332,-7105.977043,3983.696590,-5255.462188
1363.585644,-12509.480420,3907.087040,-2590.720797
1363.585955,-17024.736666,1915.238745,740.205942
1363.586267,-19393.395680,-612.876398,3849.070898
1363.586578,-19467.416275,-689.485948,5403.503377
1363.586890,-15914.427753,536.266849,5107.421000
1363.587201,-9326.594869,1608.800546,3923.091493
1363.587513,-3330.926739,-1072.533697,2960.823768
1363.587824,888.247130,-4213.525239,1480.411884
1363.588136,2072.576638,-3983.696590,-666.185348
1363.588447,-444.123565,-383.047749,-2590.720797
1363.588759,-4737.318029,4213.525239,-3552.988522
1363.589070,-9474.636058,5669.106685,-3627.009116
1363.589382,-13471.748144,4290.134789,-1332.370696
1363.589693,-14952.160028,1532.190996,1258.350101
1363.590005,-15544.324782,-1762.019645,4367.215058
1363.590316,-15766.386565,-2451.505594,5477.523971
1363.590628,-13397.727550,-766.095498,5625.565159
1363.590939,-8882.471304,-612.876398,4293.194464
1363.591251,-3997.112087,-2451.505594,3552.988522
1363.591562,222.061783,-3524.039291,1702.473667
1363.591874,1110.308913,-3983.696590,-1036.288319
1363.592185,-370.102971,-1378.971896,-3256.906145
1363.592497,-4367.215058,2604.724693,-4219.173869
1363.592808,-9178.553681,3907.087040,-3923.091493
1363.593120,-14211.954086,2451.505594,-1554.432478
1363.593431,-17838.963202,-536.266849,1924.535449
1363.593743,-19319.375086,-2911.162892,4515.256246
1363.594054,-18949.272115,-1072.533697,5403.503377
1363.594366,-14434.015869,842.705048,4515.256246
1363.594677,-8364.327145,459.657299,3775.050304
1363.594989,-3034.844362,-3064.381992,3034.844362
1363.595300,1628.453072,-4290.134789,1628.453072
1363.595612,1850.514855,-4290.134789,-1406.391290
1363.595923,-666.185348,0.000000,-3330.926739
1363.596235,-4663.297435,4443.353888,-4293.194464
1363.596546,-9918.759623,5132.839837,-4293.194464
1363.596858,-13545.768739,3753.867940,-1998.556043
1363.597169,-16654.633695,1072.533697,444.123565
1363.597481,-18135.045579,-1378.971896,3182.885551
1363.597792,-17394.839637,-536.266849,4515.256246
1363.598104,-14656.077652,153.219100,3997.112087
1363.598415,-9326.594869,-689.485948,3775.050304
1363.598727,-3997.112087,-3370.820191,2146.597232
1363.599038,666.185348,-5132.839837,296.082377
1363.599350,1998.556043,-4596.572988,-2516.700203
1363.599661,0.000000,-1532.190996,-4293.194464
1363.599973,-3923.091493,2451.505594,-4737.318029
1363.600284,-10362.883188,3983.696590,-4367.215058
1363.600596,-15914.427753,2987.772442,-1258.350101
1363.600907,-19097.313304,766.095498,2146.597232
1363.601218,-19911.539840,-383.047749,3849.070898
1363.601530,-18061.024985,1072.533697,4219.173869
1363.601841,-13323.706956,3140.991542,2368.659014
1363.602153,-6217.729913,2145.067394,1554.432478
1363.602464,-962.267725,-1149.143247,-444.123565
1363.602776,2294.638420,-3447.429741,-1554.432478
1363.603087,1184.329507,-2834.553343,-3182.885551
1363.603399,-2664.741391,766.095498,-3849.070898
1363.603710,-7105.977043,4213.525239,-3849.070898
1363.604022,-12287.418637,3600.648841,-2590.720797
1363.604333,-15914.427753,2221.676944,74.020594
1363.604645,-17987.004391,0.000000,2072.576638
1363.604956,-18283.086767,-1608.800546,3627.009116
1363.605268,-15544.324782,-689.485948,5033.400406
1363.605579,-12287.418637,383.047749,3775.050304
1363.605891,-6217.729913,-995.924147,2960.823768
1363.606202,-888.247130,-2757.943793,1702.473667
1363.606513,1776.494261,-4596.572988,-0.000000
1363.606825,1184.329507,-3064.381992,-2368.659014
1363.607136,-1924.535449,306.438199,-3330.926739
1363.607448,-6587.832884,3524.039291,-4071.132681
1363.607759,-12287.418637,4213.525239,-2146.597232
1363.608071,-16358.551318,2681.334243,518.144159
1363.608382,-19023.292709,459.657299,3775.050304
1363.608693,-19097.313304,-1072.533697,4811.338623
1363.609005,-15322.262999,0.000000,4515.256246
1363.609316,-10955.047942,1225.752797,3404.947333
1363.609628,-4515.256246,306.438199,2738.761985
1363.609939,962.267725,-3447.429741,1332.370696
1363.610251,2368.659014,-6128.763984,-370.102971
1363.610562,666.185348,-3524.039291,-1110.308913
1363.610873,-3627.009116,766.095498,-2516.700203
1363.611185,-8290.306550,3677.258390,-2368.659014
1363.611496,-12879.583391,3064.381992,-518.144159
1363.611808,-16876.695478,1762.019645,888.247130
1363.612119,-17764.942608,76.609550,3256.906145
1363.612431,-17616.901420,-459.657299,4737.318029
1363.612742,-15692.365970,76.609550,4589.276840
1363.613054,-10362.883188,536.266849,4293.194464
1363.613365,-5033.400406,-1608.800546,3034.844362
1363.613676,-148.041188,-4060.306139,2442.679609
1363.613988,2516.700203,-4979.620737,-962.267725
1363.614299,592.164754,-1762.019645,-2738.761985
1363.614611,-3108.864956,2221.676944,-3923.091493
1363.614922,-7476.080014,4673.182538,-4367.215058
1363.615234,-13027.624579,4060.306139,-2294.638420
1363.615545,-17246.798449,1915.238745,666.185348
1363.615856,-18579.169144,-995.924147,3478.967927
1363.616168,-18209.066173,-1762.019645,4515.256246
1363.616479,-14508.036463,229.828649,3775.050304
1363.616791,-9622.677246,1302.362347,2516.700203
1363.617102,-4367.215058,-1302.362347,1184.329507
1363.617414,0.000000,-3370.820191,-74.020594
1363.617725,1036.288319,-5286.058936,-1776.494261
1363.618036,74.020594,-2451.505594,-3108.864956
1363.618348,-4441.235652,1915.238745,-3923.091493
1363.618659,-9548.656652,3907.087040,-3923.091493
1363.618971,-14063.912898,3677.258390,-2072.576638
1363.619282,-17838.963202,1378.971896,-74.020594
1363.619594,-18801.230927,536.266849,2516.700203
1363.619905,-18061.024985,459.657299,3701.029710
1363.620217,-14878.139434,1532.190996,2812.782580
1363.620528,-9400.615463,1915.238745,2960.823768
1363.620839,-3775.050304,-919.314598,1184.329507
1363.621151,1110.308913,-3753.867940,-0.000000
1363.621462,2368.659014,-3983.696590,-2146.597232
1363.621774,-814.226536,-1302.362347,-3701.029710
1363.622085,-3627.009116,2911.162892,-4367.215058
1363.622397,-10140.821405,3294.210641,-4071.132681
1363.622708,-15766.386565,2374.896044,-1036.288319
1363.623019,-18727.210333,459.657299,1628.453072
1363.623331,-20503.704593,-1149.143247,3627.009116
1363.623642,-19171.333898,-1149.143247,4515.256246
1363.623954,-14211.954086,612.876398,2960.823768
1363.624265,-8512.368333,689.485948,2738.761985
1363.624577,-2812.782580,-1762.019645,1554.432478
1363.624888,1258.350101,-4060.306139,1184.329507
1363.625200,1406.391290,-4136.915689,-518.144159
1363.625511,-1554.432478,-766.095498,-1554.432478
1363.625822,-5181.441594,3140.991542,-2516.700203
1363.626134,-9474.636058,4979.620737,-2812.782580
1363.626445,-13323.706956,4136.915689,-1036.288319
1363.626757,-16284.530724,2451.505594,962.267725
1363.627068,-17098.757260,-153.219100,3330.926739
1363.627380,-15988.448347,-383.047749,4663.297435
1363.627691,-13175.665768,153.219100,4367.215058
1363.628002,-8438.347739,383.047749,3330.926739
1363.628314,-3330.926739,-2221.676944,2590.720797
1363.628625,1184.329507,-4519.963438,962.267725
1363.628937,2886.803174,-4519.963438,-1036.288319
1363.629248,370.102971,-1685.410096,-2368.659014
1363.629560,-4515.256246,1685.410096,-3256.906145
1363.629871,-10140.821405,2528.115143,-2220.617826
1363.630182,-14804.118840,1455.581446,296.082377
1363.630494,-18061.024985,-842.705048,2886.803174
1363.630805,-19245.354492,-2528.115143,4145.153275
1363.631117,-17764.942608,-1915.238745,4441.235652
1363.631428,-13397.727550,-306.438199,2738.761985
1363.631740,-7476.080014,306.438199,1924.535449
1363.632051,-3256.906145,-1302.362347,740.205942
1363.632363,-518.144159,-2757.943793,-74.020594
1363.632674,0.000000,-1991.848295,-962.267725
1363.632985,-1480.411884,1991.848295,-2368.659014
1363.633297,-3997.112087,4443.353888,-3182.885551
1363.633608,-9030.512492,4366.744339,-2960.823768
1363.633920,-12213.398043,2528.115143,-814.226536
1363.634231,-15100.201217,0.000000,814.226536
1363.634543,-17764.942608,-1455.581446,3256.906145
1363.634854,-18283.086767,-1915.238745,4589.276840
1363.635165,-16062.468941,-1302.362347,4367.215058
1363.635477,-11029.068536,-1762.019645,3775.050304
1363.635788,-4441.235652,-3140.991542,2072.576638
1363.636100,814.226536,-4596.572988,296.082377
1363.636411,2072.576638,-4519.963438,-1850.514855
1363.636723,444.123565,-383.047749,-3923.091493
1363.637034,-3478.967927,3753.867940,-4811.338623
1363.637345,-9104.533087,4903.011187,-3404.947333
1363.637657,-15100.201217,2987.772442,-814.226536
1363.637968,-18801.230927,766.095498,1924.535449
1363.638280,-19985.560434,-1302.362347,4367.215058
1363.638591,-18135.045579,-459.657299,3997.112087
1363.638903,-13841.851115,536.266849,2812.782580
1363.639214,-8364.327145,76.609550,1702.473667
1363.639526,-2738.761985,-2374.896044,814.226536
1363.639837,814.226536,-3524.039291,-1406.391290
1363.640148,666.185348,-1225.752797,-2664.741391
1363.640460,-1480.411884,3370.820191,-4071.132681
1363.640771,-4811.338623,6052.154434,-4219.173869
1363.641083,-10140.821405,5132.839837,-3034.844362
1363.641394,-14878.139434,2987.772442,-1184.329507
1363.641706,-17542.880825,612.876398,1184.329507
1363.642017,-19245.354492,-536.266849,3923.091493
1363.642328,-18579.169144,-842.705048,4737.318029
1363.642640,-13693.809927,-536.266849,4367.215058
1363.642951,-7105.977043,-1838.629195,2886.803174
1363.643263,-1924.535449,-3677.258390,1924.535449
1363.643574,2516.700203,-4903.011187,-888.247130
1363.643886,3108.864956,-2681.334243,-2442.679609
1363.644197,-666.185348,1225.752797,-3849.070898
1363.644509,-5181.441594,4136.915689,-4293.194464
1363.644820,-11103.089130,4290.134789,-2368.659014
1363.645131,-16062.468941,2298.286494,222.061783
1363.645443,-18801.230927,153.219100,2516.700203
1363.645754,-18801.230927,-995.924147,3923.091493
1363.646066,-15988.448347,306.438199,4145.153275
1363.646377,-11103.089130,459.657299,3330.926739
1363.646689,-6439.791695,-1991.848295,2738.761985
1363.647000,-1776.494261,-4519.963438,2220.617826
1363.647311,1184.329507,-4903.011187,444.123565
1363.647623,148.041188,-1685.410096,-1998.556043
1363.647934,-2516.700203,2681.334243,-3034.844362
1363.648246,-6143.709319,4290.134789,-3034.844362
1363.648557,-11177.109724,3064.381992,-2590.720797
1363.648869,-15322.262999,919.314598,-148.041188
1363.649180,-17838.963202,-459.657299,2368.659014
1363.649491,-18135.045579,-1149.143247,4367.215058
1363.649803,-16728.654289,-2145.067394,4663.297435
1363.650114,-12879.583391,-2298.286494,3849.070898
1363.650426,-7698.141797,-2528.115143,3034.844362
1363.650737,-2294.638420,-3447.429741,2072.576638
1363.651049,666.185348,-3524.039291,740.205942
1363.651360,518.144159,-2374.896044,-1480.411884
1363.651672,-1184.329507,536.266849,-2812.782580
1363.651983,-5181.441594,2987.772442,-3404.947333
1363.652294,-9696.697840,2834.553343,-2368.659014
1363.652606,-15544.324782,1762.019645,-592.164754
1363.652917,-18949.272115,-536.266849,1406.391290
1363.653229,-19245.354492,-1378.971896,3775.050304
1363.653540,-17098.757260,-689.485948,3923.091493
1363.653852,-12657.521608,0.000000,4293.194464
1363.654163,-7550.100608,-2374.896044,3552.988522
1363.654474,-1998.556043,-5056.230287,2590.720797
1363.654786,1628.453072,-4673.182538,518.144159
1363.655097,1776.494261,-766.095498,-2960.823768
1363.655409,0.000000,3524.039291,-5033.400406
1363.655720,-5995.668130,5515.887586,-6069.688724
1363.656032,-10510.924376,4519.963438,-4145.153275
1363.656343,-15174.221811,2681.334243,-1184.329507
1363.656654,-18875.251521,766.095498,2368.659014
1363.656966,-20355.663405,-306.438199,4515.256246
1363.657277,-17764.942608,153.219100,4737.318029
1363.657589,-11769.274478,-229.828649,4367.215058
1363.657900,-4663.297435,-1532.190996,3108.864956
1363.658212,888.247130,-3064.381992,888.247130
1363.658523,3256.906145,-3140.991542,-1998.556043
1363.658835,1110.308913,-459.657299,-4071.132681
1363.659146,-3256.906145,3907.087040,-5181.441594
1363.659457,-8882.471304,6358.592633,-5181.441594
1363.659769,-14804.118840,5056.230287,-2664.741391
1363.660080,-18135.045579,2221.676944,-0.000000
1363.660392,-20429.683999,-1072.533697,2886.803174
1363.660703,-19023.292709,-1455.581446,5107.421000
1363.661015,-15692.365970,0.000000,4589.276840
1363.661326,-9474.636058,0.000000,3627.009116
1363.661637,-3701.029710,-2068.457845,3108.864956
1363.661949,888.247130,-4136.915689,962.267725
1363.662260,2516.700203,-3140.991542,-1998.556043
1363.662572,296.082377,229.828649,-3404.947333
1363.662883,-3478.967927,4136.915689,-3775.050304
1363.663195,-8586.388927,5209.449386,-4293.194464
1363.663506,-13767.830521,3600.648841,-2220.617826
1363.663817,-17172.777854,1378.971896,666.185348
1363.664129,-19171.333898,-1762.019645,3701.029710
1363.664440,-18135.045579,-1838.629195,5033.400406
1363.664752,-14804.118840,-536.266849,4663.297435
1363.665063,-9918.759623,-1838.629195,3182.885551
1363.665375,-3256.906145,-3140.991542,4219.173869
1363.665686,1628.453072,-4903.011187,1776.494261
1363.665998,2590.720797,-5515.887586,-222.061783
1363.666309,518.144159,-1991.848295,-1850.514855
1363.666620,-3627.009116,2374.896044,-2738.761985
1363.666932,-9474.636058,4213.525239,-2886.803174
1363.667243,-14730.098246,3064.381992,-888.247130
1363.667555,-18061.024985,-766.095498,1036.288319
1363.667866,-19023.292709,-2068.457845,3775.050304
1363.668178,-18209.066173,-1225.752797,4737.318029
1363.668489,-14508.036463,-612.876398,4515.256246
1363.668800,-9696.697840,-2145.067394,3256.906145
1363.669112,-4071.132681,-4596.572988,3108.864956
1363.669423,74.020594,-5515.887586,1924.535449
1363.669735,1036.288319,-3524.039291,-74.020594
1363.670046,296.082377,766.095498,-2294.638420
1363.670358,-2368.659014,4290.134789,-3775.050304
1363.670669,-7476.080014,4826.401637,-4441.235652
1363.670981,-11621.233289,3753.867940,-2368.659014
1363.671292,-16358.551318,1225.752797,148.041188
1363.671603,-19319.375086,-1991.848295,3404.947333
1363.671915,-18949.272115,-1225.752797,4589.276840
1363.672226,-15618.345376,-306.438199,3849.070898
1363.672538,-9178.553681,-1302.362347,3627.009116
1363.672849,-3404.947333,-4060.306139,2960.823768
1363.673161,1184.329507,-5745.716235,1258.350101
1363.673472,2516.700203,-3753.867940,-1110.308913
1363.673783,148.041188,766.095498,-3404.947333
1363.674095,-4219.173869,4290.134789,-4811.338623
1363.674406,-10658.965565,6205.373534,-4145.153275
1363.674718,-15026.180623,4443.353888,-1776.494261
1363.675029,-18135.045579,1762.019645,962.267725
1363.675341,-19023.292709,689.485948,2886.803174
1363.675652,-17690.922014,1532.190996,4293.194464
1363.675963,-13545.768739,1685.410096,3849.070898
1363.676275,-7476.080014,-536.266849,3404.947333
1363.676586,-2590.720797,-2757.943793,2516.700203
1363.676898,592.164754,-3753.867940,-370.102971
1363.677209,740.205942,-459.657299,-2960.823768
1363.677521,-2368.659014,3907.087040,-5921.647536
1363.677832,-5329.482782,7048.078582,-5847.626942
1363.678144,-9992.780217,6205.373534,-3849.070898
1363.678455,-14656.077652,2757.943793,-962.267725
1363.678766,-18505.148550,-536.266849,2516.700203
1363.679078,-19911.539840,-1225.752797,4589.276840
1363.679389,-17542.880825,0.000000,5551.544565
1363.679701,-12657.521608,536.266849,4441.235652
1363.680012,-5773.606348,-612.876398,3108.864956
1363.680324,-222.061783,-3370.820191,1924.535449
1363.680635,2812.782580,-4826.401637,-444.123565
1363.680946,1924.535449,-2451.505594,-2368.659014
1363.681258,-2738.761985,1455.581446,-3404.947333
1363.681569,-8290.306550,2834.553343,-3627.009116
1363.681881,-11917.315666,3140.991542,-1776.494261
1363.682192,-15840.407159,459.657299,-74.020594
1363.682504,-18209.066173,-2528.115143,2590.720797
1363.682815,-17394.839637,-2757.943793,4293.194464
1363.683126,-15248.242405,-842.705048,3775.050304
1363.683438,-10140.821405,0.000000,3404.947333
1363.683749,-6069.688724,-2374.896044,3182.885551
1363.684061,-1480.411884,-4290.134789,2146.597232
1363.684372,1258.350101,-4673.182538,666.185348
1363.684684,740.205942,-2145.067394,-1036.288319
1363.684995,-2072.576638,2374.896044,-2368.659014
1363.685307,-7624.121203,4596.572988,-3849.070898
1363.685618,-12657.521608,3370.820191,-2442.679609
1363.685929,-16580.613101,1915.238745,-888.247130
1363.686241,-18579.169144,-306.438199,1850.514855
1363.686552,-18949.272115,-229.828649,3552.988522
1363.686864,-16284.530724,-612.876398,4367.215058
1363.687175,-11621.233289,-2145.067394,3627.009116
1363.687487,-5773.606348,-3370.820191,3923.091493
1363.687798,-1036.288319,-4979.620737,3034.844362
1363.688109,1702.473667,-4673.182538,1332.370696
1363.688421,0.000000,-2451.505594,-1258.350101
1363.688732,-2664.741391,1302.362347,-3330.926739
1363.689044,-7105.977043,4213.525239,-4811.338623
1363.689355,-12287.418637,4290.134789,-3997.112087
1363.689667,-15914.427753,2374.896044,-888.247130
1363.689978,-18949.272115,-459.657299,1480.411884
1363.690289,-19245.354492,-1225.752797,4219.173869
1363.690601,-16062.468941,229.828649,4367.215058
1363.690912,-11103.089130,-536.266849,3627.009116
1363.691224,-4885.359217,-1532.190996,3923.091493
1363.691535,-740.205942,-4826.401637,1406.391290
1363.691847,1628.453072,-3064.381992,-1110.308913
1363.692158,370.102971,1072.533697,-4367.215058
1363.692470,-3330.926739,5056.230287,-4737.318029
1363.692781,-8512.368333,6205.373534,-4367.215058
1363.693092,-13767.830521,5209.449386,-2294.638420
1363.693404,-17394.839637,2298.286494,444.123565
1363.693715,-19097.313304,153.219100,3108.864956
1363.694027,-17987.004391,0.000000,4145.153275
1363.694338,-13989.892304,1378.971896,3478.967927
1363.694650,-7550.100608,1302.362347,2220.617826
1363.694961,-1850.514855,-766.095498,1850.514855
1363.695272,2220.617826,-2834.553343,148.041188
1363.695584,2516.700203,-2834.553343,-1184.329507
1363.695895,-888.247130,-229.828649,-2072.576638
1363.696207,-5625.565159,2987.772442,-3552.988522
1363.696518,-10955.047942,4290.134789,-3404.947333
1363.696830,-15026.180623,3600.648841,-1110.308913
1363.697141,-17987.004391,383.047749,518.144159
1363.697453,-18949.272115,-2221.676944,2886.803174
1363.697764,-17246.798449,-1378.971896,4515.256246
1363.698075,-13989.892304,-76.609550,3997.112087
1363.698387,-8586.388927,-995.924147,4071.132681
1363.698698,-2960.823768,-2757.943793,3256.906145
1363.699010,1480.411884,-4443.353888,1480.411884
1363.699321,2516.700203,-2911.162892,-296.082377
1363.699633,-1258.350101,153.219100,-2812.782580
1363.699944,-5847.626942,3907.087040,-4293.194464
1363.700255,-10807.006753,5439.278036,-3182.885551
1363.700567,-14656.077652,3447.429741,-962.267725
1363.700878,-18135.045579,153.219100,1184.329507
1363.701190,-19171.333898,-2451.505594,4145.153275
1363.701501,-16876.695478,-3447.429741,5033.400406
1363.701813,-12509.480420,-1532.190996,3775.050304
1363.702124,-7328.038826,-612.876398,3182.885551
1363.702435,-2664.741391,-2145.067394,1554.432478
1363.702747,1036.288319,-4290.134789,962.267725
1363.703058,2220.617826,-3830.477490,-0.000000
1363.703370,0.000000,-1149.143247,-2072.576638
1363.703681,-4811.338623,2451.505594,-2812.782580
1363.703993,-11325.150913,3140.991542,-2664.741391
1363.704304,-15544.324782,2068.457845,-666.185348
1363.704616,-18431.127956,0.000000,1554.432478
1363.704927,-19837.519246,-2221.676944,3849.070898
1363.705239,-18135.045579,-2221.676944,4885.359217
1363.705550,-13767.830521,-995.924147,3997.112087
1363.705862,-7772.162391,-1685.410096,3997.112087
1363.706173,-2886.803174,-3753.867940,2294.638420
1363.706485,1406.391290,-4749.792088,666.185348
1363.706797,2146.597232,-2221.676944,-1850.514855
1363.707108,-370.102971,2068.457845,-3997.112087
1363.707420,-4589.276840,5439.278036,-4811.338623
1363.707731,-10584.944971,5898.935335,-4293.194464
1363.708043,-14582.057057,3677.258390,-1998.556043
1363.708354,-17542.880825,689.485948,962.267725
1363.708666,-19097.313304,-2145.067394,4071.132681
1363.708977,-16654.633695,-3370.820191,4811.338623
1363.709289,-12435.459826,-2681.334243,4071.132681
1363.709600,-6439.791695,-2987.772442,3256.906145
1363.709912,-1850.514855,-3753.867940,1776.494261
1363.710223,1628.453072,-3983.696590,-444.123565
1363.710535,1628.453072,-1762.019645,-2886.803174
1363.710846,-2146.597232,1149.143247,-4441.235652
1363.711158,-6291.750507,5669.106685,-4663.297435
1363.711470,-11843.295072,5592.497135,-3923.091493
1363.711781,-16284.530724,2528.115143,-1258.350101
1363.712093,-19615.457463,-612.876398,2220.617826
1363.712404,-20059.581028,-1762.019645,4293.194464
1363.712716,-18283.086767,153.219100,3849.070898
1363.713027,-13619.789333,1378.971896,2960.823768
1363.713339,-6587.832884,306.438199,2368.659014
1363.713650,-444.123565,-2374.896044,1036.288319
1363.713962,2220.617826,-2681.334243,-1628.453072
1363.714273,1628.453072,-1302.362347,-2960.823768
1363.714585,-2294.638420,2987.772442,-4367.215058
1363.714896,-7105.977043,5975.544884,-4589.276840
1363.715208,-11769.274478,5898.935335,-2664.741391
1363.715519,-15396.283594,3140.991542,-148.041188
1363.715831,-17912.983796,-1072.533697,2368.659014
1363.716142,-18209.066173,-3370.820191,4959.379811
1363.716454,-15914.427753,-3830.477490,5403.503377
1363.716766,-11399.171507,-3294.210641,4219.173869
1363.717077,-6365.771101,-3753.867940,3997.112087
1363.717389,-888.247130,-5439.278036,2220.617826
1363.717700,1850.514855,-6741.640382,370.102971
1363.718012,1480.411884,-4826.401637,-1628.453072
1363.718323,-814.226536,-1455.581446,-2368.659014
1363.718635,-6069.688724,766.095498,-3034.844362
1363.718946,-11473.192101,1455.581446,-1554.432478
1363.719258,-15766.386565,306.438199,-0.000000
1363.719569,-17468.860231,-1685.410096,3034.844362
1363.719881,-16580.613101,-2681.334243,5255.462188
1363.720192,-14952.160028,-2757.943793,4885.359217
1363.720504,-11917.315666,-3753.867940,4293.194464
1363.720815,-6661.853478,-4213.525239,4145.153275
1363.721127,-2960.823768,-4213.525239,1110.308913
1363.721439,-1036.288319,-3524.039291,-962.267725
1363.721750,-444.123565,-1378.971896,-3182.885551
1363.722062,-1998.556043,0.000000,-5033.400406
1363.722373,-5033.400406,1149.143247,-4663.297435
1363.722685,-9770.718434,-383.047749,-2960.823768
1363.722996,-14285.974681,-1302.362347,-148.041188
1363.723308,-17246.798449,-4136.915689,3775.050304
1363.723619,-17764.942608,-6358.592633,6587.832884
1363.723931,-16062.468941,-7507.735880,6957.935855
1363.724242,-12805.562797,-8350.440928,5181.441594
1363.724554,-8216.285956,-8273.831378,3552.988522
1363.724865,-4515.256246,-7277.907231,962.267725
1363.725177,-1184.329507,-4366.744339,-1332.370696
1363.725488,-74.020594,-1838.629195,-3775.050304
1363.725800,-1924.535449,-1608.800546,-4589.276840
1363.726112,-3997.112087,-1991.848295,-4071.132681
1363.726423,-8216.285956,-1838.629195,-2812.782580
1363.726735,-11843.295072,-1685.410096,-1332.370696
1363.727046,-15322.262999,-1838.629195,1184.329507
1363.727358,-17764.942608,-2374.896044,3478.967927
1363.727669,-17172.777854,-2757.943793,4663.297435
1363.727981,-15174.221811,-2911.162892,4293.194464
1363.728292,-10658.965565,-4519.963438,4071.132681
1363.728604,-6365.771101,-5286.058936,2368.659014
1363.728915,-2072.576638,-5056.230287,-0.000000
1363.729227,0.000000,-4060.306139,-3627.009116
1363.729538,0.000000,-2604.724693,-5773.606348
1363.729850,-2590.720797,-1072.533697,-6291.750507
1363.730161,-6661.853478,0.000000,-5329.482782
1363.730473,-12139.377449,-1302.362347,-2590.720797
1363.730784,-16506.592507,-3600.648841,666.185348
1363.731096,-18431.127956,-4213.525239,3330.926739
1363.731408,-17838.963202,-5132.839837,5403.503377
1363.731719,-14582.057057,-5515.887586,5181.441594
1363.732031,-10510.924376,-5132.839837,3997.112087
1363.732342,-7550.100608,-4060.306139,2220.617826
1363.732654,-4885.359217,-2374.896044,518.144159
1363.732965,-3404.947333,0.000000,-1924.535449
1363.733277,-2738.761985,919.314598,-2590.720797
1363.733588,-3256.906145,689.485948,-3034.844362
1363.733900,-4589.276840,-383.047749,-2960.823768
1363.734211,-6439.791695,-1072.533697,-2590.720797
1363.734523,-8956.491898,-2298.286494,-1036.288319
1363.734834,-11473.192101,-3140.991542,1110.308913
1363.735146,-14656.077652,-5209.449386,3330.926739
1363.735457,-15840.407159,-5209.449386,4885.359217
1363.735769,-13915.871710,-5898.935335,5847.626942
1363.736081,-11843.295072,-5975.544884,5403.503377
1363.736392,-8068.244768,-5439.278036,3330.926739
1363.736704,-4885.359217,-4060.306139,962.267725
1363.737015,-2516.700203,-1915.238745,-1406.391290
1363.737327,-2294.638420,-995.924147,-3256.906145
1363.737638,-3256.906145,306.438199,-3849.070898
1363.737950,-5181.441594,0.000000,-3034.844362
1363.738261,-8438.347739,-919.314598,-1332.370696
1363.738573,-11177.109724,-2604.724693,1406.391290
1363.738884,-12731.542202,-4060.306139,3404.947333
1363.739196,-13841.851115,-4749.792088,4811.338623
1363.739507,-13915.871710,-4979.620737,5329.482782
1363.739819,-12509.480420,-4136.915689,4293.194464
1363.740130,-9918.759623,-2221.676944,2146.597232
1363.740442,-6883.915261,76.609550,-0.000000
1363.740754,-3923.091493,306.438199,-1332.370696
1363.741065,-2960.823768,76.609550,-2516.700203
1363.741377,-3034.844362,-612.876398,-2738.761985
1363.741688,-4367.215058,-1455.581446,-2516.700203
1363.742000,-7772.162391,-2604.724693,-1480.411884
1363.742311,-11251.130318,-4519.963438,296.082377
1363.742623,-13397.727550,-5669.106685,1998.556043
1363.742934,-14508.036463,-7048.078582,3478.967927
1363.743246,-14878.139434,-6358.592633,4071.132681
1363.743557,-13249.686362,-5898.935335,3701.029710
1363.743869,-11251.130318,-5439.278036,2960.823768
1363.744180,-8512.368333,-4290.134789,1554.432478
1363.744492,-5255.462188,-3140.991542,518.144159
1363.744803,-3330.926739,-1072.533697,-1184.329507
1363.745115,-3330.926739,-1225.752797,-2442.679609
1363.745427,-4737.318029,306.438199,-3108.864956
1363.745738,-7031.956449,-229.828649,-2886.803174
1363.746050,-9400.615463,-842.705048,-1554.432478
1363.746361,-11473.192101,-1685.410096,148.041188
1363.746673,-13175.665768,-2987.772442,1850.514855
1363.746984,-13989.892304,-4519.963438,2812.782580
1363.747296,-12509.480420,-4366.744339,2960.823768
1363.747607,-11769.274478,-4290.134789,1850.514855
1363.747919,-7105.977043,-3217.601092,1554.432478
1363.748230,-6957.935855,-3753.867940,-1036.288319
1363.748542,-4885.359217,-3064.381992,-1702.473667
1363.748853,-3627.009116,-2374.896044,-2590.720797
1363.749165,-5625.565159,-3370.820191,-2220.617826
1363.749476,-8956.491898,-4290.134789,-518.144159
1363.749788,-13101.645173,-4826.401637,666.185348
1363.750099,-12583.501014,-3600.648841,2220.617826
1363.750411,-12879.583391,-2987.772442,3478.967927
1363.750723,-12657.521608,-4290.134789,4145.153275
1363.751034,-11029.068536,-5056.230287,3256.906145
1363.751346,-8586.388927,-3983.696590,2590.720797
1363.751657,-6513.812290,-1685.410096,2072.576638
1363.751969,-6957.935855,306.438199,1332.370696
1363.752280,-8882.471304,842.705048,-148.041188
1363.752592,-7772.162391,919.314598,296.082377
1363.752903,-6957.935855,-306.438199,-222.061783
1363.753215,-5477.523971,383.047749,888.247130
1363.753526,-6439.791695,153.219100,888.247130
1363.753838,-8734.430116,-2528.115143,2368.659014
1363.754149,-9992.780217,-4903.011187,4959.379811
1363.754461,-11695.253884,-5286.058936,5995.668130
1363.754772,-11325.150913,-2221.676944,7994.224174
1363.755084,-13767.830521,-2834.553343,6735.874072
1363.755396,-11547.212695,-2068.457845,7179.997637
1363.755707,-7550.100608,0.000000,3627.009116
1363.756019,-5255.462188,2374.896044,2738.761985
1363.756330,-4145.153275,2911.162892,1332.370696
1363.756642,-4441.235652,1608.800546,444.123565
1363.756953,-6439.791695,1072.533697,814.226536
1363.757265,-5847.626942,1302.362347,3552.988522
1363.757576,-10214.842000,536.266849,3034.844362
1363.757888,-12731.542202,-306.438199,6217.729913
1363.758199,-12805.562797,-766.095498,7772.162391
1363.758511,-10584.944971,-2374.896044,7550.100608
1363.758822,-8438.347739,-1838.629195,7846.182985
1363.759134,-8882.471304,-842.705048,5847.626942
1363.759445,-7105.977043,76.609550,4811.338623
1363.759757,-5403.503377,1225.752797,2368.659014
1363.760069,-3923.091493,1838.629195,1924.535449
1363.760380,-5699.585753,3294.210641,740.205942
1363.760692,-8438.347739,2298.286494,2516.700203
1363.761003,-9474.636058,766.095498,3997.112087
1363.761315,-9770.718434,-1149.143247,5773.606348
1363.761626,-10214.842000,-2451.505594,6883.915261
1363.761938,-10510.924376,-3600.648841,7031.956449
1363.762249,-9622.677246,-3677.258390,6439.791695
1363.762561,-7846.182985,-1685.410096,5477.523971
1363.762872,-7254.018232,306.438199,3923.091493
1363.763184,-8364.327145,1991.848295,2886.803174
1363.763495,-9622.677246,2068.457845,2146.597232
1363.763807,-8660.409521,3524.039291,2294.638420
1363.764118,-6883.915261,3677.258390,1554.432478
1363.764430,-6957.935855,2604.724693,2294.638420
1363.764741,-6957.935855,536.266849,2368.659014
1363.765053,-7105.977043,-459.657299,3108.864956
1363.765365,-6513.812290,-919.314598,3552.988522
1363.765676,-7328.038826,-1991.848295,4219.173869
1363.765988,-9474.636058,-2451.505594,4737.318029
1363.766299,-11251.130318,-2451.505594,4293.194464
1363.766611,-10881.027347,-1838.629195,4293.194464
1363.766922,-10658.965565,-1149.143247,3330.926739
1363.767234,-10436.903782,-306.438199,2442.679609
1363.767545,-10436.903782,536.266849,1258.350101
1363.767857,-9474.636058,766.095498,740.205942
1363.768168,-7846.182985,1225.752797,1332.370696
1363.768480,-8364.327145,842.705048,1924.535449
1363.768791,-9992.780217,-229.828649,3701.029710
1363.769103,-10510.924376,-1991.848295,4219.173869
1363.769414,-10807.006753,-2451.505594,5033.400406
1363.769726,-9252.574275,-1838.629195,5329.482782
1363.770038,-8734.430116,-1915.238745,4367.215058
1363.770349,-7698.141797,-1838.629195,2590.720797
1363.770661,-6809.894666,-229.828649,814.226536
1363.770972,-6661.853478,1762.019645,-296.082377
1363.771284,-7772.162391,3370.820191,-370.102971
1363.771595,-9918.759623,3294.210641,-0.000000
1363.771907,-11695.253884,2528.115143,1554.432478
1363.772218,-12213.398043,1302.362347,3775.050304
1363.772530,-11621.233289,-459.657299,4663.297435
1363.772841,-10732.986159,-1532.190996,5699.585753
1363.773153,-8956.491898,-2604.724693,5255.462188
1363.773464,-6735.874072,-2681.334243,4219.173869
1363.773776,-5255.462188,-2451.505594,2886.803174
1363.774087,-4663.297435,-1532.190996,1850.514855
1363.774399,-6291.750507,-383.047749,666.185348
1363.774711,-8660.409521,689.485948,1554.432478
1363.775022,-10881.027347,1685.410096,3034.844362
1363.775334,-12139.377449,1915.238745,4367.215058
1363.775645,-12213.398043,1608.800546,5181.441594
1363.775957,-10510.924376,766.095498,5181.441594
1363.776268,-7624.121203,383.047749,4441.235652
1363.776580,-5033.400406,-689.485948,3256.906145
1363.776891,-4663.297435,-459.657299,2294.638420
1363.777203,-5847.626942,-383.047749,1554.432478
1363.777514,-7031.956449,153.219100,2516.700203
1363.777826,-9992.780217,229.828649,2960.823768
1363.778137,-12361.439231,383.047749,4219.173869
1363.778449,-14063.912898,306.438199,4515.256246
1363.778760,-11325.150913,536.266849,4737.318029
1363.779072,-8808.450710,536.266849,3552.988522
1363.779383,-6883.915261,0.000000,3552.988522
1363.779695,-6439.791695,-612.876398,3552.988522
1363.780007,-6735.874072,-459.657299,4145.153275
1363.780318,-8438.347739,0.000000,5551.544565
1363.780630,-10955.047942,612.876398,7031.956449
1363.780941,-11991.336260,-612.876398,7994.224174
1363.781253,-10288.862594,0.000000,7402.059420
1363.781564,-8512.368333,-153.219100,5329.482782
1363.781876,-5847.626942,1149.143247,3182.885551
1363.782187,-4589.276840,3140.991542,1110.308913
1363.782499,-4515.256246,2987.772442,-370.102971
1363.782810,-5625.565159,2834.553343,-0.000000
1363.783122,-8512.368333,1991.848295,1406.391290
1363.783433,-11103.089130,1378.971896,3478.967927
1363.783745,-12361.439231,-612.876398,5921.647536
1363.784056,-12213.398043,-3140.991542,7624.121203
1363.784368,-12361.439231,-4673.182538,8734.430116
1363.784680,-10436.903782,-3677.258390,8216.285956
1363.784991,-8068.244768,-2528.115143,6587.832884
1363.785303,-6661.853478,-766.095498,4589.276840
1363.785614,-5403.503377,1302.362347,2072.576638
1363.785926,-3997.112087,2911.162892,-148.041188
1363.786237,-3330.926739,4213.525239,-962.267725
1363.786549,-3997.112087,4136.915689,-518.144159
1363.786860,-5699.585753,2374.896044,592.164754
1363.787172,-7994.224174,1072.533697,1554.432478
1363.787483,-10881.027347,-229.828649,2442.679609
1363.787795,-12657.521608,-536.266849,3775.050304
1363.788106,-13915.871710,-919.314598,3627.009116
1363.788418,-12879.583391,-612.876398,2960.823768
1363.788729,-11029.068536,-689.485948,2294.638420
1363.789041,-9252.574275,-1149.143247,2516.700203
1363.789353,-7698.141797,-306.438199,1998.556043
1363.789664,-6143.709319,229.828649,1332.370696
1363.789976,-4737.318029,0.000000,148.041188
1363.790287,-4293.194464,-612.876398,-1480.411884
1363.790599,-3330.926739,612.876398,-2738.761985
1363.790910,-4885.359217,842.705048,-4071.132681
1363.791222,-8660.409521,766.095498,-3256.906145
1363.791533,-13323.706956,-1072.533697,-1036.288319
1363.791845,-17616.901420,-2374.896044,1702.473667
1363.792156,-19837.519246,-1991.848295,3256.906145
1363.792468,-19393.395680,-1455.581446,4071.132681
1363.792779,-15988.448347,-1072.533697,3627.009116
1363.793091,-11029.068536,-536.266849,1258.350101
1363.793402,-6069.688724,1685.410096,-592.164754
1363.793714,-1628.453072,2221.676944,-2146.597232
1363.794026,-148.041188,1991.848295,-4219.173869
1363.794337,-814.226536,2145.067394,-4441.235652
1363.794649,-2738.761985,919.314598,-4367.215058
1363.794960,-5477.523971,-1225.752797,-3627.009116
1363.795272,-9696.697840,-1915.238745,-1702.473667
1363.795583,-14508.036463,-1838.629195,666.185348
1363.795895,-19763.498651,-1991.848295,4367.215058
1363.796206,-22354.219448,-2757.943793,6735.874072
1363.796518,-21021.848753,-2374.896044,6735.874072
1363.796829,-15174.221811,-383.047749,5403.503377
1363.797141,-5107.421000,842.705048,1332.370696
1363.797452,3034.844362,1455.581446,-2590.720797
1363.797764,7328.038826,1915.238745,-6365.771101
1363.798075,6883.915261,2681.334243,-7402.059420
1363.798387,888.247130,3447.429741,-5551.544565
1363.798698,-7105.977043,2221.676944,-2664.741391
1363.799010,-15322.262999,0.000000,296.082377
1363.799322,-21317.931130,-1838.629195,3701.029710
1363.799633,-23168.445985,-1915.238745,5847.626942
1363.799945,-19837.519246,-1378.971896,5773.606348
1363.800256,-14952.160028,-459.657299,4811.338623
1363.800568,-9548.656652,459.657299,3997.112087
1363.800879,-3627.009116,919.314598,1036.288319
1363.801191,1776.494261,1149.143247,-592.164754
1363.801502,3330.926739,1608.800546,-2442.679609
1363.801814,2146.597232,3217.601092,-3404.947333
1363.802125,-814.226536,2604.724693,-4367.215058
1363.802437,-5181.441594,766.095498,-4589.276840
1363.802748,-10510.924376,-1149.143247,-2812.782580
1363.803060,-16876.695478,-995.924147,222.061783
1363.803371,-22724.322419,-1915.238745,3552.988522
1363.803683,-25315.043216,-2145.067394,6883.915261
1363.803995,-23982.672521,-1762.019645,8216.285956
1363.804306,-17468.860231,-1072.533697,8512.368333
1363.804618,-8734.430116,-689.485948,5551.544565
1363.804929,1184.329507,306.438199,1184.329507
1363.805241,8364.327145,1455.581446,-3997.112087
1363.805552,10955.047942,3447.429741,-7698.141797
1363.805864,6883.915261,3064.381992,-8512.368333
1363.806175,-1776.494261,2221.676944,-6661.853478
1363.806487,-11843.295072,612.876398,-2590.720797
1363.806798,-21762.054695,-1532.190996,2664.741391
1363.807110,-28127.825796,-2374.896044,6587.832884
1363.807421,-28423.908173,-2987.772442,9474.636058
1363.807733,-22798.343014,-3064.381992,10214.842000
1363.808045,-15174.221811,-3140.991542,8068.244768
1363.808356,-5847.626942,-1762.019645,5255.462188
1363.808668,3478.967927,-766.095498,1850.514855
1363.808979,8586.388927,383.047749,-2738.761985
1363.809291,11251.130318,2987.772442,-5255.462188
1363.809602,6883.915261,3294.210641,-6957.935855
1363.809914,-296.082377,1608.800546,-5921.647536
1363.810226,-8438.347739,-306.438199,-2590.720797
1363.810537,-17764.942608,-1302.362347,1554.432478
1363.810849,-24796.899057,-1915.238745,5477.523971
1363.811160,-27905.764013,-3064.381992,8586.388927
1363.811472,-24648.857869,-3217.601092,10288.862594
1363.811783,-17024.736666,-1762.019645,8364.327145
1363.812095,-6735.874072,-459.657299,4885.359217
1363.812406,2886.803174,612.876398,-370.102971
1363.812718,10140.821405,1838.629195,-4885.359217
1363.813030,12065.356855,4903.011187,-8438.347739
1363.813341,7698.141797,4903.011187,-9918.759623
1363.813653,-592.164754,2987.772442,-9252.574275
1363.813964,-11029.068536,1149.143247,-5995.668130
1363.814276,-21021.848753,-612.876398,-1480.411884
1363.814587,-27165.558071,-1991.848295,3627.009116
1363.814899,-30126.381839,-3983.696590,5995.668130
1363.815211,-27017.516883,-4366.744339,7550.100608
1363.815522,-19615.457463,-1915.238745,5921.647536
1363.815834,-8882.471304,-1302.362347,3552.988522
1363.816145,1480.411884,459.657299,-1110.308913
1363.816457,8364.327145,1225.752797,-5255.462188
1363.816768,11029.068536,2757.943793,-9104.533087
1363.817080,8068.244768,3907.087040,-10881.027347
1363.817391,518.144159,3370.820191,-11177.109724
1363.817703,-9844.739029,1762.019645,-6809.894666
1363.818015,-19245.354492,-689.485948,-2368.659014
1363.818326,-26869.475695,-2298.286494,2442.679609
1363.818638,-30126.381839,-4136.915689,6365.771101
1363.818949,-28127.825796,-4519.963438,7920.203579
1363.819261,-21243.910535,-2757.943793,6513.812290
1363.819572,-10214.842000,-1762.019645,4589.276840
1363.819884,592.164754,-383.047749,296.082377
1363.820196,8512.368333,0.000000,-2886.803174
1363.820507,10288.862594,2068.457845,-7105.977043
1363.820819,8586.388927,3677.258390,-8364.327145
1363.821130,2368.659014,2068.457845,-9474.636058
1363.821442,-6069.688724,306.438199,-7476.080014
1363.821753,-16358.551318,-306.438199,-4293.194464
1363.822065,-24278.754898,-1225.752797,2294.638420
1363.822376,-31088.649564,-3294.210641,8216.285956
1363.822688,-31680.814318,-4749.792088,11843.295072
1363.823000,-24574.837274,-4903.011187,11843.295072
1363.823311,-12583.501014,-3753.867940,10288.862594
1363.823623,1406.391290,-1455.581446,4293.194464
1363.823934,12731.542202,1378.971896,-3478.967927
1363.824246,17838.963202,3370.820191,-9548.656652
1363.824557,15100.201217,5822.325785,-11917.315666
1363.824869,5773.606348,5669.106685,-9844.739029
1363.825180,-7624.121203,3600.648841,-6513.812290
1363.825492,-21391.951724,1685.410096,-296.082377
1363.825804,-31014.628970,153.219100,6735.874072
1363.826115,-33309.267390,-2374.896044,11251.130318
1363.826427,-29608.237680,-3907.087040,12879.583391
1363.826738,-19023.292709,-3447.429741,11843.295072
1363.827050,-6291.750507,-3524.039291,6291.750507
1363.827361,5625.565159,-1532.190996,1924.535449
1363.827673,12583.501014,1072.533697,-2812.782580
1363.827985,13397.727550,2834.553343,-7550.100608
1363.828296,7698.141797,5592.497135,-8438.347739
1363.828608,-592.164754,4903.011187,-6439.791695
1363.828919,-10881.027347,2451.505594,-5403.503377
1363.829231,-21317.931130,0.000000,-148.041188
1363.829542,-27683.702231,-919.314598,5107.421000
1363.829854,-29016.072926,-3753.867940,9696.697840
1363.830165,-26425.352129,-6511.811733,11547.212695
1363.830477,-19837.519246,-5975.544884,12065.356855
1363.830789,-6883.915261,-5822.325785,7698.141797
1363.831100,4441.235652,-2681.334243,4219.173869
1363.831412,10362.883188,842.705048,-2146.597232
1363.831723,11843.295072,3064.381992,-7031.956449
1363.832035,7031.956449,6052.154434,-9474.636058
1363.832346,-1184.329507,5975.544884,-9844.739029
1363.832658,-10362.883188,4749.792088,-7698.141797
1363.832970,-20429.683999,2451.505594,-2368.659014
1363.833281,-26129.269753,-459.657299,2368.659014
1363.833593,-28497.928767,-4596.572988,7254.018232
1363.833904,-24722.878463,-6588.421283,9918.759623
1363.834216,-16358.551318,-5592.497135,10510.924376
1363.834527,-6365.771101,-3753.867940,8216.285956
1363.834839,-222.061783,-4060.306139,4145.153275
1363.835150,7105.977043,76.609550,-1924.535449
1363.835462,10510.924376,3217.601092,-7402.059420
1363.835774,6661.853478,5592.497135,-10214.842000
1363.836085,-962.267725,5286.058936,-11251.130318
1363.836397,-8660.409521,3677.258390,-9770.718434
1363.836708,-17764.942608,1532.190996,-4145.153275
1363.837020,-24574.837274,-536.266849,1776.494261
1363.837331,-28201.846390,-3983.696590,6439.791695
1363.837643,-26425.352129,-4979.620737,10288.862594
1363.837955,-19689.478057,-3907.087040,10362.883188
1363.838266,-11843.295072,-2911.162892,7698.141797
1363.838578,-592.164754,-1455.581446,2146.597232
1363.838889,9178.553681,1455.581446,-3108.864956
1363.839201,10955.047942,4366.744339,-8364.327145
1363.839512,7550.100608,4136.915689,-11399.171507
1363.839824,444.123565,4979.620737,-11029.068536
1363.840135,-8734.430116,4519.963438,-10436.903782
1363.840447,-18801.230927,1991.848295,-4145.153275
1363.840759,-26647.413912,-1685.410096,2886.803174
1363.841070,-29016.072926,-5056.230287,7698.141797
1363.841382,-27091.537477,-6128.763984,12435.459826
1363.841693,-20651.745782,-6052.154434,11621.233289
1363.842005,-11177.109724,-4979.620737,8660.409521
1363.842316,0.000000,-2681.334243,2220.617826
1363.842628,11695.253884,1762.019645,-2442.679609
1363.842940,11769.274478,4366.744339,-7698.141797
1363.843251,6365.771101,4826.401637,-10436.903782
1363.843563,-1924.535449,4979.620737,-8438.347739
1363.843874,-11547.212695,4366.744339,-7624.121203
1363.844186,-20651.745782,2604.724693,-1036.288319
1363.844497,-27535.661042,-842.705048,5773.606348
1363.844809,-27683.702231,-4826.401637,9474.636058
1363.845120,-23686.590144,-6128.763984,12879.583391
1363.845432,-16432.571912,-5822.325785,11769.274478
1363.845744,-5329.482782,-2604.724693,9400.615463
1363.846055,1702.473667,-1225.752797,5329.482782
1363.846367,10881.027347,2298.286494,2072.576638
1363.846678,13249.686362,3677.258390,-5033.400406
1363.846990,8734.430116,3983.696590,-9326.594869
1363.847301,740.205942,4903.011187,-7920.203579
1363.847613,-8142.265362,5515.887586,-7105.977043
1363.847924,-19245.354492,2451.505594,-1554.432478
1363.848236,-27831.743419,-1608.800546,5403.503377
1363.848548,-29608.237680,-5745.716235,11103.089130
1363.848859,-24722.878463,-7507.735880,13989.892304
1363.849171,-14656.077652,-6665.030833,12583.501014
1363.849482,-2960.823768,-4366.744339,8956.491898
1363.849794,4071.132681,-2987.772442,5107.421000
1363.850105,10807.006753,1378.971896,-518.144159
1363.850417,8882.471304,5745.716235,-6439.791695
1363.850729,2738.761985,6588.421283,-8808.450710
1363.851040,-5255.462188,6511.811733,-7328.038826
1363.851352,-11991.336260,6665.030833,-7550.100608
1363.851663,-19245.354492,3907.087040,-2886.803174
1363.851975,-23982.672521,-153.219100,2664.741391
1363.852286,-24278.754898,-4979.620737,7624.121203
1363.852598,-20799.786970,-6435.202183,10584.944971
1363.852909,-15248.242405,-4903.011187,10732.986159
1363.853221,-6217.729913,-3983.696590,8808.450710
1363.853533,-148.041188,-1608.800546,5255.462188
1363.853844,5033.400406,2451.505594,-814.226536
1363.854156,8068.244768,5132.839837,-6809.894666
1363.854467,3997.112087,5592.497135,-11991.336260
1363.854779,-2516.700203,4826.401637,-9770.718434
1363.855090,-11029.068536,4749.792088,-8660.409521
1363.855402,-17690.922014,1685.410096,-2886.803174
1363.855714,-24944.940245,-3064.381992,2886.803174
1363.856025,-27017.516883,-7201.297681,7624.121203
1363.856337,-22502.260637,-6128.763984,8364.327145
1363.856648,-13767.830521,-3370.820191,8068.244768
1363.856960,-3034.844362,-4213.525239,6587.832884
1363.857271,1776.494261,-2528.115143,3997.112087
1363.857583,4367.215058,995.924147,-1480.411884
1363.857894,4811.338623,4060.306139,-6513.812290
1363.858206,2368.659014,5515.887586,-9918.759623
1363.858518,-4145.153275,5132.839837,-9178.553681
1363.858829,-11917.315666,4903.011187,-9178.553681
1363.859141,-17172.777854,1838.629195,-3701.029710
1363.859452,-23168.445985,-2374.896044,1184.329507
1363.859764,-24944.940245,-5745.716235,6661.853478
1363.860075,-22798.343014,-5056.230287,9474.636058
1363.860387,-16654.633695,-4136.915689,10214.842000
1363.860699,-5625.565159,-4136.915689,8216.285956
1363.861010,1480.411884,-1378.971896,5255.462188
1363.861322,7254.018232,2068.457845,-740.205942
1363.861633,11103.089130,4519.963438,-5255.462188
1363.861945,5847.626942,4290.134789,-10510.924376
1363.862256,-2220.617826,4673.182538,-9030.512492
1363.862568,-13027.624579,4673.182538,-8068.244768
1363.862879,-20429.683999,1685.410096,-2220.617826
1363.863191,-27387.619854,-2604.724693,3775.050304
1363.863503,-27165.558071,-5898.935335,8956.491898
1363.863814,-21614.013506,-5132.839837,10732.986159
1363.864126,-12879.583391,-4673.182538,10288.862594
1363.864437,-1554.432478,-4519.963438,8142.265362
1363.864749,3108.864956,-1838.629195,6291.750507
1363.865060,6513.812290,2451.505594,740.205942
1363.865372,7105.977043,4903.011187,-4219.173869
1363.865684,2664.741391,5132.839837,-8438.347739
1363.865995,-4441.235652,5439.278036,-8216.285956
1363.866307,-12509.480420,5745.716235,-7550.100608
1363.866618,-18431.127956,2145.067394,-2146.597232
1363.866930,-25463.084405,-2834.553343,3775.050304
1363.867241,-26573.393318,-6435.202183,9918.759623
1363.867553,-22798.343014,-5898.935335,12583.501014
1363.867864,-14359.995275,-4136.915689,12139.377449
1363.868176,-2960.823768,-3370.820191,9030.512492
1363.868488,4737.318029,-153.219100,5773.606348
1363.868799,9548.656652,4596.572988,-1628.453072
1363.869111,10140.821405,6281.983084,-5847.626942
1363.869422,4145.153275,6358.592633,-9178.553681
1363.869734,-5477.523971,6128.763984,-7476.080014
1363.870045,-14656.077652,5439.278036,-5255.462188
1363.870357,-20651.745782,1072.533697,-296.082377
1363.870669,-25167.002028,-3447.429741,5033.400406
1363.870980,-23316.487173,-7354.516781,9992.780217
1363.871292,-17468.860231,-6052.154434,10732.986159
1363.871603,-9030.512492,-4749.792088,9992.780217
1363.871915,814.226536,-3447.429741,7402.059420
1363.872226,4145.153275,-2451.505594,4663.297435
1363.872538,7105.977043,2068.457845,-962.267725
1363.872849,5255.462188,5515.887586,-7105.977043
1363.873161,0.000000,5669.106685,-9992.780217
1363.873473,-7105.977043,5745.716235,-8438.347739
1363.873784,-14285.974681,4443.353888,-7328.038826
1363.874096,-20207.622217,-229.828649,-1480.411884
1363.874407,-24278.754898,-4826.401637,3108.864956
1363.874719,-22354.219448,-7890.783629,6513.812290
1363.875030,-16876.695478,-5286.058936,7105.977043
1363.875342,-10214.842000,-2528.115143,8068.244768
1363.875653,-1850.514855,-2451.505594,5477.523971
1363.875965,666.185348,-995.924147,3256.906145
1363.876277,3404.947333,2987.772442,-1332.370696
1363.876588,3108.864956,4903.011187,-6809.894666
1363.876900,0.000000,5515.887586,-10584.944971
1363.877211,-6069.688724,5209.449386,-10584.944971
1363.877523,-12435.459826,4443.353888,-9770.718434
1363.877834,-18653.189738,229.828649,-4959.379811
1363.878146,-25241.022622,-3217.601092,1480.411884
1363.878458,-26055.249158,-5209.449386,5699.585753
1363.878769,-22576.281231,-3524.039291,7846.182985
1363.879081,-14285.974681,-2604.724693,8882.471304
1363.879392,-2516.700203,-3294.210641,5551.544565
1363.879704,4737.318029,-1378.971896,1850.514855
1363.880015,8438.347739,1302.362347,-4441.235652
1363.880327,8216.285956,3447.429741,-8882.471304
1363.880638,2368.659014,4213.525239,-11473.192101
1363.880950,-8586.388927,2987.772442,-9622.677246
1363.881262,-17764.942608,2068.457845,-6957.935855
1363.881573,-23242.466579,-1455.581446,-1184.329507
1363.881885,-26499.372724,-5209.449386,3627.009116
1363.882196,-24722.878463,-6511.811733,7994.224174
1363.882508,-19837.519246,-5439.278036,7772.162391
