#time,accel_x,accel_y,accel_z
1327.447253,-8512.368333,153.219100,444.123565
1327.447564,-8808.450710,-229.828649,592.164754
1327.447876,-8586.388927,76.609550,518.144159
1327.448187,-8808.450710,0.000000,444.123565
1327.448499,-8956.491898,0.000000,518.144159
1327.448810,-9030.512492,0.000000,592.164754
1327.449122,-8882.471304,0.000000,592.164754
1327.449433,-8808.450710,76.609550,444.123565
1327.449745,-8808.450710,153.219100,296.082377
1327.450056,-9030.512492,0.000000,444.123565
1327.450368,-8734.430116,459.657299,222.061783
1327.450679,-9178.553681,-153.219100,444.123565
1327.450991,-8808.450710,-229.828649,814.226536
1327.451302,-9030.512492,0.000000,592.164754
1327.451614,-8956.491898,0.000000,592.164754
1327.451925,-8956.491898,0.000000,296.082377
1327.452237,-8808.450710,229.828649,888.247130
1327.452548,-9030.512492,229.828649,518.144159
1327.452860,-8956.491898,0.000000,-0.000000
1327.453171,-9030.512492,153.219100,518.144159
1327.453483,-8956.491898,-229.828649,592.164754
1327.453794,-8956.491898,0.000000,518.144159
1327.454106,-8882.471304,0.000000,592.164754
1327.454418,-8882.471304,229.828649,222.061783
1327.454729,-8882.471304,0.000000,518.144159
1327.455041,-8882.471304,0.000000,592.164754
1327.455352,-8808.450710,-153.219100,518.144159
1327.455664,-8882.471304,-153.219100,888.247130
1327.455975,-8882.471304,-306.438199,592.164754
1327.456287,-8956.491898,-229.828649,518.144159
1327.456598,-8808.450710,-229.828649,518.144159
1327.456910,-8734.430116,-153.219100,592.164754
1327.457221,-9252.574275,0.000000,518.144159
1327.457533,-9104.533087,459.657299,370.102971
1327.457844,-8660.409521,-612.876398,888.247130
1327.458156,-9104.533087,0.000000,592.164754
1327.458467,-8882.471304,0.000000,592.164754
1327.458779,-9030.512492,0.000000,444.123565
1327.459090,-9030.512492,-383.047749,518.144159
1327.459402,-8660.409521,-153.219100,370.102971
1327.459713,-9622.677246,0.000000,-148.041188
1327.460025,-9030.512492,153.219100,1184.329507
1327.460336,-8882.471304,0.000000,444.123565
1327.460648,-8808.450710,0.000000,518.144159
1327.460959,-8956.491898,0.000000,518.144159
1327.461271,-8882.471304,-153.219100,444.123565
1327.461582,-9030.512492,-229.828649,-0.000000
1327.461894,-8512.368333,229.828649,518.144159
1327.462205,-8660.409521,0.000000,518.144159
1327.462517,-8512.368333,-229.828649,444.123565
1327.462828,-9030.512492,0.000000,592.164754
1327.463140,-9030.512492,0.000000,518.144159
1327.463451,-8956.491898,0.000000,666.185348
1327.463763,-9030.512492,0.000000,592.164754
1327.464074,-8882.471304,-229.828649,-0.000000
1327.464386,-8586.388927,0.000000,518.144159
1327.464697,-8734.430116,76.609550,518.144159
1327.465009,-8364.327145,76.609550,740.205942
1327.465320,-8734.430116,-76.609550,518.144159
1327.465632,-8808.450710,-153.219100,518.144159
1327.465943,-9030.512492,0.000000,592.164754
1327.466255,-9104.533087,-383.047749,592.164754
1327.466566,-8808.450710,0.000000,518.144159
1327.466878,-8512.368333,0.000000,518.144159
1327.467189,-8956.491898,0.000000,592.164754
1327.467501,-8734.430116,0.000000,444.123565
1327.467812,-8882.471304,0.000000,518.144159
1327.468124,-9030.512492,0.000000,444.123565
1327.468435,-8956.491898,0.000000,592.164754
1327.468747,-9030.512492,-76.609550,592.164754
1327.469058,-9030.512492,-153.219100,296.082377
1327.469370,-9326.594869,0.000000,518.144159
1327.469681,-8734.430116,306.438199,592.164754
1327.469993,-9030.512492,0.000000,444.123565
1327.470304,-8956.491898,0.000000,666.185348
1327.470616,-9104.533087,0.000000,518.144159
1327.470927,-8956.491898,0.000000,444.123565
1327.471239,-8956.491898,0.000000,444.123565
1327.471550,-8586.388927,459.657299,592.164754
1327.471862,-8956.491898,-153.219100,370.102971
1327.472174,-8660.409521,0.000000,592.164754
1327.472485,-8956.491898,-229.828649,592.164754
1327.472797,-8660.409521,0.000000,592.164754
1327.473108,-8882.471304,-153.219100,518.144159
1327.473420,-8956.491898,0.000000,592.164754
1327.473731,-9030.512492,-229.828649,222.061783
1327.474043,-8586.388927,0.000000,444.123565
1327.474354,-9030.512492,0.000000,518.144159
1327.474666,-8956.491898,0.000000,-0.000000
1327.474977,-8882.471304,0.000000,592.164754
1327.475289,-8956.491898,0.000000,518.144159
1327.475600,-8734.430116,0.000000,444.123565
1327.475912,-8956.491898,0.000000,518.144159
1327.476223,-8956.491898,0.000000,592.164754
1327.476535,-8882.471304,0.000000,740.205942
1327.476846,-8956.491898,-536.266849,518.144159
1327.477158,-8808.450710,-229.828649,518.144159
1327.477469,-9030.512492,0.000000,592.164754
1327.477781,-9030.512492,0.000000,592.164754
1327.478092,-8956.491898,0.000000,592.164754
1327.478404,-8956.491898,-306.438199,518.144159
1327.478715,-8734.430116,459.657299,370.102971
1327.479027,-9474.636058,153.219100,-0.000000
1327.479338,-9104.533087,229.828649,962.267725
1327.479650,-9178.553681,-459.657299,518.144159
1327.479961,-9030.512492,0.000000,296.082377
1327.480273,-9030.512492,-229.828649,592.164754
1327.480584,-9252.574275,0.000000,518.144159
1327.480896,-11473.192101,306.438199,-0.000000
1327.481207,-11177.109724,2528.115143,370.102971
1327.481519,-8438.347739,4673.182538,444.123565
1327.481830,-7698.141797,3830.477490,740.205942
1327.482142,-6587.832884,842.705048,1480.411884
1327.482453,-6957.935855,-1455.581446,-0.000000
1327.482765,-7328.038826,-1072.533697,-148.041188
1327.483076,-7772.162391,-229.828649,-370.102971
1327.483388,-11991.336260,-1225.752797,-888.247130
1327.483699,-12435.459826,229.828649,-148.041188
1327.484011,-10066.800811,1072.533697,518.144159
1327.484322,-8882.471304,-306.438199,1554.432478
1327.484634,-9622.677246,-689.485948,2886.803174
1327.484945,-11917.315666,766.095498,1628.453072
1327.485257,-7846.182985,4596.572988,2442.679609
1327.485568,-4885.359217,5132.839837,1850.514855
1327.485880,-7624.121203,2911.162892,222.061783
1327.486191,-7328.038826,2451.505594,-666.185348
1327.486503,-7179.997637,3370.820191,-2368.659014
1327.486814,-8586.388927,3064.381992,-1036.288319
1327.487126,-9326.594869,3447.429741,-0.000000
1327.487437,-13471.748144,1991.848295,-1110.308913
1327.487749,-13545.768739,-689.485948,1554.432478
1327.488060,-8438.347739,-919.314598,2738.761985
1327.488372,-10140.821405,919.314598,814.226536
1327.488683,-7476.080014,5669.106685,2590.720797
1327.488995,-8438.347739,6128.763984,814.226536
1327.489306,-7476.080014,2987.772442,2516.700203
1327.489618,-5773.606348,4903.011187,2072.576638
1327.489929,-7994.224174,7124.688131,-222.061783
1327.490241,-8364.327145,7048.078582,-888.247130
1327.490553,-10436.903782,5592.497135,-1406.391290
1327.490864,-9474.636058,4826.401637,-1776.494261
1327.491176,-10140.821405,5439.278036,-592.164754
1327.491487,-11177.109724,4366.744339,222.061783
1327.491799,-11103.089130,3830.477490,1702.473667
1327.492110,-10955.047942,3830.477490,2220.617826
1327.492422,-8660.409521,5132.839837,2738.761985
1327.492733,-6661.853478,5132.839837,1776.494261
1327.493045,-5255.462188,5209.449386,296.082377
1327.493356,-4959.379811,5209.449386,-0.000000
1327.493668,-5329.482782,5745.716235,-666.185348
1327.493979,-6735.874072,4596.572988,-1554.432478
1327.494291,-8882.471304,4136.915689,-518.144159
1327.494602,-10214.842000,2451.505594,-296.082377
1327.494914,-10658.965565,1455.581446,296.082377
1327.495225,-10584.944971,919.314598,888.247130
1327.495537,-10955.047942,-383.047749,1776.494261
1327.495848,-10732.986159,383.047749,1776.494261
1327.496160,-9252.574275,2221.676944,1850.514855
1327.496471,-7624.121203,4136.915689,1406.391290
1327.496783,-6143.709319,3524.039291,444.123565
1327.497094,-6365.771101,2987.772442,-444.123565
1327.497406,-7105.977043,3524.039291,-740.205942
1327.497717,-6661.853478,4060.306139,-1332.370696
1327.498029,-7772.162391,1608.800546,-1406.391290
1327.498340,-10362.883188,-766.095498,-740.205942
1327.498652,-11621.233289,-2528.115143,370.102971
1327.498963,-12361.439231,-2757.943793,1110.308913
1327.499275,-13175.665768,-1915.238745,1998.556043
1327.499586,-13249.686362,-612.876398,1628.453072
1327.499898,-12435.459826,1149.143247,962.267725
1327.500209,-10510.924376,2757.943793,-0.000000
1327.500521,-8068.244768,3524.039291,-518.144159
1327.500832,-6069.688724,4826.401637,222.061783
1327.501144,-6365.771101,5209.449386,296.082377
1327.501455,-7031.956449,4903.011187,518.144159
1327.501767,-7920.203579,3140.991542,-148.041188
1327.502078,-9992.780217,1608.800546,-74.020594
1327.502390,-11991.336260,766.095498,-222.061783
1327.502701,-12805.562797,1072.533697,-296.082377
1327.503013,-13545.768739,153.219100,-444.123565
1327.503324,-13175.665768,1455.581446,148.041188
1327.503636,-11621.233289,2374.896044,1110.308913
1327.503947,-9474.636058,3294.210641,1850.514855
1327.504259,-6809.894666,4290.134789,2368.659014
1327.504570,-4367.215058,4903.011187,2072.576638
1327.504882,-2294.638420,5745.716235,296.082377
1327.505193,-2220.617826,6205.373534,-1480.411884
1327.505505,-3330.926739,5056.230287,-1924.535449
1327.505816,-7254.018232,3370.820191,-1776.494261
1327.506128,-11103.089130,2987.772442,-740.205942
1327.506439,-14063.912898,3447.429741,888.247130
1327.506751,-15396.283594,2834.553343,2738.761985
1327.507062,-14211.954086,2451.505594,3701.029710
1327.507374,-11177.109724,3447.429741,3997.112087
1327.507685,-6365.771101,3600.648841,2590.720797
1327.507997,-2886.803174,4136.915689,1110.308913
1327.508308,-1332.370696,5286.058936,-444.123565
1327.508620,-2368.659014,6971.469032,-2220.617826
1327.508932,-3923.091493,6358.592633,-1850.514855
1327.509243,-7179.997637,3600.648841,-1776.494261
1327.509555,-9326.594869,1149.143247,-0.000000
1327.509866,-11029.068536,-1225.752797,-0.000000
1327.510178,-11621.233289,-3217.601092,1184.329507
1327.510489,-11547.212695,-4519.963438,1554.432478
1327.510801,-11769.274478,-4366.744339,2220.617826
1327.511112,-11917.315666,-2987.772442,1850.514855
1327.511424,-12731.542202,-536.266849,1332.370696
1327.511735,-11843.295072,3140.991542,1702.473667
1327.512047,-9474.636058,5056.230287,1480.411884
1327.512358,-7254.018232,4826.401637,1850.514855
1327.512670,-6069.688724,2068.457845,444.123565
1327.512981,-4589.276840,76.609550,-148.041188
1327.513293,-6069.688724,-383.047749,-1554.432478
1327.513604,-8660.409521,383.047749,-1998.556043
1327.513916,-11695.253884,1225.752797,-2664.741391
1327.514227,-13027.624579,919.314598,-1110.308913
1327.514539,-13471.748144,459.657299,-0.000000
1327.514850,-12879.583391,-689.485948,1924.535449
1327.515162,-11769.274478,-842.705048,1924.535449
1327.515473,-10362.883188,-766.095498,1628.453072
1327.515785,-9844.739029,1302.362347,-148.041188
1327.516096,-8438.347739,2911.162892,-888.247130
1327.516408,-7179.997637,4060.306139,-1480.411884
1327.516719,-6365.771101,3064.381992,-888.247130
1327.517031,-7254.018232,459.657299,-222.061783
1327.517342,-7105.977043,-1149.143247,740.205942
1327.517654,-8660.409521,-1915.238745,962.267725
1327.517965,-9992.780217,-3140.991542,1554.432478
1327.518277,-10362.883188,-3370.820191,2146.597232
1327.518588,-9992.780217,-2987.772442,1776.494261
1327.518900,-8734.430116,-383.047749,962.267725
1327.519211,-7328.038826,1838.629195,148.041188
1327.519523,-6587.832884,2834.553343,-740.205942
1327.519834,-7920.203579,2987.772442,-1184.329507
1327.520145,-7328.038826,3447.429741,-370.102971
1327.520457,-7846.182985,2451.505594,-1628.453072
1327.520768,-8068.244768,2221.676944,-592.164754
1327.521080,-8290.306550,1532.190996,-74.020594
1327.521391,-8734.430116,-229.828649,1702.473667
1327.521703,-8438.347739,-2145.067394,3923.091493
1327.522014,-9548.656652,-4060.306139,4737.318029
1327.522325,-10732.986159,-3524.039291,4737.318029
1327.522637,-10066.800811,-1149.143247,2442.679609
1327.522948,-8882.471304,1072.533697,-444.123565
1327.523260,-6365.771101,2911.162892,-2442.679609
1327.523571,-5847.626942,3140.991542,-3108.864956
1327.523883,-6069.688724,2681.334243,-2368.659014
1327.524194,-6809.894666,1302.362347,-1480.411884
1327.524506,-9696.697840,-306.438199,518.144159
1327.524817,-12065.356855,-995.924147,1702.473667
1327.525128,-13767.830521,-1378.971896,2368.659014
1327.525440,-14211.954086,-995.924147,2590.720797
1327.525751,-12731.542202,-1378.971896,2886.803174
1327.526063,-11103.089130,-1072.533697,3404.947333
1327.526374,-9252.574275,-1072.533697,3182.885551
1327.526686,-6365.771101,-1072.533697,2590.720797
1327.526997,-6291.750507,-612.876398,518.144159
1327.527308,-6661.853478,-306.438199,-888.247130
1327.527620,-4515.256246,919.314598,-3034.844362
1327.527931,-4737.318029,1149.143247,-3775.050304
1327.528243,-6143.709319,-306.438199,-2220.617826
1327.528554,-7772.162391,-2451.505594,-370.102971
1327.528866,-10807.006753,-4290.134789,1776.494261
1327.529177,-12953.603985,-4903.011187,3256.906145
1327.529488,-14359.995275,-3064.381992,4367.215058
1327.529800,-15174.221811,-1225.752797,2960.823768
1327.530111,-13693.809927,1915.238745,2442.679609
1327.530423,-9696.697840,2451.505594,962.267725
1327.530734,-6217.729913,2451.505594,-74.020594
1327.531046,-4811.338623,2604.724693,-814.226536
1327.531357,-3478.967927,1532.190996,-1850.514855
1327.531668,-2960.823768,995.924147,-2368.659014
1327.531980,-4811.338623,766.095498,-2516.700203
1327.532291,-6809.894666,-383.047749,-1406.391290
1327.532603,-7698.141797,-689.485948,-1850.514855
1327.532914,-10214.842000,-2834.553343,-0.000000
1327.533226,-11769.274478,-2451.505594,1924.535449
1327.533537,-14063.912898,-2221.676944,2738.761985
1327.533848,-14582.057057,-229.828649,2886.803174
1327.534160,-14211.954086,1991.848295,2072.576638
1327.534471,-11251.130318,3753.867940,888.247130
1327.534783,-9622.677246,3370.820191,-814.226536
1327.535094,-6291.750507,4443.353888,-1702.473667
1327.535406,-4293.194464,2528.115143,-2886.803174
1327.535717,-4515.256246,229.828649,-1702.473667
1327.536028,-5329.482782,-1455.581446,-888.247130
1327.536340,-7402.059420,-2987.772442,-1332.370696
1327.536651,-9918.759623,-1762.019645,888.247130
1327.536963,-11547.212695,-2145.067394,1850.514855
1327.537274,-10214.842000,-2451.505594,1554.432478
1327.537586,-10288.862594,-2451.505594,2294.638420
1327.537897,-10140.821405,-2221.676944,1258.350101
1327.538208,-9400.615463,-459.657299,814.226536
1327.538520,-9252.574275,1532.190996,222.061783
1327.538831,-9844.739029,2987.772442,-1110.308913
1327.539143,-9252.574275,4060.306139,-740.205942
1327.539454,-9622.677246,2911.162892,-1036.288319
1327.539766,-9326.594869,1532.190996,814.226536
1327.540077,-7994.224174,-536.266849,2072.576638
1327.540388,-7846.182985,-2528.115143,2960.823768
1327.540700,-7994.224174,-3294.210641,2960.823768
1327.541011,-7031.956449,-2451.505594,1258.350101
1327.541323,-8364.327145,0.000000,1036.288319
1327.541634,-8660.409521,689.485948,444.123565
1327.541946,-7254.018232,229.828649,-666.185348
1327.542257,-8290.306550,-919.314598,-0.000000
1327.542568,-8586.388927,-612.876398,-0.000000
1327.542880,-9770.718434,153.219100,814.226536
1327.543191,-10807.006753,-306.438199,814.226536
1327.543503,-9696.697840,-536.266849,148.041188
1327.543814,-9104.533087,536.266849,1332.370696
1327.544126,-8364.327145,612.876398,1628.453072
1327.544437,-8142.265362,-1149.143247,2960.823768
1327.544748,-8290.306550,-2757.943793,3552.988522
1327.545060,-9326.594869,-3294.210641,4219.173869
1327.545371,-8216.285956,-1762.019645,2146.597232
1327.545683,-7476.080014,-229.828649,-592.164754
1327.545994,-7402.059420,995.924147,-2072.576638
1327.546306,-6957.935855,306.438199,-3034.844362
1327.546617,-6365.771101,0.000000,-2220.617826
1327.546928,-7698.141797,-2757.943793,-666.185348
1327.547240,-9474.636058,-2604.724693,962.267725
1327.547551,-11843.295072,-2298.286494,1998.556043
1327.547863,-13915.871710,-1685.410096,2664.741391
1327.548174,-12953.603985,-306.438199,2590.720797
1327.548486,-11917.315666,995.924147,1924.535449
1327.548797,-9696.697840,1838.629195,1924.535449
1327.549108,-7698.141797,1378.971896,444.123565
1327.549420,-6291.750507,689.485948,-222.061783
1327.549731,-5625.565159,842.705048,-1628.453072
1327.550043,-5255.462188,1455.581446,-3108.864956
1327.550354,-6143.709319,1915.238745,-3849.070898
1327.550666,-7402.059420,2298.286494,-3701.029710
1327.550977,-7550.100608,612.876398,-2442.679609
1327.551288,-8660.409521,-1225.752797,-296.082377
1327.551600,-11695.253884,-3217.601092,1702.473667
1327.551911,-13471.748144,-2757.943793,3330.926739
1327.552223,-14211.954086,-1455.581446,3108.864956
1327.552534,-13471.748144,-153.219100,2368.659014
1327.552846,-11621.233289,536.266849,1554.432478
1327.553157,-9104.533087,1532.190996,222.061783
1327.553468,-6217.729913,1915.238745,-0.000000
1327.553780,-4663.297435,-383.047749,-1110.308913
1327.554091,-4367.215058,-1149.143247,-296.082377
1327.554403,-6439.791695,-2145.067394,-666.185348
1327.554714,-7698.141797,-1915.238745,-1036.288319
1327.555026,-7402.059420,-1149.143247,-444.123565
1327.555337,-7772.162391,-995.924147,-74.020594
1327.555648,-8808.450710,-1991.848295,1258.350101
1327.555960,-9548.656652,-3064.381992,1998.556043
1327.556271,-10732.986159,-2911.162892,2368.659014
1327.556583,-11695.253884,-383.047749,2516.700203
1327.556894,-12139.377449,766.095498,2072.576638
1327.557206,-11917.315666,2221.676944,518.144159
1327.557517,-10658.965565,3370.820191,-444.123565
1327.557828,-8068.244768,2911.162892,-814.226536
1327.558140,-5995.668130,1991.848295,-74.020594
1327.558451,-5921.647536,842.705048,592.164754
1327.558763,-6809.894666,-1378.971896,888.247130
1327.559074,-7105.977043,-2221.676944,148.041188
1327.559386,-7698.141797,-612.876398,518.144159
1327.559697,-8586.388927,1225.752797,148.041188
1327.560008,-9474.636058,995.924147,444.123565
1327.560320,-10436.903782,-383.047749,1332.370696
1327.560631,-11621.233289,-1838.629195,1554.432478
1327.560943,-11325.150913,-842.705048,1924.535449
1327.561254,-10955.047942,153.219100,592.164754
1327.561566,-10955.047942,1149.143247,222.061783
1327.561877,-9178.553681,2298.286494,-0.000000
1327.562188,-8068.244768,1302.362347,-0.000000
1327.562500,-6587.832884,689.485948,1258.350101
1327.562811,-6069.688724,-612.876398,1998.556043
1327.563123,-6735.874072,-2068.457845,2072.576638
1327.563434,-7846.182985,-1608.800546,1554.432478
1327.563746,-8882.471304,-1302.362347,-0.000000
1327.564057,-7920.203579,1302.362347,-296.082377
1327.564368,-7254.018232,1072.533697,-296.082377
1327.564680,-7105.977043,0.000000,-518.144159
1327.564991,-8068.244768,-1532.190996,-296.082377
1327.565303,-9252.574275,-1838.629195,518.144159
1327.565614,-9030.512492,-383.047749,1258.350101
1327.565926,-10288.862594,1378.971896,592.164754
1327.566237,-11769.274478,1838.629195,444.123565
1327.566548,-11547.212695,2451.505594,-296.082377
1327.566860,-10288.862594,2528.115143,592.164754
1327.567171,-8290.306550,1991.848295,1480.411884
1327.567483,-7105.977043,153.219100,1554.432478
1327.567794,-6957.935855,-1838.629195,1184.329507
1327.568106,-7031.956449,-1991.848295,-0.000000
1327.568417,-7846.182985,-612.876398,-1554.432478
1327.568728,-7328.038826,536.266849,-2368.659014
1327.569040,-8290.306550,995.924147,-2960.823768
1327.569351,-8882.471304,-995.924147,-1480.411884
1327.569663,-10658.965565,-2528.115143,296.082377
1327.569974,-12435.459826,-2757.943793,1850.514855
1327.570286,-12879.583391,-1608.800546,2368.659014
1327.570597,-13101.645173,-383.047749,2220.617826
1327.570908,-11917.315666,459.657299,1776.494261
1327.571220,-10658.965565,1072.533697,1036.288319
1327.571531,-8216.285956,1685.410096,962.267725
1327.571843,-6661.853478,306.438199,888.247130
1327.572154,-5921.647536,-1302.362347,888.247130
1327.572466,-7031.956449,-2145.067394,370.102971
1327.572777,-8290.306550,-1762.019645,-148.041188
1327.573088,-7179.997637,-306.438199,-592.164754
1327.573400,-7402.059420,383.047749,-1110.308913
1327.573711,-7550.100608,-306.438199,-518.144159
1327.574023,-8808.450710,-842.705048,666.185348
1327.574334,-10510.924376,-2068.457845,1702.473667
1327.574646,-11103.089130,-842.705048,2516.700203
1327.574957,-11991.336260,919.314598,2738.761985
1327.575269,-11843.295072,2911.162892,1480.411884
1327.575580,-10732.986159,2681.334243,888.247130
1327.575891,-7698.141797,2604.724693,518.144159
1327.576203,-6365.771101,1991.848295,222.061783
1327.576514,-5033.400406,919.314598,1110.308913
1327.576826,-4441.235652,-306.438199,-222.061783
1327.577137,-6143.709319,-1149.143247,-740.205942
1327.577449,-6735.874072,0.000000,-518.144159
1327.577760,-6735.874072,689.485948,-1110.308913
1327.578071,-7920.203579,306.438199,-148.041188
1327.578383,-9400.615463,-1532.190996,814.226536
1327.578694,-10732.986159,-2451.505594,2368.659014
1327.579006,-10807.006753,-2451.505594,2886.803174
1327.579317,-11325.150913,-1762.019645,2664.741391
1327.579629,-12361.439231,-766.095498,1406.391290
1327.579940,-11251.130318,1072.533697,-0.000000
1327.580251,-9622.677246,2451.505594,-740.205942
1327.580563,-8216.285956,2451.505594,-1332.370696
1327.580874,-7031.956449,1838.629195,-222.061783
1327.581186,-7179.997637,-383.047749,222.061783
1327.581497,-7402.059420,-1225.752797,222.061783
1327.581809,-8364.327145,-995.924147,518.144159
1327.582120,-8142.265362,612.876398,-0.000000
1327.582431,-8290.306550,766.095498,-518.144159
1327.582743,-8216.285956,-306.438199,-296.082377
1327.583054,-8068.244768,-1149.143247,222.061783
1327.583366,-9622.677246,-1838.629195,-0.000000
1327.583677,-10955.047942,-306.438199,888.247130
1327.583989,-12953.603985,-153.219100,296.082377
1327.584300,-14137.933492,919.314598,-74.020594
1327.584611,-12213.398043,2757.943793,-148.041188
1327.584923,-10510.924376,3524.039291,-518.144159
1327.585234,-8216.285956,1685.410096,370.102971
1327.585546,-6291.750507,76.609550,1036.288319
1327.585857,-4811.338623,-1915.238745,1036.288319
1327.586169,-5329.482782,-1838.629195,962.267725
1327.586480,-8586.388927,-1532.190996,370.102971
1327.586791,-7920.203579,-995.924147,-0.000000
1327.587103,-7254.018232,766.095498,-962.267725
1327.587414,-7846.182985,-229.828649,-370.102971
1327.587726,-9252.574275,-1455.581446,-74.020594
1327.588037,-10362.883188,-1532.190996,1332.370696
1327.588349,-10807.006753,-1378.971896,1702.473667
1327.588660,-12213.398043,-689.485948,1628.453072
1327.588971,-11473.192101,1762.019645,888.247130
1327.589283,-10288.862594,4519.963438,-0.000000
1327.589594,-8734.430116,4060.306139,666.185348
1327.589906,-5921.647536,1532.190996,1702.473667
1327.590217,-5773.606348,0.000000,1924.535449
1327.590529,-5255.462188,0.000000,1628.453072
1327.590840,-7476.080014,-459.657299,740.205942
1327.591151,-7920.203579,153.219100,370.102971
1327.591463,-7624.121203,1149.143247,-1110.308913
1327.591774,-7105.977043,0.000000,-666.185348
1327.592086,-6883.915261,-1149.143247,-296.082377
1327.592397,-8882.471304,-766.095498,666.185348
1327.592709,-10584.944971,-995.924147,1258.350101
1327.593020,-12139.377449,-1685.410096,2146.597232
1327.593331,-13323.706956,0.000000,2368.659014
1327.593643,-11769.274478,2834.553343,1628.453072
1327.593954,-10436.903782,3064.381992,666.185348
1327.594266,-8512.368333,1302.362347,962.267725
1327.594577,-6513.812290,459.657299,1850.514855
1327.594889,-5699.585753,-689.485948,888.247130
1327.595200,-5921.647536,-1991.848295,148.041188
1327.595511,-7994.224174,-1378.971896,-0.000000
1327.595823,-8068.244768,-612.876398,-444.123565
1327.596134,-7994.224174,76.609550,-814.226536
1327.596446,-8512.368333,-1302.362347,-0.000000
1327.596757,-9400.615463,-1915.238745,962.267725
1327.597069,-10362.883188,-1838.629195,1554.432478
1327.597380,-10214.842000,-1378.971896,2442.679609
1327.597691,-11177.109724,-1685.410096,1702.473667
1327.598003,-11399.171507,612.876398,740.205942
1327.598314,-10140.821405,2604.724693,-0.000000
1327.598626,-8290.306550,2451.505594,-592.164754
1327.598937,-6513.812290,1302.362347,296.082377
1327.599249,-6957.935855,0.000000,1406.391290
1327.599560,-7105.977043,-1838.629195,1184.329507
1327.599871,-8142.265362,-2221.676944,814.226536
1327.600183,-9178.553681,-1455.581446,-518.144159
1327.600494,-7328.038826,153.219100,-1036.288319
1327.600806,-7624.121203,-919.314598,-1480.411884
1327.601117,-7846.182985,-2221.676944,-888.247130
1327.601429,-9326.594869,-2145.067394,148.041188
1327.601740,-10288.862594,-2451.505594,1258.350101
1327.602051,-11991.336260,-1915.238745,1924.535449
1327.602363,-14730.098246,-1302.362347,1406.391290
1327.602674,-13323.706956,1685.410096,1332.370696
1327.602986,-10807.006753,2834.553343,-0.000000
1327.603297,-7698.141797,2451.505594,-296.082377
1327.603609,-5625.565159,995.924147,-74.020594
1327.603920,-5255.462188,-1149.143247,-740.205942
1327.604231,-5921.647536,-689.485948,-222.061783
1327.604543,-7920.203579,0.000000,-592.164754
1327.604854,-9548.656652,1072.533697,-814.226536
1327.605166,-9178.553681,1225.752797,-592.164754
1327.605477,-9548.656652,76.609550,-518.144159
1327.605789,-9844.739029,-919.314598,518.144159
1327.606100,-10214.842000,-995.924147,1406.391290
1327.606411,-10436.903782,-995.924147,1554.432478
1327.606723,-10807.006753,-383.047749,1480.411884
1327.607034,-10436.903782,919.314598,592.164754
1327.607346,-9400.615463,2911.162892,-148.041188
1327.607657,-8808.450710,3217.601092,-74.020594
1327.607969,-8142.265362,2757.943793,592.164754
1327.608280,-7105.977043,1225.752797,1628.453072
1327.608591,-7031.956449,-612.876398,1184.329507
1327.608903,-8290.306550,-1302.362347,888.247130
1327.609214,-8142.265362,-229.828649,-222.061783
1327.609526,-6587.832884,766.095498,-1110.308913
1327.609837,-6069.688724,383.047749,-888.247130
1327.610149,-5773.606348,-1378.971896,-0.000000
1327.610460,-7920.203579,-2911.162892,740.205942
1327.610771,-9844.739029,-2604.724693,2368.659014
1327.611083,-11325.150913,-1915.238745,3108.864956
1327.611394,-12879.583391,-229.828649,2368.659014
1327.611706,-11547.212695,2145.067394,2146.597232
1327.612017,-10362.883188,2451.505594,370.102971
1327.612329,-8290.306550,1455.581446,518.144159
1327.612640,-7105.977043,919.314598,962.267725
1327.612951,-6735.874072,459.657299,962.267725
1327.613263,-6587.832884,-842.705048,740.205942
1327.613574,-8586.388927,-1915.238745,222.061783
1327.613886,-7846.182985,-612.876398,-148.041188
1327.614197,-7550.100608,995.924147,-666.185348
1327.614509,-8364.327145,-459.657299,-370.102971
1327.614820,-8660.409521,-1685.410096,740.205942
1327.615131,-9844.739029,-1685.410096,1406.391290
1327.615443,-10436.903782,-1378.971896,2220.617826
1327.615754,-11177.109724,-1072.533697,1628.453072
1327.616066,-11991.336260,76.609550,666.185348
1327.616377,-10881.027347,2374.896044,222.061783
1327.616689,-9622.677246,2145.067394,-74.020594
1327.617000,-7994.224174,1072.533697,296.082377
1327.617311,-7402.059420,-459.657299,2072.576638
1327.617623,-8364.327145,-2451.505594,1480.411884
1327.617934,-7698.141797,-3447.429741,1110.308913
1327.618246,-8290.306550,-1991.848295,-148.041188
1327.618557,-7476.080014,-153.219100,-1036.288319
1327.618869,-6957.935855,0.000000,-1776.494261
1327.619180,-7772.162391,-1838.629195,-1332.370696
1327.619491,-8734.430116,-2374.896044,666.185348
1327.619803,-10214.842000,-2681.334243,1776.494261
1327.620114,-11769.274478,-1915.238745,2516.700203
1327.620426,-13101.645173,-459.657299,1924.535449
1327.620737,-12361.439231,995.924147,962.267725
1327.621049,-10214.842000,1455.581446,222.061783
1327.621360,-7698.141797,2298.286494,148.041188
1327.621671,-5995.668130,1838.629195,-296.082377
1327.621983,-5699.585753,0.000000,-0.000000
1327.622295,-6883.915261,-1302.362347,148.041188
1327.622606,-7624.121203,-1072.533697,-296.082377
1327.622918,-8142.265362,229.828649,-592.164754
1327.623229,-8216.285956,995.924147,-814.226536
1327.623541,-8956.491898,-459.657299,-962.267725
1327.623852,-9622.677246,-1915.238745,-296.082377
1327.624164,-10214.842000,-2451.505594,740.205942
1327.624475,-10140.821405,-2221.676944,1332.370696
1327.624787,-10436.903782,-1915.238745,1332.370696
1327.625099,-11843.295072,-612.876398,666.185348
1327.625410,-10140.821405,612.876398,-0.000000
1327.625722,-9622.677246,1608.800546,-148.041188
1327.626033,-8882.471304,2451.505594,222.061783
1327.626345,-7624.121203,995.924147,592.164754
1327.626656,-7698.141797,0.000000,74.020594
1327.626968,-7328.038826,-612.876398,1036.288319
1327.627280,-7846.182985,-1225.752797,-74.020594
1327.627591,-7624.121203,76.609550,-962.267725
1327.627903,-7254.018232,919.314598,-740.205942
1327.628214,-7402.059420,153.219100,-814.226536
1327.628526,-8586.388927,-1072.533697,-74.020594
1327.628837,-10436.903782,-2221.676944,1184.329507
1327.629149,-11251.130318,-1608.800546,1776.494261
1327.629460,-11991.336260,-459.657299,1776.494261
1327.629772,-12657.521608,1685.410096,1036.288319
1327.630084,-11473.192101,3524.039291,370.102971
1327.630395,-9548.656652,3447.429741,-0.000000
1327.630707,-7476.080014,2528.115143,962.267725
1327.631018,-6217.729913,383.047749,1258.350101
1327.631330,-5625.565159,-383.047749,1406.391290
1327.631641,-6735.874072,-1378.971896,296.082377
1327.631953,-7402.059420,153.219100,-740.205942
1327.632264,-7402.059420,1149.143247,-666.185348
1327.632576,-7846.182985,1072.533697,-1184.329507
1327.632888,-8660.409521,-306.438199,-444.123565
1327.633199,-9474.636058,-612.876398,148.041188
1327.633511,-10436.903782,-612.876398,1406.391290
1327.633822,-10732.986159,-919.314598,1480.411884
1327.634134,-11177.109724,-383.047749,1332.370696
1327.634445,-10955.047942,995.924147,1184.329507
1327.634757,-9770.718434,2451.505594,1184.329507
1327.635068,-8068.244768,2374.896044,814.226536
1327.635380,-6957.935855,229.828649,1406.391290
1327.635692,-6143.709319,-1762.019645,1924.535449
1327.636003,-6069.688724,-2451.505594,1406.391290
1327.636315,-6883.915261,-2145.067394,148.041188
1327.636626,-7105.977043,-459.657299,-370.102971
1327.636938,-7772.162391,-153.219100,-740.205942
1327.637249,-8290.306550,-1378.971896,-74.020594
1327.637561,-8956.491898,-2528.115143,518.144159
1327.637872,-10436.903782,-2451.505594,1480.411884
1327.638184,-12213.398043,-383.047749,2294.638420
1327.638496,-12731.542202,536.266849,2220.617826
1327.638807,-12731.542202,1378.971896,1702.473667
1327.639119,-11769.274478,2987.772442,962.267725
1327.639430,-8808.450710,3294.210641,740.205942
1327.639742,-6587.832884,2145.067394,444.123565
1327.640053,-5995.668130,76.609550,740.205942
1327.640365,-5773.606348,-1072.533697,592.164754
1327.640676,-6439.791695,-1455.581446,-0.000000
1327.640988,-6883.915261,-766.095498,-370.102971
1327.641300,-8290.306550,-842.705048,-666.185348
1327.641611,-9548.656652,-1149.143247,-814.226536
1327.641923,-9696.697840,-1838.629195,-0.000000
1327.642234,-10807.006753,-2451.505594,1554.432478
1327.642546,-11103.089130,-2757.943793,2590.720797
1327.642857,-11251.130318,-2145.067394,2368.659014
1327.643169,-11325.150913,-1149.143247,2072.576638
1327.643480,-9844.739029,459.657299,740.205942
1327.643792,-9548.656652,2374.896044,-0.000000
1327.644104,-7772.162391,3447.429741,-0.000000
1327.644415,-6735.874072,2374.896044,888.247130
1327.644727,-7105.977043,-383.047749,1036.288319
1327.645038,-7179.997637,-1915.238745,1406.391290
1327.645350,-7254.018232,-1302.362347,-0.000000
1327.645661,-6957.935855,0.000000,-1628.453072
1327.645973,-6217.729913,153.219100,-1850.514855
1327.646284,-7328.038826,-766.095498,-2146.597232
1327.646596,-7920.203579,-1302.362347,-1258.350101
1327.646908,-8956.491898,-995.924147,370.102971
1327.647219,-10732.986159,-1149.143247,1554.432478
1327.647531,-11769.274478,-306.438199,2590.720797
1327.647842,-12213.398043,459.657299,1406.391290
1327.648154,-11177.109724,2298.286494,962.267725
1327.648465,-9474.636058,3753.867940,370.102971
1327.648777,-9030.512492,2834.553343,-148.041188
1327.649088,-7698.141797,1838.629195,-148.041188
1327.649400,-7328.038826,0.000000,-296.082377
1327.649712,-7476.080014,-842.705048,-518.144159
1327.650023,-8586.388927,-689.485948,-888.247130
1327.650335,-9104.533087,612.876398,-962.267725
1327.650646,-9474.636058,0.000000,-1406.391290
1327.650958,-9178.553681,-919.314598,148.041188
1327.651269,-8882.471304,-1762.019645,1110.308913
1327.651581,-9622.677246,-1762.019645,1850.514855
1327.651892,-9474.636058,-919.314598,2146.597232
1327.652204,-10584.944971,-153.219100,1258.350101
1327.652516,-10881.027347,1762.019645,888.247130
1327.652827,-9992.780217,3217.601092,222.061783
1327.653139,-9548.656652,3907.087040,-0.000000
1327.653450,-8438.347739,2604.724693,1036.288319
1327.653762,-7105.977043,306.438199,666.185348
1327.654073,-6809.894666,-766.095498,888.247130
1327.654385,-7105.977043,-919.314598,592.164754
1327.654696,-7476.080014,0.000000,-0.000000
1327.655008,-7254.018232,1149.143247,-666.185348
1327.655320,-7402.059420,1455.581446,-296.082377
1327.655631,-7550.100608,-766.095498,296.082377
1327.655943,-8438.347739,-1302.362347,1110.308913
1327.656254,-9918.759623,-1915.238745,2294.638420
1327.656566,-10881.027347,-995.924147,2738.761985
1327.656877,-11769.274478,-383.047749,2590.720797
1327.657189,-11103.089130,459.657299,2294.638420
1327.657500,-10955.047942,612.876398,814.226536
1327.657812,-8956.491898,1991.848295,740.205942
1327.658124,-6291.750507,2068.457845,888.247130
1327.658435,-6587.832884,229.828649,666.185348
1327.658747,-5699.585753,-1149.143247,444.123565
1327.659058,-7031.956449,-1072.533697,-962.267725
1327.659370,-7328.038826,0.000000,-74.020594
1327.659681,-7179.997637,459.657299,-148.041188
1327.659993,-8660.409521,-919.314598,-296.082377
1327.660304,-9548.656652,-1378.971896,888.247130
1327.660616,-9770.718434,-2068.457845,2220.617826
1327.660928,-10658.965565,-2604.724693,1776.494261
1327.661239,-11547.212695,-2068.457845,1998.556043
1327.661551,-12361.439231,-229.828649,1332.370696
1327.661862,-10881.027347,1378.971896,518.144159
1327.662174,-9770.718434,1991.848295,222.061783
1327.662485,-7994.224174,1455.581446,1110.308913
1327.662797,-6365.771101,306.438199,1036.288319
1327.663108,-6809.894666,-1302.362347,222.061783
1327.663420,-6587.832884,-1455.581446,666.185348
1327.663732,-7031.956449,-383.047749,-962.267725
1327.664043,-7254.018232,459.657299,-1184.329507
1327.664355,-8142.265362,-459.657299,-1110.308913
1327.664666,-9104.533087,-1532.190996,-148.041188
1327.664978,-9326.594869,-1302.362347,1036.288319
1327.665289,-11103.089130,-1532.190996,1184.329507
1327.665601,-11843.295072,-1608.800546,1850.514855
1327.665913,-12435.459826,-689.485948,1480.411884
1327.666224,-11843.295072,995.924147,1258.350101
1327.666536,-9548.656652,2528.115143,592.164754
1327.666847,-8586.388927,2221.676944,-592.164754
1327.667159,-6957.935855,1072.533697,296.082377
1327.667470,-6809.894666,0.000000,-0.000000
1327.667782,-5921.647536,-1685.410096,-74.020594
1327.668093,-6143.709319,-1838.629195,-444.123565
1327.668405,-7994.224174,-1225.752797,-740.205942
1327.668717,-8364.327145,-766.095498,-888.247130
1327.669028,-9178.553681,-1149.143247,-222.061783
1327.669340,-9770.718434,-1378.971896,888.247130
1327.669651,-10584.944971,-2068.457845,1406.391290
1327.669963,-11621.233289,-1302.362347,2072.576638
1327.670274,-11695.253884,-612.876398,1850.514855
1327.670586,-10881.027347,1149.143247,962.267725
1327.670897,-10807.006753,2681.334243,-0.000000
1327.671209,-9696.697840,3600.648841,-444.123565
1327.671521,-7846.182985,2834.553343,-74.020594
1327.671832,-6365.771101,1149.143247,814.226536
1327.672144,-6069.688724,-612.876398,1184.329507
1327.672455,-6291.750507,-1915.238745,666.185348
1327.672767,-7031.956449,-1225.752797,-444.123565
1327.673078,-7624.121203,919.314598,-814.226536
1327.673390,-7698.141797,1915.238745,-1332.370696
1327.673701,-9252.574275,1149.143247,-740.205942
1327.674013,-9696.697840,-842.705048,814.226536
1327.674325,-10214.842000,-1915.238745,1554.432478
1327.674636,-10658.965565,-1915.238745,2516.700203
1327.674948,-11399.171507,-459.657299,1554.432478
1327.675259,-12361.439231,1302.362347,814.226536
1327.675571,-11473.192101,2528.115143,666.185348
1327.675882,-9548.656652,2451.505594,814.226536
1327.676194,-7402.059420,1991.848295,1332.370696
1327.676505,-6365.771101,919.314598,1110.308913
1327.676817,-7031.956449,-612.876398,1332.370696
1327.677129,-6143.709319,-1455.581446,518.144159
1327.677440,-6809.894666,-306.438199,-666.185348
1327.677752,-6735.874072,919.314598,-1554.432478
1327.678063,-7402.059420,689.485948,-1110.308913
1327.678375,-8660.409521,-306.438199,-0.000000
1327.678686,-9992.780217,-1685.410096,1184.329507
1327.678998,-11325.150913,-1685.410096,1776.494261
1327.679309,-10658.965565,-459.657299,2442.679609
1327.679621,-11621.233289,536.266849,1702.473667
1327.679933,-10658.965565,1608.800546,1258.350101
1327.680244,-9252.574275,1685.410096,518.144159
1327.680556,-7328.038826,1072.533697,962.267725
1327.680867,-6291.750507,229.828649,1036.288319
1327.681179,-6587.832884,-995.924147,666.185348
1327.681490,-7105.977043,-2451.505594,592.164754
1327.681802,-7254.018232,-2604.724693,-0.000000
1327.682113,-7624.121203,-1991.848295,-888.247130
1327.682425,-8068.244768,-1455.581446,-814.226536
1327.682737,-9474.636058,-1072.533697,-814.226536
1327.683048,-9770.718434,-2145.067394,518.144159
1327.683360,-10584.944971,-2987.772442,1554.432478
1327.683671,-11177.109724,-2451.505594,2368.659014
1327.683983,-11769.274478,-1149.143247,1850.514855
1327.684294,-11399.171507,1302.362347,888.247130
1327.684606,-10214.842000,2757.943793,148.041188
1327.684917,-9696.697840,2221.676944,-222.061783
1327.685229,-7846.182985,1532.190996,-0.000000
1327.685541,-6957.935855,153.219100,814.226536
1327.685852,-6587.832884,-1455.581446,222.061783
1327.686164,-6883.915261,-2298.286494,148.041188
1327.686475,-7772.162391,-1838.629195,-592.164754
1327.686787,-7328.038826,-459.657299,-740.205942
1327.687098,-7994.224174,-153.219100,-666.185348
1327.687410,-9844.739029,-995.924147,-0.000000
1327.687721,-10214.842000,-1532.190996,666.185348
1327.688033,-11103.089130,-1762.019645,1924.535449
1327.688345,-11621.233289,-1608.800546,2368.659014
1327.688656,-11325.150913,-229.828649,1628.453072
1327.688968,-10807.006753,1225.752797,222.061783
1327.689279,-9030.512492,3140.991542,-444.123565
1327.689591,-8142.265362,2528.115143,-74.020594
1327.689902,-7328.038826,383.047749,666.185348
1327.690214,-5921.647536,-383.047749,814.226536
1327.690525,-6513.812290,-1838.629195,296.082377
1327.690837,-7105.977043,-2451.505594,370.102971
1327.691149,-7328.038826,-1302.362347,-518.144159
1327.691460,-7105.977043,76.609550,-1406.391290
1327.691772,-7698.141797,-306.438199,-1332.370696
1327.692083,-9326.594869,-1302.362347,-666.185348
1327.692395,-9326.594869,-919.314598,666.185348
1327.692706,-10362.883188,-1532.190996,1554.432478
1327.693018,-11103.089130,-1225.752797,2294.638420
1327.693329,-11991.336260,153.219100,1332.370696
1327.693641,-11325.150913,2221.676944,592.164754
1327.693953,-9622.677246,3524.039291,222.061783
1327.694264,-8142.265362,2451.505594,444.123565
1327.694576,-6587.832884,1378.971896,444.123565
1327.694887,-7031.956449,0.000000,222.061783
1327.695199,-7550.100608,-689.485948,-0.000000
1327.695510,-7994.224174,229.828649,-592.164754
1327.695822,-8956.491898,1608.800546,-962.267725
1327.696133,-8808.450710,1455.581446,-888.247130
1327.696445,-8660.409521,76.609550,-222.061783
1327.696757,-9104.533087,-612.876398,962.267725
1327.697068,-9252.574275,-766.095498,2220.617826
1327.697380,-10732.986159,-1532.190996,1924.535449
1327.697691,-11769.274478,0.000000,1850.514855
1327.698003,-10732.986159,2221.676944,1036.288319
1327.698314,-10140.821405,3524.039291,296.082377
1327.698626,-8808.450710,3217.601092,666.185348
1327.698937,-7698.141797,1608.800546,370.102971
1327.699249,-7105.977043,-612.876398,814.226536
1327.699561,-6217.729913,-1532.190996,1036.288319
1327.699872,-6809.894666,-1915.238745,-0.000000
1327.700184,-7328.038826,-995.924147,-518.144159
1327.700495,-7105.977043,0.000000,-888.247130
1327.700807,-7254.018232,-689.485948,-370.102971
1327.701118,-7920.203579,-1532.190996,148.041188
1327.701430,-9474.636058,-1302.362347,962.267725
1327.701741,-9474.636058,-1991.848295,2368.659014
1327.702053,-10732.986159,-2451.505594,2516.700203
1327.702365,-11473.192101,-306.438199,1702.473667
1327.702676,-10732.986159,1608.800546,962.267725
1327.702988,-10732.986159,2528.115143,-222.061783
1327.703299,-9770.718434,2451.505594,-0.000000
1327.703611,-8290.306550,1532.190996,666.185348
1327.703922,-7624.121203,842.705048,518.144159
1327.704234,-7476.080014,-766.095498,296.082377
1327.704546,-7476.080014,-383.047749,-148.041188
1327.704857,-7105.977043,-153.219100,-888.247130
1327.705169,-7105.977043,612.876398,-1850.514855
1327.705480,-8364.327145,0.000000,-1702.473667
1327.705792,-9474.636058,-1225.752797,-222.061783
1327.706103,-10881.027347,-1455.581446,1184.329507
1327.706415,-11399.171507,-2374.896044,2812.782580
1327.706726,-12065.356855,-2757.943793,2590.720797
1327.707038,-12435.459826,-1762.019645,2294.638420
1327.707350,-10881.027347,689.485948,1258.350101
1327.707661,-9770.718434,1685.410096,814.226536
1327.707973,-8956.491898,689.485948,740.205942
1327.708284,-7476.080014,-383.047749,1406.391290
1327.708596,-6513.812290,-1838.629195,888.247130
1327.708907,-6439.791695,-2681.334243,-0.000000
1327.709219,-6587.832884,-919.314598,-740.205942
1327.709530,-7254.018232,229.828649,-1628.453072
1327.709842,-7772.162391,229.828649,-962.267725
1327.710154,-8068.244768,-383.047749,-0.000000
1327.710465,-9326.594869,-1532.190996,1332.370696
1327.710777,-10510.924376,-1532.190996,2072.576638
1327.711088,-10658.965565,-383.047749,2442.679609
1327.711400,-10807.006753,229.828649,2146.597232
1327.711711,-9696.697840,1225.752797,962.267725
1327.712023,-9178.553681,2528.115143,370.102971
1327.712334,-8068.244768,2145.067394,370.102971
1327.712646,-6587.832884,1455.581446,666.185348
1327.712958,-5773.606348,459.657299,666.185348
1327.713269,-5995.668130,-689.485948,296.082377
1327.713581,-6661.853478,-2145.067394,-0.000000
1327.713892,-7476.080014,-306.438199,-592.164754
1327.714204,-8438.347739,76.609550,-592.164754
1327.714515,-9548.656652,-306.438199,-370.102971
1327.714827,-10732.986159,-1838.629195,444.123565
1327.715138,-11103.089130,-1915.238745,1998.556043
1327.715450,-10881.027347,-1991.848295,2664.741391
1327.715762,-10955.047942,-1685.410096,2220.617826
1327.716073,-11473.192101,0.000000,888.247130
1327.716385,-11251.130318,3064.381992,148.041188
1327.716696,-9326.594869,4213.525239,-74.020594
1327.717008,-7476.080014,2987.772442,-888.247130
1327.717319,-6883.915261,1532.190996,-74.020594
1327.717631,-6513.812290,-459.657299,-148.041188
1327.717942,-6069.688724,-1455.581446,-148.041188
1327.718254,-7254.018232,-459.657299,-1332.370696
1327.718566,-8142.265362,2068.457845,-888.247130
1327.718877,-8956.491898,1838.629195,-1480.411884
1327.719189,-9770.718434,-153.219100,-740.205942
1327.719500,-10288.862594,-766.095498,444.123565
1327.719812,-10436.903782,-536.266849,740.205942
1327.720123,-11399.171507,-612.876398,1184.329507
1327.720435,-12139.377449,76.609550,888.247130
1327.720746,-11473.192101,2298.286494,-0.000000
1327.721058,-10362.883188,2604.724693,-0.000000
1327.721370,-8882.471304,2604.724693,444.123565
1327.721681,-8142.265362,1455.581446,444.123565
1327.721992,-7846.182985,-229.828649,1184.329507
1327.722304,-7105.977043,-1225.752797,888.247130
1327.722615,-7105.977043,-1532.190996,148.041188
1327.722926,-7476.080014,-1225.752797,-444.123565
1327.723238,-7328.038826,153.219100,-814.226536
1327.723549,-7994.224174,229.828649,-814.226536
1327.723861,-8068.244768,-842.705048,222.061783
1327.724172,-8956.491898,-1149.143247,1184.329507
1327.724483,-10066.800811,-1991.848295,2368.659014
1327.724795,-10807.006753,-919.314598,2368.659014
1327.725106,-11177.109724,0.000000,1628.453072
1327.725417,-9770.718434,1915.238745,1036.288319
1327.725729,-9030.512492,3217.601092,814.226536
1327.726040,-7920.203579,1455.581446,1332.370696
1327.726352,-6883.915261,-919.314598,2146.597232
1327.726663,-6587.832884,-2298.286494,1924.535449
1327.726974,-7031.956449,-2834.553343,1554.432478
1327.727286,-7624.121203,-2068.457845,666.185348
1327.727597,-7698.141797,0.000000,-0.000000
1327.727909,-7920.203579,995.924147,-74.020594
1327.728220,-7846.182985,0.000000,-148.041188
1327.728531,-8216.285956,-1072.533697,888.247130
1327.728843,-9252.574275,-1378.971896,1480.411884
1327.729154,-9844.739029,-1378.971896,2220.617826
1327.729465,-11251.130318,-995.924147,1924.535449
1327.729777,-11621.233289,536.266849,1332.370696
1327.730088,-11029.068536,1991.848295,814.226536
1327.730400,-10214.842000,2528.115143,592.164754
1327.730711,-8956.491898,1455.581446,592.164754
1327.731022,-8290.306550,919.314598,1258.350101
1327.731334,-7772.162391,-306.438199,1036.288319
1327.731645,-6809.894666,-995.924147,370.102971
1327.731956,-6809.894666,-153.219100,-444.123565
1327.732268,-6439.791695,383.047749,-962.267725
1327.732579,-7698.141797,-383.047749,-1184.329507
1327.732891,-8660.409521,-995.924147,-962.267725
1327.733202,-9770.718434,-689.485948,592.164754
1327.733513,-11547.212695,-1608.800546,1332.370696
1327.733825,-11843.295072,-2221.676944,2072.576638
1327.734136,-12657.521608,-1838.629195,1480.411884
1327.734447,-12139.377449,612.876398,740.205942
1327.734759,-10658.965565,2451.505594,148.041188
1327.735070,-8512.368333,2911.162892,-0.000000
1327.735382,-6883.915261,2068.457845,296.082377
1327.735693,-6439.791695,76.609550,148.041188
1327.736004,-5329.482782,-1685.410096,-0.000000
1327.736316,-5847.626942,-919.314598,-444.123565
1327.736627,-6143.709319,995.924147,-1406.391290
1327.736938,-7105.977043,1072.533697,-1776.494261
1327.737250,-8142.265362,-1149.143247,-1332.370696
1327.737561,-8734.430116,-1991.848295,-0.000000
1327.737873,-9474.636058,-2068.457845,1480.411884
1327.738184,-10658.965565,-2987.772442,2294.638420
1327.738495,-12287.418637,-2068.457845,2516.700203
1327.738807,-12731.542202,-536.266849,1110.308913
1327.739118,-11399.171507,1915.238745,-0.000000
1327.739430,-10066.800811,3064.381992,-370.102971
1327.739741,-8734.430116,2451.505594,370.102971
1327.740052,-7254.018232,689.485948,888.247130
1327.740364,-6957.935855,-689.485948,518.144159
1327.740675,-7031.956449,-1072.533697,222.061783
1327.740986,-6883.915261,-229.828649,-444.123565
1327.741298,-7328.038826,919.314598,-1110.308913
1327.741609,-8438.347739,-306.438199,-888.247130
1327.741921,-9030.512492,-1455.581446,-0.000000
1327.742232,-10362.883188,-1302.362347,666.185348
1327.742543,-11399.171507,-1149.143247,1406.391290
1327.742855,-12583.501014,-919.314598,2294.638420
1327.743166,-12953.603985,-766.095498,1702.473667
1327.743477,-11991.336260,1685.410096,1406.391290
1327.743789,-10807.006753,3677.258390,888.247130
1327.744100,-8734.430116,3370.820191,592.164754
1327.744412,-6883.915261,2298.286494,1110.308913
1327.744723,-5551.544565,995.924147,1332.370696
1327.745034,-5255.462188,-995.924147,1184.329507
1327.745346,-6513.812290,-919.314598,814.226536
1327.745657,-6661.853478,383.047749,148.041188
1327.745968,-7772.162391,766.095498,-296.082377
1327.746280,-8216.285956,76.609550,-370.102971
1327.746591,-8882.471304,-689.485948,222.061783
1327.746903,-9400.615463,-1072.533697,1702.473667
1327.747214,-9400.615463,-1225.752797,2146.597232
1327.747525,-10288.862594,-1608.800546,1924.535449
1327.747837,-10807.006753,612.876398,1258.350101
1327.748148,-9696.697840,2911.162892,888.247130
1327.748459,-8956.491898,2757.943793,814.226536
1327.748771,-7772.162391,1762.019645,1332.370696
1327.749082,-6587.832884,306.438199,1850.514855
1327.749394,-6291.750507,-1378.971896,1406.391290
1327.749705,-7105.977043,-2374.896044,814.226536
1327.750016,-7402.059420,-919.314598,-444.123565
1327.750328,-7920.203579,0.000000,-962.267725
1327.750639,-7772.162391,-536.266849,-1702.473667
1327.750951,-9400.615463,-1608.800546,-888.247130
1327.751262,-10288.862594,-2451.505594,148.041188
1327.751573,-11251.130318,-2374.896044,1332.370696
1327.751885,-11917.315666,-1915.238745,1998.556043
1327.752196,-11917.315666,-536.266849,1924.535449
1327.752507,-10807.006753,919.314598,1332.370696
1327.752819,-10436.903782,2528.115143,-814.226536
1327.753130,-8882.471304,2145.067394,-0.000000
1327.753442,-7254.018232,1072.533697,-370.102971
1327.753753,-7402.059420,0.000000,-0.000000
1327.754064,-7402.059420,-919.314598,-0.000000
1327.754376,-8142.265362,-1762.019645,-888.247130
1327.754687,-8734.430116,-1302.362347,-1110.308913
1327.754998,-8068.244768,-766.095498,-814.226536
1327.755310,-8734.430116,-766.095498,-1036.288319
1327.755621,-9548.656652,-2604.724693,-0.000000
1327.755933,-9992.780217,-3064.381992,1184.329507
1327.756244,-10288.862594,-3217.601092,1554.432478
1327.756555,-10436.903782,-2298.286494,2146.597232
1327.756867,-11991.336260,-612.876398,1406.391290
1327.757178,-11177.109724,1378.971896,1036.288319
1327.757489,-10510.924376,2681.334243,222.061783
1327.757801,-9104.533087,2604.724693,444.123565
1327.758112,-7179.997637,1302.362347,1036.288319
1327.758424,-6735.874072,0.000000,962.267725
1327.758735,-5699.585753,-995.924147,518.144159
1327.759046,-5921.647536,-842.705048,-888.247130
1327.759358,-6291.750507,842.705048,-1554.432478
1327.759669,-7031.956449,1225.752797,-1776.494261
1327.759980,-8290.306550,-536.266849,-814.226536
1327.760292,-9474.636058,-1991.848295,370.102971
1327.760603,-10510.924376,-2298.286494,1924.535449
1327.760915,-11843.295072,-1838.629195,2442.679609
1327.761226,-12509.480420,-1072.533697,2368.659014
1327.761537,-11695.253884,306.438199,1776.494261
1327.761849,-9992.780217,2374.896044,1184.329507
1327.762160,-8142.265362,2911.162892,444.123565
1327.762472,-6809.894666,2221.676944,740.205942
1327.762783,-6735.874072,1225.752797,518.144159
1327.763094,-5847.626942,229.828649,518.144159
1327.763406,-6365.771101,-536.266849,-222.061783
1327.763717,-7179.997637,0.000000,-1110.308913
1327.764028,-7920.203579,842.705048,-666.185348
1327.764340,-8808.450710,536.266849,-1036.288319
1327.764651,-9992.780217,-842.705048,-518.144159
1327.764963,-9326.594869,-1838.629195,1554.432478
1327.765274,-9474.636058,-1762.019645,1924.535449
1327.765585,-10288.862594,-1378.971896,2294.638420
1327.765897,-11399.171507,76.609550,1110.308913
1327.766208,-10732.986159,2221.676944,370.102971
1327.766519,-9548.656652,4366.744339,370.102971
1327.766831,-9104.533087,3677.258390,592.164754
1327.767142,-7772.162391,2681.334243,962.267725
1327.767454,-6883.915261,153.219100,888.247130
1327.767765,-6069.688724,-919.314598,592.164754
1327.768076,-6143.709319,-842.705048,-518.144159
1327.768388,-7550.100608,306.438199,-1332.370696
1327.768699,-8290.306550,842.705048,-1776.494261
1327.769010,-9178.553681,-229.828649,-814.226536
1327.769322,-10140.821405,-1225.752797,444.123565
1327.769633,-10732.986159,-1149.143247,2072.576638
1327.769945,-11843.295072,-2451.505594,2368.659014
1327.770256,-11769.274478,-2145.067394,2442.679609
1327.770567,-11547.212695,-842.705048,1776.494261
1327.770879,-10066.800811,1532.190996,592.164754
1327.771190,-8734.430116,2068.457845,-74.020594
1327.771501,-7476.080014,1762.019645,-0.000000
1327.771813,-6513.812290,153.219100,814.226536
1327.772124,-6439.791695,-1455.581446,1036.288319
1327.772436,-6809.894666,-2298.286494,1184.329507
1327.772747,-7920.203579,-2604.724693,-74.020594
1327.773058,-7846.182985,-1378.971896,-296.082377
1327.773370,-8216.285956,-842.705048,-666.185348
1327.773681,-8438.347739,-1149.143247,-296.082377
1327.773993,-9104.533087,-2604.724693,296.082377
1327.774304,-10066.800811,-2757.943793,962.267725
1327.774615,-10881.027347,-2068.457845,1702.473667
1327.774927,-11991.336260,-536.266849,1332.370696
1327.775238,-12361.439231,1455.581446,962.267725
1327.775549,-11399.171507,2528.115143,888.247130
1327.775861,-9770.718434,2451.505594,888.247130
1327.776172,-7328.038826,1838.629195,1184.329507
1327.776484,-6587.832884,-536.266849,1036.288319
1327.776795,-6217.729913,-1225.752797,740.205942
1327.777106,-5847.626942,-153.219100,-0.000000
1327.777418,-6809.894666,383.047749,-1110.308913
1327.777729,-7402.059420,842.705048,-1406.391290
1327.778040,-9252.574275,153.219100,-1480.411884
1327.778352,-10436.903782,-459.657299,222.061783
1327.778663,-10658.965565,-766.095498,1406.391290
1327.778975,-11399.171507,-1302.362347,1924.535449
1327.779286,-11621.233289,-1532.190996,2294.638420
1327.779597,-11843.295072,-459.657299,1702.473667
1327.779909,-9770.718434,1378.971896,1406.391290
1327.780220,-8660.409521,2451.505594,-0.000000
1327.780531,-7476.080014,2298.286494,-0.000000
1327.780843,-6809.894666,1225.752797,444.123565
1327.781154,-6957.935855,-153.219100,740.205942
1327.781466,-6291.750507,-1072.533697,592.164754
1327.781777,-6957.935855,-1685.410096,222.061783
1327.782088,-7254.018232,-1072.533697,-0.000000
1327.782400,-7179.997637,-459.657299,-592.164754
1327.782711,-8290.306550,-995.924147,-592.164754
1327.783023,-8512.368333,-1685.410096,148.041188
1327.783334,-8956.491898,-2068.457845,1258.350101
1327.783645,-10066.800811,-1991.848295,1702.473667
1327.783957,-11325.150913,-919.314598,1702.473667
1327.784268,-12065.356855,383.047749,1184.329507
1327.784579,-11547.212695,2757.943793,1258.350101
1327.784891,-10732.986159,2987.772442,962.267725
1327.785202,-9030.512492,1991.848295,740.205942
1327.785514,-7179.997637,383.047749,814.226536
1327.785825,-6513.812290,-612.876398,444.123565
1327.786136,-5107.421000,-919.314598,-592.164754
1327.786448,-6069.688724,0.000000,-2072.576638
1327.786759,-7105.977043,766.095498,-1998.556043
1327.787070,-8734.430116,153.219100,-1628.453072
1327.787382,-10584.944971,-919.314598,-296.082377
1327.787693,-11843.295072,-1072.533697,1406.391290
1327.788005,-13027.624579,-1455.581446,2368.659014
1327.788316,-12583.501014,-766.095498,2664.741391
1327.788627,-12213.398043,-153.219100,1480.411884
1327.788939,-10955.047942,1991.848295,518.144159
1327.789250,-9474.636058,4443.353888,-592.164754
1327.789561,-7846.182985,3830.477490,-370.102971
1327.789873,-6661.853478,2451.505594,-0.000000
1327.790184,-6883.915261,0.000000,518.144159
1327.790496,-6883.915261,-995.924147,740.205942
1327.790807,-7402.059420,-459.657299,-0.000000
1327.791118,-7402.059420,383.047749,-222.061783
1327.791430,-8142.265362,459.657299,-740.205942
1327.791741,-8364.327145,-306.438199,-148.041188
1327.792052,-8734.430116,-995.924147,296.082377
1327.792364,-8734.430116,-1378.971896,1554.432478
1327.792675,-9844.739029,-1762.019645,2146.597232
1327.792987,-10881.027347,-612.876398,2368.659014
1327.793298,-11621.233289,1762.019645,1184.329507
1327.793609,-10288.862594,3524.039291,888.247130
1327.793921,-9474.636058,3983.696590,666.185348
1327.794232,-7846.182985,3064.381992,740.205942
1327.794544,-6661.853478,995.924147,1036.288319
1327.794855,-6217.729913,-536.266849,296.082377
1327.795166,-5477.523971,-689.485948,296.082377
1327.795478,-6365.771101,0.000000,-518.144159
1327.795789,-7105.977043,-153.219100,-518.144159
1327.796100,-8142.265362,-1455.581446,-0.000000
1327.796412,-10214.842000,-2911.162892,296.082377
1327.796723,-10066.800811,-2834.553343,1924.535449
1327.797035,-10955.047942,-2451.505594,2146.597232
1327.797346,-11177.109724,-2221.676944,2516.700203
1327.797657,-11621.233289,-1378.971896,1998.556043
1327.797969,-11103.089130,0.000000,814.226536
1327.798280,-9844.739029,1838.629195,-0.000000
1327.798591,-9326.594869,1532.190996,370.102971
1327.798903,-7994.224174,1455.581446,962.267725
1327.799214,-7328.038826,-536.266849,1036.288319
1327.799526,-7179.997637,-1838.629195,1480.411884
1327.799837,-7328.038826,-2911.162892,666.185348
1327.800148,-7402.059420,-2451.505594,-444.123565
1327.800460,-7994.224174,-842.705048,-740.205942
1327.800771,-8882.471304,0.000000,-740.205942
1327.801082,-9548.656652,-536.266849,-148.041188
1327.801394,-9918.759623,-1072.533697,148.041188
1327.801705,-10955.047942,-995.924147,740.205942
1327.802017,-11325.150913,-536.266849,1110.308913
1327.802328,-11695.253884,459.657299,444.123565
1327.802639,-11695.253884,2298.286494,-0.000000
1327.802951,-10140.821405,3370.820191,-0.000000
1327.803262,-8290.306550,2451.505594,296.082377
1327.803573,-7031.956449,459.657299,962.267725
1327.803885,-6069.688724,-1225.752797,1332.370696
1327.804196,-5699.585753,-2757.943793,518.144159
1327.804508,-5921.647536,-2145.067394,-740.205942
1327.804819,-6365.771101,-612.876398,-1332.370696
1327.805130,-7550.100608,-383.047749,-1184.329507
1327.805442,-9326.594869,-1608.800546,-518.144159
1327.805753,-10584.944971,-2145.067394,962.267725
1327.806065,-11325.150913,-1302.362347,1998.556043
1327.806376,-11991.336260,-1838.629195,3256.906145
1327.806687,-11917.315666,-612.876398,2738.761985
1327.806999,-11251.130318,612.876398,1554.432478
1327.807310,-9992.780217,2298.286494,814.226536
1327.807621,-7698.141797,3677.258390,222.061783
1327.807933,-6143.709319,3907.087040,-592.164754
1327.808244,-5847.626942,3064.381992,148.041188
1327.808556,-5995.668130,689.485948,-444.123565
1327.808867,-6883.915261,-229.828649,-666.185348
1327.809178,-7105.977043,766.095498,-666.185348
1327.809490,-8142.265362,1685.410096,-1036.288319
1327.809801,-9030.512492,1225.752797,-740.205942
1327.810112,-9178.553681,-153.219100,-444.123565
1327.810424,-9252.574275,-1072.533697,1110.308913
1327.810735,-10584.944971,-1225.752797,1554.432478
1327.811047,-11029.068536,-919.314598,2294.638420
1327.811358,-11843.295072,383.047749,1776.494261
1327.811669,-11399.171507,1685.410096,1480.411884
1327.811981,-10955.047942,2911.162892,1110.308913
1327.812292,-9474.636058,2681.334243,888.247130
1327.812603,-7402.059420,2221.676944,740.205942
1327.812915,-6365.771101,76.609550,814.226536
1327.813226,-6661.853478,-1225.752797,-0.000000
1327.813538,-7105.977043,-459.657299,-222.061783
1327.813849,-7772.162391,0.000000,-962.267725
1327.814160,-7994.224174,459.657299,-814.226536
1327.814472,-8734.430116,-229.828649,-0.000000
1327.814783,-9326.594869,-1072.533697,1110.308913
1327.815094,-10140.821405,-1915.238745,1998.556043
1327.815406,-9844.739029,-2451.505594,2516.700203
1327.815717,-9696.697840,-919.314598,2072.576638
1327.816029,-10214.842000,76.609550,888.247130
1327.816340,-9326.594869,1838.629195,-0.000000
1327.816651,-9400.615463,1991.848295,-666.185348
1327.816963,-8216.285956,1532.190996,-0.000000
1327.817274,-7772.162391,689.485948,296.082377
1327.817586,-7698.141797,-689.485948,1184.329507
1327.817897,-8660.409521,-2451.505594,1258.350101
1327.818208,-8660.409521,-2451.505594,592.164754
1327.818520,-8216.285956,-2068.457845,222.061783
1327.818831,-8512.368333,-1072.533697,-370.102971
1327.819142,-7698.141797,-1455.581446,-0.000000
1327.819454,-8438.347739,-2451.505594,148.041188
1327.819765,-9474.636058,-2145.067394,518.144159
1327.820077,-9992.780217,-1762.019645,1184.329507
1327.820388,-11547.212695,-1225.752797,1924.535449
1327.820699,-11843.295072,536.266849,888.247130
1327.821011,-11473.192101,2374.896044,814.226536
1327.821322,-10436.903782,1762.019645,-0.000000
1327.821633,-8290.306550,1225.752797,666.185348
1327.821945,-6661.853478,0.000000,-0.000000
1327.822256,-5847.626942,-1378.971896,74.020594
1327.822568,-6217.729913,-1762.019645,-444.123565
1327.822879,-7179.997637,-919.314598,-1184.329507
1327.823190,-7476.080014,-306.438199,-814.226536
1327.823502,-9252.574275,-919.314598,-518.144159
1327.823813,-9770.718434,-1915.238745,888.247130
1327.824124,-10807.006753,-2681.334243,1776.494261
1327.824436,-11843.295072,-2451.505594,2220.617826
1327.824747,-11991.336260,-1072.533697,1332.370696
1327.825059,-11547.212695,0.000000,1184.329507
1327.825370,-10362.883188,2604.724693,148.041188
1327.825682,-9252.574275,2451.505594,-370.102971
1327.825993,-7772.162391,1838.629195,148.041188
1327.826305,-6661.853478,1149.143247,592.164754
1327.826616,-6291.750507,-153.219100,1110.308913
1327.826927,-6809.894666,-1302.362347,666.185348
1327.827239,-7328.038826,-1378.971896,-148.041188
1327.827550,-7402.059420,153.219100,-1036.288319
1327.827862,-7254.018232,306.438199,-1258.350101
1327.828173,-7105.977043,0.000000,-814.226536
1327.828485,-8364.327145,-536.266849,148.041188
1327.828796,-9474.636058,-1225.752797,1184.329507
1327.829108,-10288.862594,-2068.457845,2146.597232
1327.829419,-11177.109724,-1225.752797,2294.638420
1327.829730,-12139.377449,919.314598,1110.308913
1327.830042,-11695.253884,3677.258390,888.247130
1327.830353,-10362.883188,2757.943793,148.041188
1327.830665,-8438.347739,1915.238745,592.164754
1327.830976,-6883.915261,1072.533697,296.082377
1327.831288,-6587.832884,-612.876398,-148.041188
1327.831599,-6291.750507,-1149.143247,-148.041188
1327.831911,-7476.080014,0.000000,-1036.288319
1327.832222,-7698.141797,919.314598,-814.226536
1327.832534,-8586.388927,1378.971896,-592.164754
1327.832845,-9252.574275,0.000000,370.102971
1327.833156,-10066.800811,-612.876398,1184.329507
1327.833468,-10881.027347,-1149.143247,1998.556043
1327.833779,-10732.986159,-766.095498,1258.350101
1327.834091,-11843.295072,612.876398,296.082377
1327.834402,-10881.027347,2834.553343,-74.020594
1327.834714,-9622.677246,3600.648841,-1036.288319
1327.835025,-8438.347739,3064.381992,-0.000000
1327.835337,-7550.100608,1608.800546,888.247130
1327.835648,-7846.182985,-306.438199,1332.370696
1327.835959,-7105.977043,-1225.752797,1702.473667
1327.836271,-8068.244768,-1225.752797,666.185348
1327.836582,-7550.100608,-919.314598,-0.000000
1327.836894,-6587.832884,0.000000,-592.164754
1327.837205,-7105.977043,-612.876398,-888.247130
1327.837517,-7476.080014,-1608.800546,74.020594
1327.837828,-9178.553681,-2451.505594,888.247130
1327.838140,-10732.986159,-2451.505594,2368.659014
1327.838451,-12213.398043,-1762.019645,2368.659014
1327.838762,-12731.542202,-229.828649,1702.473667
1327.839074,-10881.027347,2145.067394,962.267725
1327.839385,-9400.615463,2604.724693,-0.000000
1327.839697,-7402.059420,1455.581446,-0.000000
1327.840008,-6291.750507,842.705048,444.123565
1327.840320,-6069.688724,-919.314598,814.226536
1327.840631,-6217.729913,-1072.533697,1036.288319
1327.840943,-7254.018232,-842.705048,518.144159
1327.841254,-8142.265362,-383.047749,444.123565
1327.841565,-8882.471304,-919.314598,74.020594
1327.841877,-9474.636058,-1838.629195,-222.061783
1327.842188,-9474.636058,-2757.943793,444.123565
1327.842500,-10066.800811,-1225.752797,1480.411884
1327.842811,-10807.006753,-1915.238745,1480.411884
1327.843123,-11917.315666,-1608.800546,962.267725
1327.843434,-11695.253884,0.000000,740.205942
1327.843746,-10288.862594,2451.505594,-0.000000
1327.844057,-9474.636058,2987.772442,-0.000000
1327.844368,-8216.285956,1991.848295,1036.288319
1327.844680,-7846.182985,0.000000,666.185348
1327.844991,-6587.832884,-1685.410096,1554.432478
1327.845303,-6291.750507,-1838.629195,518.144159
1327.845614,-6809.894666,-612.876398,-518.144159
1327.845926,-6883.915261,0.000000,-962.267725
1327.846237,-7772.162391,-995.924147,-888.247130
1327.846549,-8142.265362,-2374.896044,-296.082377
1327.846860,-8956.491898,-1915.238745,444.123565
1327.847171,-10955.047942,-1915.238745,1036.288319
1327.847483,-11769.274478,-1838.629195,1850.514855
1327.847794,-13027.624579,-536.266849,814.226536
1327.848106,-12139.377449,1455.581446,592.164754
1327.848417,-10436.903782,2604.724693,592.164754
1327.848729,-8734.430116,1455.581446,296.082377
1327.849040,-7105.977043,0.000000,814.226536
1327.849352,-6143.709319,-766.095498,666.185348
1327.849663,-6143.709319,-1455.581446,444.123565
1327.849974,-6809.894666,-153.219100,-444.123565
1327.850286,-7328.038826,919.314598,-1110.308913
1327.850597,-8290.306550,1149.143247,-1702.473667
1327.850909,-8882.471304,-383.047749,-1184.329507
1327.851220,-9030.512492,-1072.533697,-0.000000
1327.851532,-9400.615463,-1149.143247,962.267725
1327.851843,-10214.842000,-1455.581446,1406.391290
1327.852155,-11695.253884,-919.314598,1258.350101
1327.852466,-11843.295072,306.438199,592.164754
1327.852777,-10288.862594,2528.115143,740.205942
1327.853089,-9548.656652,2681.334243,518.144159
1327.853400,-8290.306550,2068.457845,1036.288319
1327.853712,-7402.059420,689.485948,1406.391290
1327.854023,-7105.977043,-766.095498,1850.514855
1327.854335,-7254.018232,-1991.848295,1184.329507
1327.854646,-7476.080014,-919.314598,444.123565
1327.854958,-7550.100608,766.095498,-814.226536
1327.855269,-7994.224174,1072.533697,-888.247130
1327.855580,-8438.347739,0.000000,-296.082377
1327.855892,-8882.471304,-459.657299,592.164754
1327.856203,-9770.718434,76.609550,1036.288319
1327.856515,-10807.006753,0.000000,1258.350101
1327.856826,-11917.315666,1072.533697,1924.535449
1327.857138,-11473.192101,2987.772442,814.226536
1327.857449,-9696.697840,4136.915689,814.226536
1327.857761,-8438.347739,3064.381992,1036.288319
1327.858072,-6957.935855,1608.800546,1480.411884
1327.858383,-6883.915261,306.438199,1406.391290
1327.858695,-6661.853478,-459.657299,666.185348
1327.859006,-6587.832884,-536.266849,-74.020594
1327.859318,-7328.038826,229.828649,-296.082377
1327.859629,-7846.182985,842.705048,-740.205942
1327.859941,-8882.471304,-689.485948,-0.000000
1327.860252,-9696.697840,-1685.410096,962.267725
1327.860564,-9918.759623,-2298.286494,2220.617826
1327.860875,-10436.903782,-1915.238745,2368.659014
1327.861187,-11547.212695,-1991.848295,2220.617826
1327.861498,-10436.903782,-1149.143247,1406.391290
1327.861809,-9030.512492,2374.896044,592.164754
1327.862121,-9178.553681,2681.334243,-0.000000
1327.862432,-7476.080014,2221.676944,888.247130
1327.862744,-7105.977043,76.609550,1110.308913
1327.863055,-6513.812290,-1302.362347,1258.350101
1327.863367,-6291.750507,-1532.190996,518.144159
1327.863678,-6957.935855,-1225.752797,-1332.370696
1327.863990,-6069.688724,0.000000,-1554.432478
1327.864301,-6957.935855,-995.924147,-1924.535449
1327.864612,-7698.141797,-1915.238745,-1110.308913
1327.864924,-9474.636058,-2374.896044,222.061783
1327.865235,-11695.253884,-2681.334243,1406.391290
1327.865547,-12731.542202,-3217.601092,2368.659014
1327.865858,-13545.768739,-2528.115143,2368.659014
1327.866170,-13249.686362,0.000000,1332.370696
1327.866481,-11769.274478,2068.457845,148.041188
1327.866793,-9918.759623,1991.848295,-0.000000
1327.867104,-7920.203579,1378.971896,148.041188
1327.867415,-6883.915261,536.266849,-0.000000
1327.867727,-6439.791695,-536.266849,-148.041188
1327.868038,-7031.956449,-1149.143247,-888.247130
1327.868350,-7328.038826,0.000000,-814.226536
1327.868661,-7254.018232,459.657299,-1480.411884
1327.868973,-8512.368333,-689.485948,-888.247130
1327.869284,-9844.739029,-1685.410096,296.082377
1327.869596,-10510.924376,-1455.581446,1554.432478
1327.869907,-10362.883188,-1838.629195,1998.556043
1327.870218,-10732.986159,-1685.410096,1776.494261
1327.870530,-10732.986159,-689.485948,1258.350101
1327.870841,-9844.739029,1149.143247,814.226536
1327.871153,-9252.574275,1608.800546,-0.000000
1327.871464,-8216.285956,2221.676944,888.247130
1327.871776,-7772.162391,842.705048,1406.391290
1327.872087,-7550.100608,-766.095498,1480.411884
1327.872399,-7402.059420,-1455.581446,814.226536
1327.872710,-6883.915261,-842.705048,-370.102971
1327.873021,-6143.709319,306.438199,-1184.329507
1327.873333,-6069.688724,229.828649,-1332.370696
1327.873644,-6957.935855,-995.924147,-592.164754
1327.873956,-8290.306550,-1455.581446,518.144159
1327.874267,-9844.739029,-1685.410096,2146.597232
1327.874579,-11843.295072,-1378.971896,2516.700203
1327.874890,-12731.542202,153.219100,2516.700203
1327.875202,-12139.377449,2298.286494,1332.370696
1327.875513,-10362.883188,3830.477490,-0.000000
1327.875824,-8438.347739,3294.210641,-74.020594
1327.876136,-7476.080014,2298.286494,-0.000000
1327.876447,-6809.894666,1378.971896,370.102971
1327.876759,-6439.791695,0.000000,518.144159
1327.877070,-7624.121203,-689.485948,296.082377
1327.877382,-8808.450710,0.000000,-370.102971
1327.877693,-8142.265362,689.485948,-518.144159
1327.878005,-8512.368333,536.266849,-1110.308913
1327.878316,-8438.347739,-229.828649,-518.144159
1327.878627,-8882.471304,-1072.533697,740.205942
1327.878939,-10066.800811,-2145.067394,1184.329507
1327.879250,-11325.150913,-1532.190996,1702.473667
1327.879562,-11843.295072,-306.438199,1406.391290
1327.879873,-11029.068536,1685.410096,888.247130
1327.880185,-10362.883188,2451.505594,296.082377
1327.880496,-9400.615463,2221.676944,518.144159
1327.880808,-7994.224174,153.219100,1036.288319
1327.881119,-7105.977043,0.000000,1406.391290
1327.881430,-6809.894666,-689.485948,592.164754
1327.881742,-7105.977043,-1302.362347,-296.082377
1327.882053,-6809.894666,-306.438199,-1110.308913
1327.882365,-6809.894666,536.266849,-1554.432478
1327.882676,-7550.100608,-306.438199,-1480.411884
1327.882988,-8068.244768,-1072.533697,-0.000000
1327.883299,-9770.718434,-1762.019645,1184.329507
1327.883611,-11251.130318,-3294.210641,2664.741391
1327.883922,-12435.459826,-2681.334243,2590.720797
1327.884233,-12805.562797,-536.266849,1998.556043
1327.884545,-11695.253884,1838.629195,814.226536
1327.884856,-9770.718434,2834.553343,-0.000000
1327.885168,-7254.018232,2528.115143,296.082377
1327.885479,-6217.729913,536.266849,-0.000000
1327.885791,-6069.688724,-1072.533697,740.205942
1327.886102,-6069.688724,-1378.971896,-0.000000
1327.886414,-6957.935855,-306.438199,-296.082377
1327.886725,-7698.141797,229.828649,-592.164754
1327.887036,-8290.306550,-536.266849,-888.247130
1327.887348,-8808.450710,-2068.457845,-0.000000
1327.887659,-9326.594869,-2451.505594,1332.370696
1327.887971,-10140.821405,-2681.334243,1998.556043
1327.888282,-11325.150913,-3064.381992,2368.659014
1327.888594,-12509.480420,-1455.581446,1110.308913
1327.888905,-12287.418637,689.485948,1480.411884
1327.889217,-10510.924376,2221.676944,592.164754
1327.889528,-8956.491898,2528.115143,888.247130
1327.889839,-7402.059420,1685.410096,740.205942
1327.890151,-6661.853478,-306.438199,518.144159
1327.890462,-6439.791695,-612.876398,592.164754
1327.890774,-7031.956449,-842.705048,-518.144159
1327.891085,-6661.853478,0.000000,-1036.288319
1327.891397,-6661.853478,536.266849,-888.247130
1327.891708,-7550.100608,-1149.143247,-740.205942
1327.892020,-8438.347739,-2451.505594,592.164754
1327.892331,-9992.780217,-2451.505594,1998.556043
1327.892643,-10807.006753,-1991.848295,2664.741391
1327.892954,-11917.315666,-919.314598,2812.782580
1327.893265,-12657.521608,383.047749,1776.494261
1327.893577,-11177.109724,1915.238745,814.226536
1327.893888,-9474.636058,3753.867940,-148.041188
1327.894200,-7698.141797,3064.381992,-74.020594
1327.894511,-6735.874072,1532.190996,74.020594
1327.894823,-6069.688724,-459.657299,370.102971
1327.895134,-5995.668130,-2145.067394,370.102971
1327.895446,-7476.080014,-1072.533697,-370.102971
1327.895757,-7772.162391,76.609550,-666.185348
1327.896068,-7772.162391,76.609550,-888.247130
1327.896380,-8734.430116,-1149.143247,-444.123565
1327.896691,-9030.512492,-2145.067394,1258.350101
1327.897003,-10066.800811,-2451.505594,1702.473667
1327.897314,-10732.986159,-2298.286494,2072.576638
1327.897626,-12139.377449,-1991.848295,1258.350101
1327.897937,-11769.274478,383.047749,296.082377
1327.898249,-10214.842000,2451.505594,-444.123565
1327.898560,-9178.553681,2987.772442,-148.041188
1327.898871,-7624.121203,1991.848295,-0.000000
1327.899183,-7402.059420,76.609550,444.123565
1327.899494,-7105.977043,-689.485948,740.205942
1327.899806,-7105.977043,-1455.581446,-148.041188
1327.900117,-7994.224174,-995.924147,-962.267725
1327.900429,-6957.935855,459.657299,-1110.308913
1327.900740,-7476.080014,0.000000,-1554.432478
1327.901052,-8808.450710,-1072.533697,-666.185348
1327.901363,-9622.677246,-1149.143247,518.144159
1327.901674,-10955.047942,-1225.752797,1332.370696
1327.901986,-11695.253884,-1532.190996,2368.659014
1327.902297,-12139.377449,-612.876398,1480.411884
1327.902609,-11473.192101,995.924147,740.205942
1327.902920,-10288.862594,2834.553343,444.123565
1327.903232,-9622.677246,2757.943793,666.185348
1327.903543,-7920.203579,1838.629195,962.267725
1327.903855,-7105.977043,459.657299,666.185348
1327.904166,-6809.894666,-229.828649,962.267725
1327.904477,-7254.018232,-383.047749,-444.123565
1327.904789,-7254.018232,1378.971896,-814.226536
1327.905100,-7402.059420,1762.019645,-1480.411884
1327.905412,-8216.285956,-153.219100,-962.267725
1327.905723,-9252.574275,-1455.581446,592.164754
1327.906035,-10510.924376,-1608.800546,2220.617826
1327.906346,-10732.986159,-1685.410096,2886.803174
1327.906658,-11251.130318,-842.705048,2516.700203
1327.906969,-11695.253884,842.705048,1332.370696
1327.907280,-9844.739029,3370.820191,518.144159
1327.907592,-8068.244768,3524.039291,370.102971
1327.907903,-6587.832884,2528.115143,962.267725
1327.908215,-5699.585753,766.095498,1184.329507
1327.908526,-6587.832884,-766.095498,1110.308913
1327.908838,-6883.915261,-1608.800546,518.144159
1327.909149,-7179.997637,-612.876398,-0.000000
1327.909461,-7254.018232,-383.047749,-962.267725
1327.909772,-7698.141797,-229.828649,-592.164754
1327.910083,-8660.409521,-2987.772442,-0.000000
1327.910395,-8808.450710,-3064.381992,1406.391290
1327.910706,-10584.944971,-3140.991542,2368.659014
1327.911018,-11547.212695,-2451.505594,2886.803174
1327.911329,-12361.439231,-1302.362347,2294.638420
1327.911641,-11843.295072,383.047749,1554.432478
1327.911952,-9844.739029,2068.457845,518.144159
1327.912264,-7402.059420,2681.334243,-0.000000
1327.912575,-7179.997637,2068.457845,-296.082377
1327.912886,-6809.894666,459.657299,-296.082377
1327.913198,-6439.791695,-689.485948,-74.020594
1327.913509,-7328.038826,-842.705048,-0.000000
1327.913821,-7846.182985,-383.047749,-296.082377
1327.914132,-8216.285956,76.609550,-814.226536
1327.914444,-9252.574275,-1072.533697,-444.123565
1327.914755,-9696.697840,-1991.848295,222.061783
1327.915067,-10066.800811,-2604.724693,1332.370696
1327.915378,-11251.130318,-3140.991542,2146.597232
1327.915689,-12287.418637,-2221.676944,1924.535449
1327.916001,-12805.562797,-689.485948,888.247130
1327.916312,-11621.233289,1838.629195,296.082377
1327.916624,-9474.636058,3217.601092,-0.000000
1327.916935,-7550.100608,2298.286494,592.164754
1327.917247,-6957.935855,0.000000,962.267725
1327.917558,-5847.626942,-1838.629195,518.144159
1327.917870,-6439.791695,-1685.410096,-296.082377
1327.918181,-6809.894666,-612.876398,-1258.350101
1327.918492,-6735.874072,612.876398,-1850.514855
1327.918804,-7920.203579,-76.609550,-1702.473667
1327.919115,-8290.306550,-1378.971896,-740.205942
1327.919427,-8956.491898,-2374.896044,592.164754
1327.919738,-10362.883188,-2068.457845,1332.370696
1327.920050,-11177.109724,-1225.752797,2220.617826
1327.920361,-12065.356855,-383.047749,1776.494261
1327.920673,-11769.274478,1685.410096,814.226536
1327.920984,-10288.862594,3447.429741,-0.000000
1327.921296,-9326.594869,4060.306139,-74.020594
1327.921607,-8512.368333,2528.115143,296.082377
1327.921918,-7105.977043,1072.533697,1480.411884
1327.922230,-7031.956449,-459.657299,444.123565
1327.922541,-7105.977043,-612.876398,-0.000000
1327.922853,-7772.162391,383.047749,-296.082377
1327.923164,-7698.141797,995.924147,-444.123565
1327.923476,-8142.265362,383.047749,-666.185348
1327.923787,-8512.368333,-153.219100,370.102971
1327.924099,-9548.656652,0.000000,1406.391290
1327.924410,-10436.903782,-306.438199,2294.638420
1327.924721,-10362.883188,-383.047749,2368.659014
1327.925033,-11177.109724,229.828649,1406.391290
1327.925344,-10807.006753,1991.848295,518.144159
1327.925656,-9326.594869,3447.429741,-444.123565
1327.925967,-7772.162391,2911.162892,-0.000000
1327.926279,-6957.935855,1225.752797,740.205942
1327.926590,-6883.915261,-919.314598,1110.308913
1327.926902,-6809.894666,-2145.067394,888.247130
1327.927213,-7920.203579,-1532.190996,148.041188
1327.927525,-7105.977043,-153.219100,222.061783
1327.927836,-7328.038826,0.000000,-296.082377
1327.928148,-8068.244768,-1072.533697,222.061783
1327.928459,-8660.409521,-1991.848295,1184.329507
1327.928770,-9622.677246,-2145.067394,1924.535449
1327.929082,-9844.739029,-2068.457845,2886.803174
1327.929393,-10955.047942,-1149.143247,2220.617826
1327.929705,-11325.150913,0.000000,962.267725
1327.930016,-10584.944971,1838.629195,518.144159
1327.930328,-9622.677246,2757.943793,-74.020594
1327.930639,-8216.285956,2221.676944,-0.000000
1327.930951,-7846.182985,919.314598,592.164754
1327.931262,-7846.182985,0.000000,740.205942
1327.931574,-7698.141797,-1149.143247,-0.000000
1327.931885,-7031.956449,0.000000,-222.061783
1327.932197,-7402.059420,0.000000,-74.020594
1327.932508,-8586.388927,-842.705048,-518.144159
1327.932819,-8882.471304,-2068.457845,-0.000000
1327.933131,-9178.553681,-2681.334243,888.247130
1327.933442,-9696.697840,-2757.943793,1480.411884
1327.933754,-11621.233289,-2834.553343,1776.494261
1327.934065,-12805.562797,-1608.800546,888.247130
1327.934377,-12509.480420,459.657299,740.205942
1327.934688,-10732.986159,2528.115143,370.102971
1327.935000,-9696.697840,2451.505594,592.164754
1327.935311,-8068.244768,1302.362347,1110.308913
1327.935623,-7031.956449,-459.657299,740.205942
1327.935934,-5403.503377,-1762.019645,296.082377
1327.936246,-5847.626942,-612.876398,-962.267725
1327.936557,-5995.668130,689.485948,-1480.411884
1327.936868,-6513.812290,1225.752797,-1850.514855
1327.937180,-7772.162391,-689.485948,-888.247130
1327.937491,-8882.471304,-1991.848295,592.164754
1327.937803,-10140.821405,-2068.457845,1924.535449
1327.938114,-11399.171507,-1608.800546,2072.576638
1327.938426,-11695.253884,-1072.533697,1776.494261
1327.938737,-11917.315666,383.047749,666.185348
1327.939049,-10140.821405,2298.286494,296.082377
1327.939360,-9252.574275,3294.210641,-518.144159
1327.939672,-8364.327145,3140.991542,-148.041188
1327.939983,-7031.956449,1838.629195,296.082377
1327.940295,-7031.956449,153.219100,592.164754
1327.940606,-6809.894666,-1225.752797,370.102971
1327.940917,-6883.915261,-459.657299,-370.102971
1327.941229,-7328.038826,-612.876398,-222.061783
1327.941540,-8068.244768,-1072.533697,-740.205942
1327.941852,-8438.347739,-1378.971896,-74.020594
1327.942163,-10362.883188,-2528.115143,1036.288319
1327.942475,-10807.006753,-2681.334243,1998.556043
1327.942786,-11325.150913,-2451.505594,2368.659014
1327.943098,-12139.377449,-1225.752797,1924.535449
1327.943409,-11621.233289,689.485948,814.226536
1327.943721,-10288.862594,2221.676944,296.082377
1327.944032,-9104.533087,2681.334243,-0.000000
1327.944344,-7476.080014,1378.971896,222.061783
1327.944655,-6291.750507,-306.438199,444.123565
1327.944966,-6217.729913,-995.924147,296.082377
1327.945278,-6957.935855,-919.314598,-148.041188
1327.945589,-7254.018232,0.000000,-888.247130
1327.945901,-7772.162391,459.657299,-962.267725
1327.946212,-8734.430116,0.000000,-370.102971
1327.946524,-8438.347739,-1149.143247,370.102971
1327.946835,-9474.636058,-1838.629195,1184.329507
1327.947147,-9844.739029,-1532.190996,1406.391290
1327.947458,-10955.047942,-1225.752797,1406.391290
1327.947770,-11473.192101,536.266849,518.144159
1327.948081,-10881.027347,3907.087040,296.082377
1327.948393,-10436.903782,4673.182538,-0.000000
1327.948704,-9326.594869,3217.601092,222.061783
1327.949015,-7402.059420,1685.410096,962.267725
1327.949327,-7328.038826,-306.438199,814.226536
1327.949638,-7254.018232,-689.485948,666.185348
1327.949950,-7105.977043,0.000000,-444.123565
1327.950261,-7476.080014,306.438199,-888.247130
1327.950573,-8068.244768,0.000000,-592.164754
1327.950884,-8364.327145,-766.095498,-518.144159
1327.951196,-9252.574275,-1685.410096,740.205942
1327.951507,-9326.594869,-2145.067394,2146.597232
1327.951819,-10140.821405,-2757.943793,2442.679609
1327.952130,-11769.274478,-2374.896044,2072.576638
1327.952442,-11769.274478,0.000000,1924.535449
1327.952753,-9918.759623,2681.334243,814.226536
1327.953064,-8956.491898,3140.991542,444.123565
1327.953376,-6957.935855,2604.724693,1258.350101
1327.953687,-6069.688724,842.705048,962.267725
1327.953999,-5995.668130,-153.219100,888.247130
1327.954310,-6513.812290,-229.828649,518.144159
1327.954622,-7328.038826,612.876398,-296.082377
1327.954933,-7328.038826,1378.971896,-888.247130
1327.955245,-8142.265362,766.095498,-592.164754
1327.955556,-8068.244768,-1149.143247,-0.000000
1327.955868,-8586.388927,-2528.115143,1406.391290
1327.956179,-9770.718434,-2757.943793,2146.597232
1327.956491,-10955.047942,-2528.115143,2220.617826
1327.956802,-12213.398043,-1455.581446,1332.370696
1327.957113,-12213.398043,306.438199,1036.288319
1327.957425,-11251.130318,1991.848295,592.164754
1327.957736,-9104.533087,2145.067394,518.144159
1327.958048,-7105.977043,536.266849,1110.308913
1327.958359,-6883.915261,-919.314598,592.164754
1327.958671,-7105.977043,-1838.629195,370.102971
1327.958982,-7624.121203,-1532.190996,-518.144159
1327.959294,-7476.080014,-306.438199,-814.226536
1327.959605,-7328.038826,-153.219100,-740.205942
1327.959917,-9252.574275,-1302.362347,-222.061783
1327.960228,-10436.903782,-1838.629195,-0.000000
1327.960539,-10362.883188,-1532.190996,1184.329507
1327.960851,-10362.883188,-2451.505594,2368.659014
1327.961162,-11399.171507,-1685.410096,2368.659014
1327.961474,-12213.398043,-612.876398,1036.288319
1327.961785,-10288.862594,1532.190996,-370.102971
1327.962097,-8586.388927,2987.772442,-518.144159
1327.962408,-7254.018232,3217.601092,-0.000000
1327.962720,-6069.688724,1072.533697,296.082377
1327.963031,-7254.018232,-919.314598,-148.041188
1327.963343,-7031.956449,-1378.971896,370.102971
1327.963654,-6957.935855,-919.314598,-296.082377
1327.963966,-7328.038826,76.609550,-814.226536
1327.964277,-7624.121203,-306.438199,-1036.288319
1327.964588,-8364.327145,-1532.190996,-592.164754
1327.964900,-8956.491898,-2451.505594,370.102971
1327.965211,-9400.615463,-1838.629195,1850.514855
1327.965523,-10658.965565,-1915.238745,1406.391290
1327.965834,-12287.418637,-1225.752797,1258.350101
1327.966146,-12065.356855,919.314598,1258.350101
1327.966457,-10584.944971,2451.505594,-148.041188
1327.966769,-9622.677246,2757.943793,-222.061783
1327.967080,-8068.244768,1762.019645,-0.000000
1327.967392,-7254.018232,612.876398,370.102971
1327.967703,-6809.894666,459.657299,-0.000000
1327.968015,-7476.080014,0.000000,-444.123565
1327.968326,-7402.059420,842.705048,-592.164754
1327.968637,-7254.018232,842.705048,-814.226536
1327.968949,-8364.327145,-536.266849,-444.123565
1327.969260,-8956.491898,-1608.800546,296.082377
1327.969572,-10140.821405,-1762.019645,1036.288319
1327.969883,-10807.006753,-1378.971896,1850.514855
1327.970195,-11103.089130,-536.266849,1480.411884
1327.970506,-12879.583391,383.047749,222.061783
1327.970818,-12361.439231,2681.334243,592.164754
1327.971129,-10732.986159,3677.258390,-0.000000
1327.971441,-8808.450710,3370.820191,814.226536
1327.971752,-6661.853478,2298.286494,1332.370696
1327.972064,-6365.771101,-229.828649,1480.411884
1327.972375,-6365.771101,-1685.410096,1036.288319
1327.972686,-6587.832884,-689.485948,-0.000000
1327.972998,-6513.812290,1838.629195,-740.205942
1327.973309,-7179.997637,1685.410096,-1332.370696
1327.973621,-8290.306550,0.000000,-444.123565
1327.973932,-8364.327145,-1762.019645,740.205942
1327.974244,-9104.533087,-2681.334243,1702.473667
1327.974555,-10140.821405,-2834.553343,2664.741391
1327.974867,-11251.130318,-2068.457845,2072.576638
1327.975178,-12287.418637,459.657299,1332.370696
1327.975490,-11325.150913,2451.505594,518.144159
1327.975801,-9104.533087,2451.505594,666.185348
1327.976113,-7476.080014,1149.143247,1184.329507
1327.976424,-7105.977043,-612.876398,1702.473667
1327.976735,-6735.874072,-1762.019645,1184.329507
1327.977047,-5921.647536,-1608.800546,296.082377
1327.977358,-6661.853478,0.000000,-0.000000
1327.977670,-7031.956449,0.000000,-592.164754
1327.977981,-8068.244768,-919.314598,-592.164754
1327.978293,-9326.594869,-1838.629195,-74.020594
1327.978604,-9770.718434,-1762.019645,1258.350101
1327.978916,-11103.089130,-1685.410096,1480.411884
1327.979227,-11843.295072,-1225.752797,1850.514855
1327.979539,-12435.459826,-919.314598,1406.391290
1327.979850,-11325.150913,842.705048,666.185348
1327.980162,-10066.800811,3524.039291,-74.020594
1327.980473,-8512.368333,3983.696590,-0.000000
1327.980784,-7402.059420,1685.410096,444.123565
1327.981096,-7105.977043,-536.266849,592.164754
1327.981407,-6439.791695,-995.924147,444.123565
1327.981719,-7179.997637,-995.924147,-666.185348
1327.982030,-7402.059420,0.000000,-888.247130
1327.982342,-7994.224174,0.000000,-1110.308913
1327.982653,-9178.553681,-1685.410096,-740.205942
1327.982965,-9104.533087,-2528.115143,444.123565
1327.983276,-10436.903782,-3140.991542,1924.535449
1327.983588,-10807.006753,-2834.553343,2368.659014
1327.983899,-11843.295072,-1991.848295,1554.432478
1327.984211,-11843.295072,0.000000,888.247130
1327.984522,-10658.965565,2145.067394,-74.020594
1327.984833,-9992.780217,3140.991542,-222.061783
1327.985145,-8364.327145,2451.505594,-0.000000
1327.985456,-6587.832884,1149.143247,592.164754
1327.985768,-6291.750507,-153.219100,592.164754
1327.986079,-6439.791695,-1302.362347,-0.000000
1327.986391,-6883.915261,-383.047749,-592.164754
1327.986702,-6587.832884,306.438199,-1184.329507
1327.987014,-7476.080014,-153.219100,-1258.350101
1327.987325,-9104.533087,-689.485948,-148.041188
1327.987637,-10140.821405,-1915.238745,740.205942
1327.987948,-11473.192101,-2068.457845,1776.494261
1327.988260,-11843.295072,-1532.190996,2220.617826
1327.988571,-11991.336260,-842.705048,1628.453072
1327.988882,-11473.192101,919.314598,666.185348
1327.989194,-10362.883188,3217.601092,-370.102971
1327.989505,-8364.327145,3447.429741,-222.061783
1327.989817,-7105.977043,2145.067394,-0.000000
1327.990128,-7179.997637,612.876398,814.226536
1327.990440,-7179.997637,-766.095498,1110.308913
1327.990751,-7328.038826,-1302.362347,592.164754
1327.991063,-7698.141797,-995.924147,-0.000000
1327.991374,-7920.203579,0.000000,-666.185348
1327.991686,-7772.162391,0.000000,-962.267725
1327.991997,-8068.244768,-766.095498,-444.123565
1327.992309,-8956.491898,-1762.019645,1110.308913
1327.992620,-9474.636058,-1072.533697,1776.494261
1327.992931,-10362.883188,-1302.362347,1554.432478
1327.993243,-11621.233289,153.219100,1258.350101
1327.993554,-11843.295072,2451.505594,1036.288319
1327.993866,-11103.089130,4060.306139,518.144159
1327.994177,-9474.636058,3370.820191,814.226536
1327.994489,-8438.347739,1685.410096,1406.391290
1327.994800,-7328.038826,383.047749,962.267725
1327.995112,-6513.812290,76.609550,296.082377
1327.995423,-5921.647536,76.609550,-962.267725
1327.995735,-5995.668130,842.705048,-888.247130
1327.996046,-7254.018232,0.000000,-814.226536
1327.996358,-9104.533087,-842.705048,-74.020594
1327.996669,-9400.615463,-2068.457845,1110.308913
1327.996980,-10140.821405,-1302.362347,2146.597232
1327.997292,-10362.883188,-1378.971896,2516.700203
1327.997603,-11621.233289,-536.266849,1628.453072
1327.997915,-11843.295072,1149.143247,888.247130
1327.998226,-9622.677246,3140.991542,518.144159
1327.998538,-9252.574275,3447.429741,-296.082377
1327.998849,-8290.306550,3064.381992,-0.000000
1327.999161,-6587.832884,919.314598,296.082377
1327.999472,-6735.874072,-1378.971896,518.144159
1327.999784,-6217.729913,-1302.362347,74.020594
1328.000095,-6439.791695,-766.095498,-222.061783
1328.000407,-7254.018232,-995.924147,-592.164754
1328.000718,-8142.265362,-1991.848295,370.102971
1328.001029,-9104.533087,-3677.258390,592.164754
1328.001341,-8808.450710,-2757.943793,962.267725
1328.001652,-9548.656652,-2834.553343,2516.700203
1328.001964,-10510.924376,-3524.039291,2368.659014
1328.002275,-12213.398043,-2068.457845,1628.453072
1328.002587,-12361.439231,919.314598,1258.350101
1328.002898,-11399.171507,2911.162892,666.185348
1328.003210,-10066.800811,2834.553343,814.226536
1328.003521,-8586.388927,1838.629195,1258.350101
1328.003833,-6735.874072,995.924147,740.205942
1328.004144,-4737.318029,-229.828649,370.102971
1328.004456,-4959.379811,-459.657299,-592.164754
1328.004767,-6735.874072,229.828649,-1332.370696
1328.005078,-8142.265362,1149.143247,-1480.411884
1328.005390,-9474.636058,0.000000,-666.185348
1328.005701,-10807.006753,-1762.019645,592.164754
1328.006013,-11251.130318,-1991.848295,2072.576638
1328.006324,-11843.295072,-1685.410096,2146.597232
1328.006636,-11695.253884,-1532.190996,1850.514855
1328.006947,-10510.924376,-306.438199,1110.308913
1328.007259,-9770.718434,1608.800546,444.123565
1328.007570,-8290.306550,2834.553343,296.082377
1328.007882,-6735.874072,2298.286494,518.144159
1328.008193,-6661.853478,0.000000,518.144159
1328.008505,-6513.812290,-1072.533697,296.082377
1328.008816,-7105.977043,-2298.286494,-0.000000
1328.009127,-7476.080014,-1378.971896,-592.164754
1328.009439,-8364.327145,-383.047749,-888.247130
1328.009750,-9104.533087,-1072.533697,-518.144159
1328.010062,-8586.388927,-1915.238745,296.082377
1328.010373,-9104.533087,-3447.429741,888.247130
1328.010685,-9548.656652,-3217.601092,1554.432478
1328.010996,-9918.759623,-1991.848295,1924.535449
1328.011308,-11029.068536,459.657299,1036.288319
1328.011619,-11325.150913,2068.457845,518.144159
1328.011931,-11029.068536,3447.429741,-518.144159
1328.012242,-9326.594869,4596.572988,-296.082377
1328.012554,-7328.038826,3907.087040,-74.020594
1328.012865,-6439.791695,1532.190996,-592.164754
1328.013176,-6439.791695,-153.219100,-444.123565
1328.013488,-6883.915261,-842.705048,-814.226536
1328.013799,-7698.141797,153.219100,-740.205942
1328.014111,-8882.471304,1302.362347,-1332.370696
1328.014422,-9918.759623,-383.047749,-962.267725
1328.014734,-10955.047942,-1225.752797,-0.000000
1328.015045,-11251.130318,-1532.190996,1332.370696
1328.015357,-10807.006753,-1762.019645,2146.597232
1328.015668,-11325.150913,-1762.019645,2146.597232
1328.015980,-11103.089130,0.000000,1554.432478
1328.016291,-9992.780217,2145.067394,814.226536
1328.016603,-9326.594869,2757.943793,222.061783
1328.016914,-7772.162391,2451.505594,370.102971
1328.017225,-7179.997637,1302.362347,296.082377
1328.017537,-7031.956449,229.828649,518.144159
1328.017848,-6661.853478,-536.266849,592.164754
1328.018160,-6957.935855,-1149.143247,-0.000000
1328.018471,-7328.038826,-842.705048,-74.020594
1328.018783,-7476.080014,-306.438199,-296.082377
1328.019094,-8142.265362,-229.828649,-370.102971
1328.019406,-8808.450710,-1685.410096,1406.391290
1328.019717,-9770.718434,-2145.067394,1776.494261
1328.020029,-10214.842000,-1378.971896,2368.659014
1328.020340,-10510.924376,-153.219100,1702.473667
1328.020652,-10732.986159,1072.533697,1406.391290
1328.020963,-10510.924376,3370.820191,888.247130
1328.021274,-10288.862594,2834.553343,888.247130
1328.021586,-8364.327145,2374.896044,1332.370696
1328.021897,-6735.874072,842.705048,1480.411884
1328.022209,-6365.771101,-612.876398,1184.329507
1328.022520,-6365.771101,-1685.410096,296.082377
1328.022832,-6439.791695,-1302.362347,-1036.288319
1328.023143,-7031.956449,536.266849,-1406.391290
1328.023455,-8290.306550,153.219100,-888.247130
1328.023766,-9770.718434,-766.095498,-0.000000
1328.024078,-10881.027347,-2834.553343,1480.411884
1328.024389,-11473.192101,-3064.381992,2368.659014
1328.024700,-11029.068536,-2451.505594,2664.741391
1328.025012,-11843.295072,-1149.143247,1406.391290
1328.025323,-11029.068536,842.705048,1406.391290
1328.025635,-9548.656652,1455.581446,-0.000000
1328.025946,-8586.388927,2221.676944,-0.000000
1328.026258,-7328.038826,1762.019645,518.144159
1328.026569,-7105.977043,612.876398,-0.000000
1328.026881,-6883.915261,-689.485948,740.205942
1328.027192,-7476.080014,-1378.971896,-296.082377
1328.027503,-7254.018232,-919.314598,-444.123565
1328.027815,-7698.141797,-383.047749,-666.185348
1328.028126,-8512.368333,-1302.362347,-0.000000
1328.028438,-9178.553681,-2681.334243,-0.000000
1328.028749,-9918.759623,-2451.505594,1332.370696
1328.029061,-10658.965565,-1302.362347,1628.453072
1328.029372,-11769.274478,-1225.752797,1258.350101
1328.029683,-12065.356855,536.266849,740.205942
1328.029995,-11399.171507,2911.162892,444.123565
1328.030306,-9326.594869,3217.601092,222.061783
1328.030618,-8068.244768,2451.505594,-74.020594
1328.030929,-6365.771101,919.314598,592.164754
1328.031241,-5403.503377,-229.828649,444.123565
1328.031552,-5329.482782,-1302.362347,-518.144159
1328.031864,-6143.709319,-995.924147,-1406.391290
1328.032175,-7254.018232,-229.828649,-1480.411884
1328.032486,-8808.450710,-536.266849,-1110.308913
1328.032798,-9622.677246,-1838.629195,370.102971
1328.033109,-10955.047942,-3524.039291,1184.329507
1328.033421,-11251.130318,-3447.429741,2368.659014
1328.033732,-12435.459826,-2681.334243,1924.535449
1328.034044,-11991.336260,-689.485948,1406.391290
1328.034355,-10510.924376,919.314598,740.205942
1328.034667,-9326.594869,2681.334243,-370.102971
1328.034978,-7476.080014,2911.162892,-0.000000
1328.035289,-7105.977043,1532.190996,-0.000000
1328.035601,-6661.853478,612.876398,814.226536
1328.035912,-6957.935855,-766.095498,962.267725
1328.036224,-8216.285956,-229.828649,-0.000000
1328.036535,-8290.306550,459.657299,-148.041188
1328.036847,-8586.388927,766.095498,-888.247130
1328.037158,-8734.430116,0.000000,-666.185348
1328.037469,-8734.430116,-842.705048,296.082377
1328.037781,-9104.533087,-2145.067394,1110.308913
1328.038092,-10288.862594,-1915.238745,1776.494261
1328.038404,-11325.150913,-995.924147,1924.535449
1328.038715,-11991.336260,459.657299,888.247130
1328.039027,-11251.130318,2451.505594,962.267725
1328.039338,-10362.883188,3064.381992,1184.329507
1328.039650,-8660.409521,2374.896044,666.185348
1328.039961,-7105.977043,842.705048,888.247130
1328.040272,-5847.626942,0.000000,666.185348
1328.040584,-5477.523971,-1532.190996,-0.000000
1328.040895,-6291.750507,0.000000,-592.164754
1328.041207,-7254.018232,536.266849,-740.205942
1328.041518,-8438.347739,612.876398,-666.185348
1328.041830,-9252.574275,-536.266849,666.185348
1328.042141,-9696.697840,-1378.971896,1554.432478
1328.042453,-10362.883188,-1762.019645,2368.659014
1328.042764,-9696.697840,-2451.505594,2590.720797
1328.043075,-10288.862594,-1225.752797,1406.391290
1328.043387,-11103.089130,919.314598,370.102971
1328.043698,-9474.636058,3447.429741,-666.185348
1328.044010,-8586.388927,3600.648841,222.061783
1328.044321,-7846.182985,2145.067394,1110.308913
1328.044633,-7920.203579,-306.438199,1776.494261
1328.044944,-7254.018232,-1532.190996,1554.432478
1328.045255,-6957.935855,-1149.143247,666.185348
1328.045567,-7105.977043,-1455.581446,-296.082377
1328.045878,-6809.894666,0.000000,-1258.350101
1328.046190,-8216.285956,-306.438199,-1406.391290
1328.046501,-8068.244768,-1225.752797,-222.061783
1328.046813,-9622.677246,-2221.676944,370.102971
1328.047124,-11399.171507,-2068.457845,1628.453072
1328.047436,-11917.315666,-1378.971896,2220.617826
1328.047747,-12731.542202,-1072.533697,740.205942
1328.048058,-11991.336260,536.266849,1036.288319
1328.048370,-10436.903782,2221.676944,148.041188
1328.048681,-9548.656652,2221.676944,148.041188
1328.048993,-7698.141797,1149.143247,962.267725
1328.049304,-6143.709319,-689.485948,1036.288319
1328.049616,-5847.626942,-1685.410096,814.226536
1328.049927,-6217.729913,-1225.752797,296.082377
1328.050239,-6661.853478,-383.047749,-592.164754
1328.050550,-7994.224174,0.000000,-888.247130
1328.050861,-9548.656652,-1149.143247,-74.020594
1328.051173,-10066.800811,-1762.019645,740.205942
1328.051484,-11547.212695,-2681.334243,1850.514855
1328.051796,-11769.274478,-2528.115143,2738.761985
1328.052107,-11177.109724,-1455.581446,2072.576638
1328.052419,-11399.171507,383.047749,814.226536
1328.052730,-10288.862594,1915.238745,-0.000000
1328.053042,-8734.430116,3370.820191,-444.123565
1328.053353,-7105.977043,3370.820191,222.061783
1328.053664,-5625.565159,1838.629195,1184.329507
1328.053976,-6217.729913,-306.438199,1332.370696
1328.054287,-6957.935855,-1532.190996,1332.370696
1328.054599,-6883.915261,-229.828649,666.185348
1328.054910,-6735.874072,536.266849,-222.061783
1328.055222,-7550.100608,0.000000,-1184.329507
1328.055533,-8364.327145,-1532.190996,-518.144159
1328.055844,-9400.615463,-2221.676944,-0.000000
1328.056156,-10436.903782,-1915.238745,962.267725
1328.056467,-11695.253884,-1608.800546,1998.556043
1328.056779,-13027.624579,-1149.143247,1776.494261
1328.057090,-12435.459826,842.705048,1628.453072
1328.057402,-10881.027347,2681.334243,814.226536
1328.057713,-8364.327145,2145.067394,666.185348
1328.058025,-6587.832884,2374.896044,666.185348
1328.058336,-5921.647536,229.828649,296.082377
1328.058647,-5551.544565,-459.657299,-74.020594
1328.058959,-6735.874072,153.219100,-518.144159
1328.059270,-7698.141797,1455.581446,-888.247130
1328.059582,-8586.388927,1532.190996,-1406.391290
1328.059893,-9696.697840,306.438199,-518.144159
1328.060205,-9400.615463,-689.485948,518.144159
1328.060516,-9770.718434,-1532.190996,518.144159
1328.060828,-10288.862594,-612.876398,1110.308913
1328.061139,-10807.006753,-153.219100,962.267725
1328.061450,-11843.295072,689.485948,-0.000000
1328.061762,-10214.842000,3140.991542,-0.000000
1328.062073,-9400.615463,3447.429741,-74.020594
1328.062385,-8808.450710,2068.457845,592.164754
1328.062696,-7698.141797,612.876398,1406.391290
1328.063008,-7772.162391,-689.485948,1036.288319
1328.063319,-7179.997637,-689.485948,814.226536
1328.063630,-7772.162391,-306.438199,-370.102971
1328.063942,-7402.059420,0.000000,-962.267725
1328.064253,-7698.141797,-612.876398,-1110.308913
1328.064565,-6957.935855,-1455.581446,-0.000000
1328.064876,-7328.038826,-2145.067394,518.144159
1328.065188,-9918.759623,-2528.115143,1998.556043
1328.065499,-11177.109724,-2451.505594,2812.782580
1328.065811,-11917.315666,-1915.238745,2368.659014
1328.066122,-12139.377449,536.266849,1628.453072
1328.066433,-10881.027347,3370.820191,740.205942
1328.066745,-9400.615463,4060.306139,-0.000000
1328.067056,-7476.080014,1608.800546,814.226536
1328.067368,-5847.626942,919.314598,1110.308913
1328.067679,-5773.606348,-459.657299,222.061783
1328.067991,-6217.729913,-229.828649,-0.000000
1328.068302,-7476.080014,612.876398,-518.144159
1328.068614,-7698.141797,1302.362347,-518.144159
1328.068925,-8882.471304,0.000000,-222.061783
1328.069236,-9474.636058,-1685.410096,296.082377
1328.069548,-9918.759623,-1838.629195,1332.370696
1328.069859,-10584.944971,-2374.896044,1924.535449
1328.070171,-10807.006753,-1302.362347,1406.391290
1328.070482,-11251.130318,-995.924147,666.185348
1328.070794,-10658.965565,689.485948,740.205942
1328.071105,-10066.800811,2068.457845,592.164754
1328.071416,-9400.615463,1991.848295,1258.350101
1328.071728,-8290.306550,383.047749,1850.514855
1328.072039,-7550.100608,-1225.752797,2220.617826
1328.072351,-6883.915261,-2451.505594,888.247130
1328.072662,-6513.812290,-1455.581446,-148.041188
1328.072974,-6069.688724,-229.828649,-888.247130
1328.073285,-7031.956449,0.000000,-1554.432478
1328.073597,-8290.306550,-919.314598,-592.164754
1328.073908,-9400.615463,-1915.238745,666.185348
1328.074219,-10807.006753,-2911.162892,1850.514855
1328.074531,-11177.109724,-2451.505594,2442.679609
1328.074842,-11621.233289,-1685.410096,2146.597232
1328.075154,-11473.192101,153.219100,962.267725
1328.075465,-10510.924376,2221.676944,148.041188
1328.075777,-8808.450710,2528.115143,-148.041188
1328.076088,-7328.038826,2374.896044,148.041188
1328.076400,-7031.956449,766.095498,666.185348
1328.076711,-6439.791695,229.828649,592.164754
1328.077022,-7031.956449,-1532.190996,-74.020594
1328.077334,-6883.915261,-459.657299,-666.185348
1328.077645,-7254.018232,612.876398,-740.205942
1328.077957,-8290.306550,306.438199,-1110.308913
1328.078268,-9326.594869,-1072.533697,-444.123565
1328.078580,-10288.862594,-1838.629195,666.185348
1328.078891,-10362.883188,-1608.800546,1406.391290
1328.079203,-11177.109724,-842.705048,1258.350101
1328.079514,-11473.192101,306.438199,370.102971
1328.079825,-10584.944971,1225.752797,-296.082377
1328.080137,-10066.800811,2451.505594,-296.082377
1328.080448,-8512.368333,2145.067394,148.041188
1328.080760,-8216.285956,1072.533697,370.102971
1328.081071,-7550.100608,-459.657299,1110.308913
1328.081383,-7254.018232,-1225.752797,740.205942
1328.081694,-7846.182985,-995.924147,-222.061783
1328.082005,-7179.997637,-229.828649,-888.247130
1328.082317,-8068.244768,229.828649,-1480.411884
1328.082628,-8216.285956,153.219100,-962.267725
1328.082940,-9178.553681,-1072.533697,-296.082377
1328.083251,-9918.759623,-1762.019645,1036.288319
1328.083563,-10066.800811,-1685.410096,2072.576638
1328.083874,-11325.150913,-1149.143247,1554.432478
1328.084186,-11695.253884,919.314598,1184.329507
1328.084497,-11177.109724,2145.067394,444.123565
1328.084808,-10658.965565,2757.943793,-0.000000
1328.085120,-9178.553681,2528.115143,444.123565
1328.085431,-7402.059420,1302.362347,518.144159
1328.085743,-7254.018232,0.000000,370.102971
1328.086054,-7179.997637,-536.266849,296.082377
1328.086366,-7328.038826,536.266849,-222.061783
1328.086677,-6883.915261,1838.629195,-666.185348
1328.086989,-7550.100608,1455.581446,-370.102971
1328.087300,-8438.347739,-1225.752797,148.041188
1328.087611,-9030.512492,-1915.238745,962.267725
1328.087923,-9400.615463,-1608.800546,2294.638420
1328.088234,-10066.800811,-1378.971896,2294.638420
1328.088546,-11103.089130,-1225.752797,1554.432478
1328.088857,-11399.171507,612.876398,518.144159
1328.089169,-10807.006753,1685.410096,-0.000000
1328.089480,-9178.553681,2298.286494,592.164754
1328.089791,-7994.224174,1608.800546,1406.391290
1328.090103,-8068.244768,-459.657299,1258.350101
1328.090414,-7254.018232,-2221.676944,1406.391290
1328.090726,-6809.894666,-1762.019645,444.123565
1328.091037,-7105.977043,612.876398,-444.123565
1328.091349,-6365.771101,995.924147,-962.267725
1328.091660,-6957.935855,0.000000,-666.185348
1328.091972,-7328.038826,-2221.676944,518.144159
1328.092283,-9326.594869,-3064.381992,1480.411884
1328.092594,-10436.903782,-2681.334243,2590.720797
1328.092906,-12361.439231,-2068.457845,2368.659014
1328.093217,-13471.748144,-842.705048,2368.659014
1328.093529,-12361.439231,536.266849,1480.411884
1328.093840,-11103.089130,1915.238745,296.082377
1328.094152,-9696.697840,2757.943793,-222.061783
1328.094463,-7624.121203,2221.676944,370.102971
1328.094775,-5699.585753,459.657299,666.185348
1328.095086,-5181.441594,-383.047749,-148.041188
1328.095397,-5773.606348,-306.438199,-518.144159
1328.095709,-6217.729913,-229.828649,-814.226536
1328.096020,-7994.224174,-459.657299,-1036.288319
1328.096332,-9326.594869,-689.485948,-518.144159
1328.096643,-10214.842000,-2451.505594,814.226536
1328.096955,-11473.192101,-3370.820191,2072.576638
1328.097266,-11547.212695,-3370.820191,2590.720797
1328.097577,-11251.130318,-3447.429741,1702.473667
1328.097889,-11177.109724,-1915.238745,740.205942
1328.098200,-9918.759623,1149.143247,222.061783
1328.098512,-9178.553681,2681.334243,-518.144159
1328.098823,-7846.182985,2528.115143,444.123565
1328.099135,-5995.668130,919.314598,1184.329507
1328.099446,-6143.709319,-1762.019645,1110.308913
1328.099758,-6439.791695,-2221.676944,1110.308913
1328.100069,-7105.977043,-689.485948,-74.020594
1328.100380,-7698.141797,229.828649,-962.267725
1328.100692,-8808.450710,0.000000,-1258.350101
1328.101003,-9030.512492,-612.876398,-222.061783
1328.101315,-9770.718434,-2068.457845,-0.000000
1328.101626,-10658.965565,-1302.362347,962.267725
1328.101938,-11547.212695,-766.095498,1554.432478
1328.102249,-11991.336260,0.000000,1480.411884
1328.102561,-11695.253884,1455.581446,666.185348
1328.102872,-10436.903782,2987.772442,-0.000000
1328.103183,-8438.347739,3294.210641,222.061783
1328.103495,-7105.977043,2451.505594,222.061783
1328.103806,-5625.565159,1302.362347,222.061783
1328.104118,-5847.626942,306.438199,-0.000000
1328.104429,-6809.894666,0.000000,-148.041188
1328.104741,-8290.306550,229.828649,-148.041188
1328.105052,-9474.636058,153.219100,-148.041188
1328.105363,-9844.739029,0.000000,-0.000000
1328.105675,-9770.718434,-1532.190996,296.082377
1328.105986,-9030.512492,-1762.019645,962.267725
1328.106298,-8956.491898,-1225.752797,1110.308913
1328.106609,-9992.780217,-1225.752797,814.226536
1328.106921,-10732.986159,0.000000,740.205942
1328.107232,-10732.986159,2374.896044,962.267725
1328.107544,-10362.883188,3677.258390,1036.288319
1328.107855,-8956.491898,3447.429741,962.267725
1328.108166,-7254.018232,1532.190996,962.267725
1328.108478,-5255.462188,-153.219100,888.247130
1328.108789,-5107.421000,-612.876398,222.061783
1328.109101,-5699.585753,153.219100,-1036.288319
1328.109412,-7031.956449,766.095498,-1480.411884
1328.109724,-7624.121203,306.438199,-1036.288319
1328.110035,-8586.388927,-1378.971896,-0.000000
1328.110347,-9474.636058,-2374.896044,962.267725
1328.110658,-10584.944971,-2451.505594,2072.576638
1328.110969,-11621.233289,-2451.505594,1702.473667
1328.111281,-12213.398043,-612.876398,1480.411884
1328.111592,-12287.418637,995.924147,1554.432478
1328.111904,-11473.192101,1838.629195,962.267725
1328.112215,-9770.718434,1608.800546,1332.370696
1328.112527,-8142.265362,766.095498,1628.453072
1328.112838,-6957.935855,0.000000,1406.391290
1328.113150,-6217.729913,-919.314598,296.082377
1328.113461,-6069.688724,-919.314598,-444.123565
1328.113772,-5921.647536,-383.047749,-740.205942
1328.114084,-6957.935855,-306.438199,-592.164754
1328.114395,-8956.491898,-1532.190996,-888.247130
1328.114707,-10362.883188,-1991.848295,444.123565
1328.115018,-11029.068536,-1991.848295,1036.288319
1328.115330,-11547.212695,-1685.410096,1924.535449
1328.115641,-11177.109724,-1838.629195,1998.556043
1328.115952,-11843.295072,-1378.971896,1110.308913
1328.116264,-11399.171507,612.876398,1332.370696
1328.116575,-9918.759623,2374.896044,740.205942
1328.116887,-8142.265362,2528.115143,1110.308913
1328.117198,-6661.853478,995.924147,1184.329507
1328.117510,-6143.709319,-689.485948,814.226536
1328.117821,-5477.523971,-2451.505594,370.102971
1328.118133,-5625.565159,-459.657299,-888.247130
1328.118444,-6809.894666,383.047749,-814.226536
1328.118755,-8290.306550,-229.828649,-740.205942
1328.119067,-9992.780217,-1838.629195,-0.000000
1328.119378,-10658.965565,-2374.896044,1258.350101
1328.119690,-10140.821405,-1915.238745,2146.597232
1328.120001,-10732.986159,-1762.019645,2368.659014
1328.120313,-10584.944971,-919.314598,1554.432478
1328.120624,-10584.944971,842.705048,296.082377
1328.120936,-8808.450710,2681.334243,370.102971
1328.121247,-8290.306550,3064.381992,222.061783
1328.121558,-7698.141797,2451.505594,518.144159
1328.121870,-7179.997637,459.657299,518.144159
1328.122181,-6957.935855,-766.095498,-148.041188
1328.122493,-6587.832884,-459.657299,-740.205942
1328.122804,-7179.997637,383.047749,-740.205942
1328.123116,-7624.121203,229.828649,-666.185348
1328.123419,-8808.450710,-842.705048,-666.185348
1328.123730,-9918.759623,-1915.238745,222.061783
1328.124042,-10288.862594,-1762.019645,1554.432478
1328.124353,-11029.068536,-1532.190996,1776.494261
1328.124665,-11473.192101,-1532.190996,1702.473667
1328.124976,-11769.274478,-612.876398,962.267725
1328.125288,-10881.027347,1608.800546,-222.061783
1328.125599,-10362.883188,3753.867940,-296.082377
1328.125911,-9918.759623,4136.915689,-74.020594
1328.126222,-8512.368333,2681.334243,444.123565
1328.126534,-7105.977043,842.705048,666.185348
1328.126845,-6217.729913,-919.314598,444.123565
1328.127157,-6291.750507,-766.095498,-370.102971
1328.127468,-7550.100608,612.876398,-592.164754
1328.127780,-7994.224174,1378.971896,-592.164754
1328.128091,-8734.430116,76.609550,-222.061783
1328.128403,-9252.574275,-536.266849,444.123565
1328.128714,-10066.800811,-1302.362347,1480.411884
1328.129026,-10214.842000,-1685.410096,2072.576638
1328.129337,-11177.109724,-1225.752797,1258.350101
1328.129649,-11769.274478,536.266849,888.247130
1328.129960,-10658.965565,2068.457845,888.247130
1328.130272,-10140.821405,2145.067394,1036.288319
1328.130583,-9474.636058,1455.581446,1554.432478
1328.130895,-7920.203579,306.438199,1480.411884
1328.131207,-6809.894666,0.000000,1036.288319
1328.131518,-5847.626942,-383.047749,518.144159
1328.131830,-5403.503377,0.000000,-370.102971
1328.132141,-5329.482782,76.609550,-370.102971
1328.132453,-6661.853478,-612.876398,-592.164754
1328.132764,-7994.224174,-1149.143247,-0.000000
1328.133076,-9030.512492,-1225.752797,1258.350101
1328.133387,-10214.842000,-1225.752797,1924.535449
1328.133699,-11325.150913,-1532.190996,1998.556043
1328.134010,-11695.253884,-536.266849,1406.391290
1328.134322,-11399.171507,1762.019645,962.267725
1328.134633,-10140.821405,3907.087040,444.123565
1328.134945,-8660.409521,3294.210641,888.247130
1328.135256,-7994.224174,1608.800546,666.185348
1328.135568,-6143.709319,0.000000,1406.391290
1328.135879,-5329.482782,-1455.581446,1110.308913
1328.136191,-5551.544565,-1838.629195,-0.000000
1328.136502,-6365.771101,-689.485948,-666.185348
1328.136814,-7328.038826,-306.438199,-962.267725
1328.137125,-9178.553681,-2145.067394,-1036.288319
1328.137437,-10288.862594,-1991.848295,370.102971
1328.137748,-11473.192101,-2451.505594,1554.432478
1328.138060,-12139.377449,-3064.381992,1924.535449
1328.138371,-12213.398043,-2451.505594,2368.659014
1328.138683,-12435.459826,-306.438199,888.247130
1328.138994,-11325.150913,2681.334243,148.041188
1328.139306,-10066.800811,3907.087040,-74.020594
1328.139617,-8290.306550,3140.991542,-0.000000
1328.139929,-6661.853478,1915.238745,296.082377
1328.140240,-5921.647536,153.219100,222.061783
1328.140552,-6069.688724,-1762.019645,-0.000000
1328.140863,-6735.874072,-1762.019645,-814.226536
1328.141175,-7402.059420,-1072.533697,-666.185348
1328.141486,-8808.450710,-1149.143247,-592.164754
1328.141798,-10066.800811,-2068.457845,-0.000000
1328.142109,-11695.253884,-2834.553343,888.247130
1328.142421,-11917.315666,-1608.800546,1776.494261
1328.142732,-11547.212695,-1302.362347,1776.494261
1328.143044,-11399.171507,-229.828649,1036.288319
1328.143355,-9992.780217,1532.190996,296.082377
1328.143667,-8512.368333,2987.772442,-518.144159
1328.143978,-7994.224174,2757.943793,-148.041188
1328.144290,-6439.791695,2068.457845,-0.000000
1328.144601,-6069.688724,-229.828649,296.082377
1328.144913,-6069.688724,-1225.752797,296.082377
1328.145224,-6957.935855,-2987.772442,-222.061783
1328.145536,-7402.059420,-2451.505594,-370.102971
1328.145847,-8142.265362,-1225.752797,-518.144159
1328.146159,-8512.368333,-1225.752797,-148.041188
1328.146470,-9030.512492,-1532.190996,148.041188
1328.146782,-10140.821405,-1915.238745,1110.308913
1328.147093,-10066.800811,-2221.676944,1702.473667
1328.147405,-10214.842000,-2374.896044,1924.535449
1328.147716,-10955.047942,-536.266849,1480.411884
1328.148028,-11029.068536,2298.286494,1110.308913
1328.148339,-10807.006753,3140.991542,370.102971
1328.148651,-9696.697840,2374.896044,370.102971
1328.148962,-9030.512492,1455.581446,1184.329507
1328.149274,-8216.285956,536.266849,1036.288319
1328.149585,-7772.162391,0.000000,518.144159
1328.149897,-7624.121203,766.095498,-148.041188
1328.150208,-7179.997637,1915.238745,-518.144159
1328.150520,-7698.141797,1915.238745,-888.247130
1328.150831,-7846.182985,612.876398,-148.041188
1328.151143,-8586.388927,-306.438199,296.082377
1328.151454,-8216.285956,0.000000,962.267725
1328.151766,-9326.594869,-229.828649,1924.535449
1328.152077,-10066.800811,76.609550,1406.391290
1328.152389,-10955.047942,1072.533697,1332.370696
1328.152700,-11769.274478,2451.505594,666.185348
1328.153012,-10436.903782,3140.991542,1258.350101
1328.153323,-9474.636058,2451.505594,1258.350101
1328.153635,-8142.265362,842.705048,1332.370696
1328.153946,-5921.647536,-153.219100,962.267725
1328.154258,-5181.441594,-1991.848295,148.041188
1328.154569,-5033.400406,-995.924147,-444.123565
1328.154881,-6217.729913,0.000000,-888.247130
1328.155192,-7698.141797,-383.047749,-370.102971
1328.155504,-8660.409521,-1532.190996,592.164754
1328.155815,-9992.780217,-2298.286494,1554.432478
1328.156127,-10732.986159,-2451.505594,1850.514855
1328.156438,-10955.047942,-2451.505594,1850.514855
1328.156750,-11103.089130,-689.485948,814.226536
1328.157061,-10658.965565,2068.457845,-0.000000
1328.157373,-10510.924376,3370.820191,-518.144159
1328.157684,-9696.697840,3140.991542,-222.061783
1328.157996,-7994.224174,2145.067394,592.164754
1328.158307,-6809.894666,536.266849,740.205942
1328.158619,-6513.812290,-612.876398,-0.000000
1328.158930,-6735.874072,-153.219100,-888.247130
1328.159242,-7105.977043,536.266849,-666.185348
1328.159553,-8142.265362,-612.876398,-1036.288319
1328.159865,-9474.636058,-1915.238745,-666.185348
1328.160176,-11177.109724,-2987.772442,666.185348
1328.160488,-11843.295072,-2911.162892,1480.411884
1328.160799,-11399.171507,-3064.381992,2220.617826
1328.161111,-11473.192101,-3370.820191,2072.576638
1328.161422,-11325.150913,-1991.848295,1258.350101
1328.161734,-10288.862594,-306.438199,518.144159
1328.162045,-9474.636058,919.314598,370.102971
1328.162357,-7920.203579,766.095498,296.082377
1328.162668,-5921.647536,-1302.362347,740.205942
1328.162980,-5403.503377,-3600.648841,444.123565
1328.163291,-4737.318029,-4903.011187,814.226536
1328.163603,-5625.565159,-4060.306139,-74.020594
1328.163914,-7105.977043,-3600.648841,-74.020594
1328.164226,-8882.471304,-2604.724693,-0.000000
1328.164537,-10658.965565,-4290.134789,592.164754
1328.164849,-11325.150913,-4060.306139,1628.453072
1328.165160,-10732.986159,-2834.553343,1850.514855
1328.165472,-10140.821405,-3140.991542,2146.597232
1328.165783,-9622.677246,-3140.991542,1184.329507
1328.166095,-9474.636058,-1302.362347,296.082377
1328.166406,-8068.244768,459.657299,-740.205942
1328.166718,-8660.409521,1302.362347,-888.247130
1328.167029,-9178.553681,306.438199,-0.000000
1328.167341,-8290.306550,-612.876398,740.205942
1328.167652,-7476.080014,-2145.067394,814.226536
1328.167964,-7179.997637,-3677.258390,1184.329507
1328.168275,-7328.038826,-4136.915689,666.185348
1328.168587,-8142.265362,-4213.525239,-74.020594
1328.168898,-9252.574275,-4213.525239,-444.123565
1328.169210,-9104.533087,-4673.182538,-0.000000
1328.169521,-10362.883188,-4213.525239,444.123565
1328.169833,-10807.006753,-3600.648841,740.205942
1328.170144,-10066.800811,-3830.477490,740.205942
1328.170456,-9326.594869,-4060.306139,444.123565
1328.170767,-8364.327145,-3064.381992,-0.000000
1328.171079,-8142.265362,-2528.115143,-0.000000
1328.171390,-8808.450710,-2681.334243,-74.020594
1328.171702,-9104.533087,-2298.286494,666.185348
1328.172013,-10140.821405,-1685.410096,814.226536
1328.172325,-10510.924376,-766.095498,888.247130
1328.172636,-10881.027347,-766.095498,1332.370696
1328.172948,-9474.636058,-995.924147,1110.308913
1328.173259,-7328.038826,-1762.019645,518.144159
1328.173571,-5625.565159,-3217.601092,-444.123565
1328.173882,-4959.379811,-4213.525239,-296.082377
1328.174194,-5403.503377,-5056.230287,-0.000000
1328.174505,-7179.997637,-4749.792088,518.144159
1328.174817,-9326.594869,-4290.134789,666.185348
1328.175128,-11251.130318,-3217.601092,666.185348
1328.175440,-13027.624579,-2068.457845,740.205942
1328.175751,-12731.542202,-1149.143247,888.247130
1328.176063,-10510.924376,-1685.410096,740.205942
1328.176374,-9104.533087,-2298.286494,296.082377
1328.176686,-7328.038826,-1762.019645,-0.000000
1328.176997,-5995.668130,-1532.190996,-0.000000
1328.177309,-5107.421000,-1685.410096,-74.020594
1328.177620,-5181.441594,-2374.896044,296.082377
1328.177932,-6587.832884,-3677.258390,518.144159
1328.178243,-8290.306550,-5209.449386,962.267725
1328.178555,-10214.842000,-6511.811733,1184.329507
1328.178866,-11695.253884,-5362.668486,1184.329507
1328.179178,-12805.562797,-4903.011187,1332.370696
1328.179489,-13323.706956,-3600.648841,1036.288319
1328.179801,-12139.377449,-2068.457845,814.226536
1328.180112,-10436.903782,-919.314598,888.247130
1328.180424,-8364.327145,-536.266849,740.205942
1328.180735,-5921.647536,-689.485948,814.226536
1328.181047,-4737.318029,-1302.362347,444.123565
1328.181358,-4959.379811,-1991.848295,222.061783
1328.181670,-5033.400406,-2987.772442,296.082377
1328.181981,-7031.956449,-3753.867940,222.061783
1328.182293,-9400.615463,-3830.477490,-0.000000
1328.182604,-10807.006753,-3447.429741,222.061783
1328.182916,-12065.356855,-3753.867940,740.205942
1328.183227,-12361.439231,-4903.011187,1480.411884
1328.183539,-12361.439231,-4596.572988,1776.494261
1328.183850,-10807.006753,-4443.353888,2294.638420
1328.184162,-8586.388927,-3064.381992,2220.617826
1328.184474,-7402.059420,-1685.410096,1036.288319
1328.184785,-5995.668130,-1072.533697,-0.000000
1328.185097,-5625.565159,-1225.752797,-296.082377
1328.185408,-5329.482782,-1225.752797,-370.102971
1328.185720,-6513.812290,-1608.800546,-814.226536
1328.186031,-7772.162391,-2374.896044,-444.123565
1328.186343,-9918.759623,-2987.772442,-148.041188
1328.186654,-10658.965565,-3830.477490,222.061783
1328.186966,-11621.233289,-3677.258390,296.082377
1328.187277,-9770.718434,-3140.991542,1628.453072
1328.187589,-11251.130318,-4443.353888,814.226536
1328.187900,-8882.471304,-4060.306139,1554.432478
1328.188212,-7105.977043,-3447.429741,148.041188
1328.188523,-6957.935855,-3064.381992,1036.288319
1328.188835,-7994.224174,-4060.306139,740.205942
1328.189146,-10066.800811,-3447.429741,888.247130
1328.189458,-9178.553681,-1378.971896,888.247130
1328.189769,-8882.471304,-459.657299,1036.288319
1328.190081,-9252.574275,-1915.238745,1258.350101
1328.190392,-9326.594869,-3217.601092,740.205942
1328.190704,-9178.553681,-4213.525239,1776.494261
1328.191015,-8438.347739,-2911.162892,2664.741391
1328.191327,-10214.842000,-995.924147,2664.741391
1328.191638,-12583.501014,-383.047749,1998.556043
1328.191950,-11251.130318,76.609550,2590.720797
1328.192261,-9622.677246,-1149.143247,2072.576638
1328.192573,-6883.915261,0.000000,2738.761985
1328.192884,-6957.935855,0.000000,962.267725
1328.193196,-7402.059420,-1608.800546,1554.432478
1328.193507,-7476.080014,-2987.772442,2368.659014
1328.193819,-8438.347739,-2834.553343,2738.761985
1328.194130,-9400.615463,-689.485948,4811.338623
1328.194442,-13101.645173,-1685.410096,4663.297435
1328.194753,-11843.295072,-2374.896044,6069.688724
1328.195065,-9030.512492,-536.266849,4145.153275
1328.195376,-7698.141797,766.095498,4219.173869
1328.195688,-6439.791695,689.485948,3330.926739
1328.195999,-6587.832884,-536.266849,2220.617826
1328.196311,-6957.935855,76.609550,2886.803174
1328.196622,-4811.338623,766.095498,4367.215058
1328.196934,-8808.450710,-229.828649,2664.741391
1328.197245,-10214.842000,536.266849,5477.523971
1328.197557,-10584.944971,76.609550,5847.626942
1328.197868,-8808.450710,-995.924147,5403.503377
1328.198180,-8364.327145,-1455.581446,5921.647536
1328.198491,-9104.533087,-536.266849,4959.379811
1328.198803,-7402.059420,-306.438199,4959.379811
1328.199114,-6957.935855,-153.219100,3849.070898
1328.199426,-6143.709319,383.047749,4589.276840
1328.199737,-7994.224174,2221.676944,3923.091493
1328.200049,-9178.553681,1685.410096,5033.400406
1328.200360,-9030.512492,459.657299,4811.338623
1328.200672,-7179.997637,-229.828649,5329.482782
1328.200983,-8068.244768,-766.095498,4663.297435
1328.201295,-8586.388927,-1378.971896,4885.359217
1328.201606,-8882.471304,-2145.067394,4589.276840
1328.201918,-8216.285956,-383.047749,5033.400406
1328.202229,-9030.512492,0.000000,4441.235652
1328.202541,-9992.780217,1225.752797,4663.297435
1328.202852,-11251.130318,76.609550,4737.318029
1328.203164,-9474.636058,2221.676944,5033.400406
1328.203475,-8290.306550,2221.676944,4219.173869
1328.203787,-7476.080014,919.314598,4071.132681
1328.204098,-6883.915261,0.000000,3182.885551
1328.204410,-6365.771101,-383.047749,2368.659014
1328.204721,-5329.482782,383.047749,2368.659014
1328.205033,-6291.750507,-1532.190996,1924.535449
1328.205344,-8068.244768,-1838.629195,2812.782580
1328.205656,-9770.718434,-1838.629195,3256.906145
1328.205967,-11325.150913,-2221.676944,3701.029710
1328.206279,-11917.315666,-1072.533697,4367.215058
1328.206590,-12731.542202,-306.438199,3997.112087
1328.206902,-11843.295072,0.000000,3182.885551
1328.207213,-10436.903782,383.047749,1406.391290
1328.207525,-7994.224174,1685.410096,1184.329507
1328.207836,-7846.182985,1072.533697,1406.391290
1328.208148,-8808.450710,459.657299,1998.556043
1328.208459,-8734.430116,-306.438199,2368.659014
1328.208771,-9252.574275,-306.438199,2886.803174
1328.209082,-8512.368333,-689.485948,3701.029710
1328.209394,-8734.430116,-1225.752797,3034.844362
1328.209705,-8808.450710,-1149.143247,2220.617826
1328.210017,-7476.080014,0.000000,1628.453072
1328.210328,-7920.203579,459.657299,592.164754
1328.210640,-8660.409521,842.705048,814.226536
1328.210951,-10066.800811,1225.752797,1406.391290
1328.211263,-11399.171507,919.314598,2146.597232
1328.211574,-11621.233289,612.876398,3478.967927
1328.211886,-11621.233289,536.266849,4219.173869
