#time,accel_x,accel_y,accel_z
1315.643491,-8808.450710,0.000000,222.061783
1315.643803,-9030.512492,229.828649,518.144159
1315.644114,-8956.491898,-153.219100,518.144159
1315.644426,-8956.491898,76.609550,444.123565
1315.644737,-8882.471304,0.000000,592.164754
1315.645048,-8734.430116,153.219100,592.164754
1315.645360,-8734.430116,153.219100,740.205942
1315.645671,-8808.450710,-383.047749,370.102971
1315.645983,-8882.471304,-306.438199,444.123565
1315.646294,-8660.409521,0.000000,518.144159
1315.646605,-8956.491898,0.000000,518.144159
1315.646917,-9030.512492,0.000000,666.185348
1315.647228,-9030.512492,-153.219100,592.164754
1315.647540,-8808.450710,0.000000,740.205942
1315.647851,-8808.450710,612.876398,740.205942
1315.648162,-8808.450710,689.485948,296.082377
1315.648474,-9178.553681,383.047749,666.185348
1315.648785,-9030.512492,76.609550,222.061783
1315.649096,-8956.491898,0.000000,444.123565
1315.649408,-9030.512492,0.000000,518.144159
1315.649719,-9104.533087,0.000000,444.123565
1315.650031,-9326.594869,0.000000,666.185348
1315.650342,-8956.491898,-229.828649,592.164754
1315.650653,-8734.430116,383.047749,814.226536
1315.650965,-8660.409521,0.000000,444.123565
1315.651276,-8660.409521,153.219100,666.185348
1315.651588,-8882.471304,0.000000,666.185348
1315.651899,-9030.512492,-229.828649,370.102971
1315.652210,-9104.533087,0.000000,740.205942
1315.652522,-8956.491898,76.609550,592.164754
1315.652833,-8660.409521,-306.438199,370.102971
1315.653145,-9400.615463,76.609550,-0.000000
1315.653456,-8956.491898,229.828649,666.185348
1315.653767,-8956.491898,0.000000,370.102971
1315.654079,-8956.491898,-229.828649,444.123565
1315.654390,-8956.491898,0.000000,592.164754
1315.654702,-9030.512492,0.000000,592.164754
1315.655013,-8660.409521,-153.219100,592.164754
1315.655324,-8882.471304,-306.438199,222.061783
1315.655636,-8956.491898,306.438199,222.061783
1315.655947,-8882.471304,-153.219100,-0.000000
1315.656259,-8808.450710,-383.047749,592.164754
1315.656570,-8882.471304,-306.438199,518.144159
1315.656881,-8956.491898,-306.438199,666.185348
1315.657193,-8956.491898,0.000000,444.123565
1315.657504,-8956.491898,0.000000,592.164754
1315.657815,-9252.574275,-229.828649,-0.000000
1315.658127,-8660.409521,0.000000,370.102971
1315.658438,-8808.450710,0.000000,296.082377
1315.658750,-8882.471304,0.000000,592.164754
1315.659061,-9030.512492,0.000000,518.144159
1315.659372,-8882.471304,76.609550,666.185348
1315.659684,-8660.409521,0.000000,518.144159
1315.659995,-8882.471304,0.000000,148.041188
1315.660307,-8660.409521,0.000000,370.102971
1315.660618,-9030.512492,-306.438199,222.061783
1315.660929,-8956.491898,0.000000,740.205942
1315.661241,-9104.533087,0.000000,518.144159
1315.661552,-8882.471304,0.000000,666.185348
1315.661864,-8808.450710,-153.219100,740.205942
1315.662175,-9030.512492,0.000000,444.123565
1315.662486,-8586.388927,-153.219100,296.082377
1315.662798,-9104.533087,0.000000,148.041188
1315.663109,-8956.491898,383.047749,592.164754
1315.663421,-9104.533087,-229.828649,740.205942
1315.663732,-8956.491898,76.609550,518.144159
1315.664043,-9178.553681,0.000000,370.102971
1315.664355,-8956.491898,0.000000,444.123565
1315.664666,-8808.450710,0.000000,592.164754
1315.664978,-8956.491898,-383.047749,296.082377
1315.665289,-8808.450710,-306.438199,444.123565
1315.665600,-8808.450710,0.000000,296.082377
1315.665912,-8734.430116,-229.828649,518.144159
1315.666223,-8734.430116,-306.438199,518.144159
1315.666534,-8956.491898,-229.828649,666.185348
1315.666846,-8882.471304,0.000000,666.185348
1315.667157,-8660.409521,229.828649,814.226536
1315.667469,-9030.512492,-306.438199,518.144159
1315.667780,-8956.491898,153.219100,296.082377
1315.668091,-9178.553681,0.000000,444.123565
1315.668403,-8956.491898,0.000000,592.164754
1315.668714,-8956.491898,0.000000,444.123565
1315.669026,-8882.471304,0.000000,592.164754
1315.669337,-9326.594869,0.000000,370.102971
1315.669648,-8586.388927,229.828649,888.247130
1315.669960,-8734.430116,-306.438199,444.123565
1315.670271,-8438.347739,153.219100,740.205942
1315.670583,-8956.491898,76.609550,370.102971
1315.670894,-8808.450710,0.000000,666.185348
1315.671205,-8882.471304,0.000000,666.185348
1315.671517,-8956.491898,-153.219100,666.185348
1315.671828,-8808.450710,-383.047749,814.226536
1315.672140,-8512.368333,76.609550,444.123565
1315.672451,-9252.574275,0.000000,296.082377
1315.672762,-11177.109724,1072.533697,-148.041188
1315.673074,-11325.150913,2528.115143,370.102971
1315.673385,-9030.512492,4749.792088,666.185348
1315.673697,-7698.141797,4136.915689,814.226536
1315.674008,-7031.956449,1225.752797,1480.411884
1315.674319,-6439.791695,-995.924147,-0.000000
1315.674631,-7105.977043,-842.705048,-148.041188
1315.674942,-7328.038826,-459.657299,-222.061783
1315.675253,-11029.068536,-1225.752797,-1184.329507
1315.675565,-12805.562797,-306.438199,-444.123565
1315.675876,-10362.883188,995.924147,592.164754
1315.676188,-9252.574275,0.000000,1480.411884
1315.676499,-9474.636058,-612.876398,3034.844362
1315.676810,-11843.295072,-306.438199,1628.453072
1315.677122,-8142.265362,3907.087040,2442.679609
1315.677433,-5329.482782,4903.011187,1850.514855
1315.677745,-7402.059420,2987.772442,888.247130
1315.678056,-7550.100608,2451.505594,-592.164754
1315.678367,-7105.977043,3140.991542,-1850.514855
1315.678679,-9178.553681,3217.601092,-1554.432478
1315.678990,-9104.533087,3983.696590,-148.041188
1315.679302,-12065.356855,2681.334243,-1184.329507
1315.679613,-13915.871710,-1455.581446,814.226536
1315.679924,-8216.285956,-1378.971896,2960.823768
1315.680236,-9770.718434,459.657299,592.164754
1315.680547,-8512.368333,5515.887586,2442.679609
1315.680859,-8290.306550,6128.763984,1628.453072
1315.681170,-8216.285956,2834.553343,2442.679609
1315.681481,-5773.606348,4366.744339,2220.617826
1315.681793,-7105.977043,6971.469032,-0.000000
1315.682104,-7624.121203,7201.297681,-1110.308913
1315.682416,-9992.780217,5515.887586,-1480.411884
1315.682727,-9400.615463,5132.839837,-1332.370696
1315.683038,-10140.821405,6052.154434,-1258.350101
1315.683350,-11991.336260,5362.668486,148.041188
1315.683661,-11843.295072,4519.963438,1036.288319
1315.683972,-11177.109724,4136.915689,1850.514855
1315.684284,-8808.450710,4903.011187,2294.638420
1315.684595,-6217.729913,4979.620737,1702.473667
1315.684907,-5625.565159,5592.497135,370.102971
1315.685218,-5403.503377,5132.839837,518.144159
1315.685529,-5033.400406,5132.839837,-0.000000
1315.685841,-5995.668130,4290.134789,-370.102971
1315.686152,-8660.409521,4290.134789,-74.020594
1315.686464,-10066.800811,2834.553343,-888.247130
1315.686775,-10584.944971,1915.238745,-0.000000
1315.687086,-9992.780217,1225.752797,592.164754
1315.687398,-10288.862594,383.047749,1776.494261
1315.687709,-11029.068536,229.828649,1702.473667
1315.688021,-9844.739029,1915.238745,1998.556043
1315.688332,-8512.368333,3753.867940,1924.535449
1315.688643,-6809.894666,3370.820191,518.144159
1315.688955,-6883.915261,3600.648841,-222.061783
1315.689266,-7254.018232,3600.648841,-962.267725
1315.689578,-6143.709319,4290.134789,-1110.308913
1315.689889,-6661.853478,2068.457845,-1036.288319
1315.690200,-9326.594869,-919.314598,-296.082377
1315.690512,-10955.047942,-2451.505594,222.061783
1315.690823,-12139.377449,-2834.553343,1258.350101
1315.691135,-13397.727550,-2068.457845,2220.617826
1315.691446,-13471.748144,-995.924147,1554.432478
1315.691757,-12435.459826,995.924147,1406.391290
1315.692069,-11029.068536,2528.115143,222.061783
1315.692380,-8216.285956,4136.915689,-222.061783
1315.692691,-6513.812290,4290.134789,-148.041188
1315.693003,-6661.853478,4519.963438,-0.000000
1315.693314,-6883.915261,4519.963438,814.226536
1315.693626,-7920.203579,3370.820191,-0.000000
1315.693937,-9918.759623,1532.190996,-0.000000
1315.694248,-11917.315666,766.095498,-370.102971
1315.694560,-13323.706956,919.314598,-740.205942
1315.694871,-13841.851115,306.438199,-370.102971
1315.695183,-13397.727550,689.485948,444.123565
1315.695494,-12139.377449,1991.848295,1036.288319
1315.695805,-9622.677246,2987.772442,1480.411884
1315.696117,-7105.977043,4596.572988,1776.494261
1315.696428,-4885.359217,5362.668486,1480.411884
1315.696740,-2516.700203,5362.668486,-0.000000
1315.697051,-1850.514855,6281.983084,-666.185348
1315.697362,-3034.844362,4903.011187,-2072.576638
1315.697674,-7031.956449,3217.601092,-1628.453072
1315.697985,-10955.047942,3217.601092,-666.185348
1315.698297,-14137.933492,2911.162892,666.185348
1315.698608,-15396.283594,2374.896044,2368.659014
1315.698919,-13841.851115,1762.019645,3849.070898
1315.699231,-11103.089130,842.705048,3330.926739
1315.699542,-6735.874072,1225.752797,2664.741391
1315.699854,-3923.091493,1685.410096,1480.411884
1315.700165,-1776.494261,3753.867940,-0.000000
1315.700476,-2146.597232,5056.230287,-1258.350101
1315.700788,-3775.050304,4749.792088,-2146.597232
1315.701099,-6217.729913,2528.115143,-1406.391290
1315.701410,-9326.594869,1608.800546,-518.144159
1315.701722,-10288.862594,-153.219100,1184.329507
1315.702033,-11547.212695,-2451.505594,2220.617826
1315.702345,-11917.315666,-4366.744339,2368.659014
1315.702656,-11325.150913,-4290.134789,2442.679609
1315.702967,-10584.944971,-3677.258390,2072.576638
1315.703279,-10658.965565,-1225.752797,666.185348
1315.703590,-10436.903782,1915.238745,-0.000000
1315.703902,-9548.656652,4213.525239,-444.123565
1315.704213,-9030.512492,4673.182538,296.082377
1315.704524,-8290.306550,3370.820191,666.185348
1315.704836,-7328.038826,1685.410096,666.185348
1315.705147,-7254.018232,-306.438199,-74.020594
1315.705459,-7328.038826,-1455.581446,-222.061783
1315.705770,-9178.553681,-1685.410096,-1776.494261
1315.706081,-10436.903782,-689.485948,-592.164754
1315.706393,-11029.068536,-1915.238745,370.102971
1315.706704,-13249.686362,-3447.429741,1258.350101
1315.707016,-13027.624579,-2298.286494,2072.576638
1315.707327,-12065.356855,-1762.019645,1110.308913
1315.707638,-10881.027347,-459.657299,-0.000000
1315.707950,-9326.594869,1225.752797,-814.226536
1315.708261,-8438.347739,3064.381992,-2442.679609
1315.708573,-7550.100608,4443.353888,-2738.761985
1315.708884,-7402.059420,5745.716235,-1406.391290
1315.709195,-7402.059420,3600.648841,666.185348
1315.709507,-7624.121203,153.219100,2368.659014
1315.709818,-8290.306550,-2374.896044,3256.906145
1315.710129,-8216.285956,-3983.696590,3182.885551
1315.710441,-9030.512492,-3064.381992,1998.556043
1315.710752,-10214.842000,-995.924147,296.082377
1315.711064,-9622.677246,2451.505594,-1332.370696
1315.711375,-8216.285956,3447.429741,-2590.720797
1315.711686,-7105.977043,3907.087040,-1776.494261
1315.711998,-6291.750507,2604.724693,-1258.350101
1315.712309,-6143.709319,1072.533697,-296.082377
1315.712621,-6069.688724,0.000000,666.185348
1315.712932,-6809.894666,-229.828649,1702.473667
1315.713243,-7624.121203,76.609550,1924.535449
1315.713555,-9474.636058,76.609550,2442.679609
1315.713866,-10584.944971,-1072.533697,2738.761985
1315.714178,-12065.356855,-1685.410096,3552.988522
1315.714489,-11621.233289,-1302.362347,3330.926739
1315.714800,-9696.697840,-1149.143247,1480.411884
1315.715112,-7994.224174,-2298.286494,148.041188
1315.715423,-6735.874072,-1838.629195,-1554.432478
1315.715735,-5699.585753,459.657299,-2738.761985
1315.716046,-5033.400406,2987.772442,-2368.659014
1315.716358,-6809.894666,2757.943793,-1258.350101
1315.716669,-9548.656652,1378.971896,666.185348
1315.716981,-11399.171507,0.000000,2220.617826
1315.717292,-11843.295072,-1915.238745,3701.029710
1315.717604,-11991.336260,-2681.334243,3034.844362
1315.717915,-12065.356855,-1762.019645,3108.864956
1315.718226,-11769.274478,-383.047749,1258.350101
1315.718538,-10510.924376,0.000000,888.247130
1315.718849,-9918.759623,306.438199,-222.061783
1315.719161,-8882.471304,766.095498,-0.000000
1315.719472,-7624.121203,229.828649,-370.102971
1315.719784,-6661.853478,-1072.533697,-1184.329507
1315.720095,-6291.750507,-919.314598,-518.144159
1315.720407,-7328.038826,-1378.971896,-740.205942
1315.720718,-7994.224174,-1762.019645,444.123565
1315.721030,-9252.574275,-2451.505594,1480.411884
1315.721341,-9696.697840,-1532.190996,2812.782580
1315.721653,-10510.924376,-995.924147,2738.761985
1315.721964,-10807.006753,-1915.238745,2960.823768
1315.722275,-9918.759623,-1838.629195,1184.329507
1315.722587,-9400.615463,-1225.752797,-370.102971
1315.722898,-8808.450710,-229.828649,-1480.411884
1315.723210,-9030.512492,2451.505594,-2368.659014
1315.723521,-9104.533087,3677.258390,-1628.453072
1315.723833,-8364.327145,2221.676944,-740.205942
1315.724144,-8290.306550,536.266849,592.164754
1315.724456,-6217.729913,-689.485948,1406.391290
1315.724767,-6217.729913,-1608.800546,1776.494261
1315.725079,-7105.977043,-2604.724693,1850.514855
1315.725390,-6365.771101,-2451.505594,592.164754
1315.725701,-7772.162391,-689.485948,-148.041188
1315.726013,-8734.430116,306.438199,-0.000000
1315.726324,-9844.739029,1455.581446,-74.020594
1315.726636,-11103.089130,1762.019645,-370.102971
1315.726947,-11029.068536,1455.581446,-888.247130
1315.727259,-10658.965565,1455.581446,-1702.473667
1315.727570,-10214.842000,2298.286494,-2442.679609
1315.727882,-9474.636058,3140.991542,-2294.638420
1315.728193,-8586.388927,3140.991542,-1702.473667
1315.728505,-7994.224174,1302.362347,444.123565
1315.728816,-8956.491898,229.828649,2442.679609
1315.729128,-7920.203579,-1378.971896,3552.988522
1315.729439,-8142.265362,-3217.601092,3775.050304
1315.729750,-9548.656652,-4826.401637,3330.926739
1315.730062,-9326.594869,-4443.353888,740.205942
1315.730373,-9030.512492,-1378.971896,-1258.350101
1315.730685,-8660.409521,766.095498,-1702.473667
1315.730996,-9400.615463,1455.581446,-2812.782580
1315.731308,-9474.636058,842.705048,-1184.329507
1315.731619,-9252.574275,0.000000,-370.102971
1315.731931,-9474.636058,76.609550,962.267725
1315.732242,-9400.615463,-536.266849,1554.432478
1315.732554,-10658.965565,-995.924147,1776.494261
1315.732865,-10584.944971,383.047749,2294.638420
1315.733177,-8882.471304,306.438199,2294.638420
1315.733488,-9178.553681,995.924147,2664.741391
1315.733799,-8438.347739,689.485948,2738.761985
1315.734111,-8142.265362,-612.876398,1998.556043
1315.734422,-7994.224174,-2298.286494,1776.494261
1315.734734,-5921.647536,-2451.505594,-0.000000
1315.735045,-5921.647536,-1378.971896,-1258.350101
1315.735357,-7772.162391,-612.876398,-1998.556043
1315.735668,-8956.491898,689.485948,-888.247130
1315.735980,-9030.512492,1225.752797,444.123565
1315.736291,-10214.842000,995.924147,1924.535449
1315.736603,-10955.047942,689.485948,3256.906145
1315.736914,-10807.006753,0.000000,2368.659014
1315.737225,-10288.862594,229.828649,1554.432478
1315.737537,-8882.471304,229.828649,592.164754
1315.737848,-8586.388927,1149.143247,-370.102971
1315.738160,-8512.368333,1991.848295,-74.020594
1315.738471,-8364.327145,1532.190996,-0.000000
1315.738783,-7994.224174,153.219100,592.164754
1315.739094,-7698.141797,-1455.581446,592.164754
1315.739406,-7624.121203,-2987.772442,1184.329507
1315.739717,-7328.038826,-4596.572988,814.226536
1315.740029,-7698.141797,-4519.963438,518.144159
1315.740340,-7846.182985,-2221.676944,222.061783
1315.740652,-9548.656652,0.000000,-0.000000
1315.740963,-9474.636058,612.876398,444.123565
1315.741274,-9178.553681,1225.752797,518.144159
1315.741586,-8882.471304,1225.752797,444.123565
1315.741897,-8808.450710,919.314598,-0.000000
1315.742209,-9474.636058,459.657299,-962.267725
1315.742520,-9622.677246,1455.581446,-1110.308913
1315.742832,-9252.574275,1685.410096,-666.185348
1315.743143,-9474.636058,1455.581446,-592.164754
1315.743455,-9622.677246,1532.190996,740.205942
1315.743766,-8364.327145,0.000000,1258.350101
1315.744078,-7920.203579,-2145.067394,1998.556043
1315.744389,-7772.162391,-3830.477490,1924.535449
1315.744701,-7476.080014,-3294.210641,370.102971
1315.745012,-8438.347739,-1762.019645,-518.144159
1315.745323,-8438.347739,-459.657299,-1184.329507
1315.745635,-9400.615463,612.876398,-962.267725
1315.745946,-10214.842000,1608.800546,-814.226536
1315.746258,-10732.986159,1762.019645,-0.000000
1315.746569,-11473.192101,766.095498,-0.000000
1315.746881,-11029.068536,306.438199,444.123565
1315.747192,-10807.006753,-229.828649,296.082377
1315.747504,-9770.718434,-612.876398,-0.000000
1315.747815,-8882.471304,-153.219100,444.123565
1315.748127,-8586.388927,229.828649,1480.411884
1315.748438,-7698.141797,-383.047749,2368.659014
1315.748749,-8364.327145,-2068.457845,2738.761985
1315.749061,-7624.121203,-3600.648841,2664.741391
1315.749372,-7105.977043,-2834.553343,814.226536
1315.749684,-7254.018232,-2145.067394,-296.082377
1315.749995,-7994.224174,-1072.533697,-1184.329507
1315.750307,-7846.182985,0.000000,-1406.391290
1315.750618,-8364.327145,1072.533697,-1332.370696
1315.750930,-8512.368333,842.705048,-0.000000
1315.751241,-9474.636058,536.266849,1110.308913
1315.751553,-10288.862594,229.828649,1480.411884
1315.751864,-10584.944971,153.219100,1110.308913
1315.752176,-10214.842000,153.219100,370.102971
1315.752487,-9992.780217,1149.143247,962.267725
1315.752798,-9548.656652,2221.676944,888.247130
1315.753110,-9104.533087,1685.410096,888.247130
1315.753421,-7846.182985,766.095498,1776.494261
1315.753733,-7402.059420,-306.438199,1850.514855
1315.754044,-6291.750507,-1149.143247,1036.288319
1315.754356,-5699.585753,-842.705048,148.041188
1315.754667,-7550.100608,-1532.190996,-1332.370696
1315.754979,-8068.244768,766.095498,-1480.411884
1315.755290,-7994.224174,1378.971896,-592.164754
1315.755602,-9918.759623,1225.752797,740.205942
1315.755913,-11251.130318,766.095498,2294.638420
1315.756225,-11547.212695,459.657299,1924.535449
1315.756536,-10955.047942,76.609550,1554.432478
1315.756847,-9696.697840,536.266849,666.185348
1315.757159,-8808.450710,766.095498,-296.082377
1315.757470,-8734.430116,612.876398,-518.144159
1315.757782,-8364.327145,1302.362347,-74.020594
1315.758093,-8660.409521,842.705048,1184.329507
1315.758405,-7920.203579,612.876398,1480.411884
1315.758716,-7179.997637,-536.266849,1554.432478
1315.759028,-7550.100608,-2068.457845,1332.370696
1315.759339,-7698.141797,-2604.724693,814.226536
1315.759651,-7920.203579,-766.095498,-296.082377
1315.759962,-8364.327145,919.314598,-740.205942
1315.760273,-8734.430116,1225.752797,-148.041188
1315.760585,-9252.574275,1225.752797,-0.000000
1315.760896,-9400.615463,1685.410096,-0.000000
1315.761208,-9918.759623,1149.143247,296.082377
1315.761519,-9400.615463,0.000000,-148.041188
1315.761831,-10584.944971,76.609550,-444.123565
1315.762142,-10658.965565,842.705048,-296.082377
1315.762454,-9918.759623,383.047749,222.061783
1315.762765,-9844.739029,536.266849,518.144159
1315.763077,-8956.491898,306.438199,1998.556043
1315.763388,-8290.306550,-842.705048,2664.741391
1315.763700,-8438.347739,-3370.820191,2442.679609
1315.764011,-6217.729913,-2987.772442,1258.350101
1315.764322,-6069.688724,-1762.019645,-148.041188
1315.764634,-7698.141797,-1838.629195,-814.226536
1315.764945,-8142.265362,0.000000,-1332.370696
1315.765257,-9474.636058,1225.752797,-370.102971
1315.765568,-10140.821405,1838.629195,222.061783
1315.765880,-10510.924376,1225.752797,1480.411884
1315.766191,-10881.027347,383.047749,740.205942
1315.766503,-10436.903782,459.657299,-0.000000
1315.766814,-9696.697840,0.000000,-222.061783
1315.767126,-8734.430116,0.000000,-0.000000
1315.767437,-8882.471304,766.095498,592.164754
1315.767749,-8882.471304,459.657299,1184.329507
1315.768060,-8068.244768,-306.438199,1998.556043
1315.768371,-7920.203579,-1149.143247,1850.514855
1315.768683,-6883.915261,-1685.410096,1924.535449
1315.768994,-7328.038826,-1915.238745,-0.000000
1315.769306,-8364.327145,-1455.581446,-518.144159
1315.769617,-7994.224174,153.219100,-888.247130
1315.769929,-8586.388927,229.828649,-592.164754
1315.770240,-8956.491898,995.924147,222.061783
1315.770552,-10214.842000,1225.752797,740.205942
1315.770863,-9992.780217,995.924147,1184.329507
1315.771175,-9622.677246,-229.828649,1110.308913
1315.771486,-10436.903782,-153.219100,666.185348
1315.771797,-10658.965565,306.438199,296.082377
1315.772109,-9622.677246,1685.410096,-0.000000
1315.772420,-8512.368333,2298.286494,740.205942
1315.772732,-8290.306550,1225.752797,1332.370696
1315.773043,-7031.956449,0.000000,1998.556043
1315.773355,-6439.791695,-1072.533697,962.267725
1315.773666,-6439.791695,-2145.067394,1184.329507
1315.773978,-7105.977043,-2221.676944,-0.000000
1315.774289,-8364.327145,-1072.533697,-592.164754
1315.774601,-8660.409521,-766.095498,-740.205942
1315.774912,-8882.471304,0.000000,-148.041188
1315.775224,-10584.944971,0.000000,296.082377
1315.775535,-11843.295072,842.705048,1184.329507
1315.775846,-11177.109724,383.047749,666.185348
1315.776158,-10510.924376,0.000000,444.123565
1315.776469,-9770.718434,-383.047749,296.082377
1315.776781,-9104.533087,459.657299,-814.226536
1315.777092,-8290.306550,766.095498,-1036.288319
1315.777404,-8068.244768,1455.581446,-0.000000
1315.777715,-8216.285956,1532.190996,814.226536
1315.778027,-8512.368333,229.828649,1480.411884
1315.778338,-8216.285956,-689.485948,1628.453072
1315.778650,-8216.285956,-2068.457845,1184.329507
1315.778961,-8364.327145,-2145.067394,666.185348
1315.779273,-8734.430116,-612.876398,-592.164754
1315.779584,-9400.615463,842.705048,-1554.432478
1315.779895,-9548.656652,1608.800546,-962.267725
1315.780207,-9178.553681,1915.238745,-518.144159
1315.780518,-9178.553681,1149.143247,-222.061783
1315.780830,-10214.842000,76.609550,-0.000000
1315.781141,-10066.800811,-919.314598,-74.020594
1315.781453,-10658.965565,0.000000,-0.000000
1315.781764,-10955.047942,919.314598,518.144159
1315.782076,-10066.800811,766.095498,740.205942
1315.782387,-9548.656652,306.438199,1702.473667
1315.782699,-8956.491898,-459.657299,2368.659014
1315.783010,-6587.832884,-1072.533697,1776.494261
1315.783321,-5403.503377,-1455.581446,1332.370696
1315.783633,-5329.482782,-1991.848295,666.185348
1315.783944,-5995.668130,-1991.848295,-0.000000
1315.784256,-7105.977043,-766.095498,-888.247130
1315.784567,-8660.409521,1532.190996,-518.144159
1315.784879,-9918.759623,2757.943793,370.102971
1315.785190,-11029.068536,2451.505594,814.226536
1315.785502,-11325.150913,2068.457845,1110.308913
1315.785813,-10214.842000,1225.752797,1406.391290
1315.786125,-9326.594869,306.438199,1110.308913
1315.786436,-8438.347739,1149.143247,740.205942
1315.786748,-8290.306550,1455.581446,-74.020594
1315.787059,-8438.347739,1838.629195,592.164754
1315.787370,-7994.224174,1991.848295,1554.432478
1315.787682,-7105.977043,1225.752797,2294.638420
1315.787993,-7105.977043,-459.657299,1924.535449
1315.788305,-7402.059420,-1915.238745,1554.432478
1315.788616,-7328.038826,-1991.848295,370.102971
1315.788928,-7994.224174,-995.924147,-444.123565
1315.789239,-9178.553681,-76.609550,-592.164754
1315.789551,-9548.656652,612.876398,-222.061783
1315.789862,-9918.759623,689.485948,518.144159
1315.790174,-10362.883188,76.609550,1406.391290
1315.790485,-10881.027347,-383.047749,1258.350101
1315.790797,-9918.759623,-383.047749,962.267725
1315.791108,-9474.636058,-612.876398,592.164754
1315.791419,-9844.739029,-995.924147,370.102971
1315.791731,-9400.615463,0.000000,666.185348
1315.792042,-9622.677246,459.657299,1258.350101
1315.792354,-9104.533087,0.000000,2146.597232
1315.792665,-7624.121203,-1532.190996,2294.638420
1315.792977,-7179.997637,-2374.896044,1924.535449
1315.793288,-6587.832884,-3294.210641,1776.494261
1315.793600,-7031.956449,-3830.477490,222.061783
1315.793911,-7920.203579,-1608.800546,-666.185348
1315.794223,-8882.471304,1072.533697,-740.205942
1315.794534,-9474.636058,1532.190996,-518.144159
1315.794845,-10214.842000,919.314598,148.041188
1315.795157,-10288.862594,842.705048,518.144159
1315.795468,-9770.718434,1149.143247,-0.000000
1315.795780,-9326.594869,0.000000,-296.082377
1315.796091,-9622.677246,0.000000,-888.247130
1315.796403,-9400.615463,0.000000,-444.123565
1315.796714,-9104.533087,153.219100,-74.020594
1315.797026,-8586.388927,536.266849,962.267725
1315.797337,-8808.450710,-383.047749,1776.494261
1315.797649,-8882.471304,-1225.752797,2294.638420
1315.797960,-8586.388927,-2145.067394,1924.535449
1315.798272,-7328.038826,-3217.601092,962.267725
1315.798583,-7624.121203,-2528.115143,-518.144159
1315.798894,-8142.265362,-995.924147,-1628.453072
1315.799206,-8660.409521,229.828649,-1332.370696
1315.799517,-8438.347739,766.095498,-518.144159
1315.799829,-9474.636058,612.876398,222.061783
1315.800140,-10584.944971,306.438199,592.164754
1315.800452,-10510.924376,229.828649,740.205942
1315.800763,-11251.130318,-536.266849,370.102971
1315.801075,-10658.965565,-536.266849,-0.000000
1315.801386,-9474.636058,612.876398,-444.123565
1315.801698,-8586.388927,1149.143247,-0.000000
1315.802009,-8068.244768,919.314598,962.267725
1315.802321,-7772.162391,0.000000,1628.453072
1315.802632,-7550.100608,-995.924147,1332.370696
1315.802943,-7328.038826,-1532.190996,666.185348
1315.803255,-7328.038826,-1072.533697,-0.000000
1315.803566,-8216.285956,0.000000,-1184.329507
1315.803878,-8364.327145,1455.581446,-1036.288319
1315.804189,-8956.491898,1762.019645,-370.102971
1315.804501,-9918.759623,1455.581446,592.164754
1315.804812,-10881.027347,1838.629195,1332.370696
1315.805124,-10732.986159,1378.971896,1406.391290
1315.805435,-9918.759623,76.609550,1110.308913
1315.805747,-10288.862594,-383.047749,814.226536
1315.806058,-9548.656652,306.438199,-148.041188
1315.806370,-7550.100608,1762.019645,-222.061783
1315.806681,-8512.368333,1149.143247,962.267725
1315.806992,-7476.080014,0.000000,2516.700203
1315.807304,-7179.997637,-1149.143247,2072.576638
1315.807615,-7254.018232,-2221.676944,2368.659014
1315.807927,-6143.709319,-2604.724693,2146.597232
1315.808238,-7105.977043,-1915.238745,-0.000000
1315.808550,-8216.285956,-612.876398,-888.247130
1315.808861,-8364.327145,306.438199,-444.123565
1315.809173,-9178.553681,0.000000,-0.000000
1315.809484,-9548.656652,919.314598,740.205942
1315.809796,-10732.986159,1072.533697,814.226536
1315.810107,-9918.759623,536.266849,1110.308913
1315.810418,-10436.903782,0.000000,814.226536
1315.810730,-10288.862594,0.000000,222.061783
1315.811041,-9400.615463,689.485948,-222.061783
1315.811353,-8956.491898,612.876398,444.123565
1315.811664,-8438.347739,76.609550,1332.370696
1315.811976,-8512.368333,0.000000,1332.370696
1315.812287,-8438.347739,-1608.800546,1702.473667
1315.812599,-7624.121203,-2221.676944,1036.288319
1315.812910,-7254.018232,-1838.629195,-0.000000
1315.813222,-8216.285956,-1532.190996,-666.185348
1315.813533,-9030.512492,153.219100,-1110.308913
1315.813845,-9474.636058,995.924147,-740.205942
1315.814156,-10288.862594,1072.533697,148.041188
1315.814467,-10510.924376,1072.533697,1258.350101
1315.814779,-10214.842000,919.314598,1036.288319
1315.815090,-9770.718434,536.266849,370.102971
1315.815402,-8882.471304,-612.876398,-0.000000
1315.815713,-8364.327145,-612.876398,-666.185348
1315.816025,-8882.471304,-612.876398,-222.061783
1315.816336,-9770.718434,-766.095498,888.247130
1315.816648,-10140.821405,-995.924147,1924.535449
1315.816959,-9474.636058,-1149.143247,2294.638420
1315.817271,-8882.471304,-2298.286494,2294.638420
1315.817582,-7179.997637,-2451.505594,1332.370696
1315.817894,-6587.832884,-2604.724693,-0.000000
1315.818205,-6069.688724,-1608.800546,-444.123565
1315.818517,-6883.915261,0.000000,-962.267725
1315.818828,-7772.162391,1072.533697,-444.123565
1315.819140,-9326.594869,1991.848295,-0.000000
1315.819451,-10140.821405,2068.457845,370.102971
1315.819763,-10584.944971,1455.581446,740.205942
1315.820074,-11177.109724,1149.143247,296.082377
1315.820385,-11177.109724,153.219100,-0.000000
1315.820697,-9548.656652,0.000000,148.041188
1315.821008,-9104.533087,306.438199,888.247130
1315.821320,-8364.327145,0.000000,1628.453072
1315.821631,-7031.956449,-842.705048,2294.638420
1315.821943,-6069.688724,-2068.457845,2368.659014
1315.822254,-5995.668130,-2068.457845,1332.370696
1315.822566,-6439.791695,-1532.190996,148.041188
1315.822877,-8216.285956,-1072.533697,-518.144159
1315.823189,-8882.471304,0.000000,-814.226536
1315.823500,-9474.636058,306.438199,-518.144159
1315.823812,-9548.656652,229.828649,-0.000000
1315.824123,-10436.903782,383.047749,888.247130
1315.824435,-11029.068536,383.047749,1036.288319
1315.824746,-11029.068536,76.609550,592.164754
1315.825058,-10066.800811,-536.266849,888.247130
1315.825369,-9696.697840,-229.828649,-518.144159
1315.825681,-9326.594869,995.924147,-1110.308913
1315.825992,-8586.388927,1225.752797,-666.185348
1315.826303,-8586.388927,919.314598,444.123565
1315.826615,-8364.327145,-153.219100,1628.453072
1315.826926,-7772.162391,-1072.533697,1924.535449
1315.827238,-7772.162391,-1991.848295,1628.453072
1315.827549,-7476.080014,-2451.505594,1036.288319
1315.827861,-8660.409521,-2221.676944,-222.061783
1315.828172,-8364.327145,-153.219100,-962.267725
1315.828484,-9326.594869,1455.581446,-1850.514855
1315.828795,-9622.677246,2374.896044,-1110.308913
1315.829107,-9918.759623,2451.505594,-296.082377
1315.829418,-10732.986159,2681.334243,222.061783
1315.829730,-10066.800811,995.924147,740.205942
1315.830041,-10807.006753,536.266849,444.123565
1315.830353,-10881.027347,1072.533697,592.164754
1315.830664,-9474.636058,1532.190996,518.144159
1315.830976,-8216.285956,1302.362347,888.247130
1315.831287,-8734.430116,612.876398,1332.370696
1315.831599,-7846.182985,0.000000,1628.453072
1315.831910,-6735.874072,-919.314598,222.061783
1315.832221,-5995.668130,-1149.143247,-0.000000
1315.832533,-6809.894666,-1455.581446,-518.144159
1315.832844,-7550.100608,-1532.190996,-962.267725
1315.833156,-9030.512492,153.219100,-518.144159
1315.833467,-9474.636058,1225.752797,148.041188
1315.833779,-9992.780217,1378.971896,1110.308913
1315.834090,-10214.842000,995.924147,1628.453072
1315.834402,-10362.883188,0.000000,1332.370696
1315.834713,-9548.656652,-689.485948,518.144159
1315.835025,-8290.306550,0.000000,-222.061783
1315.835336,-8734.430116,689.485948,-592.164754
1315.835648,-9474.636058,842.705048,-518.144159
1315.835959,-9400.615463,1072.533697,666.185348
1315.836271,-8808.450710,0.000000,2072.576638
1315.836582,-7772.162391,-1149.143247,2812.782580
1315.836894,-7550.100608,-2374.896044,2590.720797
1315.837205,-7105.977043,-3064.381992,962.267725
1315.837517,-6513.812290,-1378.971896,-370.102971
1315.837828,-6439.791695,-766.095498,-1110.308913
1315.838140,-7476.080014,76.609550,-1110.308913
1315.838451,-9474.636058,306.438199,-222.061783
1315.838762,-10584.944971,766.095498,888.247130
1315.839074,-11325.150913,689.485948,1628.453072
1315.839385,-11843.295072,-229.828649,2294.638420
1315.839697,-12139.377449,-842.705048,1850.514855
1315.840008,-11177.109724,-842.705048,1184.329507
1315.840320,-10288.862594,229.828649,370.102971
1315.840631,-9030.512492,1608.800546,740.205942
1315.840943,-8734.430116,1685.410096,1258.350101
1315.841254,-8734.430116,229.828649,2146.597232
1315.841566,-7105.977043,-1149.143247,1998.556043
1315.841877,-6809.894666,-2221.676944,1628.453072
1315.842189,-7031.956449,-1762.019645,1406.391290
1315.842500,-7402.059420,-1302.362347,-0.000000
1315.842812,-8290.306550,-306.438199,-370.102971
1315.843123,-8660.409521,689.485948,-148.041188
1315.843435,-9178.553681,1532.190996,740.205942
1315.843746,-10362.883188,995.924147,1110.308913
1315.844058,-10510.924376,842.705048,1258.350101
1315.844369,-9104.533087,689.485948,666.185348
1315.844680,-8216.285956,919.314598,148.041188
1315.844992,-8364.327145,842.705048,-518.144159
1315.845303,-8882.471304,1302.362347,-962.267725
1315.845615,-9104.533087,1685.410096,518.144159
1315.845926,-8438.347739,1762.019645,1850.514855
1315.846238,-7994.224174,459.657299,2294.638420
1315.846549,-7772.162391,-2451.505594,2368.659014
1315.846861,-6217.729913,-3064.381992,1998.556043
1315.847172,-5995.668130,-3140.991542,-0.000000
1315.847484,-6069.688724,-1455.581446,-1036.288319
1315.847795,-7254.018232,-229.828649,-1628.453072
1315.848107,-9178.553681,459.657299,-1924.535449
1315.848418,-9770.718434,1532.190996,-1036.288319
1315.848730,-10362.883188,2298.286494,-444.123565
1315.849041,-10807.006753,1455.581446,370.102971
1315.849353,-11399.171507,1072.533697,370.102971
1315.849664,-11325.150913,-612.876398,-0.000000
1315.849976,-10066.800811,612.876398,148.041188
1315.850287,-8586.388927,1072.533697,740.205942
1315.850598,-8808.450710,536.266849,740.205942
1315.850910,-9178.553681,-383.047749,1110.308913
1315.851221,-7846.182985,-1302.362347,1332.370696
1315.851533,-6957.935855,-1685.410096,814.226536
1315.851844,-8142.265362,-2451.505594,-0.000000
1315.852156,-9326.594869,-2451.505594,-814.226536
1315.852467,-10510.924376,-1685.410096,-1036.288319
1315.852779,-10066.800811,76.609550,-666.185348
1315.853090,-10214.842000,1225.752797,-0.000000
1315.853402,-11103.089130,1532.190996,592.164754
1315.853713,-11103.089130,1378.971896,962.267725
1315.854025,-9326.594869,612.876398,592.164754
1315.854336,-8660.409521,459.657299,148.041188
1315.854648,-8882.471304,229.828649,-0.000000
1315.854959,-9252.574275,1915.238745,-888.247130
1315.855271,-8734.430116,2068.457845,-296.082377
1315.855582,-8438.347739,1838.629195,1258.350101
1315.855894,-8068.244768,919.314598,1332.370696
1315.856205,-7105.977043,229.828649,1924.535449
1315.856516,-7402.059420,-3064.381992,1702.473667
1315.856828,-7698.141797,-3217.601092,1332.370696
1315.857139,-7550.100608,-1149.143247,148.041188
1315.857451,-8660.409521,153.219100,-296.082377
1315.857762,-9030.512492,536.266849,740.205942
1315.858074,-8808.450710,153.219100,814.226536
1315.858385,-9252.574275,1378.971896,1184.329507
1315.858697,-8882.471304,766.095498,1924.535449
1315.859008,-9326.594869,766.095498,1184.329507
1315.859320,-9918.759623,766.095498,370.102971
1315.859631,-9178.553681,1149.143247,740.205942
1315.859943,-8364.327145,1072.533697,444.123565
1315.860254,-8364.327145,689.485948,888.247130
1315.860566,-8586.388927,1072.533697,1924.535449
1315.860877,-7402.059420,306.438199,2146.597232
1315.861189,-6883.915261,-1149.143247,2072.576638
1315.861500,-7328.038826,-2987.772442,1480.411884
1315.861812,-7105.977043,-2298.286494,370.102971
1315.862123,-8216.285956,-1608.800546,-814.226536
1315.862435,-8882.471304,-383.047749,-222.061783
1315.862746,-9178.553681,689.485948,-222.061783
1315.863057,-9992.780217,612.876398,592.164754
1315.863369,-10288.862594,536.266849,1258.350101
1315.863680,-10732.986159,306.438199,1110.308913
1315.863992,-10436.903782,0.000000,592.164754
1315.864303,-9770.718434,536.266849,-0.000000
1315.864615,-9474.636058,536.266849,-444.123565
1315.864926,-9474.636058,919.314598,296.082377
1315.865238,-9770.718434,689.485948,1406.391290
1315.865549,-9474.636058,-383.047749,2368.659014
1315.865861,-8660.409521,-1149.143247,2294.638420
1315.866172,-8290.306550,-1685.410096,2072.576638
1315.866484,-7476.080014,-2681.334243,1110.308913
1315.866795,-7402.059420,-2834.553343,-666.185348
1315.867107,-6883.915261,-1915.238745,-1332.370696
1315.867418,-7624.121203,-306.438199,-1480.411884
1315.867730,-9696.697840,536.266849,-1258.350101
1315.868041,-10807.006753,1455.581446,-296.082377
1315.868353,-11177.109724,1455.581446,296.082377
1315.868664,-9696.697840,1149.143247,1628.453072
1315.868975,-10066.800811,-919.314598,1406.391290
1315.869287,-10066.800811,-1762.019645,814.226536
1315.869598,-9178.553681,-766.095498,518.144159
1315.869910,-8290.306550,0.000000,962.267725
1315.870221,-8068.244768,-536.266849,962.267725
1315.870533,-7698.141797,-919.314598,1184.329507
1315.870844,-7402.059420,-1762.019645,592.164754
1315.871156,-7254.018232,-2451.505594,518.144159
1315.871467,-7105.977043,-3524.039291,-148.041188
1315.871779,-8142.265362,-2298.286494,-1036.288319
1315.872090,-9104.533087,-1225.752797,-740.205942
1315.872402,-8660.409521,229.828649,-0.000000
1315.872713,-9770.718434,1149.143247,222.061783
1315.873025,-10955.047942,2298.286494,1332.370696
1315.873336,-10658.965565,2145.067394,444.123565
1315.873648,-9918.759623,1378.971896,-370.102971
1315.873959,-8808.450710,1149.143247,-0.000000
1315.874271,-8438.347739,919.314598,-666.185348
1315.874582,-8290.306550,842.705048,-814.226536
1315.874893,-8734.430116,536.266849,-0.000000
1315.875205,-8660.409521,153.219100,1332.370696
1315.875516,-8068.244768,459.657299,1480.411884
1315.875828,-7550.100608,-306.438199,1554.432478
1315.876139,-8364.327145,-1455.581446,666.185348
1315.876451,-7624.121203,-2528.115143,-0.000000
1315.876762,-8512.368333,-459.657299,-148.041188
1315.877074,-9326.594869,842.705048,-592.164754
1315.877385,-10066.800811,919.314598,-296.082377
1315.877697,-10584.944971,1608.800546,592.164754
1315.878008,-9992.780217,1608.800546,1110.308913
1315.878320,-9104.533087,383.047749,1406.391290
1315.878631,-9326.594869,0.000000,444.123565
1315.878943,-9918.759623,229.828649,-148.041188
1315.879254,-9622.677246,919.314598,-0.000000
1315.879566,-9474.636058,995.924147,962.267725
1315.879877,-9696.697840,306.438199,1850.514855
1315.880189,-9030.512492,766.095498,2072.576638
1315.880500,-8068.244768,-995.924147,2220.617826
1315.880811,-6661.853478,-1072.533697,1628.453072
1315.881123,-6439.791695,-1225.752797,962.267725
1315.881434,-6587.832884,-1608.800546,-0.000000
1315.881746,-7254.018232,-1455.581446,-148.041188
1315.882057,-8068.244768,76.609550,-0.000000
1315.882369,-9326.594869,919.314598,-0.000000
1315.882680,-10436.903782,1608.800546,666.185348
1315.882992,-10732.986159,1455.581446,1184.329507
1315.883303,-9992.780217,76.609550,1036.288319
1315.883615,-8734.430116,383.047749,370.102971
1315.883926,-9104.533087,-153.219100,-222.061783
1315.884238,-9474.636058,153.219100,148.041188
1315.884549,-9252.574275,306.438199,962.267725
1315.884861,-9104.533087,0.000000,1628.453072
1315.885172,-8290.306550,-306.438199,2516.700203
1315.885484,-7550.100608,-1532.190996,1924.535449
1315.885795,-7254.018232,-3064.381992,1850.514855
1315.886107,-6217.729913,-3064.381992,518.144159
1315.886418,-6587.832884,-2221.676944,-962.267725
1315.886730,-6809.894666,-995.924147,-1702.473667
1315.887041,-8364.327145,229.828649,-1406.391290
1315.887352,-10732.986159,612.876398,-518.144159
1315.887664,-11177.109724,2298.286494,-0.000000
1315.887975,-11029.068536,1991.848295,962.267725
1315.888287,-11103.089130,612.876398,1110.308913
1315.888598,-11103.089130,-612.876398,1110.308913
1315.888910,-10584.944971,-919.314598,740.205942
1315.889221,-9252.574275,0.000000,444.123565
1315.889533,-8216.285956,0.000000,962.267725
1315.889844,-8290.306550,-689.485948,814.226536
1315.890156,-7476.080014,-1072.533697,962.267725
1315.890467,-7105.977043,-1455.581446,888.247130
1315.890779,-7846.182985,-2451.505594,592.164754
1315.891090,-8364.327145,-1762.019645,-148.041188
1315.891402,-9548.656652,-306.438199,-1184.329507
1315.891713,-9844.739029,842.705048,-814.226536
1315.892025,-9844.739029,1225.752797,-222.061783
1315.892336,-10955.047942,1608.800546,222.061783
1315.892648,-10732.986159,2298.286494,962.267725
1315.892959,-9474.636058,1225.752797,592.164754
1315.893270,-9030.512492,459.657299,-0.000000
1315.893582,-7624.121203,0.000000,666.185348
1315.893893,-7994.224174,-153.219100,-0.000000
1315.894205,-7846.182985,-229.828649,-0.000000
1315.894516,-7772.162391,-459.657299,1036.288319
1315.894828,-8364.327145,-919.314598,2294.638420
1315.895139,-7994.224174,-1915.238745,1554.432478
1315.895451,-7920.203579,-3294.210641,1628.453072
1315.895762,-7476.080014,-3677.258390,1332.370696
1315.896074,-7476.080014,-3217.601092,370.102971
1315.896385,-7846.182985,-2068.457845,-444.123565
1315.896697,-8290.306550,-612.876398,-814.226536
1315.897008,-10510.924376,0.000000,-222.061783
1315.897320,-10436.903782,1455.581446,518.144159
1315.897631,-10214.842000,2681.334243,814.226536
1315.897943,-9622.677246,1455.581446,1110.308913
1315.898254,-9178.553681,-689.485948,-0.000000
1315.898566,-9696.697840,0.000000,-296.082377
1315.898877,-9030.512492,1072.533697,-444.123565
1315.899188,-8438.347739,1838.629195,-74.020594
1315.899500,-9252.574275,1072.533697,814.226536
1315.899811,-9548.656652,229.828649,2368.659014
1315.900123,-8734.430116,-1838.629195,2146.597232
1315.900434,-8142.265362,-1532.190996,1628.453072
1315.900746,-8068.244768,-995.924147,444.123565
1315.901057,-8068.244768,0.000000,-296.082377
1315.901369,-8364.327145,1608.800546,-1258.350101
1315.901680,-8956.491898,2221.676944,-1258.350101
1315.901992,-9252.574275,2911.162892,-148.041188
1315.902303,-10066.800811,1302.362347,740.205942
1315.902615,-10066.800811,1915.238745,740.205942
1315.902926,-10732.986159,536.266849,444.123565
1315.903238,-10881.027347,0.000000,-0.000000
1315.903549,-11103.089130,383.047749,148.041188
1315.903861,-9918.759623,1378.971896,296.082377
1315.904172,-8956.491898,1072.533697,1258.350101
1315.904484,-7846.182985,536.266849,1628.453072
1315.904795,-6069.688724,383.047749,2072.576638
1315.905107,-5921.647536,-689.485948,1628.453072
1315.905418,-4663.297435,-1455.581446,1036.288319
1315.905729,-5551.544565,-1762.019645,-518.144159
1315.906041,-6957.935855,-919.314598,-1258.350101
1315.906352,-8290.306550,689.485948,-1628.453072
1315.906664,-10807.006753,995.924147,-1110.308913
1315.906975,-11325.150913,1762.019645,222.061783
1315.907287,-12139.377449,1838.629195,518.144159
1315.907598,-10807.006753,1149.143247,1628.453072
1315.907910,-9770.718434,0.000000,1110.308913
1315.908221,-10362.883188,-1072.533697,814.226536
1315.908533,-8586.388927,153.219100,740.205942
1315.908844,-7994.224174,1378.971896,296.082377
1315.909156,-7624.121203,1072.533697,1406.391290
1315.909467,-7920.203579,-995.924147,1702.473667
1315.909779,-7402.059420,-1991.848295,1924.535449
1315.910090,-7179.997637,-3064.381992,1480.411884
1315.910402,-7550.100608,-2374.896044,888.247130
1315.910713,-8290.306550,-2068.457845,-74.020594
1315.911025,-10658.965565,-766.095498,-962.267725
1315.911336,-11103.089130,0.000000,-0.000000
1315.911647,-11177.109724,612.876398,518.144159
1315.911959,-11769.274478,1225.752797,962.267725
1315.912270,-10807.006753,1532.190996,1332.370696
1315.912582,-9474.636058,766.095498,888.247130
1315.912893,-8068.244768,-383.047749,148.041188
1315.913205,-7698.141797,-229.828649,-0.000000
1315.913516,-8142.265362,153.219100,-296.082377
1315.913828,-8142.265362,612.876398,296.082377
1315.914139,-9178.553681,383.047749,1628.453072
1315.914451,-9030.512492,-766.095498,2294.638420
1315.914762,-8364.327145,-1455.581446,2442.679609
1315.915074,-7550.100608,-4290.134789,2368.659014
1315.915385,-7031.956449,-3753.867940,1776.494261
1315.915697,-6883.915261,-2451.505594,666.185348
1315.916008,-7550.100608,0.000000,-592.164754
1315.916320,-9030.512492,1608.800546,-888.247130
1315.916631,-9696.697840,2681.334243,-370.102971
1315.916943,-9030.512492,3294.210641,222.061783
1315.917254,-9104.533087,2757.943793,740.205942
1315.917566,-8142.265362,1608.800546,444.123565
1315.917877,-8734.430116,0.000000,444.123565
1315.918189,-9178.553681,0.000000,518.144159
1315.918500,-8586.388927,-229.828649,888.247130
1315.918812,-9178.553681,-306.438199,1184.329507
1315.919124,-9992.780217,-229.828649,1776.494261
1315.919435,-8956.491898,-459.657299,1554.432478
1315.919747,-7920.203579,-995.924147,962.267725
1315.920058,-7402.059420,-1991.848295,666.185348
1315.920370,-7105.977043,-2068.457845,-370.102971
1315.920682,-7550.100608,-1302.362347,-1406.391290
1315.920993,-8068.244768,383.047749,-1480.411884
1315.921305,-9252.574275,1762.019645,-1184.329507
1315.921616,-10881.027347,1762.019645,-666.185348
1315.921928,-11177.109724,1838.629195,1406.391290
1315.922240,-11177.109724,536.266849,296.082377
1315.922551,-11103.089130,-229.828649,814.226536
1315.922863,-10658.965565,-383.047749,296.082377
1315.923174,-10436.903782,306.438199,-222.061783
1315.923486,-9844.739029,842.705048,-0.000000
1315.923797,-9104.533087,383.047749,-0.000000
1315.924109,-8364.327145,-153.219100,814.226536
1315.924421,-6883.915261,919.314598,962.267725
1315.924732,-7031.956449,-919.314598,666.185348
1315.925044,-6661.853478,-1608.800546,-74.020594
1315.925355,-7179.997637,-1455.581446,-518.144159
1315.925667,-8586.388927,-459.657299,-814.226536
1315.925979,-9992.780217,0.000000,-888.247130
1315.926290,-11103.089130,919.314598,-222.061783
1315.926602,-11251.130318,2451.505594,666.185348
1315.926913,-10955.047942,1072.533697,1110.308913
1315.927225,-9622.677246,383.047749,1554.432478
1315.927537,-9696.697840,-306.438199,740.205942
1315.927848,-9548.656652,0.000000,-0.000000
1315.928160,-8364.327145,1149.143247,370.102971
1315.928471,-8216.285956,1991.848295,518.144159
1315.928783,-7402.059420,1762.019645,1258.350101
1315.929095,-7179.997637,842.705048,1332.370696
1315.929406,-6217.729913,-1225.752797,2294.638420
1315.929718,-6365.771101,-1685.410096,2220.617826
1315.930029,-7179.997637,-2374.896044,1480.411884
1315.930341,-8290.306550,-1762.019645,666.185348
1315.930653,-9474.636058,-383.047749,222.061783
1315.930964,-9474.636058,995.924147,296.082377
1315.931276,-9474.636058,1762.019645,-0.000000
1315.931587,-9622.677246,2374.896044,1110.308913
1315.931899,-9474.636058,1532.190996,1036.288319
1315.932211,-8216.285956,919.314598,814.226536
1315.932522,-8512.368333,919.314598,444.123565
1315.932834,-9400.615463,1225.752797,-0.000000
1315.933145,-9252.574275,1225.752797,-0.000000
1315.933457,-9178.553681,995.924147,1184.329507
1315.933769,-9326.594869,306.438199,1850.514855
1315.934080,-7698.141797,-919.314598,2294.638420
1315.934392,-7550.100608,-2604.724693,1998.556043
1315.934703,-7031.956449,-3524.039291,1258.350101
1315.935015,-7254.018232,-2834.553343,370.102971
1315.935326,-8216.285956,-1608.800546,-592.164754
1315.935638,-8882.471304,76.609550,-814.226536
1315.935950,-9474.636058,689.485948,-592.164754
1315.936261,-9548.656652,766.095498,-0.000000
1315.936573,-10658.965565,229.828649,370.102971
1315.936884,-10066.800811,1378.971896,370.102971
1315.937196,-9918.759623,229.828649,740.205942
1315.937508,-10807.006753,-842.705048,518.144159
1315.937819,-10436.903782,-766.095498,444.123565
1315.938131,-9696.697840,-536.266849,592.164754
1315.938442,-9474.636058,-689.485948,1480.411884
1315.938754,-9400.615463,-612.876398,1184.329507
1315.939066,-8586.388927,-612.876398,1332.370696
1315.939377,-7476.080014,-1608.800546,592.164754
1315.939689,-7254.018232,-2681.334243,148.041188
1315.940000,-7105.977043,-1991.848295,-888.247130
1315.940312,-7624.121203,-919.314598,-1258.350101
1315.940624,-8734.430116,229.828649,-1406.391290
1315.940935,-9474.636058,612.876398,-740.205942
1315.941247,-10214.842000,1225.752797,592.164754
1315.941558,-10436.903782,1455.581446,1258.350101
1315.941870,-10288.862594,689.485948,814.226536
1315.942182,-9992.780217,-612.876398,592.164754
1315.942493,-9474.636058,-306.438199,-0.000000
1315.942805,-8660.409521,919.314598,-444.123565
1315.943116,-8438.347739,1455.581446,-74.020594
1315.943428,-8364.327145,1149.143247,740.205942
1315.943740,-7476.080014,0.000000,1776.494261
1315.944051,-7105.977043,-1072.533697,1332.370696
1315.944363,-6809.894666,-2221.676944,1628.453072
1315.944674,-7402.059420,-2451.505594,296.082377
1315.944986,-7846.182985,-1915.238745,-0.000000
1315.945298,-8586.388927,-1455.581446,-444.123565
1315.945609,-9252.574275,-919.314598,-0.000000
1315.945921,-9548.656652,536.266849,370.102971
1315.946232,-10066.800811,1225.752797,740.205942
1315.946544,-10214.842000,1302.362347,740.205942
1315.946855,-9326.594869,229.828649,444.123565
1315.947167,-9918.759623,-306.438199,-222.061783
1315.947479,-9770.718434,0.000000,-444.123565
1315.947790,-9548.656652,1149.143247,-222.061783
1315.948102,-9400.615463,1225.752797,666.185348
1315.948413,-8956.491898,612.876398,1998.556043
1315.948725,-8956.491898,-1608.800546,1998.556043
1315.949037,-7624.121203,-1838.629195,2072.576638
1315.949348,-7772.162391,-2145.067394,1480.411884
1315.949660,-7476.080014,-1532.190996,592.164754
1315.949971,-7920.203579,-536.266849,-740.205942
1315.950283,-9030.512492,612.876398,-962.267725
1315.950595,-8586.388927,1685.410096,-444.123565
1315.950906,-10436.903782,2374.896044,-518.144159
1315.951218,-11029.068536,2451.505594,592.164754
1315.951529,-10140.821405,2221.676944,518.144159
1315.951841,-9992.780217,612.876398,592.164754
1315.952153,-8882.471304,0.000000,370.102971
1315.952464,-8808.450710,0.000000,-0.000000
1315.952776,-8956.491898,76.609550,814.226536
1315.953087,-9252.574275,229.828649,962.267725
1315.953399,-9104.533087,1072.533697,2072.576638
1315.953711,-7846.182985,383.047749,2146.597232
1315.954022,-7254.018232,-1072.533697,1628.453072
1315.954334,-6291.750507,-2145.067394,1036.288319
1315.954645,-6439.791695,-1608.800546,-592.164754
1315.954957,-6735.874072,76.609550,-962.267725
1315.955269,-8216.285956,1378.971896,-1258.350101
1315.955580,-9770.718434,1455.581446,-814.226536
1315.955892,-10214.842000,1072.533697,296.082377
1315.956203,-9992.780217,536.266849,1258.350101
1315.956515,-9474.636058,-612.876398,1184.329507
1315.956827,-10288.862594,-1302.362347,666.185348
1315.957138,-10510.924376,-919.314598,592.164754
1315.957450,-9400.615463,-229.828649,296.082377
1315.957761,-8586.388927,0.000000,740.205942
1315.958073,-8364.327145,306.438199,1110.308913
1315.958384,-7994.224174,229.828649,1258.350101
1315.958696,-7254.018232,-1532.190996,962.267725
1315.959008,-7698.141797,-1762.019645,888.247130
1315.959319,-7624.121203,-1608.800546,-0.000000
1315.959631,-8586.388927,-1149.143247,-1110.308913
1315.959942,-9400.615463,-459.657299,-1184.329507
1315.960254,-9252.574275,0.000000,-1110.308913
1315.960566,-10510.924376,995.924147,-962.267725
1315.960877,-11325.150913,2145.067394,592.164754
1315.961189,-11621.233289,1378.971896,592.164754
1315.961500,-10658.965565,-153.219100,962.267725
1315.961812,-10140.821405,-1072.533697,962.267725
1315.962124,-9104.533087,-306.438199,222.061783
1315.962435,-7846.182985,383.047749,-296.082377
1315.962747,-8142.265362,612.876398,148.041188
1315.963058,-7624.121203,-536.266849,1184.329507
1315.963370,-7328.038826,-1225.752797,1776.494261
1315.963682,-7772.162391,-3447.429741,2368.659014
1315.963993,-8438.347739,-2911.162892,2368.659014
1315.964305,-9326.594869,-3064.381992,1258.350101
1315.964616,-9030.512492,-2221.676944,518.144159
1315.964928,-8882.471304,-766.095498,-0.000000
1315.965240,-9104.533087,229.828649,-0.000000
1315.965551,-9622.677246,1838.629195,-0.000000
1315.965863,-9400.615463,2528.115143,-0.000000
1315.966174,-8290.306550,1762.019645,370.102971
1315.966486,-7846.182985,459.657299,296.082377
1315.966798,-8660.409521,76.609550,518.144159
1315.967109,-8882.471304,919.314598,148.041188
1315.967421,-9030.512492,1685.410096,814.226536
1315.967732,-9104.533087,-383.047749,1554.432478
1315.968044,-8290.306550,76.609550,2664.741391
1315.968356,-8142.265362,-1072.533697,2146.597232
1315.968667,-7179.997637,-1915.238745,1480.411884
1315.968979,-7402.059420,-2145.067394,518.144159
1315.969290,-7105.977043,-1149.143247,-222.061783
1315.969602,-7920.203579,306.438199,-1036.288319
1315.969913,-9400.615463,1302.362347,-1184.329507
1315.970225,-9474.636058,1685.410096,-444.123565
1315.970537,-10732.986159,1302.362347,296.082377
1315.970848,-10362.883188,995.924147,1110.308913
1315.971160,-11029.068536,612.876398,592.164754
1315.971471,-10584.944971,0.000000,148.041188
1315.971783,-9770.718434,153.219100,148.041188
1315.972095,-9622.677246,153.219100,-0.000000
1315.972406,-8882.471304,766.095498,518.144159
1315.972718,-7698.141797,1072.533697,962.267725
1315.973029,-7254.018232,383.047749,1406.391290
1315.973341,-7254.018232,-76.609550,1258.350101
1315.973653,-7179.997637,-1072.533697,740.205942
1315.973964,-6735.874072,-1455.581446,-74.020594
1315.974276,-7624.121203,-1225.752797,-1258.350101
1315.974587,-7994.224174,153.219100,-1776.494261
1315.974899,-9770.718434,1302.362347,-1628.453072
1315.975211,-10658.965565,1149.143247,-296.082377
1315.975522,-10584.944971,612.876398,1110.308913
1315.975834,-10881.027347,229.828649,1332.370696
1315.976145,-10658.965565,-229.828649,1554.432478
1315.976457,-11177.109724,-689.485948,592.164754
1315.976769,-10436.903782,153.219100,296.082377
1315.977080,-8882.471304,2068.457845,222.061783
1315.977392,-7772.162391,1838.629195,370.102971
1315.977703,-7698.141797,995.924147,1110.308913
1315.978015,-7920.203579,-306.438199,1702.473667
1315.978327,-6809.894666,-842.705048,1406.391290
1315.978638,-6143.709319,-1838.629195,1332.370696
1315.978950,-7105.977043,-2145.067394,370.102971
1315.979261,-8734.430116,-1762.019645,-518.144159
1315.979573,-8882.471304,0.000000,-740.205942
1315.979885,-9474.636058,1149.143247,-518.144159
1315.980196,-10584.944971,2298.286494,444.123565
1315.980508,-10881.027347,2068.457845,1258.350101
1315.980819,-10807.006753,1072.533697,1184.329507
1315.981131,-9400.615463,229.828649,1332.370696
1315.981442,-8586.388927,0.000000,740.205942
1315.981754,-8364.327145,383.047749,-0.000000
1315.982066,-8364.327145,383.047749,-0.000000
1315.982377,-8438.347739,0.000000,222.061783
1315.982689,-7624.121203,229.828649,1924.535449
1315.983000,-7772.162391,-612.876398,1924.535449
1315.983312,-7846.182985,-2451.505594,1998.556043
1315.983624,-7328.038826,-3294.210641,1776.494261
1315.983935,-8142.265362,-2911.162892,740.205942
1315.984247,-7994.224174,-536.266849,296.082377
1315.984558,-9178.553681,306.438199,-370.102971
1315.984870,-10584.944971,612.876398,-444.123565
1315.985182,-9992.780217,1455.581446,-0.000000
1315.985493,-9474.636058,1838.629195,370.102971
1315.985805,-9030.512492,842.705048,888.247130
1315.986116,-9992.780217,-383.047749,444.123565
1315.986428,-10214.842000,-689.485948,444.123565
1315.986740,-9844.739029,459.657299,592.164754
1315.987051,-9252.574275,459.657299,962.267725
1315.987363,-9030.512492,306.438199,1628.453072
1315.987674,-8734.430116,-306.438199,2146.597232
1315.987986,-7402.059420,-1762.019645,1554.432478
1315.988298,-6883.915261,-2681.334243,1258.350101
1315.988609,-7179.997637,-2374.896044,296.082377
1315.988921,-7550.100608,-1532.190996,-296.082377
1315.989232,-8956.491898,-766.095498,-740.205942
1315.989544,-9548.656652,0.000000,-296.082377
1315.989856,-10732.986159,995.924147,-222.061783
1315.990167,-11103.089130,2298.286494,592.164754
1315.990479,-11177.109724,1838.629195,1480.411884
1315.990790,-10732.986159,842.705048,814.226536
1315.991102,-9696.697840,76.609550,592.164754
1315.991414,-8660.409521,919.314598,-0.000000
1315.991725,-8290.306550,1455.581446,-444.123565
1315.992037,-7920.203579,2221.676944,444.123565
1315.992348,-7920.203579,919.314598,740.205942
1315.992660,-7105.977043,0.000000,1406.391290
1315.992971,-7254.018232,-1455.581446,1776.494261
1315.993283,-7105.977043,-2451.505594,1332.370696
1315.993595,-7328.038826,-2757.943793,-0.000000
1315.993906,-7179.997637,-2451.505594,-370.102971
1315.994218,-7698.141797,-1149.143247,-1036.288319
1315.994529,-8808.450710,-229.828649,-740.205942
1315.994841,-9992.780217,536.266849,148.041188
1315.995153,-10288.862594,842.705048,370.102971
1315.995464,-10066.800811,0.000000,1110.308913
1315.995776,-10362.883188,-995.924147,1110.308913
1315.996087,-10584.944971,-842.705048,222.061783
1315.996399,-10214.842000,459.657299,296.082377
1315.996711,-9104.533087,1149.143247,592.164754
1315.997022,-8438.347739,0.000000,740.205942
1315.997334,-7698.141797,-459.657299,1110.308913
1315.997645,-7624.121203,-1149.143247,1110.308913
1315.997957,-7476.080014,-1685.410096,1110.308913
1315.998269,-7179.997637,-1838.629195,444.123565
1315.998580,-8142.265362,-995.924147,-740.205942
1315.998892,-9326.594869,383.047749,-1110.308913
1315.999203,-9326.594869,612.876398,-1258.350101
1315.999515,-10436.903782,1991.848295,-740.205942
1315.999827,-11473.192101,1915.238745,-0.000000
1316.000138,-11029.068536,2911.162892,518.144159
1316.000450,-11029.068536,1455.581446,666.185348
1316.000761,-10066.800811,1072.533697,814.226536
1316.001073,-9030.512492,612.876398,148.041188
1316.001385,-7994.224174,459.657299,-0.000000
1316.001696,-7476.080014,689.485948,666.185348
1316.002008,-8364.327145,-383.047749,740.205942
1316.002319,-8438.347739,-229.828649,1998.556043
1316.002631,-8364.327145,-995.924147,1776.494261
1316.002943,-8068.244768,-1608.800546,1776.494261
1316.003254,-8512.368333,-1378.971896,814.226536
1316.003566,-8068.244768,-459.657299,-0.000000
1316.003877,-7920.203579,76.609550,-666.185348
1316.004189,-8068.244768,1455.581446,-0.000000
1316.004500,-7994.224174,1685.410096,444.123565
1316.004812,-8586.388927,1149.143247,740.205942
1316.005124,-8734.430116,689.485948,1258.350101
1316.005435,-8956.491898,229.828649,740.205942
1316.005747,-9918.759623,0.000000,296.082377
1316.006058,-10288.862594,459.657299,296.082377
1316.006370,-9326.594869,842.705048,740.205942
1316.006682,-9474.636058,459.657299,1110.308913
1316.006993,-9474.636058,-383.047749,2368.659014
1316.007305,-8142.265362,-1225.752797,2146.597232
1316.007616,-7031.956449,-1608.800546,1332.370696
1316.007928,-5921.647536,-2374.896044,1406.391290
1316.008240,-5847.626942,-2451.505594,-222.061783
1316.008551,-7179.997637,-1302.362347,-1110.308913
1316.008863,-8364.327145,-229.828649,-814.226536
1316.009174,-9030.512492,306.438199,-0.000000
1316.009486,-10807.006753,0.000000,1628.453072
1316.009798,-11991.336260,383.047749,1628.453072
1316.010109,-11621.233289,153.219100,1332.370696
1316.010421,-10732.986159,-306.438199,222.061783
1316.010732,-10066.800811,-306.438199,148.041188
1316.011044,-8808.450710,0.000000,-444.123565
1316.011356,-8586.388927,-153.219100,-518.144159
1316.011667,-8364.327145,0.000000,1036.288319
1316.011979,-8586.388927,-1838.629195,1332.370696
1316.012290,-8882.471304,-1762.019645,2146.597232
1316.012602,-7698.141797,-2451.505594,1702.473667
1316.012914,-8290.306550,-2681.334243,666.185348
1316.013225,-7994.224174,-1149.143247,-222.061783
1316.013537,-8734.430116,689.485948,-1702.473667
1316.013848,-9400.615463,995.924147,-1924.535449
1316.014160,-9918.759623,1608.800546,-1406.391290
1316.014472,-10732.986159,1302.362347,-370.102971
1316.014783,-10955.047942,1608.800546,-0.000000
1316.015095,-9844.739029,842.705048,296.082377
1316.015406,-9844.739029,-612.876398,518.144159
1316.015718,-9844.739029,-1149.143247,962.267725
1316.016029,-8808.450710,-459.657299,1036.288319
1316.016341,-8364.327145,-536.266849,1406.391290
1316.016653,-8216.285956,-383.047749,1998.556043
1316.016964,-7179.997637,-1608.800546,2146.597232
1316.017276,-6365.771101,-2145.067394,1702.473667
1316.017587,-6513.812290,-2681.334243,666.185348
1316.017898,-6735.874072,-2528.115143,444.123565
1316.018210,-7772.162391,-1149.143247,-1110.308913
1316.018521,-8956.491898,0.000000,-444.123565
1316.018833,-9474.636058,995.924147,-222.061783
1316.019144,-10584.944971,1378.971896,-74.020594
1316.019455,-10658.965565,2145.067394,1110.308913
1316.019767,-10066.800811,1838.629195,1184.329507
1316.020078,-8586.388927,842.705048,518.144159
1316.020390,-7402.059420,612.876398,444.123565
1316.020701,-8142.265362,229.828649,-222.061783
1316.021012,-8290.306550,-306.438199,296.082377
1316.021324,-8956.491898,306.438199,888.247130
1316.021635,-9400.615463,-153.219100,1924.535449
1316.021947,-8882.471304,-995.924147,1702.473667
1316.022258,-9400.615463,-1838.629195,1406.391290
1316.022569,-8882.471304,-1532.190996,1258.350101
1316.022881,-8364.327145,-995.924147,370.102971
1316.023192,-8882.471304,-383.047749,-666.185348
1316.023504,-8660.409521,1608.800546,-814.226536
1316.023815,-8586.388927,2681.334243,-296.082377
1316.024126,-9696.697840,2451.505594,-222.061783
1316.024438,-10436.903782,2068.457845,222.061783
1316.024749,-9992.780217,1455.581446,444.123565
1316.025061,-9992.780217,919.314598,-0.000000
1316.025372,-10362.883188,76.609550,-296.082377
1316.025683,-9770.718434,536.266849,-0.000000
1316.025995,-10066.800811,0.000000,370.102971
1316.026306,-9844.739029,0.000000,1332.370696
1316.026618,-7994.224174,-459.657299,2516.700203
1316.026929,-6587.832884,-612.876398,2368.659014
1316.027240,-5995.668130,-1149.143247,1702.473667
1316.027552,-5921.647536,-1991.848295,666.185348
1316.027863,-6143.709319,-1608.800546,-592.164754
1316.028175,-7328.038826,229.828649,-1332.370696
1316.028486,-8068.244768,919.314598,-1406.391290
1316.028797,-9548.656652,1378.971896,-518.144159
1316.029109,-11843.295072,1455.581446,518.144159
1316.029420,-12065.356855,0.000000,1480.411884
1316.029731,-11029.068536,-306.438199,1480.411884
1316.030043,-9992.780217,-536.266849,1110.308913
1316.030354,-9030.512492,153.219100,814.226536
1316.030666,-8068.244768,536.266849,296.082377
1316.030977,-7402.059420,0.000000,518.144159
1316.031288,-7772.162391,689.485948,1036.288319
1316.031600,-7105.977043,766.095498,814.226536
1316.031911,-7179.997637,-306.438199,1702.473667
1316.032223,-7698.141797,-2374.896044,1332.370696
1316.032534,-7476.080014,-3447.429741,518.144159
1316.032845,-8364.327145,-2834.553343,-222.061783
1316.033157,-8290.306550,-1149.143247,-296.082377
1316.033468,-10214.842000,0.000000,-1184.329507
1316.033780,-11399.171507,612.876398,-296.082377
1316.034091,-11473.192101,1378.971896,148.041188
1316.034402,-10807.006753,766.095498,1184.329507
1316.034714,-10066.800811,76.609550,1332.370696
1316.035025,-10436.903782,-76.609550,1184.329507
1316.035337,-10288.862594,-459.657299,888.247130
1316.035648,-8734.430116,0.000000,814.226536
1316.035959,-8142.265362,459.657299,1036.288319
1316.036271,-8068.244768,0.000000,1554.432478
1316.036582,-7994.224174,-1532.190996,1036.288319
1316.036894,-7179.997637,-2528.115143,962.267725
1316.037205,-7031.956449,-2604.724693,888.247130
1316.037516,-7624.121203,-2068.457845,222.061783
1316.037828,-8660.409521,-995.924147,-74.020594
1316.038139,-9178.553681,459.657299,-74.020594
1316.038451,-9252.574275,1915.238745,666.185348
1316.038762,-10288.862594,2451.505594,592.164754
1316.039073,-10881.027347,2451.505594,1480.411884
1316.039385,-10140.821405,1685.410096,1110.308913
1316.039696,-9326.594869,0.000000,222.061783
1316.040008,-7846.182985,-612.876398,-74.020594
1316.040319,-7328.038826,229.828649,-1184.329507
1316.040630,-7994.224174,383.047749,-740.205942
1316.040942,-8142.265362,-383.047749,592.164754
1316.041253,-8586.388927,-612.876398,1776.494261
1316.041565,-8882.471304,-1225.752797,2442.679609
1316.041876,-8290.306550,-1991.848295,2368.659014
1316.042187,-7772.162391,-2451.505594,1554.432478
1316.042499,-7550.100608,-1991.848295,222.061783
1316.042810,-7846.182985,-229.828649,-1184.329507
1316.043121,-7994.224174,995.924147,-1628.453072
1316.043433,-8512.368333,2298.286494,-666.185348
1316.043744,-9474.636058,1302.362347,222.061783
1316.044056,-9992.780217,612.876398,666.185348
1316.044367,-10658.965565,-153.219100,148.041188
1316.044678,-10807.006753,-459.657299,592.164754
1316.044990,-9992.780217,-306.438199,-0.000000
1316.045301,-10955.047942,919.314598,-0.000000
1316.045613,-10140.821405,1225.752797,1110.308913
1316.045924,-9622.677246,842.705048,592.164754
1316.046235,-8512.368333,459.657299,1776.494261
1316.046547,-7105.977043,0.000000,1628.453072
1316.046858,-6661.853478,-1378.971896,814.226536
1316.047170,-6513.812290,-2221.676944,-296.082377
1316.047481,-7328.038826,-995.924147,-1110.308913
1316.047792,-8068.244768,1685.410096,-1036.288319
1316.048104,-9400.615463,2374.896044,-1184.329507
1316.048415,-10584.944971,2068.457845,222.061783
1316.048727,-11473.192101,1532.190996,518.144159
1316.049038,-10955.047942,1532.190996,1110.308913
1316.049349,-10140.821405,766.095498,370.102971
1316.049661,-10140.821405,766.095498,148.041188
1316.049972,-9918.759623,459.657299,-370.102971
1316.050284,-9104.533087,1455.581446,296.082377
1316.050595,-8216.285956,1072.533697,1258.350101
1316.050906,-8290.306550,689.485948,1776.494261
1316.051218,-8068.244768,-536.266849,2590.720797
1316.051529,-7476.080014,-1762.019645,2220.617826
1316.051841,-6587.832884,-2298.286494,2146.597232
1316.052152,-6439.791695,-1608.800546,592.164754
1316.052463,-6661.853478,-842.705048,-444.123565
1316.052775,-7254.018232,383.047749,-1110.308913
1316.053086,-8586.388927,1302.362347,-1110.308913
1316.053398,-9918.759623,1838.629195,-592.164754
1316.053709,-10066.800811,2451.505594,518.144159
1316.054020,-10658.965565,1455.581446,962.267725
1316.054332,-10362.883188,-459.657299,1480.411884
1316.054643,-9918.759623,-995.924147,1332.370696
1316.054955,-9474.636058,-459.657299,1184.329507
1316.055266,-8290.306550,-153.219100,1776.494261
1316.055577,-7772.162391,-919.314598,2220.617826
1316.055889,-7624.121203,-1072.533697,1776.494261
1316.056200,-6439.791695,-1302.362347,1480.411884
1316.056511,-6883.915261,-2068.457845,444.123565
1316.056823,-7105.977043,-1838.629195,-0.000000
1316.057134,-8290.306550,-1072.533697,-518.144159
1316.057446,-10362.883188,-459.657299,-296.082377
1316.057757,-10658.965565,612.876398,740.205942
1316.058068,-11547.212695,383.047749,962.267725
1316.058380,-11695.253884,1302.362347,1184.329507
1316.058691,-10436.903782,1225.752797,1184.329507
1316.059003,-9770.718434,306.438199,296.082377
1316.059314,-8882.471304,0.000000,-444.123565
1316.059625,-8068.244768,229.828649,-444.123565
1316.059937,-8364.327145,229.828649,-814.226536
1316.060248,-8734.430116,306.438199,296.082377
1316.060560,-9474.636058,459.657299,1036.288319
1316.060871,-9548.656652,76.609550,1554.432478
1316.061182,-9030.512492,-536.266849,1776.494261
1316.061494,-8216.285956,-1991.848295,1258.350101
1316.061805,-7846.182985,-2528.115143,888.247130
1316.062117,-7624.121203,-2911.162892,-0.000000
1316.062428,-7920.203579,-919.314598,-592.164754
1316.062739,-8142.265362,0.000000,-444.123565
1316.063051,-8586.388927,536.266849,444.123565
1316.063362,-9178.553681,0.000000,888.247130
1316.063674,-9178.553681,-612.876398,740.205942
1316.063985,-9474.636058,-689.485948,370.102971
1316.064296,-9474.636058,-995.924147,-0.000000
1316.064608,-9770.718434,0.000000,-370.102971
1316.064919,-10732.986159,-459.657299,-740.205942
1316.065231,-9474.636058,153.219100,740.205942
1316.065542,-9844.739029,-689.485948,1480.411884
1316.065853,-8586.388927,-766.095498,2442.679609
1316.066165,-7772.162391,-1302.362347,1480.411884
1316.066476,-7031.956449,-1685.410096,592.164754
1316.066788,-5625.565159,-1302.362347,-666.185348
1316.067099,-6587.832884,229.828649,-2072.576638
1316.067410,-7476.080014,1378.971896,-1480.411884
1316.067722,-7772.162391,2068.457845,-1258.350101
1316.068033,-10732.986159,1915.238745,-296.082377
1316.068345,-11769.274478,1532.190996,814.226536
1316.068656,-11695.253884,459.657299,1332.370696
1316.068967,-11399.171507,-766.095498,1110.308913
1316.069279,-10510.924376,-1072.533697,1036.288319
1316.069590,-9918.759623,-612.876398,-222.061783
1316.069901,-8882.471304,766.095498,-0.000000
1316.070213,-8290.306550,1378.971896,1184.329507
1316.070524,-8142.265362,689.485948,1850.514855
1316.070836,-7698.141797,0.000000,2220.617826
1316.071147,-7105.977043,-1225.752797,2368.659014
1316.071458,-5995.668130,-1608.800546,1628.453072
1316.071770,-6661.853478,-919.314598,-0.000000
1316.072081,-7624.121203,229.828649,-740.205942
1316.072393,-8882.471304,1608.800546,-1628.453072
1316.072704,-10362.883188,1685.410096,-592.164754
1316.073015,-11325.150913,2451.505594,-0.000000
1316.073327,-11695.253884,2221.676944,666.185348
1316.073638,-11177.109724,919.314598,888.247130
1316.073950,-10658.965565,-612.876398,1554.432478
1316.074261,-9400.615463,-306.438199,1554.432478
1316.074572,-8586.388927,1532.190996,1110.308913
1316.074884,-7994.224174,3294.210641,1184.329507
1316.075195,-7105.977043,2145.067394,1924.535449
1316.075507,-6069.688724,842.705048,1406.391290
1316.075818,-5699.585753,-306.438199,962.267725
1316.076129,-5921.647536,-1762.019645,-0.000000
1316.076441,-7179.997637,-1455.581446,-0.000000
1316.076752,-9104.533087,-1225.752797,-74.020594
1316.077064,-10807.006753,-1072.533697,-0.000000
1316.077375,-10807.006753,-919.314598,666.185348
1316.077686,-10658.965565,-229.828649,1480.411884
1316.077998,-10510.924376,536.266849,1850.514855
1316.078309,-9326.594869,306.438199,1406.391290
1316.078621,-8142.265362,-306.438199,666.185348
1316.078932,-7550.100608,0.000000,-222.061783
1316.079243,-7328.038826,612.876398,-666.185348
1316.079555,-7920.203579,766.095498,-814.226536
1316.079866,-8734.430116,0.000000,-0.000000
1316.080178,-9252.574275,-459.657299,740.205942
1316.080489,-8956.491898,-766.095498,1332.370696
1316.080800,-8882.471304,-1915.238745,1258.350101
1316.081112,-8808.450710,-3294.210641,1184.329507
1316.081423,-8660.409521,-4060.306139,222.061783
1316.081735,-8068.244768,-3064.381992,-296.082377
1316.082046,-8808.450710,0.000000,-1332.370696
1316.082357,-9474.636058,1455.581446,-1406.391290
1316.082669,-9844.739029,2068.457845,-1110.308913
1316.082980,-10066.800811,1378.971896,-370.102971
1316.083292,-9696.697840,536.266849,592.164754
1316.083603,-10584.944971,0.000000,518.144159
1316.083914,-11251.130318,-1378.971896,-0.000000
1316.084226,-10955.047942,-153.219100,296.082377
1316.084537,-10436.903782,0.000000,814.226536
1316.084848,-10362.883188,0.000000,444.123565
1316.085160,-9622.677246,0.000000,1406.391290
1316.085471,-8142.265362,-536.266849,1332.370696
1316.085783,-7105.977043,-1302.362347,1258.350101
1316.086094,-6291.750507,-1915.238745,962.267725
1316.086405,-6439.791695,-1608.800546,-370.102971
1316.086717,-7179.997637,-1149.143247,-370.102971
1316.087028,-7920.203579,383.047749,-148.041188
1316.087340,-8956.491898,1378.971896,-0.000000
1316.087651,-10214.842000,1532.190996,296.082377
1316.087962,-10807.006753,995.924147,1258.350101
1316.088274,-10288.862594,-383.047749,1036.288319
1316.088585,-9622.677246,-383.047749,1110.308913
1316.088897,-8956.491898,-229.828649,740.205942
1316.089208,-9104.533087,383.047749,-0.000000
1316.089519,-8216.285956,766.095498,1480.411884
1316.089831,-7772.162391,1149.143247,1998.556043
1316.090142,-7105.977043,919.314598,2294.638420
1316.090454,-6587.832884,153.219100,1998.556043
1316.090765,-5773.606348,-1532.190996,1554.432478
1316.091076,-4959.379811,-2681.334243,370.102971
1316.091388,-6143.709319,-1378.971896,-1184.329507
1316.091699,-7105.977043,-612.876398,-1110.308913
1316.092011,-9030.512492,-689.485948,-666.185348
1316.092322,-10732.986159,0.000000,444.123565
1316.092633,-11991.336260,766.095498,888.247130
1316.092945,-11917.315666,1608.800546,1406.391290
1316.093256,-11103.089130,766.095498,1110.308913
1316.093568,-10362.883188,919.314598,370.102971
1316.093879,-9400.615463,1149.143247,-370.102971
1316.094190,-7772.162391,1762.019645,-518.144159
1316.094502,-7624.121203,1762.019645,370.102971
1316.094813,-8142.265362,459.657299,1110.308913
1316.095125,-8142.265362,-383.047749,1480.411884
1316.095436,-8290.306550,-2221.676944,1406.391290
1316.095747,-7846.182985,-3370.820191,814.226536
1316.096059,-9178.553681,-2911.162892,-222.061783
1316.096370,-10732.986159,-995.924147,-740.205942
1316.096682,-10955.047942,1225.752797,-444.123565
1316.096993,-10658.965565,1455.581446,-222.061783
1316.097304,-10436.903782,1915.238745,592.164754
1316.097616,-10214.842000,2451.505594,888.247130
1316.097927,-8808.450710,1991.848295,370.102971
1316.098238,-7698.141797,1532.190996,-296.082377
1316.098550,-7772.162391,1762.019645,-1184.329507
1316.098861,-7994.224174,1991.848295,-1628.453072
1316.099173,-8660.409521,383.047749,-296.082377
1316.099484,-9030.512492,0.000000,1184.329507
1316.099795,-9474.636058,-612.876398,2368.659014
1316.100107,-9178.553681,-1225.752797,2442.679609
1316.100418,-8290.306550,-2374.896044,2368.659014
1316.100730,-7624.121203,-2681.334243,1554.432478
1316.101041,-6661.853478,-1532.190996,74.020594
1316.101352,-6735.874072,229.828649,-1036.288319
1316.101664,-7698.141797,1685.410096,-1480.411884
1316.101975,-8364.327145,1838.629195,-1332.370696
1316.102287,-8438.347739,2145.067394,-740.205942
1316.102598,-8660.409521,1302.362347,-0.000000
1316.102909,-8660.409521,76.609550,1110.308913
1316.103221,-11029.068536,-2374.896044,370.102971
1316.103532,-11695.253884,-1991.848295,888.247130
1316.103844,-11325.150913,-459.657299,1258.350101
1316.104155,-10732.986159,306.438199,1480.411884
1316.104466,-10658.965565,-229.828649,2072.576638
1316.104778,-9104.533087,-995.924147,2294.638420
1316.105089,-6365.771101,-1838.629195,1480.411884
1316.105401,-5551.544565,-2068.457845,814.226536
1316.105712,-5625.565159,-1378.971896,-222.061783
1316.106023,-6883.915261,-689.485948,-888.247130
1316.106335,-8216.285956,-459.657299,-296.082377
1316.106646,-9030.512492,0.000000,-0.000000
1316.106958,-10584.944971,459.657299,518.144159
1316.107269,-11473.192101,842.705048,1184.329507
1316.107580,-11325.150913,459.657299,1702.473667
1316.107892,-10955.047942,-842.705048,1258.350101
1316.108203,-9992.780217,-536.266849,666.185348
1316.108515,-9696.697840,153.219100,148.041188
1316.108826,-9992.780217,459.657299,222.061783
1316.109137,-8364.327145,1685.410096,1184.329507
1316.109449,-7105.977043,1455.581446,1258.350101
1316.109760,-6143.709319,0.000000,1480.411884
1316.110072,-6143.709319,-1991.848295,1776.494261
1316.110383,-6661.853478,-2911.162892,740.205942
1316.110694,-7402.059420,-1991.848295,444.123565
1316.111006,-7994.224174,-1378.971896,-148.041188
1316.111317,-9622.677246,-689.485948,-518.144159
1316.111628,-10658.965565,-306.438199,-0.000000
1316.111940,-10658.965565,612.876398,814.226536
1316.112251,-10955.047942,995.924147,1554.432478
1316.112563,-10140.821405,1532.190996,1258.350101
1316.112874,-10510.924376,1762.019645,222.061783
1316.113185,-10066.800811,306.438199,-370.102971
1316.113497,-8216.285956,995.924147,-296.082377
1316.113808,-7624.121203,1225.752797,-74.020594
1316.114120,-7031.956449,1149.143247,370.102971
1316.114431,-8216.285956,0.000000,962.267725
1316.114742,-8068.244768,-1455.581446,1776.494261
1316.115054,-7846.182985,-2451.505594,1924.535449
1316.115365,-8290.306550,-2757.943793,1110.308913
1316.115677,-8734.430116,-1532.190996,888.247130
1316.115988,-8956.491898,-842.705048,-666.185348
1316.116299,-8216.285956,536.266849,-740.205942
1316.116611,-8290.306550,1838.629195,-444.123565
1316.116922,-9474.636058,2145.067394,-0.000000
1316.117234,-9622.677246,1455.581446,296.082377
1316.117545,-9326.594869,842.705048,-0.000000
1316.117856,-8882.471304,-153.219100,-0.000000
1316.118168,-9918.759623,-229.828649,-518.144159
1316.118479,-10881.027347,459.657299,-296.082377
1316.118791,-10140.821405,995.924147,962.267725
1316.119102,-9992.780217,229.828649,1628.453072
1316.119413,-9400.615463,-689.485948,2886.803174
1316.119725,-8068.244768,-1838.629195,2368.659014
1316.120021,-7031.956449,-2528.115143,1184.329507
1316.120332,-5995.668130,-2374.896044,-0.000000
1316.120644,-5921.647536,-766.095498,-1406.391290
1316.120955,-6587.832884,536.266849,-2590.720797
1316.121266,-8660.409521,1072.533697,-1998.556043
1316.121578,-9696.697840,1838.629195,-740.205942
1316.121889,-11029.068536,1532.190996,-296.082377
1316.122200,-11029.068536,1608.800546,1480.411884
1316.122512,-10436.903782,-229.828649,1702.473667
1316.122823,-11621.233289,-1149.143247,666.185348
1316.123135,-11251.130318,0.000000,1406.391290
1316.123446,-9548.656652,612.876398,1628.453072
1316.123757,-8660.409521,842.705048,1554.432478
1316.124069,-9178.553681,153.219100,1850.514855
1316.124380,-8216.285956,153.219100,1850.514855
1316.124691,-6513.812290,-612.876398,592.164754
1316.125003,-6143.709319,-995.924147,370.102971
1316.125314,-6735.874072,-153.219100,-518.144159
1316.125625,-8364.327145,-1225.752797,-1480.411884
1316.125937,-9104.533087,1149.143247,-444.123565
1316.126248,-9326.594869,1302.362347,592.164754
1316.126560,-10362.883188,1455.581446,1924.535449
1316.126871,-11251.130318,1762.019645,2516.700203
1316.127182,-10732.986159,1532.190996,1998.556043
1316.127494,-8956.491898,995.924147,962.267725
1316.127805,-8660.409521,1378.971896,-0.000000
1316.128116,-7698.141797,2298.286494,-370.102971
1316.128428,-7624.121203,1225.752797,-666.185348
1316.128739,-7846.182985,995.924147,222.061783
1316.129050,-7550.100608,689.485948,1258.350101
1316.129362,-7402.059420,-383.047749,1776.494261
1316.129673,-7698.141797,-2604.724693,1924.535449
1316.129985,-7550.100608,-3677.258390,1332.370696
1316.130296,-7994.224174,-3217.601092,740.205942
1316.130607,-8142.265362,-1072.533697,296.082377
1316.130919,-9252.574275,0.000000,222.061783
1316.131230,-10214.842000,229.828649,222.061783
1316.131541,-9770.718434,612.876398,740.205942
1316.131853,-9770.718434,919.314598,814.226536
1316.132164,-8734.430116,689.485948,444.123565
1316.132475,-9474.636058,-306.438199,-74.020594
1316.132787,-9548.656652,0.000000,-666.185348
1316.133098,-8882.471304,612.876398,-444.123565
1316.133410,-9252.574275,612.876398,-296.082377
1316.133721,-9992.780217,0.000000,888.247130
1316.134032,-10066.800811,-536.266849,1850.514855
1316.134344,-9104.533087,-1608.800546,1554.432478
1316.134655,-8142.265362,-2451.505594,1702.473667
1316.134966,-7920.203579,-2451.505594,1036.288319
1316.135278,-9400.615463,-2451.505594,222.061783
1316.135589,-9104.533087,-1302.362347,-222.061783
1316.135900,-8364.327145,766.095498,-814.226536
1316.136212,-9326.594869,1608.800546,-592.164754
1316.136523,-9992.780217,1838.629195,222.061783
1316.136835,-10584.944971,383.047749,-0.000000
1316.137146,-10214.842000,-536.266849,-148.041188
1316.137457,-9252.574275,229.828649,-0.000000
1316.137769,-9918.759623,536.266849,-518.144159
1316.138080,-10436.903782,766.095498,666.185348
1316.138391,-9178.553681,536.266849,2146.597232
1316.138703,-7550.100608,-689.485948,2368.659014
1316.139014,-6735.874072,-1302.362347,2220.617826
1316.139325,-6735.874072,-1378.971896,1036.288319
1316.139637,-6069.688724,-1991.848295,-148.041188
1316.139948,-6439.791695,-2374.896044,-1110.308913
1316.140260,-6365.771101,-995.924147,-1406.391290
1316.140571,-7846.182985,0.000000,-1184.329507
1316.140882,-9844.739029,0.000000,-518.144159
1316.141194,-10881.027347,689.485948,740.205942
1316.141505,-10584.944971,1225.752797,1406.391290
1316.141816,-9696.697840,1608.800546,1776.494261
1316.142128,-10807.006753,842.705048,1110.308913
1316.142439,-11029.068536,-919.314598,148.041188
1316.142750,-9696.697840,995.924147,-296.082377
1316.143062,-8290.306550,2221.676944,518.144159
1316.143373,-8438.347739,1762.019645,444.123565
1316.143685,-8956.491898,536.266849,1332.370696
1316.143996,-7846.182985,-153.219100,1332.370696
1316.144307,-7031.956449,-1991.848295,1036.288319
1316.144619,-6735.874072,-2145.067394,-0.000000
1316.144930,-7698.141797,-536.266849,-740.205942
1316.145241,-9178.553681,689.485948,-962.267725
1316.145553,-8660.409521,1455.581446,-0.000000
1316.145864,-9474.636058,1685.410096,814.226536
1316.146176,-10732.986159,1915.238745,1110.308913
1316.146487,-11399.171507,1991.848295,1480.411884
1316.146798,-10510.924376,383.047749,592.164754
1316.147110,-9104.533087,842.705048,-370.102971
1316.147421,-8660.409521,995.924147,-370.102971
1316.147732,-8956.491898,536.266849,-518.144159
1316.148044,-8660.409521,0.000000,666.185348
1316.148355,-8216.285956,-306.438199,1628.453072
1316.148666,-7994.224174,-919.314598,2294.638420
1316.148978,-8068.244768,-1838.629195,2368.659014
1316.149289,-7254.018232,-3294.210641,2146.597232
1316.149601,-7105.977043,-3064.381992,518.144159
1316.149912,-7179.997637,-995.924147,-592.164754
1316.150223,-7698.141797,689.485948,-222.061783
1316.150535,-9548.656652,1072.533697,-1110.308913
1316.150846,-10066.800811,1608.800546,-0.000000
1316.151157,-10214.842000,1685.410096,296.082377
1316.151469,-9326.594869,1608.800546,888.247130
1316.151780,-9030.512492,76.609550,518.144159
1316.152091,-9992.780217,-1685.410096,-0.000000
1316.152403,-9622.677246,-1532.190996,148.041188
1316.152714,-8956.491898,-153.219100,518.144159
1316.153026,-9400.615463,306.438199,1110.308913
1316.153337,-9918.759623,-306.438199,1850.514855
1316.153648,-9992.780217,-995.924147,1702.473667
1316.153960,-9178.553681,-1302.362347,1184.329507
1316.154271,-7105.977043,-1532.190996,814.226536
1316.154582,-7105.977043,-1608.800546,370.102971
1316.154894,-7624.121203,-1685.410096,-148.041188
1316.155205,-8882.471304,-766.095498,-296.082377
1316.155516,-8882.471304,0.000000,-0.000000
1316.155828,-9326.594869,1225.752797,148.041188
1316.156139,-10436.903782,1685.410096,444.123565
1316.156451,-10214.842000,842.705048,-0.000000
1316.156762,-9844.739029,-995.924147,-0.000000
1316.157073,-9770.718434,0.000000,-296.082377
1316.157385,-9918.759623,383.047749,222.061783
1316.157696,-9770.718434,459.657299,888.247130
1316.158007,-9696.697840,0.000000,1628.453072
1316.158319,-8290.306550,-842.705048,2294.638420
1316.158630,-6735.874072,-1225.752797,1554.432478
1316.158941,-5847.626942,-2068.457845,1332.370696
1316.159253,-6439.791695,-1762.019645,-74.020594
1316.159564,-7105.977043,-2221.676944,-592.164754
1316.159876,-7476.080014,-689.485948,-888.247130
1316.160187,-9030.512492,995.924147,-666.185348
1316.160498,-10140.821405,1455.581446,222.061783
1316.160810,-10510.924376,1532.190996,666.185348
1316.161121,-10510.924376,1072.533697,740.205942
1316.161432,-9622.677246,1225.752797,962.267725
1316.161744,-10066.800811,536.266849,-74.020594
1316.162055,-9696.697840,229.828649,-74.020594
1316.162366,-8956.491898,459.657299,-0.000000
1316.162678,-8364.327145,0.000000,666.185348
1316.162989,-9030.512492,-612.876398,1406.391290
1316.163301,-8882.471304,-995.924147,1628.453072
1316.163612,-7105.977043,-1685.410096,1480.411884
1316.163923,-7105.977043,-1838.629195,814.226536
1316.164235,-7328.038826,-3217.601092,74.020594
1316.164546,-7624.121203,-2604.724693,-814.226536
1316.164857,-8956.491898,-766.095498,-444.123565
1316.165169,-9030.512492,766.095498,-518.144159
1316.165480,-10066.800811,1378.971896,296.082377
1316.165791,-11177.109724,1149.143247,1110.308913
1316.166103,-11251.130318,0.000000,740.205942
1316.166414,-10584.944971,-459.657299,814.226536
1316.166726,-9844.739029,536.266849,370.102971
1316.167037,-9326.594869,459.657299,-518.144159
1316.167348,-8882.471304,229.828649,-592.164754
1316.167660,-8808.450710,383.047749,296.082377
1316.167971,-8068.244768,536.266849,1258.350101
1316.168282,-7031.956449,0.000000,1184.329507
1316.168594,-7105.977043,-1072.533697,1332.370696
1316.168905,-7105.977043,-1302.362347,1036.288319
1316.169216,-7846.182985,-919.314598,-0.000000
1316.169528,-8438.347739,0.000000,-222.061783
1316.169839,-9178.553681,919.314598,-444.123565
1316.170151,-10140.821405,1302.362347,-666.185348
1316.170462,-10066.800811,1915.238745,-296.082377
1316.170773,-9178.553681,2068.457845,296.082377
1316.171085,-8734.430116,919.314598,148.041188
1316.171396,-9252.574275,-536.266849,-222.061783
1316.171707,-10140.821405,-995.924147,296.082377
1316.172019,-10510.924376,766.095498,222.061783
1316.172330,-10807.006753,2221.676944,592.164754
1316.172641,-9252.574275,2145.067394,1406.391290
1316.172953,-8808.450710,612.876398,1850.514855
1316.173264,-7920.203579,-1455.581446,1406.391290
1316.173576,-6513.812290,-1072.533697,814.226536
1316.173887,-6883.915261,-1685.410096,666.185348
1316.174198,-7402.059420,229.828649,-222.061783
1316.174510,-8142.265362,0.000000,-370.102971
1316.174821,-8808.450710,0.000000,-370.102971
1316.175132,-8216.285956,995.924147,518.144159
1316.175444,-9104.533087,1685.410096,814.226536
1316.175755,-9474.636058,1378.971896,814.226536
1316.176066,-10510.924376,229.828649,814.226536
1316.176378,-9844.739029,153.219100,444.123565
1316.176689,-9696.697840,0.000000,592.164754
1316.177001,-9844.739029,383.047749,740.205942
1316.177312,-9474.636058,536.266849,1776.494261
1316.177623,-8586.388927,-383.047749,2294.638420
1316.177935,-8142.265362,-1225.752797,2442.679609
1316.178246,-7031.956449,-1149.143247,2294.638420
1316.178557,-6365.771101,-1532.190996,1554.432478
1316.178869,-7624.121203,-2298.286494,740.205942
1316.179180,-7402.059420,-1455.581446,-370.102971
1316.179491,-7994.224174,76.609550,-1036.288319
1316.179803,-9548.656652,1302.362347,-888.247130
1316.180114,-10066.800811,1762.019645,444.123565
1316.180426,-10140.821405,1532.190996,444.123565
1316.180737,-9474.636058,76.609550,1406.391290
1316.181048,-9474.636058,-1072.533697,1554.432478
1316.181360,-9844.739029,-919.314598,370.102971
1316.181671,-10140.821405,-383.047749,296.082377
1316.181982,-9474.636058,-229.828649,962.267725
1316.182294,-9326.594869,-1072.533697,1184.329507
1316.182605,-9622.677246,-1225.752797,1776.494261
1316.182916,-8438.347739,-459.657299,2294.638420
1316.183228,-7772.162391,-2374.896044,1258.350101
1316.183539,-7402.059420,-3753.867940,1332.370696
1316.183851,-7328.038826,-3294.210641,296.082377
1316.184162,-8142.265362,-1072.533697,-1036.288319
1316.184473,-8142.265362,1302.362347,-666.185348
1316.184785,-9474.636058,1991.848295,-370.102971
1316.185096,-10510.924376,2145.067394,444.123565
1316.185407,-10214.842000,2068.457845,296.082377
1316.185719,-9918.759623,1608.800546,666.185348
1316.186030,-9252.574275,1378.971896,-0.000000
1316.186341,-8956.491898,1149.143247,-518.144159
1316.186653,-9030.512492,995.924147,-888.247130
1316.186964,-8142.265362,689.485948,-814.226536
1316.187276,-7994.224174,919.314598,444.123565
1316.187587,-8142.265362,459.657299,1184.329507
1316.187898,-8364.327145,-536.266849,740.205942
1316.188210,-7920.203579,-2298.286494,740.205942
1316.188521,-7031.956449,-2681.334243,740.205942
1316.188832,-7772.162391,-2451.505594,-74.020594
1316.189144,-8438.347739,-842.705048,-222.061783
1316.189455,-8586.388927,0.000000,-0.000000
1316.189766,-9400.615463,229.828649,444.123565
1316.190078,-9622.677246,612.876398,740.205942
1316.190389,-9770.718434,-229.828649,1332.370696
1316.190701,-9622.677246,-1072.533697,518.144159
1316.191012,-10214.842000,-1532.190996,-740.205942
1316.191323,-10066.800811,-459.657299,-592.164754
1316.191635,-10214.842000,766.095498,-592.164754
1316.191946,-10288.862594,842.705048,370.102971
1316.192257,-9992.780217,459.657299,1998.556043
1316.192569,-8956.491898,229.828649,2442.679609
1316.192880,-7624.121203,-612.876398,2072.576638
1316.193191,-6291.750507,-919.314598,1776.494261
1316.193503,-6365.771101,-689.485948,592.164754
1316.193814,-6513.812290,-383.047749,-666.185348
1316.194126,-7846.182985,919.314598,-1554.432478
1316.194437,-8660.409521,1838.629195,-666.185348
1316.194748,-10066.800811,1915.238745,-74.020594
1316.195060,-11103.089130,1762.019645,888.247130
1316.195371,-11399.171507,1225.752797,962.267725
1316.195682,-11695.253884,459.657299,370.102971
1316.195994,-10658.965565,459.657299,666.185348
1316.196305,-10807.006753,229.828649,666.185348
1316.196616,-9696.697840,1225.752797,888.247130
1316.196928,-8290.306550,1762.019645,1480.411884
1316.197239,-7328.038826,1149.143247,2368.659014
1316.197551,-5921.647536,306.438199,1924.535449
1316.197862,-6217.729913,-536.266849,1702.473667
1316.198173,-6069.688724,-2068.457845,962.267725
1316.198485,-7179.997637,-2221.676944,-296.082377
1316.198796,-8068.244768,-306.438199,-740.205942
1316.199107,-8364.327145,1072.533697,-666.185348
1316.199419,-9622.677246,536.266849,-740.205942
1316.199730,-9696.697840,383.047749,518.144159
1316.200041,-9252.574275,1378.971896,1110.308913
1316.200353,-9252.574275,1685.410096,1406.391290
1316.200664,-9400.615463,229.828649,666.185348
1316.200976,-9844.739029,-536.266849,444.123565
1316.201287,-9104.533087,229.828649,444.123565
1316.201598,-7994.224174,766.095498,888.247130
1316.201910,-8808.450710,306.438199,1036.288319
1316.202221,-8808.450710,-383.047749,1184.329507
1316.202532,-7920.203579,-1072.533697,1332.370696
1316.202844,-7179.997637,-2604.724693,592.164754
1316.203155,-6587.832884,-2145.067394,518.144159
1316.203467,-8364.327145,-2451.505594,-444.123565
1316.203778,-9178.553681,-1532.190996,-444.123565
1316.204089,-9696.697840,689.485948,-444.123565
1316.204401,-10214.842000,2145.067394,222.061783
1316.204712,-10881.027347,2987.772442,814.226536
1316.205023,-10881.027347,306.438199,962.267725
1316.205335,-9474.636058,-229.828649,296.082377
1316.205646,-8808.450710,-383.047749,-148.041188
1316.205957,-9326.594869,76.609550,-222.061783
1316.206269,-9992.780217,0.000000,-222.061783
1316.206580,-10436.903782,-536.266849,518.144159
1316.206892,-10140.821405,-1072.533697,1110.308913
1316.207203,-8808.450710,-1302.362347,1776.494261
1316.207514,-8512.368333,-1532.190996,1110.308913
1316.207826,-7772.162391,-2604.724693,1628.453072
1316.208137,-7179.997637,-3447.429741,1258.350101
1316.208448,-7772.162391,-2757.943793,148.041188
1316.208760,-8068.244768,-383.047749,-0.000000
1316.209071,-9104.533087,1302.362347,-222.061783
1316.209382,-9474.636058,1455.581446,222.061783
1316.209694,-9474.636058,1685.410096,370.102971
1316.210005,-8586.388927,995.924147,-148.041188
1316.210317,-8364.327145,612.876398,-0.000000
1316.210628,-9474.636058,-383.047749,-74.020594
1316.210939,-9548.656652,0.000000,-74.020594
1316.211251,-9474.636058,612.876398,-0.000000
1316.211562,-9548.656652,1072.533697,1406.391290
1316.211873,-9030.512492,1149.143247,1554.432478
1316.212185,-8142.265362,536.266849,2220.617826
1316.212496,-6735.874072,-919.314598,1332.370696
1316.212807,-5551.544565,-2068.457845,1110.308913
1316.213119,-5699.585753,-2681.334243,-0.000000
1316.213430,-6957.935855,-1532.190996,-814.226536
1316.213742,-7920.203579,0.000000,-1110.308913
1316.214053,-8586.388927,919.314598,-370.102971
1316.214364,-10658.965565,919.314598,222.061783
1316.214676,-11695.253884,842.705048,888.247130
1316.214987,-12213.398043,919.314598,666.185348
1316.215298,-11695.253884,459.657299,444.123565
1316.215610,-10584.944971,306.438199,740.205942
1316.215921,-9844.739029,842.705048,-0.000000
1316.216232,-8216.285956,1072.533697,814.226536
1316.216544,-7254.018232,919.314598,962.267725
1316.216855,-6735.874072,-612.876398,1406.391290
1316.217167,-6069.688724,-383.047749,1406.391290
1316.217478,-7328.038826,-1838.629195,518.144159
1316.217789,-8142.265362,-2451.505594,370.102971
1316.218101,-9030.512492,-2451.505594,-296.082377
1316.218412,-9326.594869,-612.876398,-296.082377
1316.218723,-9918.759623,383.047749,-814.226536
1316.219035,-10362.883188,689.485948,-74.020594
1316.219346,-10510.924376,1915.238745,444.123565
1316.219658,-10362.883188,995.924147,814.226536
1316.219969,-8882.471304,1838.629195,962.267725
1316.220281,-9548.656652,-383.047749,296.082377
1316.220592,-9992.780217,-229.828649,222.061783
1316.220904,-9178.553681,842.705048,296.082377
1316.221215,-9178.553681,842.705048,740.205942
1316.221527,-9844.739029,612.876398,1480.411884
1316.221838,-8808.450710,229.828649,1628.453072
1316.222150,-8216.285956,-1302.362347,1258.350101
1316.222461,-6735.874072,-2374.896044,1332.370696
1316.222773,-6661.853478,-2757.943793,-0.000000
1316.223084,-7550.100608,-1532.190996,-592.164754
1316.223396,-8586.388927,229.828649,-666.185348
1316.223707,-9104.533087,1149.143247,-518.144159
1316.224019,-9474.636058,2145.067394,222.061783
1316.224330,-10066.800811,1838.629195,962.267725
1316.224642,-10362.883188,1149.143247,1184.329507
1316.224953,-10881.027347,0.000000,296.082377
1316.225265,-10066.800811,306.438199,-0.000000
1316.225576,-9474.636058,1455.581446,-296.082377
1316.225888,-9326.594869,1302.362347,-74.020594
1316.226199,-8586.388927,1072.533697,444.123565
1316.226511,-8290.306550,766.095498,1258.350101
1316.226822,-7031.956449,-536.266849,1554.432478
1316.227134,-7031.956449,-1149.143247,1628.453072
1316.227445,-6735.874072,-2221.676944,592.164754
1316.227757,-7105.977043,-2451.505594,444.123565
1316.228068,-7772.162391,-1838.629195,-0.000000
1316.228380,-8734.430116,-612.876398,-444.123565
1316.228691,-9474.636058,612.876398,148.041188
1316.229003,-9622.677246,1225.752797,148.041188
1316.229314,-9474.636058,459.657299,888.247130
1316.229626,-9178.553681,153.219100,1110.308913
1316.229937,-10214.842000,-1685.410096,1332.370696
1316.230249,-10288.862594,-1455.581446,962.267725
1316.230560,-10140.821405,76.609550,740.205942
1316.230872,-9918.759623,1225.752797,1110.308913
1316.231183,-9992.780217,995.924147,1406.391290
1316.231495,-8956.491898,0.000000,1776.494261
1316.231806,-7402.059420,-919.314598,1554.432478
1316.232118,-6883.915261,-1838.629195,1332.370696
1316.232429,-6069.688724,-2451.505594,888.247130
1316.232741,-7476.080014,-2757.943793,-296.082377
1316.233052,-8290.306550,-1302.362347,-444.123565
1316.233364,-8734.430116,229.828649,-296.082377
1316.233675,-9696.697840,1455.581446,-0.000000
1316.233987,-11621.233289,2298.286494,814.226536
1316.234298,-11547.212695,1685.410096,1036.288319
1316.234610,-10510.924376,995.924147,962.267725
1316.234921,-9474.636058,689.485948,518.144159
1316.235233,-8882.471304,383.047749,-148.041188
1316.235544,-9030.512492,383.047749,-370.102971
1316.235856,-8586.388927,612.876398,-0.000000
1316.236167,-7846.182985,229.828649,740.205942
1316.236479,-7772.162391,-459.657299,1406.391290
1316.236790,-7328.038826,-1685.410096,1924.535449
1316.237102,-7328.038826,-2834.553343,1258.350101
1316.237413,-7550.100608,-3830.477490,666.185348
1316.237725,-7254.018232,-2451.505594,148.041188
1316.238036,-7772.162391,-536.266849,-296.082377
1316.238348,-9178.553681,1072.533697,-888.247130
1316.238659,-9030.512492,1149.143247,-666.185348
1316.238971,-9252.574275,2604.724693,-740.205942
1316.239282,-9104.533087,1532.190996,-0.000000
1316.239594,-10066.800811,689.485948,222.061783
1316.239905,-11029.068536,-306.438199,-0.000000
1316.240217,-10584.944971,536.266849,-74.020594
1316.240528,-9770.718434,1225.752797,592.164754
1316.240840,-9548.656652,612.876398,888.247130
1316.241151,-9400.615463,0.000000,1554.432478
1316.241463,-7476.080014,-689.485948,1332.370696
1316.241774,-7179.997637,-1225.752797,444.123565
1316.242086,-6883.915261,-2298.286494,222.061783
1316.242397,-7920.203579,-1915.238745,-518.144159
1316.242709,-9252.574275,-1455.581446,-888.247130
1316.243020,-9252.574275,306.438199,-962.267725
1316.243332,-9548.656652,1685.410096,-444.123565
1316.243643,-10436.903782,1838.629195,148.041188
1316.243955,-10436.903782,2221.676944,1258.350101
1316.244266,-10436.903782,459.657299,1036.288319
1316.244578,-9992.780217,229.828649,1110.308913
1316.244889,-9400.615463,689.485948,962.267725
1316.245201,-8956.491898,1149.143247,222.061783
1316.245512,-8956.491898,612.876398,518.144159
1316.245824,-8216.285956,229.828649,1184.329507
1316.246135,-8142.265362,-536.266849,1184.329507
1316.246447,-7328.038826,-536.266849,1332.370696
1316.246758,-7105.977043,-1302.362347,1628.453072
1316.247070,-7772.162391,-2681.334243,1036.288319
1316.247381,-7476.080014,-2451.505594,592.164754
1316.247693,-7846.182985,-766.095498,148.041188
1316.248004,-8956.491898,689.485948,-222.061783
1316.248316,-8956.491898,1608.800546,518.144159
1316.248627,-9474.636058,2068.457845,740.205942
1316.248939,-9326.594869,919.314598,666.185348
1316.249250,-8586.388927,842.705048,518.144159
1316.249562,-9474.636058,306.438199,222.061783
1316.249873,-9474.636058,919.314598,-0.000000
1316.250185,-9474.636058,1225.752797,518.144159
1316.250496,-9622.677246,459.657299,888.247130
1316.250808,-9548.656652,536.266849,1998.556043
1316.251119,-8364.327145,383.047749,2368.659014
1316.251431,-7402.059420,-2145.067394,1702.473667
1316.251742,-6439.791695,-3370.820191,1554.432478
1316.252054,-5847.626942,-3753.867940,666.185348
1316.252365,-7105.977043,-2451.505594,-592.164754
1316.252677,-7920.203579,0.000000,-518.144159
1316.252988,-8808.450710,1378.971896,-370.102971
1316.253300,-10807.006753,1608.800546,-296.082377
1316.253611,-10658.965565,1532.190996,1702.473667
1316.253923,-10288.862594,1532.190996,740.205942
1316.254234,-10288.862594,306.438199,518.144159
1316.254546,-9696.697840,536.266849,444.123565
1316.254857,-9770.718434,383.047749,-592.164754
1316.255169,-9548.656652,459.657299,-0.000000
1316.255480,-9474.636058,459.657299,740.205942
1316.255792,-9030.512492,459.657299,1702.473667
1316.256103,-8290.306550,-1455.581446,1776.494261
1316.256415,-8068.244768,-2145.067394,1554.432478
1316.256726,-7402.059420,-2451.505594,962.267725
1316.257038,-7254.018232,-2451.505594,-222.061783
1316.257349,-7179.997637,-1072.533697,-222.061783
1316.257661,-8068.244768,0.000000,-962.267725
1316.257972,-9104.533087,612.876398,-1036.288319
1316.258284,-9844.739029,1915.238745,-222.061783
1316.258595,-10510.924376,2068.457845,-0.000000
1316.258907,-10436.903782,1302.362347,222.061783
1316.259218,-10288.862594,0.000000,814.226536
1316.259530,-10584.944971,-919.314598,222.061783
1316.259841,-9770.718434,-383.047749,518.144159
1316.260153,-9104.533087,0.000000,962.267725
1316.260464,-9400.615463,-153.219100,1332.370696
1316.260776,-8438.347739,-229.828649,1702.473667
1316.261087,-7254.018232,-1225.752797,1332.370696
1316.261399,-7105.977043,-2221.676944,1036.288319
1316.261710,-5995.668130,-2757.943793,296.082377
1316.262022,-7402.059420,-2911.162892,-888.247130
1316.262333,-7846.182985,-842.705048,-592.164754
1316.262645,-8586.388927,536.266849,-888.247130
1316.262956,-9844.739029,1608.800546,222.061783
1316.263268,-11029.068536,1608.800546,1184.329507
1316.263579,-11251.130318,76.609550,1554.432478
1316.263891,-9918.759623,0.000000,888.247130
1316.264202,-9252.574275,76.609550,222.061783
1316.264514,-8586.388927,0.000000,-0.000000
1316.264825,-8216.285956,0.000000,-370.102971
1316.265137,-7994.224174,612.876398,222.061783
1316.265448,-8142.265362,536.266849,888.247130
1316.265760,-8660.409521,459.657299,1332.370696
1316.266071,-8512.368333,-536.266849,1628.453072
1316.266383,-8438.347739,-1762.019645,1406.391290
1316.266694,-8956.491898,-2145.067394,444.123565
1316.267006,-9030.512492,-919.314598,296.082377
1316.267317,-9252.574275,1149.143247,-740.205942
1316.267629,-9252.574275,2145.067394,-444.123565
1316.267940,-8438.347739,1991.848295,-0.000000
1316.268252,-9104.533087,919.314598,296.082377
1316.268563,-8808.450710,766.095498,296.082377
1316.268875,-9548.656652,459.657299,74.020594
1316.269186,-10436.903782,-153.219100,222.061783
1316.269498,-10584.944971,229.828649,148.041188
1316.269809,-10584.944971,842.705048,666.185348
1316.270121,-10140.821405,459.657299,1702.473667
1316.270432,-9400.615463,612.876398,2442.679609
1316.270744,-8364.327145,-1149.143247,2220.617826
1316.271055,-6735.874072,-1685.410096,1850.514855
1316.271367,-5255.462188,-2145.067394,962.267725
1316.271678,-6143.709319,-1915.238745,-148.041188
1316.271990,-7031.956449,-306.438199,-666.185348
1316.272301,-7624.121203,842.705048,-888.247130
1316.272613,-8956.491898,1838.629195,-148.041188
1316.272924,-10288.862594,2068.457845,444.123565
1316.273236,-11473.192101,1762.019645,888.247130
1316.273547,-10881.027347,1072.533697,1036.288319
1316.273859,-9474.636058,306.438199,740.205942
1316.274170,-9030.512492,-229.828649,296.082377
1316.274482,-9548.656652,0.000000,-0.000000
1316.274793,-8734.430116,1072.533697,222.061783
1316.275105,-8512.368333,306.438199,814.226536
1316.275416,-8216.285956,-459.657299,2072.576638
1316.275728,-7994.224174,-1685.410096,1628.453072
1316.276039,-7772.162391,-2681.334243,1036.288319
1316.276351,-7105.977043,-2834.553343,666.185348
1316.276662,-7179.997637,-1991.848295,-74.020594
1316.276974,-8586.388927,-153.219100,-1184.329507
1316.277285,-9622.677246,1378.971896,-1628.453072
1316.277597,-10807.006753,2221.676944,-1332.370696
1316.277908,-10362.883188,1838.629195,222.061783
1316.278220,-9696.697840,1838.629195,592.164754
1316.278531,-10066.800811,-153.219100,592.164754
1316.278843,-9770.718434,-1762.019645,888.247130
1316.279154,-9844.739029,-2145.067394,962.267725
1316.279466,-9474.636058,-459.657299,1406.391290
1316.279777,-9474.636058,-229.828649,814.226536
1316.280089,-9326.594869,-1455.581446,1406.391290
1316.280400,-7772.162391,-1455.581446,1702.473667
1316.280712,-6513.812290,-1608.800546,1406.391290
1316.281023,-6365.771101,-2221.676944,1258.350101
1316.281335,-7402.059420,-2987.772442,370.102971
1316.281646,-8586.388927,-1915.238745,-74.020594
1316.281958,-8882.471304,689.485948,-222.061783
1316.282269,-9770.718434,1838.629195,74.020594
1316.282581,-10214.842000,3370.820191,962.267725
1316.282892,-10807.006753,2451.505594,888.247130
1316.283204,-9622.677246,1915.238745,1184.329507
1316.283515,-8290.306550,1149.143247,518.144159
1316.283827,-7624.121203,842.705048,74.020594
1316.284138,-7624.121203,229.828649,-0.000000
1316.284450,-8586.388927,-229.828649,-0.000000
1316.284761,-8438.347739,-229.828649,518.144159
1316.285073,-8586.388927,689.485948,1184.329507
1316.285384,-8734.430116,-536.266849,1998.556043
1316.285696,-8660.409521,-2528.115143,2664.741391
1316.286007,-8586.388927,-3830.477490,1998.556043
1316.286319,-8512.368333,-3524.039291,592.164754
1316.286630,-8142.265362,-1072.533697,-222.061783
1316.286942,-8216.285956,153.219100,-888.247130
1316.287253,-8882.471304,995.924147,-888.247130
1316.287565,-8882.471304,1072.533697,370.102971
1316.287876,-8808.450710,1072.533697,-0.000000
1316.288188,-9474.636058,306.438199,296.082377
1316.288499,-10214.842000,0.000000,148.041188
1316.288811,-10584.944971,-459.657299,148.041188
1316.289122,-10362.883188,-383.047749,-0.000000
1316.289434,-9770.718434,0.000000,518.144159
1316.289745,-9844.739029,1225.752797,1036.288319
1316.290057,-8586.388927,1302.362347,1110.308913
1316.290368,-7476.080014,-383.047749,1332.370696
1316.290680,-6809.894666,-1378.971896,740.205942
1316.290991,-5847.626942,-1149.143247,148.041188
1316.291303,-6587.832884,-383.047749,-962.267725
1316.291614,-7624.121203,306.438199,-1258.350101
1316.291926,-8068.244768,995.924147,-1332.370696
1316.292237,-9474.636058,2068.457845,-962.267725
1316.292549,-11103.089130,1685.410096,-0.000000
1316.292860,-11843.295072,1608.800546,-0.000000
1316.293172,-11769.274478,689.485948,814.226536
1316.293483,-11177.109724,0.000000,444.123565
1316.293795,-10140.821405,229.828649,148.041188
1316.294106,-9030.512492,383.047749,-148.041188
1316.294418,-8438.347739,1302.362347,444.123565
1316.294729,-7920.203579,229.828649,1258.350101
1316.295041,-7254.018232,76.609550,1776.494261
1316.295352,-7476.080014,-1072.533697,1332.370696
1316.295664,-6809.894666,-1915.238745,1406.391290
1316.295975,-7105.977043,-2757.943793,148.041188
1316.296287,-7846.182985,-1991.848295,-666.185348
1316.296598,-8512.368333,-153.219100,-962.267725
1316.296910,-9770.718434,1072.533697,-592.164754
1316.297221,-9474.636058,1762.019645,518.144159
1316.297533,-10140.821405,1532.190996,222.061783
1316.297844,-9992.780217,306.438199,1332.370696
1316.298156,-9622.677246,0.000000,1184.329507
1316.298467,-10066.800811,-229.828649,518.144159
1316.298779,-9104.533087,842.705048,518.144159
1316.299090,-8660.409521,1225.752797,296.082377
1316.299402,-8142.265362,536.266849,1480.411884
1316.299713,-8216.285956,-842.705048,1628.453072
1316.300025,-7105.977043,-1072.533697,1480.411884
1316.300336,-6809.894666,-1762.019645,962.267725
1316.300648,-6957.935855,-2374.896044,962.267725
1316.300959,-8216.285956,-1685.410096,-0.000000
1316.301271,-9622.677246,-612.876398,-222.061783
1316.301582,-10436.903782,1685.410096,-0.000000
1316.301894,-10288.862594,1915.238745,740.205942
1316.302205,-10288.862594,2451.505594,1332.370696
1316.302517,-9918.759623,2145.067394,1184.329507
1316.302828,-8438.347739,459.657299,740.205942
1316.303140,-7105.977043,-229.828649,148.041188
1316.303451,-7105.977043,-766.095498,-0.000000
1316.303763,-8882.471304,-1072.533697,-370.102971
1316.304074,-10066.800811,-1225.752797,444.123565
1316.304386,-11325.150913,-995.924147,1554.432478
1316.304697,-10510.924376,-842.705048,2738.761985
1316.305009,-9696.697840,-1532.190996,2664.741391
1316.305320,-8438.347739,-3140.991542,2294.638420
1316.305632,-7105.977043,-3447.429741,1332.370696
1316.305943,-6439.791695,-2221.676944,-0.000000
1316.306255,-6513.812290,383.047749,-962.267725
1316.306566,-7476.080014,1532.190996,-1258.350101
1316.306878,-7994.224174,2451.505594,-370.102971
1316.307189,-9696.697840,2298.286494,-0.000000
1316.307501,-9622.677246,919.314598,962.267725
1316.307812,-9844.739029,459.657299,666.185348
1316.308124,-10288.862594,0.000000,444.123565
1316.308435,-10140.821405,-229.828649,-0.000000
1316.308747,-9844.739029,153.219100,148.041188
1316.309058,-8808.450710,0.000000,740.205942
1316.309370,-9400.615463,0.000000,1110.308913
1316.309681,-8586.388927,612.876398,1850.514855
1316.309993,-7920.203579,-612.876398,1332.370696
1316.310304,-7105.977043,-1991.848295,888.247130
1316.310616,-6365.771101,-2604.724693,148.041188
1316.310927,-7105.977043,-2068.457845,-518.144159
1316.311239,-7105.977043,76.609550,-1184.329507
1316.311550,-8512.368333,1455.581446,-1036.288319
1316.311862,-10066.800811,842.705048,-444.123565
1316.312173,-11251.130318,689.485948,740.205942
1316.312485,-12065.356855,76.609550,1110.308913
1316.312796,-11325.150913,-919.314598,962.267725
1316.313108,-10658.965565,-1378.971896,148.041188
1316.313419,-10140.821405,-612.876398,-222.061783
1316.313731,-9104.533087,536.266849,-148.041188
1316.314042,-7994.224174,995.924147,-0.000000
1316.314354,-7698.141797,1302.362347,666.185348
1316.314665,-7105.977043,1072.533697,814.226536
1316.314977,-7328.038826,-766.095498,1406.391290
1316.315288,-7105.977043,-1915.238745,888.247130
1316.315600,-7328.038826,-1532.190996,222.061783
1316.315911,-7920.203579,0.000000,-370.102971
1316.316223,-9178.553681,459.657299,-814.226536
1316.316534,-10658.965565,1455.581446,-740.205942
1316.316846,-10955.047942,1915.238745,-0.000000
1316.317157,-11177.109724,2451.505594,666.185348
1316.317469,-10584.944971,1685.410096,888.247130
1316.317780,-10214.842000,153.219100,666.185348
1316.318092,-9844.739029,-383.047749,666.185348
1316.318403,-8956.491898,536.266849,518.144159
1316.318715,-7402.059420,2451.505594,740.205942
1316.319026,-7476.080014,2221.676944,888.247130
1316.319338,-7328.038826,612.876398,1554.432478
1316.319649,-7179.997637,-1532.190996,1332.370696
1316.319960,-7179.997637,-2068.457845,1110.308913
1316.320272,-7624.121203,-1378.971896,592.164754
1316.320583,-8586.388927,-612.876398,-148.041188
1316.320895,-9474.636058,0.000000,-222.061783
1316.321206,-9104.533087,842.705048,666.185348
1316.321518,-9104.533087,1762.019645,888.247130
1316.321829,-9992.780217,1608.800546,1702.473667
1316.322141,-9326.594869,1149.143247,1628.453072
1316.322452,-8882.471304,842.705048,148.041188
1316.322763,-7550.100608,612.876398,-74.020594
1316.323075,-8438.347739,229.828649,-296.082377
1316.323386,-9030.512492,153.219100,296.082377
1316.323698,-9844.739029,383.047749,1110.308913
1316.324009,-9918.759623,76.609550,2368.659014
1316.324321,-9400.615463,-995.924147,3034.844362
1316.324632,-9030.512492,-1915.238745,2442.679609
1316.324944,-6883.915261,-2834.553343,1776.494261
1316.325255,-6069.688724,-3217.601092,-0.000000
1316.325566,-6217.729913,-2298.286494,-666.185348
1316.325878,-7105.977043,0.000000,-1406.391290
1316.326189,-9474.636058,1608.800546,-1406.391290
1316.326501,-10584.944971,1915.238745,-148.041188
1316.326812,-10732.986159,1455.581446,888.247130
1316.327124,-10658.965565,536.266849,1332.370696
1316.327435,-11029.068536,-459.657299,888.247130
1316.327747,-11029.068536,-1225.752797,370.102971
1316.328058,-10214.842000,-1149.143247,370.102971
1316.328369,-9178.553681,-919.314598,1184.329507
1316.328681,-9622.677246,-995.924147,1554.432478
1316.328992,-10288.862594,-459.657299,1332.370696
1316.329304,-8956.491898,-459.657299,1184.329507
1316.329615,-7328.038826,-306.438199,-0.000000
1316.329927,-5329.482782,-766.095498,-0.000000
1316.330238,-5699.585753,-1991.848295,-1332.370696
1316.330550,-7328.038826,-1532.190996,-888.247130
1316.330861,-8216.285956,383.047749,-444.123565
1316.331172,-9548.656652,1378.971896,-148.041188
1316.331484,-11029.068536,1455.581446,666.185348
1316.331795,-11769.274478,306.438199,1554.432478
1316.332107,-10658.965565,-1378.971896,962.267725
1316.332418,-8660.409521,-1532.190996,888.247130
1316.332730,-8290.306550,-459.657299,222.061783
1316.333041,-8808.450710,229.828649,-0.000000
1316.333353,-9474.636058,536.266849,370.102971
1316.333664,-8882.471304,0.000000,1258.350101
1316.333975,-7624.121203,689.485948,1702.473667
1316.334287,-7402.059420,0.000000,1850.514855
1316.334598,-7328.038826,-1149.143247,1480.411884
1316.334910,-7328.038826,-1991.848295,518.144159
1316.335221,-7476.080014,-1225.752797,-0.000000
1316.335533,-7476.080014,153.219100,-148.041188
1316.335844,-9030.512492,383.047749,-1036.288319
1316.336156,-11029.068536,-153.219100,-0.000000
1316.336467,-11177.109724,766.095498,-296.082377
1316.336778,-10214.842000,2068.457845,-0.000000
1316.337090,-9992.780217,1532.190996,888.247130
1316.337401,-10658.965565,-383.047749,962.267725
1316.337713,-9770.718434,-612.876398,888.247130
1316.338024,-8142.265362,0.000000,666.185348
1316.338336,-7624.121203,766.095498,1110.308913
1316.338647,-7846.182985,1455.581446,814.226536
1316.338959,-8512.368333,0.000000,1036.288319
1316.339270,-7698.141797,-1149.143247,1036.288319
1316.339581,-7254.018232,-2451.505594,814.226536
1316.339893,-8512.368333,-2068.457845,518.144159
1316.340204,-9622.677246,-536.266849,296.082377
1316.340516,-9918.759623,-383.047749,-444.123565
1316.340827,-9474.636058,842.705048,-0.000000
1316.341139,-9326.594869,995.924147,222.061783
1316.341450,-9326.594869,2451.505594,148.041188
1316.341762,-8956.491898,2451.505594,-0.000000
1316.342073,-8142.265362,995.924147,-592.164754
1316.342384,-7846.182985,612.876398,-296.082377
1316.342696,-8142.265362,1072.533697,-740.205942
1316.343007,-9030.512492,1072.533697,-0.000000
1316.343319,-9844.739029,995.924147,1628.453072
1316.343630,-10066.800811,229.828649,1924.535449
1316.343942,-9326.594869,0.000000,1998.556043
1316.344253,-8438.347739,-1762.019645,1480.411884
1316.344565,-7550.100608,-2451.505594,814.226536
1316.344876,-7476.080014,-2298.286494,-148.041188
1316.345187,-6513.812290,-766.095498,-888.247130
1316.345499,-7550.100608,306.438199,-1480.411884
1316.345810,-9474.636058,919.314598,-888.247130
1316.346122,-9474.636058,1608.800546,148.041188
1316.346433,-9918.759623,1149.143247,444.123565
1316.346745,-10288.862594,153.219100,1332.370696
1316.347056,-11399.171507,-1149.143247,1036.288319
1316.347368,-11399.171507,-766.095498,814.226536
1316.347679,-10658.965565,0.000000,592.164754
1316.347990,-8586.388927,76.609550,1332.370696
1316.348302,-8660.409521,-995.924147,1036.288319
1316.348613,-8216.285956,-612.876398,1702.473667
1316.348925,-6661.853478,-689.485948,888.247130
1316.349236,-6143.709319,-1225.752797,-0.000000
1316.349548,-6365.771101,-995.924147,-148.041188
1316.349859,-7772.162391,-995.924147,-1258.350101
1316.350171,-8660.409521,-689.485948,-962.267725
1316.350482,-8808.450710,383.047749,444.123565
1316.350793,-10214.842000,766.095498,296.082377
1316.351105,-11547.212695,1072.533697,1332.370696
1316.351416,-11399.171507,842.705048,1702.473667
1316.351728,-10584.944971,-919.314598,1110.308913
1316.352039,-9622.677246,-1378.971896,814.226536
1316.352351,-9252.574275,-689.485948,-0.000000
1316.352662,-8882.471304,383.047749,-222.061783
1316.352974,-8142.265362,536.266849,-0.000000
1316.353285,-8142.265362,383.047749,1184.329507
1316.353596,-7624.121203,-459.657299,1850.514855
1316.353908,-7179.997637,-1455.581446,1702.473667
1316.354219,-7254.018232,-2298.286494,1184.329507
1316.354531,-7105.977043,-2068.457845,666.185348
1316.354842,-7698.141797,-689.485948,-148.041188
1316.355154,-8660.409521,-536.266849,-444.123565
1316.355465,-9622.677246,536.266849,222.061783
1316.355777,-10214.842000,842.705048,222.061783
1316.356088,-10214.842000,1608.800546,518.144159
1316.356399,-9252.574275,1455.581446,814.226536
1316.356711,-9326.594869,-383.047749,148.041188
1316.357022,-9696.697840,-1685.410096,-0.000000
1316.357334,-8956.491898,-689.485948,-0.000000
1316.357645,-8734.430116,766.095498,-0.000000
1316.357957,-8586.388927,1149.143247,814.226536
1316.358268,-8734.430116,536.266849,1332.370696
1316.358579,-8438.347739,-1225.752797,1554.432478
1316.358891,-7624.121203,-1991.848295,1480.411884
1316.359202,-7550.100608,-2451.505594,1480.411884
1316.359514,-8290.306550,-1685.410096,444.123565
1316.359825,-9030.512492,-612.876398,-222.061783
1316.360137,-9178.553681,995.924147,-1036.288319
1316.360448,-8142.265362,1532.190996,-1184.329507
1316.360760,-8882.471304,1915.238745,-888.247130
1316.361071,-9400.615463,2068.457845,-222.061783
1316.361382,-9622.677246,1455.581446,-296.082377
1316.361694,-9992.780217,536.266849,-518.144159
1316.362005,-9918.759623,229.828649,148.041188
1316.362317,-10140.821405,-229.828649,296.082377
1316.362628,-10066.800811,536.266849,1184.329507
1316.362940,-9474.636058,536.266849,1998.556043
1316.363251,-8734.430116,-383.047749,2220.617826
1316.363563,-7624.121203,-919.314598,1776.494261
1316.363874,-7105.977043,-1378.971896,740.205942
1316.364185,-6957.935855,-2298.286494,-518.144159
1316.364497,-7328.038826,-1608.800546,-740.205942
1316.364808,-8364.327145,0.000000,-1480.411884
1316.365120,-9252.574275,1532.190996,-1776.494261
1316.365431,-10658.965565,1915.238745,-666.185348
1316.365743,-11103.089130,2068.457845,296.082377
1316.366054,-10214.842000,1685.410096,1480.411884
1316.366366,-9918.759623,306.438199,1406.391290
1316.366677,-10955.047942,-766.095498,1480.411884
1316.366988,-10732.986159,-383.047749,962.267725
1316.367300,-9474.636058,612.876398,814.226536
1316.367611,-8068.244768,1378.971896,1480.411884
1316.367923,-7698.141797,0.000000,1554.432478
1316.368234,-7105.977043,-1149.143247,1480.411884
1316.368546,-6513.812290,-1149.143247,814.226536
1316.368857,-5847.626942,-1378.971896,296.082377
1316.369169,-6809.894666,-1455.581446,-444.123565
1316.369480,-8438.347739,-536.266849,-888.247130
1316.369791,-9548.656652,612.876398,-0.000000
1316.370103,-9474.636058,1072.533697,814.226536
1316.370414,-10510.924376,1838.629195,1702.473667
1316.370726,-10807.006753,1762.019645,2146.597232
1316.371037,-9918.759623,536.266849,1998.556043
1316.371349,-9178.553681,-995.924147,888.247130
1316.371660,-8216.285956,-383.047749,444.123565
1316.371972,-7624.121203,612.876398,-592.164754
1316.372283,-7698.141797,842.705048,-74.020594
1316.372594,-8438.347739,76.609550,296.082377
1316.372906,-8290.306550,0.000000,1554.432478
1316.373217,-7920.203579,-766.095498,1776.494261
1316.373529,-7254.018232,-1991.848295,1998.556043
1316.373840,-7846.182985,-2987.772442,1480.411884
1316.374152,-8216.285956,-2451.505594,296.082377
1316.374463,-7846.182985,-766.095498,-0.000000
1316.374775,-9400.615463,0.000000,-296.082377
1316.375086,-10510.924376,995.924147,-74.020594
1316.375397,-10510.924376,1608.800546,592.164754
1316.375709,-10362.883188,1455.581446,370.102971
1316.376020,-9622.677246,459.657299,592.164754
1316.376332,-9844.739029,-842.705048,222.061783
1316.376643,-9770.718434,-1149.143247,-222.061783
1316.376955,-9104.533087,76.609550,-296.082377
1316.377266,-9252.574275,383.047749,148.041188
1316.377578,-9400.615463,0.000000,962.267725
1316.377889,-9474.636058,-459.657299,1480.411884
1316.378200,-8142.265362,-995.924147,1480.411884
1316.378512,-7105.977043,-1762.019645,888.247130
1316.378823,-7624.121203,-1762.019645,592.164754
1316.379135,-7846.182985,-842.705048,-370.102971
1316.379446,-9178.553681,0.000000,-1184.329507
1316.379758,-8512.368333,995.924147,-518.144159
1316.380069,-8808.450710,1915.238745,-296.082377
1316.380381,-9992.780217,1225.752797,-0.000000
1316.380692,-10436.903782,76.609550,592.164754
1316.381003,-10140.821405,-612.876398,148.041188
1316.381315,-9400.615463,0.000000,296.082377
1316.381626,-9622.677246,-459.657299,-74.020594
1316.381938,-9770.718434,153.219100,-0.000000
1316.382249,-9918.759623,-459.657299,1258.350101
1316.382561,-8660.409521,-383.047749,1924.535449
1316.382872,-7772.162391,-766.095498,2368.659014
1316.383184,-7105.977043,-1608.800546,1480.411884
1316.383495,-6513.812290,-2451.505594,740.205942
1316.383806,-5773.606348,-3064.381992,-0.000000
1316.384118,-6069.688724,-2298.286494,-1036.288319
1316.384429,-7105.977043,-306.438199,-1480.411884
1316.384741,-9548.656652,229.828649,-1258.350101
1316.385052,-11251.130318,1532.190996,-0.000000
1316.385364,-11843.295072,1838.629195,666.185348
1316.385675,-11251.130318,1225.752797,1554.432478
1316.385987,-10881.027347,-306.438199,1628.453072
1316.386298,-10584.944971,-612.876398,1036.288319
1316.386609,-8956.491898,-153.219100,592.164754
1316.386921,-8068.244768,995.924147,370.102971
1316.387232,-7772.162391,842.705048,1258.350101
1316.387544,-8734.430116,995.924147,1406.391290
1316.387855,-7846.182985,612.876398,1702.473667
1316.388167,-6883.915261,-536.266849,1036.288319
1316.388478,-7179.997637,-1072.533697,666.185348
1316.388790,-8364.327145,-689.485948,-222.061783
1316.389101,-9844.739029,459.657299,-814.226536
1316.389412,-9030.512492,2451.505594,-296.082377
1316.389724,-9400.615463,2834.553343,592.164754
1316.390035,-10510.924376,2298.286494,1258.350101
1316.390347,-9844.739029,2068.457845,1628.453072
1316.390658,-9622.677246,459.657299,962.267725
1316.390970,-9400.615463,306.438199,666.185348
1316.391281,-8956.491898,1302.362347,296.082377
1316.391593,-8660.409521,1378.971896,888.247130
1316.391904,-9178.553681,153.219100,666.185348
1316.392215,-7994.224174,0.000000,1332.370696
1316.392527,-8068.244768,0.000000,962.267725
1316.392838,-7031.956449,0.000000,1184.329507
1316.393150,-7105.977043,-2221.676944,740.205942
1316.393461,-7179.997637,-2451.505594,518.144159
1316.393773,-7254.018232,-1072.533697,148.041188
1316.394084,-7698.141797,-153.219100,-0.000000
1316.394396,-9992.780217,612.876398,-296.082377
1316.394707,-9696.697840,1838.629195,296.082377
1316.395018,-9030.512492,1838.629195,-0.000000
1316.395330,-8882.471304,995.924147,296.082377
1316.395641,-8808.450710,-153.219100,518.144159
1316.395953,-9474.636058,-995.924147,-370.102971
1316.396264,-10066.800811,-689.485948,-370.102971
1316.396576,-10140.821405,306.438199,-518.144159
1316.396887,-10807.006753,229.828649,444.123565
1316.397199,-10288.862594,0.000000,1258.350101
1316.397510,-9474.636058,-995.924147,1850.514855
1316.397821,-7846.182985,-1685.410096,1332.370696
1316.398133,-7105.977043,-2145.067394,962.267725
1316.398444,-7031.956449,-2221.676944,296.082377
1316.398756,-7772.162391,-1378.971896,-518.144159
1316.399067,-8586.388927,-919.314598,-370.102971
1316.399379,-9178.553681,459.657299,-0.000000
1316.399690,-10510.924376,1072.533697,148.041188
1316.400001,-11325.150913,919.314598,296.082377
1316.400313,-10732.986159,612.876398,-0.000000
1316.400624,-9992.780217,-383.047749,-0.000000
1316.400936,-9844.739029,-995.924147,296.082377
1316.401247,-11029.068536,-1072.533697,518.144159
1316.401559,-10066.800811,0.000000,592.164754
1316.401870,-9400.615463,842.705048,1998.556043
1316.402182,-8438.347739,76.609550,2664.741391
1316.402493,-6735.874072,-995.924147,2146.597232
1316.402804,-6069.688724,-1685.410096,1332.370696
1316.403116,-5033.400406,-2528.115143,814.226536
1316.403427,-5477.523971,-2145.067394,-0.000000
1316.403739,-7179.997637,-1302.362347,-444.123565
1316.404050,-8956.491898,0.000000,-962.267725
1316.404362,-9992.780217,0.000000,-296.082377
1316.404673,-9918.759623,383.047749,814.226536
1316.404985,-9622.677246,229.828649,1184.329507
1316.405296,-9104.533087,-995.924147,1184.329507
1316.405607,-8808.450710,-2834.553343,1110.308913
1316.405919,-8364.327145,-3830.477490,740.205942
1316.406230,-8142.265362,-3294.210641,888.247130
1316.406542,-7624.121203,-2528.115143,1332.370696
1316.406853,-8808.450710,-2451.505594,1406.391290
1316.407165,-9400.615463,-2528.115143,1702.473667
1316.407476,-8364.327145,-2757.943793,1702.473667
1316.407788,-7179.997637,-3524.039291,1480.411884
1316.408099,-6809.894666,-4366.744339,518.144159
1316.408410,-7402.059420,-4826.401637,-0.000000
1316.408722,-8364.327145,-3140.991542,-962.267725
1316.409033,-8882.471304,-1608.800546,-1184.329507
1316.409345,-10510.924376,229.828649,-370.102971
1316.409656,-11695.253884,229.828649,-0.000000
1316.409968,-11843.295072,-689.485948,222.061783
1316.410279,-10066.800811,-1838.629195,666.185348
1316.410591,-7624.121203,-3370.820191,148.041188
1316.410902,-7328.038826,-5209.449386,-518.144159
1316.411213,-7402.059420,-5975.544884,-1110.308913
1316.411525,-7920.203579,-5592.497135,-888.247130
1316.411836,-9622.677246,-4060.306139,296.082377
1316.412148,-11103.089130,-2604.724693,888.247130
1316.412459,-12287.418637,-2374.896044,1480.411884
1316.412771,-11621.233289,-2681.334243,1850.514855
1316.413082,-8956.491898,-3677.258390,1406.391290
1316.413394,-7105.977043,-3830.477490,444.123565
1316.413705,-6069.688724,-2451.505594,444.123565
1316.414016,-7179.997637,-2221.676944,-370.102971
1316.414328,-8512.368333,-1302.362347,-296.082377
