#time,accel_x,accel_y,accel_z
1460.965284,-8512.368333,-76.609550,518.144159
1460.965595,-8438.347739,0.000000,592.164754
1460.965907,-8956.491898,-306.438199,444.123565
1460.966218,-8882.471304,0.000000,740.205942
1460.966530,-8882.471304,-229.828649,444.123565
1460.966841,-8882.471304,0.000000,444.123565
1460.967153,-8586.388927,229.828649,592.164754
1460.967464,-9030.512492,0.000000,518.144159
1460.967775,-8882.471304,153.219100,296.082377
1460.968087,-9030.512492,-229.828649,370.102971
1460.968398,-9178.553681,0.000000,444.123565
1460.968710,-9030.512492,153.219100,444.123565
1460.969021,-9104.533087,0.000000,592.164754
1460.969333,-8808.450710,-383.047749,444.123565
1460.969644,-8882.471304,-153.219100,444.123565
1460.969956,-8956.491898,306.438199,592.164754
1460.970267,-8734.430116,-153.219100,518.144159
1460.970578,-9104.533087,-229.828649,444.123565
1460.970890,-8882.471304,0.000000,666.185348
1460.971201,-9030.512492,-229.828649,592.164754
1460.971513,-8882.471304,0.000000,518.144159
1460.971824,-8882.471304,0.000000,592.164754
1460.972136,-8734.430116,0.000000,518.144159
1460.972447,-9030.512492,-153.219100,74.020594
1460.972759,-8734.430116,0.000000,222.061783
1460.973070,-8956.491898,229.828649,296.082377
1460.973381,-8956.491898,0.000000,518.144159
1460.973693,-8956.491898,0.000000,666.185348
1460.974004,-9030.512492,-153.219100,444.123565
1460.974316,-8734.430116,229.828649,444.123565
1460.974627,-9030.512492,76.609550,296.082377
1460.974939,-8956.491898,-229.828649,-0.000000
1460.975250,-8660.409521,153.219100,666.185348
1460.975562,-8956.491898,0.000000,518.144159
1460.975873,-8660.409521,-306.438199,518.144159
1460.976184,-9030.512492,-153.219100,666.185348
1460.976496,-8882.471304,0.000000,592.164754
1460.976807,-8586.388927,0.000000,444.123565
1460.977119,-8956.491898,229.828649,-0.000000
1460.977430,-9030.512492,306.438199,666.185348
1460.977742,-9030.512492,-383.047749,592.164754
1460.978053,-8956.491898,0.000000,592.164754
1460.978364,-8956.491898,0.000000,518.144159
1460.978676,-8956.491898,0.000000,370.102971
1460.978987,-9104.533087,229.828649,518.144159
1460.979299,-8808.450710,76.609550,592.164754
1460.979610,-8956.491898,612.876398,444.123565
1460.979922,-8808.450710,-612.876398,444.123565
1460.980233,-8660.409521,-153.219100,518.144159
1460.980545,-8882.471304,0.000000,518.144159
1460.980856,-8808.450710,0.000000,518.144159
1460.981167,-8808.450710,0.000000,592.164754
1460.981479,-8660.409521,0.000000,444.123565
1460.981790,-8956.491898,-153.219100,666.185348
1460.982102,-9326.594869,-306.438199,296.082377
1460.982413,-8586.388927,0.000000,888.247130
1460.982725,-9030.512492,-153.219100,518.144159
1460.983036,-9030.512492,0.000000,518.144159
1460.983348,-9030.512492,0.000000,444.123565
1460.983659,-8882.471304,0.000000,444.123565
1460.983970,-8734.430116,0.000000,888.247130
1460.984282,-8734.430116,-153.219100,444.123565
1460.984593,-8808.450710,0.000000,370.102971
1460.984905,-8512.368333,0.000000,370.102971
1460.985216,-8808.450710,0.000000,370.102971
1460.985528,-8734.430116,0.000000,740.205942
1460.985839,-8956.491898,-306.438199,370.102971
1460.986151,-8882.471304,0.000000,592.164754
1460.986462,-8512.368333,0.000000,518.144159
1460.986773,-8660.409521,0.000000,296.082377
1460.987085,-8808.450710,0.000000,518.144159
1460.987396,-8808.450710,76.609550,222.061783
1460.987708,-9030.512492,0.000000,444.123565
1460.988019,-9104.533087,-229.828649,518.144159
1460.988331,-9104.533087,-229.828649,740.205942
1460.988642,-8956.491898,0.000000,592.164754
1460.988954,-9178.553681,153.219100,518.144159
1460.989265,-9326.594869,306.438199,-0.000000
1460.989576,-9178.553681,0.000000,592.164754
1460.989888,-8808.450710,0.000000,518.144159
1460.990199,-8882.471304,0.000000,592.164754
1460.990511,-8882.471304,0.000000,592.164754
1460.990822,-9104.533087,-229.828649,444.123565
1460.991134,-8808.450710,0.000000,592.164754
1460.991445,-8734.430116,-229.828649,370.102971
1460.991757,-8364.327145,0.000000,444.123565
1460.992068,-8882.471304,383.047749,814.226536
1460.992379,-8808.450710,0.000000,592.164754
1460.992691,-9030.512492,0.000000,592.164754
1460.993002,-8956.491898,-153.219100,518.144159
1460.993314,-9104.533087,0.000000,518.144159
1460.993625,-8956.491898,306.438199,888.247130
1460.993937,-8586.388927,0.000000,592.164754
1460.994248,-8364.327145,-459.657299,592.164754
1460.994559,-9030.512492,153.219100,518.144159
1460.994871,-10288.862594,306.438199,222.061783
1460.995182,-11769.274478,1915.238745,296.082377
1460.995494,-9326.594869,4290.134789,740.205942
1460.995805,-7994.224174,4290.134789,740.205942
1460.996117,-6957.935855,1608.800546,1406.391290
1460.996428,-6069.688724,-995.924147,592.164754
1460.996740,-7179.997637,-1915.238745,-74.020594
1460.997051,-7031.956449,-766.095498,-0.000000
1460.997362,-10362.883188,-766.095498,-1258.350101
1460.997674,-12953.603985,-536.266849,-888.247130
1460.997985,-10807.006753,919.314598,296.082377
1460.998297,-9474.636058,229.828649,1036.288319
1460.998608,-8882.471304,0.000000,3034.844362
1460.998920,-11695.253884,0.000000,1332.370696
1460.999231,-9992.780217,3677.258390,2294.638420
1460.999543,-5255.462188,5592.497135,2442.679609
1460.999854,-6587.832884,3753.867940,1258.350101
1461.000165,-7698.141797,2451.505594,-222.061783
1461.000477,-6957.935855,3217.601092,-1702.473667
1461.000788,-8734.430116,3753.867940,-1850.514855
1461.001100,-8956.491898,3600.648841,-296.082377
1461.001411,-11251.130318,2681.334243,-1332.370696
1461.001723,-14804.118840,0.000000,370.102971
1461.002034,-9474.636058,-1455.581446,2960.823768
1461.002346,-9474.636058,-229.828649,1110.308913
1461.002657,-9400.615463,3907.087040,2368.659014
1461.002968,-7920.203579,5592.497135,1924.535449
1461.003280,-7698.141797,2834.553343,1998.556043
1461.003591,-5625.565159,3140.991542,2368.659014
1461.003903,-7328.038826,5822.325785,962.267725
1461.004214,-8512.368333,7048.078582,-888.247130
1461.004526,-9178.553681,5439.278036,-1406.391290
1461.004837,-9252.574275,4596.572988,-1110.308913
1461.005149,-10214.842000,5286.058936,-1258.350101
1461.005460,-11843.295072,5822.325785,-74.020594
1461.005771,-11843.295072,5209.449386,888.247130
1461.006083,-9844.739029,4290.134789,1998.556043
1461.006394,-9252.574275,4903.011187,1998.556043
1461.006706,-7624.121203,6205.373534,1702.473667
1461.007017,-5625.565159,6052.154434,-0.000000
1461.007329,-5477.523971,5515.887586,592.164754
1461.007640,-4959.379811,5132.839837,444.123565
1461.007951,-6143.709319,4673.182538,-740.205942
1461.008263,-7402.059420,4213.525239,-518.144159
1461.008574,-8512.368333,3294.210641,-592.164754
1461.008886,-10436.903782,2298.286494,296.082377
1461.009197,-10510.924376,995.924147,740.205942
1461.009509,-11177.109724,153.219100,1924.535449
1461.009820,-11547.212695,383.047749,1850.514855
1461.010132,-10362.883188,2298.286494,2590.720797
1461.010443,-8882.471304,4060.306139,1924.535449
1461.010754,-6661.853478,3677.258390,222.061783
1461.011066,-5699.585753,3294.210641,-148.041188
1461.011377,-6513.812290,3677.258390,-1258.350101
1461.011689,-6513.812290,4060.306139,-888.247130
1461.012000,-7328.038826,2987.772442,-1480.411884
1461.012312,-9104.533087,153.219100,-814.226536
1461.012623,-10584.944971,-1915.238745,-148.041188
1461.012935,-11917.315666,-2298.286494,814.226536
1461.013246,-13323.706956,-2145.067394,1628.453072
1461.013557,-13027.624579,-1685.410096,1628.453072
1461.013869,-12805.562797,689.485948,888.247130
1461.014180,-11547.212695,2145.067394,148.041188
1461.014492,-9030.512492,3983.696590,-296.082377
1461.014803,-6883.915261,4290.134789,-370.102971
1461.015115,-6217.729913,4519.963438,370.102971
1461.015426,-6291.750507,3677.258390,666.185348
1461.015738,-7698.141797,2374.896044,370.102971
1461.016049,-9474.636058,1302.362347,148.041188
1461.016360,-11991.336260,383.047749,-0.000000
1461.016672,-12953.603985,-229.828649,-222.061783
1461.016983,-13989.892304,0.000000,-444.123565
1461.017295,-13989.892304,306.438199,-0.000000
1461.017606,-12287.418637,2145.067394,518.144159
1461.017918,-10288.862594,3140.991542,1036.288319
1461.018229,-7920.203579,4136.915689,1480.411884
1461.018541,-4293.194464,4903.011187,2294.638420
1461.018852,-3182.885551,4826.401637,814.226536
1461.019163,-1850.514855,5669.106685,370.102971
1461.019475,-1924.535449,5209.449386,-1480.411884
1461.019786,-5625.565159,3753.867940,-1258.350101
1461.020098,-9770.718434,2757.943793,-1036.288319
1461.020409,-13027.624579,3217.601092,-222.061783
1461.020721,-15100.201217,3370.820191,1702.473667
1461.021032,-15026.180623,3447.429741,3182.885551
1461.021344,-12805.562797,3064.381992,3552.988522
1461.021655,-9326.594869,3064.381992,2590.720797
1461.021966,-4811.338623,3830.477490,1998.556043
1461.022278,-2072.576638,5132.839837,-0.000000
1461.022589,-2664.741391,7354.516781,-1480.411884
1461.022901,-2368.659014,8733.488677,-1628.453072
1461.023212,-5477.523971,5822.325785,-1702.473667
1461.023524,-7846.182985,3064.381992,-592.164754
1461.023835,-9474.636058,1838.629195,666.185348
1461.024146,-10955.047942,-306.438199,740.205942
1461.024458,-12509.480420,-2604.724693,1480.411884
1461.024769,-12879.583391,-2528.115143,1480.411884
1461.025081,-12583.501014,-612.876398,592.164754
1461.025392,-12139.377449,2451.505594,1554.432478
1461.025704,-11103.089130,3370.820191,2146.597232
1461.026015,-9992.780217,5056.230287,2442.679609
1461.026327,-7328.038826,5439.278036,1998.556043
1461.026638,-6217.729913,4903.011187,518.144159
1461.026949,-6143.709319,3830.477490,-296.082377
1461.027261,-6735.874072,3294.210641,-1998.556043
1461.027572,-8216.285956,4136.915689,-2590.720797
1461.027884,-9474.636058,3447.429741,-2368.659014
1461.028195,-11621.233289,3677.258390,-1702.473667
1461.028507,-12731.542202,2604.724693,-296.082377
1461.028818,-12213.398043,995.924147,2146.597232
1461.029130,-12657.521608,536.266849,2516.700203
1461.029441,-12361.439231,2528.115143,2294.638420
1461.029752,-10807.006753,5975.544884,1184.329507
1461.030064,-8068.244768,7201.297681,-148.041188
1461.030375,-6143.709319,5975.544884,-148.041188
1461.030687,-5403.503377,3677.258390,-1036.288319
1461.030998,-6439.791695,2374.896044,-814.226536
1461.031310,-8142.265362,1685.410096,-370.102971
1461.031621,-8956.491898,1915.238745,444.123565
1461.031933,-9252.574275,1149.143247,444.123565
1461.032244,-8364.327145,-1608.800546,1184.329507
1461.032555,-7105.977043,-2528.115143,1554.432478
1461.032867,-7994.224174,-1302.362347,962.267725
1461.033178,-8586.388927,2604.724693,592.164754
1461.033490,-10807.006753,6741.640382,-444.123565
1461.033801,-10362.883188,8656.879127,-0.000000
1461.034113,-10288.862594,7660.954980,1776.494261
1461.034424,-10066.800811,4443.353888,1702.473667
1461.034736,-8586.388927,2911.162892,1406.391290
1461.035047,-8512.368333,3447.429741,222.061783
1461.035358,-7031.956449,4979.620737,592.164754
1461.035670,-5625.565159,4213.525239,-74.020594
1461.035981,-5033.400406,1378.971896,-74.020594
1461.036293,-5477.523971,-1072.533697,-148.041188
1461.036604,-6883.915261,-306.438199,-592.164754
1461.036916,-9252.574275,3677.258390,-740.205942
1461.037227,-11917.315666,6511.811733,-666.185348
1461.037539,-13841.851115,6588.421283,814.226536
1461.037850,-14582.057057,4290.134789,2516.700203
1461.038162,-14952.160028,1838.629195,3034.844362
1461.038473,-11177.109724,2911.162892,3404.947333
1461.038785,-7772.162391,3830.477490,1924.535449
1461.039096,-4663.297435,2145.067394,1406.391290
1461.039408,-2590.720797,-2221.676944,370.102971
1461.039719,-3478.967927,-5822.325785,-518.144159
1461.040030,-4959.379811,-3447.429741,-444.123565
1461.040342,-6513.812290,2451.505594,-888.247130
1461.040653,-10214.842000,5669.106685,-814.226536
1461.040965,-14804.118840,4290.134789,518.144159
1461.041276,-17912.983796,1838.629195,2220.617826
1461.041588,-17172.777854,3447.429741,2960.823768
1461.041899,-13249.686362,7584.345430,2738.761985
1461.042211,-8438.347739,8120.612279,1628.453072
1461.042522,-4441.235652,3064.381992,-74.020594
1461.042834,-1776.494261,-1149.143247,-1184.329507
1461.043145,-222.061783,-842.705048,-962.267725
1461.043457,-1110.308913,2374.896044,-814.226536
1461.043768,-6735.874072,4060.306139,-222.061783
1461.044080,-13027.624579,2068.457845,-148.041188
1461.044391,-15988.448347,2374.896044,-0.000000
1461.044703,-15840.407159,4213.525239,592.164754
1461.045014,-12435.459826,6052.154434,814.226536
1461.045326,-11473.192101,3907.087040,-1406.391290
1461.045637,-10658.965565,1532.190996,-1776.494261
1461.045949,-6883.915261,1225.752797,-1110.308913
1461.046260,-5477.523971,2681.334243,-592.164754
1461.046571,-6587.832884,3217.601092,1702.473667
1461.046883,-8142.265362,766.095498,2368.659014
1461.047194,-9622.677246,-1762.019645,3775.050304
1461.047506,-8290.306550,689.485948,3552.988522
1461.047817,-8216.285956,4903.011187,666.185348
1461.048129,-9696.697840,7660.954980,-1628.453072
1461.048440,-9844.739029,7507.735880,-3997.112087
1461.048752,-8660.409521,7431.126331,-5255.462188
1461.049063,-7994.224174,8656.879127,-3330.926739
1461.049375,-10881.027347,9346.365076,-1850.514855
1461.049686,-14434.015869,5515.887586,1184.329507
1461.049998,-12805.562797,2221.676944,3849.070898
1461.050309,-8660.409521,-1378.971896,5551.544565
1461.050621,-6661.853478,-2298.286494,3552.988522
1461.050932,-5033.400406,0.000000,1110.308913
1461.051244,-3997.112087,1302.362347,-888.247130
1461.051555,-1406.391290,2145.067394,-2146.597232
1461.051867,-5181.441594,4903.011187,-1036.288319
1461.052178,-11399.171507,5669.106685,-370.102971
1461.052490,-15840.407159,4826.401637,2590.720797
1461.052801,-15840.407159,3447.429741,4959.379811
1461.053113,-11325.150913,2145.067394,3330.926739
1461.053424,-8808.450710,1762.019645,1184.329507
1461.053735,-4811.338623,229.828649,-1036.288319
1461.054047,-2886.803174,-1455.581446,-1776.494261
1461.054358,-4293.194464,-3447.429741,-296.082377
1461.054670,-6661.853478,-1608.800546,2220.617826
1461.054981,-9252.574275,-1302.362347,3330.926739
1461.055293,-10807.006753,-4060.306139,3552.988522
1461.055604,-9918.759623,-4903.011187,3701.029710
1461.055916,-7105.977043,-2068.457845,444.123565
1461.056227,-4663.297435,1149.143247,-1850.514855
1461.056539,-6809.894666,1149.143247,-2294.638420
1461.056850,-10140.821405,536.266849,-1184.329507
1461.057162,-12509.480420,306.438199,518.144159
1461.057473,-13323.706956,-919.314598,2664.741391
1461.057785,-12953.603985,-3140.991542,3849.070898
1461.058096,-11843.295072,-2451.505594,1702.473667
1461.058408,-7476.080014,306.438199,-296.082377
1461.058719,-5551.544565,1072.533697,-2664.741391
1461.059031,-6217.729913,536.266849,-2368.659014
1461.059342,-8660.409521,3217.601092,-1702.473667
1461.059654,-12139.377449,5286.058936,-1702.473667
1461.059965,-13915.871710,3600.648841,-74.020594
1461.060277,-13693.809927,1991.848295,-1184.329507
1461.060588,-10955.047942,3983.696590,-1554.432478
1461.060899,-9770.718434,4136.915689,-1998.556043
1461.061211,-8956.491898,1378.971896,148.041188
1461.061522,-8734.430116,-2604.724693,666.185348
1461.061834,-9548.656652,-3064.381992,3034.844362
1461.062145,-9770.718434,-2221.676944,3404.947333
1461.062457,-10140.821405,-2298.286494,2146.597232
1461.062768,-7920.203579,383.047749,-1036.288319
1461.063080,-4663.297435,3370.820191,-2516.700203
1461.063391,-4515.256246,3370.820191,-3627.009116
1461.063703,-7402.059420,2451.505594,-2886.803174
1461.064014,-10066.800811,2681.334243,-592.164754
1461.064326,-11325.150913,0.000000,2516.700203
1461.064637,-11399.171507,-2681.334243,4293.194464
1461.064949,-11769.274478,-4136.915689,3034.844362
1461.065260,-7772.162391,-2451.505594,2442.679609
1461.065572,-3923.091493,-1915.238745,1110.308913
1461.065883,-4959.379811,-2681.334243,740.205942
1461.066195,-5625.565159,-1302.362347,1850.514855
1461.066506,-7105.977043,-459.657299,1554.432478
1461.066818,-7846.182985,-1455.581446,2886.803174
1461.067129,-5921.647536,0.000000,1258.350101
1461.067440,-4367.215058,1685.410096,-1184.329507
1461.067752,-3849.070898,2451.505594,-2442.679609
1461.068063,-6143.709319,536.266849,-1850.514855
1461.068375,-8808.450710,-153.219100,-148.041188
1461.068686,-11843.295072,0.000000,2368.659014
1461.068998,-15766.386565,-2374.896044,4737.318029
1461.069309,-16580.613101,-5669.106685,4293.194464
1461.069621,-12583.501014,-3983.696590,2960.823768
1461.069932,-8512.368333,-536.266849,740.205942
1461.070244,-6809.894666,-995.924147,-1554.432478
1461.070555,-5921.647536,-1455.581446,-1850.514855
1461.070867,-7698.141797,536.266849,-888.247130
1461.071178,-8438.347739,1608.800546,814.226536
1461.071490,-10066.800811,1225.752797,740.205942
1461.071801,-11325.150913,-153.219100,-0.000000
1461.072113,-9030.512492,1455.581446,-666.185348
1461.072424,-9770.718434,612.876398,-740.205942
1461.072736,-11843.295072,76.609550,222.061783
1461.073047,-13841.851115,1455.581446,1554.432478
1461.073359,-15840.407159,766.095498,2442.679609
1461.073670,-15100.201217,-1302.362347,3775.050304
1461.073982,-11621.233289,-1072.533697,1924.535449
1461.074293,-6883.915261,3140.991542,-1702.473667
1461.074604,-3478.967927,4596.572988,-2664.741391
1461.074916,-3552.988522,3524.039291,-3849.070898
1461.075227,-5477.523971,3830.477490,-2738.761985
1461.075539,-7179.997637,4749.792088,-444.123565
1461.075850,-8660.409521,3447.429741,1702.473667
1461.076162,-10214.842000,-536.266849,1554.432478
1461.076473,-8068.244768,459.657299,1850.514855
1461.076785,-6069.688724,153.219100,1924.535449
1461.077096,-5773.606348,-1302.362347,1628.453072
1461.077408,-6587.832884,-2068.457845,1850.514855
1461.077719,-7328.038826,-536.266849,2146.597232
1461.078031,-8734.430116,-2068.457845,2146.597232
1461.078342,-9474.636058,-3600.648841,888.247130
1461.078654,-7105.977043,-1455.581446,-1480.411884
1461.078965,-4515.256246,1532.190996,-2960.823768
1461.079277,-4145.153275,919.314598,-2664.741391
1461.079588,-6883.915261,-1915.238745,-1332.370696
1461.079900,-8586.388927,-1991.848295,1036.288319
1461.080211,-10955.047942,-2451.505594,3627.009116
1461.080523,-13249.686362,-3370.820191,5033.400406
1461.080834,-12361.439231,-3294.210641,3849.070898
1461.081146,-9400.615463,-1225.752797,1258.350101
1461.081457,-6883.915261,-689.485948,592.164754
1461.081768,-6883.915261,-995.924147,-1258.350101
1461.082080,-8586.388927,689.485948,-2220.617826
1461.082391,-10732.986159,1302.362347,-1184.329507
1461.082703,-11399.171507,0.000000,-296.082377
1461.083014,-11843.295072,-1915.238745,-1184.329507
1461.083326,-11029.068536,-383.047749,-1776.494261
1461.083637,-9548.656652,1532.190996,-1258.350101
1461.083949,-11399.171507,0.000000,-1776.494261
1461.084260,-12805.562797,229.828649,1110.308913
1461.084572,-13619.789333,2528.115143,3034.844362
1461.084883,-14211.954086,919.314598,4737.318029
1461.085195,-13619.789333,-1915.238745,4441.235652
1461.085506,-9178.553681,-1149.143247,1258.350101
1461.085818,-5329.482782,2604.724693,-2220.617826
1461.086129,-3478.967927,3447.429741,-3552.988522
1461.086441,-4219.173869,1685.410096,-4219.173869
1461.086752,-7698.141797,1072.533697,-2294.638420
1461.087064,-10066.800811,76.609550,1332.370696
1461.087375,-14211.954086,-3140.991542,1924.535449
1461.087687,-14804.118840,-2834.553343,2960.823768
1461.087998,-10881.027347,-459.657299,1924.535449
1461.088309,-8142.265362,-1225.752797,2072.576638
1461.088621,-6957.935855,-3217.601092,2072.576638
1461.088932,-4737.318029,-1455.581446,2590.720797
1461.089244,-4663.297435,766.095498,2220.617826
1461.089555,-6069.688724,0.000000,3330.926739
1461.089867,-4959.379811,-766.095498,1776.494261
1461.090178,-3256.906145,536.266849,-1036.288319
1461.090490,-1406.391290,1378.971896,-1998.556043
1461.090801,-3256.906145,229.828649,-1924.535449
1461.091113,-6661.853478,-766.095498,-1036.288319
1461.091424,-10362.883188,612.876398,1036.288319
1461.091736,-12657.521608,-1225.752797,3849.070898
1461.092047,-13989.892304,-4596.572988,3997.112087
1461.092359,-13249.686362,-2834.553343,3034.844362
1461.092670,-9030.512492,919.314598,1184.329507
1461.092982,-7254.018232,2528.115143,-888.247130
1461.093293,-6809.894666,2911.162892,-1406.391290
1461.093605,-5995.668130,4903.011187,-814.226536
1461.093916,-7328.038826,4366.744339,-148.041188
1461.094228,-7550.100608,1149.143247,296.082377
1461.094539,-6587.832884,76.609550,-740.205942
1461.094851,-7254.018232,1608.800546,-2368.659014
1461.095162,-8956.491898,1915.238745,-2220.617826
1461.095473,-13175.665768,-842.705048,-2516.700203
1461.095785,-15914.427753,-383.047749,-74.020594
1461.096096,-18579.169144,-153.219100,2368.659014
1461.096408,-19023.292709,-2681.334243,4145.153275
1461.096719,-16210.510130,-3753.867940,3404.947333
1461.097031,-10807.006753,-995.924147,1480.411884
1461.097342,-5921.647536,536.266849,-0.000000
1461.097654,-4441.235652,306.438199,-1480.411884
1461.097965,-3552.988522,1378.971896,-1406.391290
1461.098277,-6217.729913,2145.067394,-518.144159
1461.098588,-8216.285956,919.314598,1628.453072
1461.098900,-10288.862594,-2528.115143,1776.494261
1461.099211,-9104.533087,-2374.896044,1924.535449
1461.099523,-6587.832884,-2068.457845,1850.514855
1461.099834,-8734.430116,-3830.477490,1258.350101
1461.100146,-9252.574275,-3140.991542,1332.370696
1461.100457,-10288.862594,-153.219100,592.164754
1461.100769,-11621.233289,536.266849,1998.556043
1461.101080,-10362.883188,-229.828649,1850.514855
1461.101392,-7105.977043,1302.362347,-0.000000
1461.101703,-3997.112087,2757.943793,-666.185348
1461.102015,-1998.556043,2145.067394,-888.247130
1461.102326,-1850.514855,-153.219100,-222.061783
1461.102637,-3627.009116,-153.219100,296.082377
1461.102949,-6069.688724,-919.314598,2738.761985
1461.103260,-9548.656652,-3294.210641,3330.926739
1461.103572,-11473.192101,-3447.429741,2294.638420
1461.103883,-10140.821405,-153.219100,296.082377
1461.104195,-9474.636058,1225.752797,-962.267725
1461.104506,-11251.130318,229.828649,-1332.370696
1461.104818,-11473.192101,1608.800546,-740.205942
1461.105129,-11399.171507,1915.238745,-592.164754
1461.105441,-12213.398043,1072.533697,1184.329507
1461.105752,-10140.821405,153.219100,814.226536
1461.106064,-7105.977043,1149.143247,-814.226536
1461.106375,-5625.565159,1991.848295,-1258.350101
1461.106687,-6735.874072,76.609550,-1702.473667
1461.106998,-9770.718434,-536.266849,-1036.288319
1461.107310,-11843.295072,1225.752797,666.185348
1461.107621,-13545.768739,1225.752797,2590.720797
1461.107933,-14878.139434,-2374.896044,2368.659014
1461.108244,-11769.274478,-766.095498,1480.411884
1461.108556,-7698.141797,1838.629195,-0.000000
1461.108867,-5921.647536,2987.772442,-888.247130
1461.109178,-7328.038826,2528.115143,-2886.803174
1461.109490,-8438.347739,3830.477490,-2442.679609
1461.109801,-8290.306550,3830.477490,-222.061783
1461.110113,-9474.636058,-229.828649,814.226536
1461.110424,-9474.636058,-2757.943793,1184.329507
1461.110736,-8512.368333,-2145.067394,1184.329507
1461.111047,-8216.285956,-1915.238745,2368.659014
1461.111359,-8956.491898,-3370.820191,2368.659014
1461.111670,-10288.862594,-1915.238745,2960.823768
1461.111982,-11547.212695,-229.828649,2960.823768
1461.112293,-10584.944971,-1532.190996,2516.700203
1461.112605,-7476.080014,-2068.457845,1036.288319
1461.112916,-4293.194464,383.047749,-962.267725
1461.113228,-3182.885551,1608.800546,-1480.411884
1461.113539,-2812.782580,-919.314598,-1628.453072
1461.113851,-4367.215058,-383.047749,148.041188
1461.114162,-7105.977043,-229.828649,1628.453072
1461.114474,-9400.615463,-2221.676944,3775.050304
1461.114785,-11695.253884,-4519.963438,2590.720797
1461.115097,-10955.047942,-1838.629195,1776.494261
1461.115408,-9178.553681,-459.657299,444.123565
1461.115720,-9770.718434,0.000000,74.020594
1461.116031,-10955.047942,76.609550,740.205942
1461.116342,-11473.192101,1378.971896,444.123565
1461.116654,-10510.924376,1302.362347,2146.597232
1461.116965,-10807.006753,-383.047749,1480.411884
1461.117277,-7105.977043,1149.143247,-0.000000
1461.117588,-4737.318029,2604.724693,-2664.741391
1461.117900,-4737.318029,2145.067394,-1850.514855
1461.118211,-6957.935855,536.266849,-1702.473667
1461.118523,-11325.150913,995.924147,-296.082377
1461.118834,-13841.851115,842.705048,2146.597232
1461.119146,-15618.345376,-1378.971896,2960.823768
1461.119457,-15692.365970,-2374.896044,1850.514855
1461.119769,-12139.377449,1915.238745,148.041188
1461.120080,-8808.450710,3447.429741,-1332.370696
1461.120392,-8586.388927,2987.772442,-2368.659014
1461.120703,-8068.244768,3447.429741,-1258.350101
1461.121015,-8586.388927,4136.915689,-740.205942
1461.121326,-7476.080014,1915.238745,888.247130
1461.121638,-7254.018232,-1225.752797,1184.329507
1461.121949,-4959.379811,-842.705048,1332.370696
1461.122261,-2812.782580,-1608.800546,592.164754
1461.122572,-3849.070898,-4519.963438,-74.020594
1461.122884,-7994.224174,-5975.544884,-0.000000
1461.123195,-11251.130318,-3524.039291,1110.308913
1461.123506,-12509.480420,-2451.505594,4071.132681
1461.123818,-14952.160028,-5592.497135,2738.761985
1461.124129,-12213.398043,-5209.449386,1924.535449
1461.124441,-8290.306550,-1225.752797,-1554.432478
1461.124752,-6143.709319,1762.019645,-2072.576638
1461.125064,-4959.379811,1455.581446,-1332.370696
1461.125375,-6587.832884,1762.019645,-296.082377
1461.125687,-7920.203579,1991.848295,2146.597232
1461.125998,-8586.388927,-842.705048,3256.906145
1461.126310,-6735.874072,-1072.533697,2664.741391
1461.126621,-4367.215058,1378.971896,592.164754
1461.126933,-4589.276840,1225.752797,-1258.350101
1461.127244,-7920.203579,-612.876398,-2812.782580
1461.127556,-10362.883188,383.047749,-2146.597232
1461.127867,-13915.871710,3140.991542,-888.247130
1461.128179,-15988.448347,2145.067394,518.144159
1461.128490,-15766.386565,-383.047749,370.102971
1461.128802,-12583.501014,536.266849,-962.267725
1461.129113,-8586.388927,2987.772442,-666.185348
1461.129425,-6661.853478,1149.143247,296.082377
1461.129736,-6513.812290,689.485948,2442.679609
1461.130047,-7031.956449,1915.238745,3627.009116
1461.130359,-10436.903782,-229.828649,4737.318029
1461.130670,-11621.233289,-2451.505594,3849.070898
1461.130982,-8068.244768,1225.752797,1184.329507
1461.131293,-6217.729913,4060.306139,-1406.391290
1461.131605,-6735.874072,1915.238745,-2590.720797
1461.131916,-8586.388927,-536.266849,-2220.617826
1461.132228,-10955.047942,0.000000,-888.247130
1461.132539,-11251.130318,1455.581446,2368.659014
1461.132851,-11991.336260,-1685.410096,3108.864956
1461.133162,-10288.862594,-2604.724693,2368.659014
1461.133474,-5921.647536,-229.828649,1776.494261
1461.133785,-3627.009116,0.000000,1332.370696
1461.134097,-2442.679609,-689.485948,1554.432478
1461.134408,-4293.194464,0.000000,1924.535449
1461.134720,-6735.874072,-612.876398,3256.906145
1461.135031,-9030.512492,-2681.334243,3997.112087
1461.135343,-9622.677246,-3064.381992,1924.535449
1461.135654,-7105.977043,-153.219100,148.041188
1461.135966,-4811.338623,536.266849,-1406.391290
1461.136277,-6143.709319,-2145.067394,-2664.741391
1461.136588,-8660.409521,-1991.848295,-2294.638420
1461.136900,-11473.192101,0.000000,-518.144159
1461.137211,-13471.748144,-1072.533697,1332.370696
1461.137523,-14285.974681,-3217.601092,2294.638420
1461.137834,-12361.439231,-1915.238745,1036.288319
1461.138146,-9326.594869,0.000000,-0.000000
1461.138457,-7105.977043,842.705048,-0.000000
1461.138768,-6513.812290,1072.533697,-296.082377
1461.139080,-7920.203579,2911.162892,-666.185348
1461.139391,-9918.759623,2068.457845,-74.020594
1461.139703,-11695.253884,-459.657299,-1332.370696
1461.140014,-10732.986159,-153.219100,-2294.638420
1461.140326,-8808.450710,1762.019645,-3404.947333
1461.140637,-9326.594869,536.266849,-2886.803174
1461.140949,-12509.480420,-1915.238745,-1998.556043
1461.141260,-14656.077652,-766.095498,-148.041188
1461.141571,-14656.077652,-689.485948,2516.700203
1461.141883,-14878.139434,-3294.210641,3997.112087
1461.142194,-12435.459826,-4519.963438,3182.885551
1461.142506,-7624.121203,-995.924147,222.061783
1461.142817,-4441.235652,1991.848295,-222.061783
1461.143129,-4367.215058,1915.238745,-666.185348
1461.143440,-7031.956449,1915.238745,444.123565
1461.143751,-8808.450710,2221.676944,1998.556043
1461.144063,-8216.285956,1608.800546,2886.803174
1461.144374,-8216.285956,383.047749,1702.473667
1461.144686,-5107.421000,842.705048,-74.020594
1461.144997,-3552.988522,1149.143247,-1184.329507
1461.145309,-5181.441594,-383.047749,-1332.370696
1461.145620,-6735.874072,-459.657299,-1036.288319
1461.145931,-8586.388927,2298.286494,1332.370696
1461.146243,-10436.903782,0.000000,3849.070898
1461.146554,-11251.130318,-4749.792088,4293.194464
1461.146866,-9326.594869,-5209.449386,3923.091493
1461.147177,-5995.668130,-2528.115143,2146.597232
1461.147489,-4293.194464,-842.705048,1332.370696
1461.147800,-5255.462188,-1608.800546,-148.041188
1461.148112,-7772.162391,-229.828649,-0.000000
1461.148423,-8808.450710,536.266849,1850.514855
1461.148734,-11547.212695,-689.485948,1406.391290
1461.149046,-11251.130318,-536.266849,1850.514855
1461.149357,-8364.327145,1838.629195,-222.061783
1461.149669,-7846.182985,919.314598,-148.041188
1461.149980,-8956.491898,-1072.533697,-222.061783
1461.150292,-10362.883188,0.000000,-0.000000
1461.150603,-10881.027347,2145.067394,1850.514855
1461.150914,-12731.542202,0.000000,1332.370696
1461.151226,-12435.459826,-1915.238745,-74.020594
1461.151537,-10362.883188,1608.800546,-2368.659014
1461.151849,-7550.100608,3370.820191,-2516.700203
1461.152160,-8068.244768,2068.457845,-1998.556043
1461.152472,-10807.006753,842.705048,-222.061783
1461.152783,-11695.253884,2145.067394,1406.391290
1461.153094,-13471.748144,995.924147,2368.659014
1461.153406,-12953.603985,-842.705048,2146.597232
1461.153717,-8290.306550,1532.190996,962.267725
1461.154029,-5921.647536,3064.381992,-1480.411884
1461.154340,-4885.359217,1378.971896,-2294.638420
1461.154652,-7105.977043,-536.266849,-1998.556043
1461.154963,-8956.491898,1149.143247,-444.123565
1461.155275,-11103.089130,689.485948,2590.720797
1461.155586,-12805.562797,-3524.039291,2368.659014
1461.155897,-9400.615463,-4673.182538,2590.720797
1461.156209,-5625.565159,-1838.629195,-296.082377
1461.156520,-4219.173869,-1072.533697,-296.082377
1461.156832,-5625.565159,-1838.629195,-1702.473667
1461.157143,-6809.894666,-919.314598,-0.000000
1461.157455,-7698.141797,536.266849,3182.885551
1461.157766,-10288.862594,-2221.676944,3552.988522
1461.158077,-9474.636058,-2298.286494,3627.009116
1461.158389,-5699.585753,-459.657299,2072.576638
1461.158700,-2812.782580,-153.219100,1184.329507
1461.159012,-3256.906145,-1378.971896,-1332.370696
1461.159323,-5921.647536,-995.924147,-1406.391290
1461.159635,-9844.739029,842.705048,-74.020594
1461.159946,-11769.274478,-1915.238745,2664.741391
1461.160257,-13693.809927,-4749.792088,1554.432478
1461.160569,-12361.439231,-2604.724693,740.205942
1461.160880,-9400.615463,1685.410096,-1332.370696
1461.161192,-10140.821405,1149.143247,-1776.494261
1461.161503,-10066.800811,2298.286494,-740.205942
1461.161815,-11621.233289,3370.820191,-296.082377
1461.162126,-11917.315666,1991.848295,3182.885551
1461.162438,-11473.192101,-995.924147,2664.741391
1461.162749,-8216.285956,689.485948,1184.329507
1461.163060,-4589.276840,5286.058936,-1406.391290
1461.163372,-4737.318029,3064.381992,-3404.947333
1461.163683,-7920.203579,1225.752797,-3849.070898
1461.163995,-11177.109724,2145.067394,-2368.659014
1461.164306,-14434.015869,1838.629195,-0.000000
1461.164618,-17320.819043,-1991.848295,1554.432478
1461.164929,-16358.551318,-3983.696590,2294.638420
1461.165240,-11547.212695,-919.314598,592.164754
1461.165552,-7179.997637,995.924147,592.164754
1461.165863,-5255.462188,-306.438199,370.102971
1461.166175,-4441.235652,612.876398,1850.514855
1461.166486,-7698.141797,536.266849,2738.761985
1461.166798,-7920.203579,-995.924147,4737.318029
1461.167109,-6143.709319,-842.705048,2072.576638
1461.167420,-4663.297435,0.000000,518.144159
1461.167732,-2072.576638,459.657299,-222.061783
1461.168043,-4219.173869,-2145.067394,-2368.659014
1461.168355,-6587.832884,-2451.505594,-814.226536
1461.168666,-8586.388927,-689.485948,1332.370696
1461.168978,-12583.501014,-2834.553343,3478.967927
1461.169289,-13915.871710,-4673.182538,3627.009116
1461.169601,-11251.130318,-3064.381992,2368.659014
1461.169912,-7698.141797,-689.485948,-0.000000
1461.170223,-4293.194464,2298.286494,-0.000000
1461.170535,-5255.462188,842.705048,-1628.453072
1461.170846,-6069.688724,1149.143247,-222.061783
1461.171158,-7105.977043,689.485948,2886.803174
1461.171469,-9326.594869,-766.095498,3478.967927
1461.171781,-8068.244768,-306.438199,2294.638420
1461.172092,-7402.059420,1302.362347,-444.123565
1461.172403,-7402.059420,1532.190996,-1702.473667
1461.172715,-10214.842000,766.095498,-2812.782580
1461.173026,-12435.459826,1532.190996,-1850.514855
1461.173338,-15692.365970,2911.162892,-0.000000
1461.173649,-17320.819043,-153.219100,1184.329507
1461.173961,-16432.571912,-2604.724693,1702.473667
1461.174272,-11695.253884,0.000000,-518.144159
1461.174583,-7179.997637,3447.429741,-740.205942
1461.174895,-5773.606348,2068.457845,-666.185348
1461.175206,-6809.894666,-459.657299,-0.000000
1461.175518,-9696.697840,1225.752797,-0.000000
1461.175829,-10955.047942,2757.943793,1554.432478
1461.176141,-11399.171507,919.314598,518.144159
1461.176452,-9474.636058,1225.752797,148.041188
1461.176764,-6291.750507,2298.286494,-1850.514855
1461.177075,-6513.812290,536.266849,-2072.576638
1461.177386,-8512.368333,0.000000,-1184.329507
1461.177698,-10140.821405,1915.238745,518.144159
1461.178009,-12731.542202,1915.238745,2368.659014
1461.178321,-11917.315666,-1302.362347,3108.864956
1461.178632,-8586.388927,-2451.505594,1924.535449
1461.178944,-4811.338623,0.000000,1184.329507
1461.179255,-1110.308913,842.705048,370.102971
1461.179566,-1850.514855,-842.705048,-518.144159
1461.179878,-4811.338623,-2757.943793,1702.473667
1461.180189,-8068.244768,-1608.800546,3701.029710
1461.180501,-10807.006753,-3064.381992,3997.112087
1461.180812,-10436.903782,-2451.505594,2886.803174
1461.181124,-7031.956449,-1838.629195,740.205942
1461.181435,-5181.441594,0.000000,-1332.370696
1461.181746,-5699.585753,0.000000,-2516.700203
1461.182058,-8216.285956,153.219100,-1924.535449
1461.182369,-9918.759623,229.828649,1184.329507
1461.182681,-11251.130318,-1532.190996,3775.050304
1461.182992,-12361.439231,-4519.963438,3034.844362
1461.183304,-9400.615463,-2911.162892,1776.494261
1461.183615,-6883.915261,842.705048,888.247130
1461.183927,-6661.853478,0.000000,-740.205942
1461.184238,-8882.471304,-306.438199,-1036.288319
1461.184549,-10955.047942,1838.629195,-444.123565
1461.184861,-13323.706956,2604.724693,-592.164754
1461.185172,-14211.954086,1302.362347,148.041188
1461.185484,-11325.150913,229.828649,-666.185348
1461.185795,-8956.491898,2298.286494,-1628.453072
1461.186107,-8216.285956,1685.410096,-888.247130
1461.186418,-10362.883188,-383.047749,-1332.370696
1461.186729,-11991.336260,1838.629195,1110.308913
1461.187041,-13323.706956,2911.162892,2368.659014
1461.187352,-13619.789333,229.828649,1998.556043
1461.187664,-11769.274478,-2451.505594,740.205942
1461.187975,-7772.162391,-612.876398,-1480.411884
1461.188287,-4589.276840,1991.848295,-814.226536
1461.188598,-5921.647536,-842.705048,-1554.432478
1461.188909,-7994.224174,-1685.410096,370.102971
1461.189221,-9992.780217,842.705048,2220.617826
1461.189532,-10732.986159,612.876398,3997.112087
1461.189844,-10140.821405,-995.924147,1776.494261
1461.190155,-6513.812290,995.924147,-518.144159
1461.190467,-1998.556043,3294.210641,-1184.329507
1461.190778,-2516.700203,612.876398,-2368.659014
1461.191090,-5329.482782,-1302.362347,-444.123565
1461.191401,-8068.244768,-1149.143247,1776.494261
1461.191712,-11029.068536,-2757.943793,4959.379811
1461.192024,-11177.109724,-5439.278036,5181.441594
1461.192335,-8512.368333,-4826.401637,2960.823768
1461.192647,-6291.750507,-2451.505594,666.185348
1461.192958,-3923.091493,-2987.772442,222.061783
1461.193270,-4885.359217,-3140.991542,-1628.453072
1461.193581,-6957.935855,689.485948,-592.164754
1461.193892,-9696.697840,2221.676944,1184.329507
1461.194204,-11621.233289,0.000000,2590.720797
1461.194515,-10881.027347,-995.924147,2368.659014
1461.194827,-8216.285956,2451.505594,740.205942
1461.195138,-5329.482782,3064.381992,-74.020594
1461.195450,-7105.977043,1149.143247,-1924.535449
1461.195761,-9252.574275,1455.581446,-666.185348
1461.196072,-10955.047942,2221.676944,-888.247130
1461.196384,-14211.954086,-153.219100,-296.082377
1461.196695,-14434.015869,-1302.362347,370.102971
1461.197007,-11843.295072,1072.533697,-1850.514855
1461.197318,-10658.965565,2528.115143,-1406.391290
1461.197630,-10658.965565,536.266849,-518.144159
1461.197941,-10955.047942,-306.438199,-0.000000
1461.198253,-11769.274478,1762.019645,1480.411884
1461.198564,-12583.501014,2757.943793,2368.659014
1461.198875,-11769.274478,995.924147,1110.308913
1461.199187,-6883.915261,1378.971896,-0.000000
1461.199498,-3404.947333,2604.724693,-1258.350101
1461.199810,-3923.091493,612.876398,-1406.391290
1461.200121,-7328.038826,-2221.676944,-1924.535449
1461.200433,-10584.944971,-383.047749,370.102971
1461.200744,-12509.480420,0.000000,2590.720797
1461.201055,-13989.892304,-3217.601092,2516.700203
1461.201367,-11769.274478,-3753.867940,1702.473667
1461.201678,-5995.668130,-1149.143247,-518.144159
1461.201990,-4219.173869,-766.095498,-814.226536
1461.202301,-4959.379811,-842.705048,296.082377
1461.202613,-4219.173869,995.924147,1554.432478
1461.202924,-6587.832884,459.657299,3256.906145
1461.203235,-7920.203579,-3370.820191,5699.585753
1461.203547,-6735.874072,-4366.744339,3627.009116
1461.203858,-4145.153275,-1072.533697,518.144159
1461.204170,-2220.617826,229.828649,-740.205942
1461.204481,-3923.091493,-2298.286494,-2442.679609
1461.204793,-8290.306550,-1532.190996,-2590.720797
1461.205104,-11843.295072,153.219100,-0.000000
1461.205416,-14359.995275,-1149.143247,1628.453072
1461.205727,-16210.510130,-3294.210641,2146.597232
1461.206038,-14656.077652,-612.876398,962.267725
1461.206350,-9918.759623,2221.676944,-592.164754
1461.206661,-7179.997637,919.314598,-148.041188
1461.206973,-6661.853478,612.876398,592.164754
1461.207284,-6069.688724,1915.238745,1184.329507
1461.207596,-7476.080014,689.485948,1332.370696
1461.207907,-10362.883188,-1991.848295,814.226536
1461.208218,-8956.491898,153.219100,-814.226536
1461.208530,-8956.491898,3294.210641,-3404.947333
1461.208841,-10140.821405,3140.991542,-2812.782580
1461.209153,-12583.501014,-229.828649,-2442.679609
1461.209464,-14285.974681,0.000000,-740.205942
1461.209776,-15840.407159,1378.971896,1480.411884
1461.210087,-15840.407159,-153.219100,2812.782580
1461.210399,-13101.645173,-1991.848295,1850.514855
1461.210710,-8142.265362,612.876398,1110.308913
1461.211021,-3923.091493,1762.019645,-0.000000
1461.211333,-3034.844362,766.095498,-444.123565
1461.211644,-7328.038826,1302.362347,666.185348
1461.211956,-9104.533087,1455.581446,3552.988522
1461.212267,-9400.615463,-153.219100,2220.617826
1461.212579,-9992.780217,-1991.848295,1332.370696
1461.212890,-6069.688724,-536.266849,-74.020594
1461.213201,-5403.503377,0.000000,-2072.576638
1461.213513,-5625.565159,-1685.410096,-1850.514855
1461.213824,-5625.565159,-459.657299,-1184.329507
1461.214136,-7550.100608,2298.286494,444.123565
1461.214447,-10362.883188,1455.581446,2812.782580
1461.214759,-11991.336260,-1302.362347,4145.153275
1461.215070,-9030.512492,-3370.820191,2812.782580
1461.215381,-4959.379811,-1149.143247,2072.576638
1461.215693,-2960.823768,-766.095498,370.102971
1461.216004,-4071.132681,-1915.238745,-1406.391290
1461.216316,-7550.100608,-459.657299,-0.000000
1461.216627,-10214.842000,-995.924147,1776.494261
1461.216939,-11177.109724,-3064.381992,1702.473667
1461.217250,-11103.089130,-1838.629195,666.185348
1461.217562,-8956.491898,1149.143247,-1036.288319
1461.217873,-7105.977043,1532.190996,-962.267725
1461.218184,-7476.080014,-1225.752797,-814.226536
1461.218496,-8290.306550,-612.876398,-0.000000
1461.218807,-10732.986159,2451.505594,444.123565
1461.219119,-12805.562797,1072.533697,1110.308913
1461.219430,-13027.624579,76.609550,222.061783
1461.219742,-9992.780217,1302.362347,-814.226536
1461.220053,-8512.368333,2221.676944,-1776.494261
1461.220364,-9696.697840,536.266849,-1776.494261
1461.220676,-11399.171507,-536.266849,-1184.329507
1461.220987,-12953.603985,1685.410096,148.041188
1461.221299,-14137.933492,2221.676944,1776.494261
1461.221610,-13619.789333,-995.924147,1036.288319
1461.221922,-9252.574275,0.000000,962.267725
1461.222233,-5403.503377,1762.019645,-74.020594
1461.222544,-4367.215058,842.705048,-444.123565
1461.222856,-7698.141797,-1455.581446,-740.205942
1461.223167,-9548.656652,612.876398,962.267725
1461.223479,-10362.883188,1685.410096,3034.844362
1461.223790,-12361.439231,-1762.019645,2368.659014
1461.224102,-9844.739029,-3140.991542,2738.761985
1461.224413,-7402.059420,-306.438199,-0.000000
1461.224725,-4885.359217,-459.657299,1110.308913
1461.225036,-5107.421000,-1685.410096,-0.000000
1461.225347,-6661.853478,-1149.143247,888.247130
1461.225659,-7920.203579,459.657299,2294.638420
1461.225970,-8142.265362,-842.705048,2738.761985
1461.226282,-7179.997637,-2298.286494,1998.556043
1461.226593,-3701.029710,459.657299,-0.000000
1461.226905,-1924.535449,459.657299,-148.041188
1461.227216,-4515.256246,-2604.724693,-888.247130
1461.227527,-6513.812290,-3064.381992,740.205942
1461.227839,-9252.574275,-1225.752797,1332.370696
1461.228150,-11621.233289,-2451.505594,3775.050304
1461.228462,-12509.480420,-5132.839837,2590.720797
1461.228773,-11991.336260,-2451.505594,592.164754
1461.229085,-9030.512492,1762.019645,-740.205942
1461.229396,-8068.244768,2374.896044,-666.185348
1461.229707,-9844.739029,153.219100,-518.144159
1461.230019,-11695.253884,2068.457845,148.041188
1461.230330,-12139.377449,3294.210641,1184.329507
1461.230642,-11103.089130,1685.410096,148.041188
1461.230953,-7698.141797,1838.629195,-888.247130
1461.231265,-5625.565159,4290.134789,-2220.617826
1461.231576,-6957.935855,2221.676944,-2590.720797
1461.231888,-9474.636058,-1149.143247,-2664.741391
1461.232199,-11547.212695,2068.457845,-592.164754
1461.232510,-14508.036463,2987.772442,1332.370696
1461.232822,-15914.427753,-1149.143247,1776.494261
1461.233133,-14211.954086,-3140.991542,518.144159
1461.233445,-10288.862594,459.657299,-1184.329507
1461.233756,-6439.791695,3600.648841,-962.267725
1461.234068,-6957.935855,2298.286494,-962.267725
1461.234379,-8512.368333,1455.581446,740.205942
1461.234690,-9770.718434,1302.362347,2146.597232
1461.235002,-10288.862594,76.609550,3256.906145
1461.235313,-9474.636058,-1378.971896,2368.659014
1461.235625,-5773.606348,-306.438199,-0.000000
1461.235936,-2664.741391,919.314598,-370.102971
1461.236248,-3997.112087,-2911.162892,-1924.535449
1461.236559,-5995.668130,-2298.286494,-592.164754
1461.236870,-8956.491898,-229.828649,1332.370696
1461.237182,-10658.965565,-1915.238745,3923.091493
1461.237493,-11769.274478,-5898.935335,3923.091493
1461.237804,-9400.615463,-4979.620737,2072.576638
1461.238116,-6661.853478,229.828649,-518.144159
1461.238427,-5773.606348,2145.067394,-592.164754
1461.238739,-5477.523971,1608.800546,740.205942
1461.239050,-6291.750507,1762.019645,1332.370696
1461.239361,-8438.347739,689.485948,3108.864956
1461.239673,-8290.306550,-842.705048,3182.885551
1461.239984,-7624.121203,-1225.752797,1332.370696
1461.240296,-6291.750507,1685.410096,-666.185348
1461.240607,-4959.379811,1149.143247,-1924.535449
1461.240918,-9474.636058,-1149.143247,-3330.926739
1461.241230,-12435.459826,229.828649,-1776.494261
1461.241541,-13101.645173,2451.505594,444.123565
1461.241853,-15766.386565,-1378.971896,1480.411884
1461.242164,-14730.098246,-3830.477490,2368.659014
1461.242475,-11177.109724,-1302.362347,-0.000000
1461.242787,-7698.141797,2298.286494,-740.205942
1461.243098,-6217.729913,2221.676944,-74.020594
1461.243410,-7402.059420,1991.848295,740.205942
1461.243721,-9622.677246,3140.991542,888.247130
1461.244032,-12287.418637,1072.533697,2368.659014
1461.244344,-13175.665768,306.438199,1332.370696
1461.244655,-9992.780217,1762.019645,-0.000000
1461.244966,-7179.997637,2298.286494,-1776.494261
1461.245278,-7105.977043,-842.705048,-2442.679609
1461.245589,-8660.409521,-2451.505594,-2738.761985
1461.245901,-9918.759623,383.047749,148.041188
1461.246212,-11103.089130,229.828649,2368.659014
1461.246523,-12583.501014,-3064.381992,3256.906145
1461.246835,-11695.253884,-3447.429741,3627.009116
1461.247146,-7179.997637,-229.828649,2294.638420
1461.247458,-2960.823768,1225.752797,1036.288319
1461.247769,-2220.617826,-153.219100,444.123565
1461.248080,-4737.318029,0.000000,814.226536
1461.248392,-7476.080014,-612.876398,2960.823768
1461.248703,-9178.553681,-1838.629195,1998.556043
1461.249015,-8956.491898,-995.924147,1776.494261
1461.249326,-5773.606348,612.876398,-370.102971
1461.249637,-4885.359217,229.828649,-1332.370696
1461.249949,-6291.750507,-2451.505594,-1998.556043
1461.250260,-8216.285956,-2451.505594,-1258.350101
1461.250571,-10140.821405,1072.533697,1406.391290
1461.250883,-12435.459826,76.609550,2960.823768
1461.251194,-14211.954086,-2757.943793,3256.906145
1461.251506,-10510.924376,-1685.410096,1924.535449
1461.251817,-6143.709319,1685.410096,148.041188
1461.252128,-4145.153275,1532.190996,-518.144159
1461.252440,-5995.668130,536.266849,-1406.391290
1461.252751,-9474.636058,1991.848295,-962.267725
1461.253063,-11251.130318,2145.067394,814.226536
1461.253374,-13397.727550,-383.047749,518.144159
1461.253685,-11547.212695,1455.581446,-740.205942
1461.253997,-10288.862594,3677.258390,-2368.659014
1461.254308,-8512.368333,1762.019645,-1702.473667
1461.254620,-10214.842000,-1455.581446,-2220.617826
1461.254931,-12139.377449,1532.190996,-0.000000
1461.255242,-12509.480420,3064.381992,2442.679609
1461.255554,-13619.789333,-842.705048,2738.761985
1461.255865,-11695.253884,-2987.772442,1628.453072
1461.256177,-7920.203579,1149.143247,-814.226536
1461.256488,-4663.297435,3217.601092,-296.082377
1461.256799,-5921.647536,459.657299,-222.061783
1461.257111,-9400.615463,-459.657299,-0.000000
1461.257422,-10584.944971,1838.629195,1924.535449
1461.257733,-11103.089130,1072.533697,2516.700203
1461.258045,-9844.739029,-766.095498,2886.803174
1461.258356,-5255.462188,0.000000,814.226536
1461.258668,-3849.070898,-919.314598,-1110.308913
1461.258979,-2368.659014,-1532.190996,-1110.308913
1461.259290,-5699.585753,-2145.067394,-370.102971
1461.259602,-8290.306550,612.876398,2368.659014
1461.259913,-10436.903782,-536.266849,4071.132681
1461.260225,-11695.253884,-6052.154434,4441.235652
1461.260536,-7920.203579,-4903.011187,3478.967927
1461.260847,-4367.215058,-459.657299,962.267725
1461.261159,-3701.029710,-1149.143247,-222.061783
1461.261470,-7402.059420,-3753.867940,-666.185348
1461.261782,-7846.182985,-1455.581446,370.102971
1461.262093,-10362.883188,1225.752797,1332.370696
1461.262404,-13471.748144,-842.705048,1998.556043
1461.262716,-10732.986159,-383.047749,1406.391290
1461.263027,-9474.636058,1915.238745,-74.020594
1461.263339,-7179.997637,1991.848295,-592.164754
1461.263650,-6809.894666,536.266849,-888.247130
1461.263961,-8216.285956,1608.800546,-296.082377
1461.264273,-10362.883188,2298.286494,740.205942
1461.264584,-12731.542202,-1685.410096,1628.453072
1461.264895,-11399.171507,-2757.943793,-222.061783
1461.265207,-10658.965565,1762.019645,-1924.535449
1461.265518,-8512.368333,3830.477490,-1776.494261
1461.265830,-9622.677246,306.438199,-2072.576638
1461.266141,-12805.562797,-383.047749,-1110.308913
1461.266452,-12361.439231,2834.553343,296.082377
1461.266764,-12509.480420,2068.457845,1628.453072
1461.267075,-11177.109724,0.000000,1776.494261
1461.267387,-7994.224174,459.657299,592.164754
1461.267698,-5107.421000,1838.629195,-148.041188
1461.268009,-2886.803174,842.705048,-888.247130
1461.268321,-6587.832884,536.266849,-740.205942
1461.268632,-9696.697840,1838.629195,1110.308913
1461.268944,-11621.233289,153.219100,3182.885551
1461.269255,-13397.727550,-4443.353888,2294.638420
1461.269566,-10955.047942,-3447.429741,1406.391290
1461.269878,-5107.421000,1225.752797,-814.226536
1461.270189,-3478.967927,459.657299,-1998.556043
1461.270501,-6143.709319,-1225.752797,-814.226536
1461.270812,-8068.244768,-766.095498,592.164754
1461.271123,-9918.759623,1532.190996,2812.782580
1461.271435,-10288.862594,1072.533697,4145.153275
1461.271746,-7179.997637,-383.047749,3849.070898
1461.272057,-4515.256246,-842.705048,2072.576638
1461.272369,-2146.597232,-1302.362347,444.123565
1461.272680,-2072.576638,-2528.115143,-1036.288319
1461.272992,-4737.318029,-2068.457845,-814.226536
1461.273303,-9104.533087,0.000000,962.267725
1461.273614,-12805.562797,-2221.676944,2294.638420
1461.273926,-15396.283594,-6052.154434,1110.308913
1461.274237,-13767.830521,-3600.648841,518.144159
1461.274549,-10214.842000,2068.457845,-740.205942
1461.274860,-9844.739029,2681.334243,-1850.514855
1461.275171,-10658.965565,1532.190996,-1332.370696
1461.275483,-11621.233289,1991.848295,296.082377
1461.275794,-11103.089130,2374.896044,2960.823768
1461.276106,-9474.636058,536.266849,2812.782580
1461.276417,-5625.565159,1149.143247,1480.411884
1461.276728,-4145.153275,2068.457845,-1924.535449
1461.277040,-5033.400406,1149.143247,-2960.823768
1461.277351,-8956.491898,-229.828649,-2738.761985
1461.277663,-13323.706956,1915.238745,-1628.453072
1461.277974,-16284.530724,2374.896044,1332.370696
1461.278285,-18209.066173,-1762.019645,1702.473667
1461.278597,-15470.304188,-3753.867940,1258.350101
1461.278908,-9770.718434,-995.924147,-740.205942
1461.279219,-6735.874072,1455.581446,-666.185348
1461.279531,-5033.400406,1302.362347,-444.123565
1461.279842,-7698.141797,995.924147,1258.350101
1461.280154,-9104.533087,2528.115143,3849.070898
1461.280465,-7254.018232,689.485948,4219.173869
1461.280776,-8364.327145,-1608.800546,2368.659014
1461.281088,-4219.173869,459.657299,592.164754
1461.281399,-1554.432478,2145.067394,-1776.494261
1461.281711,-3034.844362,689.485948,-2442.679609
1461.282022,-6661.853478,-1455.581446,-1628.453072
1461.282333,-8586.388927,-1302.362347,1258.350101
1461.282645,-10955.047942,-1838.629195,3182.885551
1461.282956,-14211.954086,-5056.230287,4367.215058
1461.283268,-11325.150913,-4060.306139,1998.556043
1461.283579,-7846.182985,229.828649,-888.247130
1461.283890,-4441.235652,1685.410096,-888.247130
1461.284202,-3923.091493,0.000000,-962.267725
1461.284513,-5773.606348,-383.047749,370.102971
1461.284825,-7031.956449,689.485948,2072.576638
1461.285136,-9326.594869,-995.924147,3775.050304
1461.285447,-7698.141797,-2451.505594,2960.823768
1461.285759,-6883.915261,0.000000,740.205942
1461.286070,-8290.306550,0.000000,-1480.411884
1461.286381,-9548.656652,-995.924147,-2368.659014
1461.286693,-11843.295072,1378.971896,-1998.556043
1461.287004,-15174.221811,3677.258390,-370.102971
1461.287316,-16876.695478,0.000000,1258.350101
1461.287627,-15988.448347,-4673.182538,444.123565
1461.287938,-11399.171507,-383.047749,-370.102971
1461.288250,-7031.956449,3140.991542,-1406.391290
1461.288561,-7179.997637,1838.629195,-1850.514855
1461.288873,-7179.997637,383.047749,-222.061783
1461.289184,-8364.327145,1608.800546,222.061783
1461.289495,-10584.944971,536.266849,2812.782580
1461.289807,-11547.212695,-1915.238745,2738.761985
1461.290118,-10214.842000,-995.924147,-0.000000
1461.290430,-7846.182985,1915.238745,-666.185348
1461.290741,-7179.997637,1225.752797,-1110.308913
1461.291052,-10214.842000,153.219100,-2220.617826
1461.291364,-12953.603985,2834.553343,-1036.288319
1461.291675,-12953.603985,1685.410096,1776.494261
1461.291986,-12287.418637,-1991.848295,2146.597232
1461.292298,-8882.471304,-2451.505594,1850.514855
1461.292609,-4663.297435,612.876398,-296.082377
1461.292921,-1406.391290,612.876398,-444.123565
1461.293232,-2368.659014,-2145.067394,592.164754
1461.293543,-3627.009116,-1762.019645,2146.597232
1461.293855,-6365.771101,-229.828649,3256.906145
1461.294166,-9252.574275,-1915.238745,4515.256246
1461.294478,-9178.553681,-3140.991542,3182.885551
1461.294789,-6143.709319,-995.924147,888.247130
1461.295100,-4811.338623,689.485948,-296.082377
1461.295412,-5847.626942,-459.657299,-1480.411884
1461.295723,-8068.244768,0.000000,-740.205942
1461.296035,-11029.068536,1915.238745,444.123565
1461.296346,-11843.295072,153.219100,2886.803174
1461.296657,-11843.295072,-2374.896044,2072.576638
1461.296969,-9400.615463,-536.266849,1628.453072
1461.297280,-6217.729913,1685.410096,814.226536
1461.297592,-5477.523971,-536.266849,-296.082377
1461.297903,-8068.244768,-1991.848295,-518.144159
1461.298214,-9918.759623,1225.752797,-148.041188
1461.298526,-11917.315666,2298.286494,370.102971
1461.298837,-13471.748144,153.219100,592.164754
1461.299148,-11325.150913,-383.047749,-0.000000
1461.299460,-9030.512492,1455.581446,-888.247130
1461.299771,-8882.471304,612.876398,-666.185348
1461.300083,-10214.842000,0.000000,-666.185348
1461.300394,-11917.315666,2298.286494,-74.020594
1461.300705,-13841.851115,2068.457845,1776.494261
1461.301017,-14952.160028,-2068.457845,1924.535449
1461.301328,-12139.377449,-1302.362347,-0.000000
1461.301640,-8512.368333,2681.334243,-1998.556043
1461.301951,-5995.668130,2451.505594,-1406.391290
1461.302262,-6143.709319,-1149.143247,-1332.370696
1461.302574,-9622.677246,-766.095498,-0.000000
1461.302885,-10955.047942,1455.581446,2738.761985
1461.303197,-9104.533087,0.000000,3478.967927
1461.303508,-9104.533087,-1608.800546,2368.659014
1461.303819,-7105.977043,-229.828649,444.123565
1461.304131,-2812.782580,1991.848295,-592.164754
1461.304442,-2590.720797,459.657299,-2072.576638
1461.304754,-5403.503377,919.314598,-740.205942
1461.305065,-7402.059420,1455.581446,962.267725
1461.305376,-9252.574275,-1378.971896,2220.617826
1461.305688,-10436.903782,-4366.744339,3627.009116
1461.305999,-8142.265362,-4673.182538,2368.659014
1461.306310,-6365.771101,-1762.019645,518.144159
1461.306622,-5995.668130,-1378.971896,-444.123565
1461.306933,-8142.265362,-1991.848295,-1332.370696
1461.307245,-9178.553681,153.219100,-0.000000
1461.307556,-10066.800811,1838.629195,1480.411884
1461.307867,-11473.192101,-153.219100,1924.535449
1461.308179,-9474.636058,-842.705048,1332.370696
1461.308490,-5995.668130,1378.971896,148.041188
1461.308802,-4145.153275,2298.286494,-518.144159
1461.309113,-5773.606348,-153.219100,-1406.391290
1461.309424,-7994.224174,612.876398,-740.205942
1461.309736,-10807.006753,2681.334243,518.144159
1461.310047,-13545.768739,0.000000,1110.308913
1461.310359,-13989.892304,-3064.381992,222.061783
1461.310670,-11621.233289,-1149.143247,-0.000000
1461.310981,-11029.068536,306.438199,-2072.576638
1461.311293,-10955.047942,-383.047749,-1110.308913
1461.311604,-11695.253884,-306.438199,-1702.473667
1461.311916,-14063.912898,2374.896044,444.123565
1461.312227,-13175.665768,1838.629195,2960.823768
1461.312538,-11399.171507,-1302.362347,1924.535449
1461.312850,-7698.141797,153.219100,1258.350101
1461.313161,-5403.503377,2145.067394,-592.164754
1461.313472,-5329.482782,76.609550,-444.123565
1461.313784,-7550.100608,-1762.019645,-1998.556043
1461.314095,-9992.780217,2298.286494,-74.020594
1461.314407,-11843.295072,1532.190996,1924.535449
1461.314718,-14211.954086,-2757.943793,1924.535449
1461.315029,-12287.418637,-2298.286494,2220.617826
1461.315341,-6439.791695,1378.971896,296.082377
1461.315652,-3701.029710,1072.533697,-888.247130
1461.315964,-4515.256246,-459.657299,-1110.308913
1461.316275,-4959.379811,1838.629195,-0.000000
1461.316586,-7105.977043,1685.410096,2886.803174
1461.316898,-7402.059420,-1302.362347,4441.235652
1461.317209,-7179.997637,-3677.258390,4293.194464
1461.317521,-5033.400406,-1532.190996,2664.741391
1461.317832,-3108.864956,0.000000,1702.473667
1461.318143,-3627.009116,-1532.190996,-222.061783
1461.318455,-6069.688724,-2145.067394,-1110.308913
1461.318766,-8142.265362,0.000000,888.247130
1461.319078,-11917.315666,-1302.362347,2072.576638
1461.319389,-14137.933492,-3447.429741,1850.514855
1461.319700,-11843.295072,0.000000,370.102971
1461.320012,-8882.471304,3140.991542,222.061783
1461.320323,-7105.977043,1149.143247,-74.020594
1461.320634,-7105.977043,-383.047749,444.123565
1461.320946,-7402.059420,2068.457845,2072.576638
1461.321257,-7994.224174,2068.457845,1998.556043
1461.321569,-9400.615463,-383.047749,1258.350101
1461.321880,-8364.327145,229.828649,-370.102971
1461.322191,-7254.018232,3294.210641,-2220.617826
1461.322503,-8142.265362,2221.676944,-3108.864956
1461.322814,-11473.192101,-612.876398,-3552.988522
1461.323126,-14804.118840,1302.362347,-2368.659014
1461.323437,-17172.777854,2374.896044,-518.144159
1461.323748,-18505.148550,-306.438199,1998.556043
1461.324060,-15322.262999,-2604.724693,1628.453072
1461.324371,-9770.718434,0.000000,962.267725
1461.324683,-6587.832884,1072.533697,888.247130
1461.324994,-5181.441594,-995.924147,-74.020594
1461.325305,-5403.503377,612.876398,296.082377
1461.325617,-8882.471304,2145.067394,2072.576638
1461.325928,-10732.986159,-1072.533697,2664.741391
1461.326240,-10510.924376,-2451.505594,-0.000000
1461.326551,-7179.997637,536.266849,-518.144159
1461.326862,-4737.318029,1532.190996,-592.164754
1461.327174,-5699.585753,-2374.896044,-962.267725
1461.327485,-7698.141797,-2451.505594,-1258.350101
1461.327796,-9474.636058,229.828649,740.205942
1461.328108,-8586.388927,-689.485948,2738.761985
1461.328419,-11325.150913,-3294.210641,2960.823768
1461.328731,-9622.677246,-1685.410096,2590.720797
1461.329042,-4663.297435,0.000000,1406.391290
1461.329353,-3478.967927,-919.314598,444.123565
1461.329665,-3108.864956,-1378.971896,1554.432478
1461.329976,-6513.812290,-612.876398,1184.329507
1461.330288,-8068.244768,-1608.800546,3330.926739
1461.330599,-9030.512492,-3524.039291,2442.679609
1461.330910,-9178.553681,-2145.067394,-0.000000
1461.331222,-7105.977043,1762.019645,-1554.432478
1461.331533,-7105.977043,2451.505594,-1924.535449
1461.331845,-9252.574275,-306.438199,-1184.329507
1461.332156,-11843.295072,153.219100,-222.061783
1461.332467,-13175.665768,2757.943793,2072.576638
1461.332779,-13989.892304,919.314598,3330.926739
1461.333090,-12361.439231,-2221.676944,1258.350101
1461.333401,-8512.368333,383.047749,-296.082377
1461.333713,-6143.709319,2757.943793,-1776.494261
1461.334024,-6217.729913,1378.971896,-1702.473667
1461.334336,-8512.368333,306.438199,-888.247130
1461.334647,-11547.212695,1838.629195,296.082377
1461.334958,-13323.706956,1072.533697,1554.432478
1461.335270,-13619.789333,-1378.971896,1406.391290
1461.335581,-10510.924376,-459.657299,222.061783
1461.335893,-7476.080014,1455.581446,-1036.288319
1461.336204,-5921.647536,-306.438199,-1184.329507
1461.336515,-7920.203579,-2834.553343,-1258.350101
1461.336827,-10510.924376,-536.266849,370.102971
1461.337138,-9992.780217,383.047749,3034.844362
1461.337450,-10510.924376,-4979.620737,2516.700203
1461.337761,-9178.553681,-8044.002729,2146.597232
1461.338072,-5699.585753,-6435.202183,888.247130
1461.338384,-4811.338623,-4673.182538,-74.020594
1461.338696,-5551.544565,-5592.497135,148.041188
1461.339008,-8586.388927,-4596.572988,1258.350101
1461.339319,-10955.047942,-3600.648841,2812.782580
1461.339631,-11621.233289,-5132.839837,2442.679609
1461.339942,-9252.574275,-3677.258390,1702.473667
1461.340253,-6587.832884,1072.533697,-0.000000
1461.340565,-4071.132681,919.314598,-1406.391290
1461.340876,-3034.844362,-1915.238745,-1776.494261
1461.341188,-5699.585753,-3600.648841,-888.247130
1461.341499,-8438.347739,-1302.362347,666.185348
1461.341811,-10658.965565,0.000000,1406.391290
1461.342122,-10881.027347,-2145.067394,1776.494261
1461.342433,-10881.027347,-3983.696590,296.082377
1461.342745,-8438.347739,-2681.334243,-1628.453072
1461.343056,-5625.565159,-612.876398,-1702.473667
1461.343368,-8364.327145,-3064.381992,-1406.391290
1461.343679,-11399.171507,-4060.306139,888.247130
1461.343991,-12213.398043,-4366.744339,2590.720797
1461.344302,-11695.253884,-5515.887586,2368.659014
1461.344613,-9696.697840,-6435.202183,2516.700203
1461.344925,-8512.368333,-4749.792088,296.082377
1461.345236,-6661.853478,-2757.943793,-2294.638420
1461.345548,-6069.688724,-3294.210641,-2516.700203
1461.345859,-9918.759623,-3600.648841,-814.226536
1461.346171,-15026.180623,-2374.896044,1332.370696
1461.346482,-17098.757260,-1608.800546,1998.556043
1461.346793,-15544.324782,-2145.067394,3256.906145
1461.347105,-11547.212695,-2451.505594,1628.453072
1461.347416,-7698.141797,-1072.533697,-148.041188
1461.347728,-4885.359217,-766.095498,-2442.679609
1461.348039,-2442.679609,-1378.971896,-3627.009116
1461.348351,-2368.659014,-1302.362347,-888.247130
1461.348662,-6957.935855,-1762.019645,740.205942
1461.348973,-11769.274478,-3830.477490,2072.576638
1461.349285,-12583.501014,-3753.867940,3256.906145
1461.349596,-10955.047942,-2221.676944,3552.988522
1461.349908,-7105.977043,-306.438199,1998.556043
1461.350219,-6069.688724,-1991.848295,-0.000000
1461.350530,-7179.997637,-3064.381992,-1332.370696
1461.350842,-4589.276840,-2604.724693,-666.185348
1461.351153,-3256.906145,-1608.800546,592.164754
1461.351465,-6365.771101,-3217.601092,1628.453072
1461.351776,-10362.883188,-5132.839837,2590.720797
1461.352088,-10362.883188,-7507.735880,3552.988522
1461.352399,-7994.224174,-6741.640382,3108.864956
1461.352710,-6735.874072,-5515.887586,2442.679609
1461.353022,-6883.915261,-6358.592633,148.041188
1461.353333,-7772.162391,-8503.660028,-1406.391290
1461.353645,-6365.771101,-8273.831378,-666.185348
1461.353956,-5995.668130,-4366.744339,-888.247130
1461.354268,-8438.347739,-1838.629195,-0.000000
1461.354579,-11843.295072,-2757.943793,2368.659014
1461.354890,-13471.748144,-5745.716235,3478.967927
1461.355202,-11769.274478,-4290.134789,3552.988522
1461.355513,-9992.780217,0.000000,1924.535449
1461.355825,-8586.388927,229.828649,-222.061783
1461.356136,-7698.141797,-2528.115143,-2664.741391
1461.356448,-6735.874072,-3064.381992,-4367.215058
1461.356759,-6735.874072,-1149.143247,-4737.318029
1461.357070,-10066.800811,536.266849,-3849.070898
1461.357382,-14582.057057,229.828649,-1332.370696
1461.357693,-15692.365970,-1072.533697,2294.638420
1461.358005,-16506.592507,-2987.772442,2812.782580
1461.358316,-15840.407159,-3677.258390,2442.679609
1461.358628,-12583.501014,-842.705048,1184.329507
1461.358939,-8364.327145,1915.238745,-74.020594
1461.359250,-2960.823768,1608.800546,-1184.329507
1461.359562,-2516.700203,-2298.286494,-1998.556043
1461.359873,-3627.009116,-4136.915689,-1554.432478
1461.360185,-4663.297435,-3294.210641,-1036.288319
1461.360496,-7402.059420,-1838.629195,-0.000000
1461.360808,-10140.821405,-2451.505594,666.185348
1461.361119,-14285.974681,-2374.896044,1628.453072
1461.361430,-15100.201217,-2757.943793,2738.761985
1461.361742,-12287.418637,-3600.648841,2738.761985
1461.362053,-9548.656652,-3140.991542,2886.803174
1461.362365,-6809.894666,-1532.190996,1554.432478
1461.362676,-5181.441594,-1915.238745,740.205942
1461.362988,-3108.864956,-2681.334243,222.061783
1461.363299,-444.123565,-3217.601092,1110.308913
1461.363610,0.000000,-4903.011187,370.102971
1461.363922,-1998.556043,-7048.078582,-74.020594
1461.364233,-6513.812290,-5515.887586,666.185348
1461.364545,-10214.842000,-3524.039291,888.247130
1461.364856,-12287.418637,-1991.848295,1998.556043
1461.365168,-14285.974681,-3370.820191,2812.782580
1461.365479,-14137.933492,-4826.401637,3701.029710
1461.365790,-13027.624579,-4366.744339,3552.988522
1461.366102,-11177.109724,-3370.820191,1480.411884
1461.366413,-8438.347739,-1838.629195,518.144159
1461.366725,-6143.709319,-1149.143247,-1776.494261
1461.367036,-3478.967927,-2451.505594,-1406.391290
1461.367348,-2294.638420,-3447.429741,-1554.432478
1461.367659,-3849.070898,-4903.011187,-1258.350101
1461.367970,-5699.585753,-5592.497135,-518.144159
1461.368282,-9030.512492,-5515.887586,-0.000000
1461.368593,-12953.603985,-5745.716235,518.144159
1461.368905,-15840.407159,-5132.839837,1850.514855
1461.369216,-18357.107362,-4519.963438,2368.659014
1461.369528,-18135.045579,-4903.011187,2960.823768
1461.369839,-15840.407159,-4366.744339,2220.617826
1461.370150,-11621.233289,-4213.525239,1924.535449
1461.370462,-7624.121203,-5132.839837,962.267725
1461.370773,-4367.215058,-6894.859482,-0.000000
1461.371085,-1998.556043,-6358.592633,-1332.370696
1461.371396,-3627.009116,-4749.792088,-2516.700203
1461.371708,-5107.421000,-3447.429741,-1924.535449
1461.372019,-7846.182985,-2298.286494,-1924.535449
1461.372330,-11251.130318,-2068.457845,-0.000000
1461.372642,-14508.036463,-2068.457845,1332.370696
1461.372953,-15470.304188,-1225.752797,1702.473667
1461.373265,-14063.912898,-612.876398,1480.411884
1461.373576,-10881.027347,0.000000,1036.288319
1461.373888,-7846.182985,0.000000,-592.164754
1461.374199,-5921.647536,0.000000,-1776.494261
1461.374510,-4071.132681,383.047749,-814.226536
1461.374822,-3108.864956,383.047749,-814.226536
1461.375133,-4145.153275,-153.219100,-222.061783
1461.375445,-4589.276840,-1685.410096,444.123565
1461.375756,-5329.482782,-3600.648841,592.164754
1461.376068,-6069.688724,-4826.401637,1036.288319
1461.376379,-7105.977043,-3294.210641,592.164754
1461.376690,-10436.903782,-4136.915689,1110.308913
1461.377002,-12805.562797,-4366.744339,1184.329507
1461.377313,-13915.871710,-2834.553343,1924.535449
1461.377625,-12953.603985,-1991.848295,2146.597232
1461.377936,-10584.944971,-2681.334243,1998.556043
1461.378248,-7550.100608,-2528.115143,1184.329507
1461.378559,-5107.421000,-2451.505594,814.226536
1461.378870,-3478.967927,-1915.238745,-148.041188
1461.379182,-4145.153275,-1378.971896,-740.205942
1461.379493,-4885.359217,-1532.190996,-370.102971
1461.379805,-5847.626942,-2221.676944,-74.020594
1461.380116,-8142.265362,-3600.648841,370.102971
1461.380428,-10584.944971,-4366.744339,962.267725
1461.380739,-12509.480420,-5209.449386,1850.514855
1461.381050,-13249.686362,-6511.811733,2886.803174
1461.381362,-13101.645173,-6435.202183,2812.782580
1461.381673,-13545.768739,-5822.325785,1998.556043
1461.381985,-13027.624579,-3064.381992,666.185348
1461.382296,-10807.006753,-1685.410096,148.041188
1461.382608,-7920.203579,153.219100,-370.102971
1461.382919,-5847.626942,766.095498,-814.226536
1461.383230,-5625.565159,229.828649,-74.020594
1461.383542,-5921.647536,-1225.752797,-74.020594
1461.383853,-6735.874072,-1455.581446,888.247130
1461.384165,-7698.141797,-2604.724693,1258.350101
1461.384476,-10214.842000,-4060.306139,1036.288319
1461.384788,-11843.295072,-4826.401637,1036.288319
1461.385099,-13249.686362,-4903.011187,1036.288319
1461.385410,-13323.706956,-4979.620737,888.247130
1461.385722,-12361.439231,-5209.449386,296.082377
1461.386033,-10436.903782,-4979.620737,962.267725
1461.386345,-8586.388927,-4979.620737,296.082377
1461.386656,-6439.791695,-3524.039291,148.041188
1461.386968,-5107.421000,-3217.601092,370.102971
1461.387279,-4811.338623,-2604.724693,-0.000000
1461.387590,-5403.503377,-2221.676944,148.041188
1461.387902,-6143.709319,-1532.190996,962.267725
1461.388213,-7402.059420,-1838.629195,1036.288319
1461.388525,-8364.327145,-2681.334243,1332.370696
1461.388836,-10436.903782,-3370.820191,740.205942
1461.389148,-10362.883188,-3370.820191,1184.329507
1461.389459,-10881.027347,-2221.676944,-370.102971
1461.389770,-8734.430116,-1225.752797,-222.061783
1461.390082,-8882.471304,-1838.629195,-1332.370696
1461.390393,-8142.265362,-1991.848295,-814.226536
1461.390705,-5847.626942,-1608.800546,-666.185348
1461.391016,-6217.729913,-2298.286494,-592.164754
1461.391328,-7476.080014,-3064.381992,1184.329507
1461.391639,-10362.883188,-4290.134789,1332.370696
1461.391950,-10732.986159,-2987.772442,2294.638420
1461.392262,-10732.986159,-1302.362347,1924.535449
1461.392573,-10658.965565,-2528.115143,2368.659014
1461.392885,-10436.903782,-3064.381992,1258.350101
1461.393196,-9696.697840,-3907.087040,814.226536
1461.393508,-9252.574275,-1915.238745,666.185348
1461.393819,-9844.739029,0.000000,222.061783
1461.394130,-11843.295072,536.266849,370.102971
1461.394442,-11103.089130,1072.533697,1110.308913
1461.394753,-9696.697840,-383.047749,1480.411884
1461.395065,-7772.162391,-306.438199,2220.617826
1461.395376,-6587.832884,306.438199,2812.782580
1461.395688,-7920.203579,-2221.676944,2738.761985
1461.395999,-7920.203579,-4366.744339,4589.276840
1461.396310,-9622.677246,-4596.572988,4441.235652
1461.396622,-9548.656652,-1762.019645,5995.668130
1461.396933,-12139.377449,-1378.971896,4663.297435
1461.397245,-11843.295072,-1762.019645,5699.585753
1461.397556,-8438.347739,-536.266849,3775.050304
1461.397868,-6587.832884,1072.533697,3034.844362
1461.398179,-5551.544565,2604.724693,2664.741391
1461.398490,-5847.626942,612.876398,2368.659014
1461.398802,-7624.121203,-536.266849,2516.700203
1461.399113,-5551.544565,459.657299,5477.523971
1461.399425,-8734.430116,-383.047749,4145.153275
1461.399736,-11251.130318,-766.095498,6217.729913
1461.400048,-10881.027347,-383.047749,7105.977043
1461.400359,-9622.677246,-2145.067394,6069.688724
1461.400670,-7772.162391,-1225.752797,6069.688724
1461.400982,-8512.368333,-995.924147,4515.256246
1461.401293,-6957.935855,1072.533697,4885.359217
1461.401605,-5995.668130,1225.752797,3552.988522
1461.401916,-5551.544565,1225.752797,3923.091493
1461.402228,-6883.915261,2374.896044,3849.070898
1461.402539,-8956.491898,1991.848295,4663.297435
1461.402850,-8808.450710,1532.190996,5033.400406
1461.403162,-8142.265362,0.000000,5255.462188
1461.403473,-7772.162391,-842.705048,5329.482782
1461.403785,-8290.306550,-1838.629195,4737.318029
1461.404096,-8660.409521,-2681.334243,4959.379811
1461.404408,-7846.182985,-1685.410096,4811.338623
1461.404719,-7846.182985,-153.219100,5033.400406
1461.405030,-8734.430116,612.876398,3849.070898
1461.405342,-10288.862594,766.095498,3552.988522
1461.405653,-9548.656652,1762.019645,3775.050304
1461.405965,-8438.347739,2374.896044,3627.009116
1461.406276,-8956.491898,842.705048,2590.720797
1461.406588,-7920.203579,-306.438199,2368.659014
1461.406899,-7254.018232,-612.876398,1702.473667
1461.407210,-5699.585753,-612.876398,1850.514855
1461.407522,-6069.688724,-1378.971896,1998.556043
1461.407833,-8364.327145,-766.095498,1850.514855
1461.408145,-10436.903782,-536.266849,2886.803174
1461.408456,-11621.233289,229.828649,3478.967927
1461.408768,-11917.315666,229.828649,3256.906145
1461.409079,-11769.274478,1302.362347,2738.761985
1461.409390,-11177.109724,1072.533697,1406.391290
1461.409702,-9770.718434,1225.752797,666.185348
1461.410013,-8512.368333,1762.019645,-0.000000
1461.410325,-8660.409521,1455.581446,666.185348
1461.410636,-10066.800811,0.000000,1702.473667
1461.410948,-10955.047942,-2451.505594,2960.823768
1461.411259,-10955.047942,-2604.724693,3849.070898
1461.411570,-9770.718434,-2374.896044,4367.215058
1461.411882,-8808.450710,-2221.676944,4071.132681
1461.412193,-8142.265362,-2145.067394,3182.885551
1461.412505,-6587.832884,-995.924147,2368.659014
1461.412816,-5921.647536,459.657299,592.164754
1461.413128,-7624.121203,689.485948,740.205942
1461.413439,-9400.615463,919.314598,1036.288319
1461.413750,-11843.295072,919.314598,2368.659014
1461.414062,-13323.706956,766.095498,3701.029710
1461.414373,-12731.542202,0.000000,4959.379811
1461.414685,-12805.562797,-766.095498,4885.359217
1461.414996,-10362.883188,-1149.143247,5551.544565
1461.415308,-7105.977043,-2374.896044,4293.194464
1461.415619,-3775.050304,-2145.067394,3034.844362
1461.415930,-2590.720797,-1915.238745,2368.659014
1461.416242,-3997.112087,-995.924147,1702.473667
1461.416553,-7031.956449,229.828649,2368.659014
1461.416865,-9770.718434,1762.019645,4293.194464
1461.417176,-12657.521608,2757.943793,5329.482782
1461.417488,-14211.954086,2911.162892,6587.832884
1461.417799,-12583.501014,1378.971896,6291.750507
1461.418110,-8734.430116,383.047749,5551.544565
1461.418422,-4663.297435,459.657299,4071.132681
1461.418733,-2590.720797,536.266849,1850.514855
1461.419045,-2220.617826,612.876398,1184.329507
1461.419356,-3182.885551,842.705048,1628.453072
1461.419668,-6365.771101,842.705048,2442.679609
1461.419979,-10658.965565,1225.752797,4367.215058
1461.420290,-14063.912898,1532.190996,5107.421000
1461.420602,-13915.871710,1072.533697,5699.585753
1461.420913,-10732.986159,-229.828649,5181.441594
1461.421225,-7624.121203,-1838.629195,3552.988522
1461.421536,-5033.400406,-1991.848295,2442.679609
1461.421847,-5403.503377,-1455.581446,2442.679609
1461.422159,-7402.059420,-1225.752797,4145.153275
1461.422470,-10214.842000,-459.657299,5921.647536
1461.422782,-13989.892304,-689.485948,7328.038826
1461.423093,-14211.954086,-612.876398,8290.306550
1461.423405,-12657.521608,-153.219100,6365.771101
1461.423716,-8216.285956,1455.581446,3256.906145
1461.424027,-4145.153275,2987.772442,296.082377
1461.424339,-3108.864956,3370.820191,-1850.514855
1461.424650,-4737.318029,1608.800546,-1036.288319
1461.424962,-8068.244768,1225.752797,1036.288319
1461.425273,-12361.439231,1455.581446,3997.112087
1461.425585,-15248.242405,-383.047749,7105.977043
1461.425896,-16062.468941,-2911.162892,8438.347739
1461.426207,-13915.871710,-4136.915689,9252.574275
1461.426519,-10584.944971,-3447.429741,8734.430116
1461.426830,-6809.894666,-2145.067394,7105.977043
1461.427142,-3775.050304,-1225.752797,4885.359217
1461.427453,-2664.741391,-306.438199,2146.597232
1461.427765,-2220.617826,1532.190996,1332.370696
1461.428076,-3108.864956,2757.943793,370.102971
1461.428387,-5477.523971,3140.991542,666.185348
1461.428699,-7550.100608,2451.505594,1924.535449
1461.429010,-9918.759623,689.485948,3404.947333
1461.429322,-11325.150913,-995.924147,4885.359217
1461.429633,-13619.789333,-1532.190996,5699.585753
1461.429945,-14063.912898,-612.876398,6513.812290
1461.430256,-12583.501014,76.609550,5847.626942
1461.430567,-10214.842000,76.609550,5551.544565
1461.430879,-7772.162391,-229.828649,4441.235652
1461.431190,-4811.338623,536.266849,3552.988522
1461.431502,-2220.617826,842.705048,2442.679609
1461.431813,-814.226536,689.485948,1332.370696
1461.432125,-2220.617826,459.657299,740.205942
1461.432436,-4737.318029,0.000000,-148.041188
1461.432747,-7920.203579,0.000000,-0.000000
1461.433059,-12435.459826,-689.485948,1628.453072
1461.433370,-15914.427753,-1149.143247,4145.153275
1461.433682,-19023.292709,-1072.533697,6217.729913
1461.433993,-20651.745782,-1455.581446,7031.956449
1461.434305,-17246.798449,-383.047749,7772.162391
1461.434616,-12583.501014,-766.095498,6587.832884
1461.434927,-6735.874072,-766.095498,5255.462188
1461.435239,-1702.473667,0.000000,1850.514855
1461.435550,1480.411884,383.047749,-1628.453072
1461.435862,2886.803174,1532.190996,-3997.112087
1461.436173,518.144159,1455.581446,-3923.091493
1461.436485,-5477.523971,919.314598,-2294.638420
1461.436796,-13249.686362,612.876398,2220.617826
1461.437107,-22798.343014,-383.047749,6291.750507
1461.437419,-26425.352129,-842.705048,11177.109724
1461.437730,-23242.466579,-2221.676944,11473.192101
1461.438042,-15396.283594,-3217.601092,8808.450710
1461.438353,-5921.647536,-1915.238745,5773.606348
1461.438665,1702.473667,-842.705048,1110.308913
1461.438976,6069.688724,0.000000,-2664.741391
1461.439287,4737.318029,1149.143247,-3701.029710
1461.439599,-1480.411884,2298.286494,-2738.761985
1461.439910,-7254.018232,1685.410096,518.144159
1461.440222,-13693.809927,1225.752797,2516.700203
1461.440533,-18283.086767,1225.752797,4737.318029
1461.440845,-18949.272115,229.828649,6883.915261
1461.441156,-15618.345376,-1302.362347,7328.038826
1461.441468,-11695.253884,-2145.067394,7254.018232
1461.441779,-8586.388927,-1225.752797,5181.441594
1461.442090,-3478.967927,-766.095498,2738.761985
1461.442402,518.144159,919.314598,888.247130
1461.442713,2146.597232,2374.896044,-444.123565
1461.443025,-962.267725,2451.505594,-74.020594
1461.443336,-6365.771101,2068.457845,1406.391290
1461.443648,-11399.171507,1455.581446,2368.659014
1461.443959,-14211.954086,2068.457845,3552.988522
1461.444270,-14211.954086,919.314598,3775.050304
1461.444582,-13101.645173,-1685.410096,3552.988522
1461.444893,-10584.944971,-3294.210641,2146.597232
1461.445205,-8364.327145,-2068.457845,2220.617826
1461.445516,-9622.677246,0.000000,4589.276840
1461.445828,-12805.562797,-229.828649,7179.997637
1461.446139,-14804.118840,-1455.581446,8660.409521
1461.446450,-13619.789333,-1685.410096,7994.224174
1461.446762,-8290.306550,-229.828649,6291.750507
1461.447073,-3330.926739,995.924147,518.144159
1461.447385,0.000000,2604.724693,-2442.679609
1461.447696,-592.164754,2298.286494,-3478.967927
1461.448008,-5181.441594,459.657299,-370.102971
1461.448319,-11695.253884,-1072.533697,4441.235652
1461.448631,-18061.024985,-1915.238745,8956.491898
1461.448942,-21391.951724,-2221.676944,12805.562797
1461.449253,-17542.880825,-3753.867940,12583.501014
1461.449565,-10066.800811,-4673.182538,9696.697840
1461.449876,-3404.947333,-2068.457845,5551.544565
1461.450188,888.247130,1225.752797,814.226536
1461.450499,2664.741391,3447.429741,-1406.391290
1461.450811,1924.535449,4596.572988,-3330.926739
1461.451122,-2664.741391,4443.353888,-2294.638420
1461.451433,-7254.018232,3677.258390,-592.164754
1461.451745,-10288.862594,1762.019645,1554.432478
1461.452056,-11843.295072,842.705048,3849.070898
1461.452368,-11917.315666,-2298.286494,4293.194464
1461.452679,-12139.377449,-3600.648841,5403.503377
1461.452991,-11843.295072,-2604.724693,4367.215058
1461.453302,-10955.047942,153.219100,3552.988522
1461.453613,-9474.636058,995.924147,3478.967927
1461.453925,-8438.347739,1762.019645,740.205942
1461.454236,-6661.853478,2145.067394,518.144159
1461.454548,-3997.112087,612.876398,-2812.782580
1461.454859,-962.267725,0.000000,-4071.132681
1461.455171,-592.164754,383.047749,-6439.791695
1461.455482,-5255.462188,919.314598,-3849.070898
1461.455793,-13915.871710,-1378.971896,-1628.453072
1461.456105,-18875.251521,-2451.505594,1924.535449
1461.456416,-21465.972318,-3140.991542,3627.009116
1461.456728,-19911.539840,-1838.629195,3478.967927
1461.457039,-13915.871710,-2451.505594,1998.556043
1461.457351,-8586.388927,-2451.505594,-814.226536
1461.457662,-6587.832884,-919.314598,-2738.761985
1461.457974,-5107.421000,306.438199,-3775.050304
1461.458285,-6957.935855,689.485948,-3182.885551
1461.458596,-10658.965565,1838.629195,-2294.638420
1461.458908,-11621.233289,153.219100,-1850.514855
1461.459219,-10214.842000,-1225.752797,-3552.988522
1461.459531,-7624.121203,-153.219100,-4219.173869
1461.459842,-5921.647536,383.047749,-3849.070898
1461.460154,-7105.977043,-306.438199,-2960.823768
1461.460465,-9844.739029,-1532.190996,-0.000000
1461.460776,-11251.130318,-2528.115143,2664.741391
1461.461088,-11769.274478,-2681.334243,1554.432478
1461.461399,-11399.171507,0.000000,1332.370696
1461.461711,-8882.471304,3830.477490,-1184.329507
1461.462022,-8216.285956,4290.134789,-3997.112087
1461.462334,-7254.018232,2987.772442,-4959.379811
1461.462645,-7920.203579,2604.724693,-4515.256246
1461.462956,-6957.935855,1838.629195,-3034.844362
1461.463268,-5847.626942,-306.438199,-222.061783
1461.463579,-8882.471304,-3753.867940,-74.020594
1461.463891,-8956.491898,-4366.744339,2368.659014
1461.464202,-9252.574275,-2374.896044,3182.885551
1461.464514,-10066.800811,-1225.752797,4071.132681
1461.464825,-10584.944971,0.000000,5181.441594
1461.465137,-12361.439231,-306.438199,3849.070898
1461.465448,-10140.821405,459.657299,2368.659014
1461.465759,-7254.018232,1608.800546,-148.041188
1461.466071,-3701.029710,2374.896044,-2442.679609
1461.466382,-2368.659014,2528.115143,-3775.050304
1461.466694,-3849.070898,766.095498,-3923.091493
1461.467005,-7476.080014,0.000000,-1406.391290
1461.467317,-11917.315666,-306.438199,1998.556043
1461.467628,-15322.262999,-1532.190996,5477.523971
1461.467939,-16136.489536,-2451.505594,6661.853478
1461.468251,-14434.015869,-2374.896044,6365.771101
1461.468562,-10584.944971,-1608.800546,4885.359217
1461.468874,-5847.626942,842.705048,2220.617826
1461.469185,-3478.967927,2221.676944,814.226536
1461.469497,-3701.029710,1762.019645,-296.082377
1461.469808,-5551.544565,1149.143247,222.061783
1461.470119,-7254.018232,1532.190996,1036.288319
1461.470431,-9844.739029,2145.067394,1554.432478
1461.470742,-10658.965565,536.266849,1776.494261
1461.471054,-10584.944971,-766.095498,1110.308913
1461.471365,-10732.986159,612.876398,2738.761985
1461.471677,-11843.295072,459.657299,5107.421000
1461.471988,-11991.336260,-1838.629195,6069.688724
1461.472300,-9696.697840,-4749.792088,4145.153275
1461.472611,-6217.729913,-3217.601092,2220.617826
1461.472922,-3478.967927,919.314598,222.061783
1461.473234,-4515.256246,2681.334243,296.082377
1461.473545,-6735.874072,2834.553343,-0.000000
1461.473857,-10288.862594,919.314598,-0.000000
1461.474168,-9918.759623,-766.095498,2812.782580
1461.474480,-7328.038826,-2145.067394,2812.782580
1461.474791,-7105.977043,-1838.629195,2146.597232
1461.475102,-6291.750507,-2451.505594,296.082377
1461.475414,-5625.565159,-2681.334243,-1776.494261
1461.475725,-5477.523971,-919.314598,-1554.432478
1461.476037,-8364.327145,2145.067394,148.041188
1461.476348,-13471.748144,1302.362347,518.144159
1461.476660,-14211.954086,-229.828649,296.082377
1461.476971,-12139.377449,842.705048,-814.226536
1461.477282,-9400.615463,2528.115143,-1554.432478
1461.477594,-7105.977043,2528.115143,-2368.659014
1461.477905,-5329.482782,1838.629195,-4145.153275
1461.478217,-4145.153275,1149.143247,-5107.421000
1461.478528,-4293.194464,0.000000,-3775.050304
1461.478840,-6735.874072,-536.266849,-1998.556043
1461.479151,-10140.821405,-1225.752797,-962.267725
1461.479462,-12731.542202,-1608.800546,-0.000000
1461.479774,-14804.118840,-2528.115143,296.082377
1461.480085,-15174.221811,-1532.190996,-0.000000
1461.480397,-13767.830521,1149.143247,-962.267725
1461.480708,-11621.233289,1991.848295,-2442.679609
1461.481020,-10584.944971,536.266849,-3108.864956
1461.481331,-9104.533087,-536.266849,-3330.926739
1461.481643,-7624.121203,-919.314598,-3404.947333
1461.481954,-6587.832884,-1072.533697,-2146.597232
1461.482265,-7402.059420,-1608.800546,-1184.329507
1461.482577,-8438.347739,-1991.848295,-74.020594
1461.482888,-10436.903782,-1378.971896,1110.308913
1461.483200,-12361.439231,-995.924147,1332.370696
1461.483511,-12139.377449,0.000000,1924.535449
1461.483823,-11251.130318,76.609550,222.061783
1461.484134,-9844.739029,383.047749,-444.123565
1461.484445,-8512.368333,842.705048,-1184.329507
1461.484757,-7994.224174,1455.581446,-1332.370696
1461.485068,-8512.368333,1838.629195,-0.000000
1461.485380,-9474.636058,766.095498,1554.432478
1461.485691,-9992.780217,-1302.362347,3701.029710
1461.486003,-10066.800811,-1685.410096,4515.256246
1461.486314,-8882.471304,-2604.724693,4293.194464
1461.486625,-7105.977043,-1991.848295,2886.803174
1461.486937,-6661.853478,-1378.971896,1924.535449
1461.487248,-7772.162391,1149.143247,1406.391290
1461.487560,-9104.533087,2068.457845,2368.659014
1461.487871,-10584.944971,1608.800546,3478.967927
1461.488183,-9030.512492,-383.047749,3330.926739
1461.488494,-5477.523971,-1072.533697,1036.288319
1461.488806,-3034.844362,1378.971896,518.144159
1461.489117,-4663.297435,2757.943793,962.267725
1461.489428,-7772.162391,1915.238745,888.247130
1461.489740,-10436.903782,842.705048,1998.556043
1461.490051,-12213.398043,383.047749,3775.050304
1461.490363,-9844.739029,-383.047749,4737.318029
1461.490674,-6365.771101,-689.485948,2220.617826
1461.490986,-4959.379811,-1685.410096,-0.000000
1461.491297,-3701.029710,-1378.971896,-1406.391290
1461.491608,-3849.070898,-842.705048,-2072.576638
1461.491920,-5625.565159,766.095498,-370.102971
1461.492231,-8660.409521,995.924147,-148.041188
1461.492543,-11325.150913,-383.047749,592.164754
1461.492854,-11695.253884,306.438199,962.267725
1461.493166,-12139.377449,1762.019645,1480.411884
1461.493477,-11325.150913,2221.676944,1258.350101
1461.493788,-9992.780217,919.314598,370.102971
1461.494100,-8586.388927,0.000000,-1036.288319
1461.494411,-7105.977043,-153.219100,-1554.432478
1461.494723,-8586.388927,-229.828649,-1480.411884
1461.495034,-9770.718434,-1608.800546,-148.041188
1461.495346,-9992.780217,-1608.800546,148.041188
1461.495657,-11621.233289,-2528.115143,222.061783
1461.495969,-12139.377449,-2604.724693,1332.370696
1461.496280,-11251.130318,-1302.362347,592.164754
1461.496591,-9030.512492,-689.485948,666.185348
1461.496903,-8660.409521,-1149.143247,-0.000000
1461.497214,-8216.285956,-1225.752797,666.185348
1461.497526,-9104.533087,-1532.190996,1258.350101
1461.497837,-9474.636058,-919.314598,666.185348
1461.498149,-9992.780217,536.266849,-0.000000
1461.498460,-10807.006753,1915.238745,-1406.391290
1461.498771,-10658.965565,3064.381992,444.123565
1461.499083,-11325.150913,1685.410096,-148.041188
1461.499394,-12065.356855,153.219100,222.061783
1461.499706,-9474.636058,-153.219100,-0.000000
1461.500017,-7031.956449,919.314598,-222.061783
1461.500329,-4885.359217,1302.362347,666.185348
1461.500640,-4885.359217,-153.219100,-444.123565
1461.500951,-4663.297435,153.219100,222.061783
1461.501263,-5773.606348,536.266849,1184.329507
1461.501574,-7994.224174,689.485948,2960.823768
1461.501886,-8808.450710,229.828649,3182.885551
1461.502197,-9992.780217,-306.438199,1850.514855
1461.502509,-9252.574275,0.000000,962.267725
1461.502820,-7624.121203,1072.533697,-666.185348
1461.503131,-7550.100608,2681.334243,-814.226536
1461.503443,-8512.368333,1762.019645,-1036.288319
1461.503754,-9992.780217,459.657299,592.164754
1461.504066,-10510.924376,-1762.019645,1554.432478
1461.504377,-9474.636058,-1608.800546,2442.679609
1461.504689,-8290.306550,-689.485948,1258.350101
1461.505000,-7698.141797,-612.876398,1702.473667
1461.505312,-7772.162391,-1991.848295,518.144159
1461.505623,-7031.956449,-2145.067394,962.267725
1461.505934,-8216.285956,-995.924147,1258.350101
1461.506246,-9178.553681,-1685.410096,1184.329507
1461.506557,-9622.677246,-2221.676944,1776.494261
1461.506869,-10214.842000,-2298.286494,370.102971
1461.507180,-9770.718434,-689.485948,-148.041188
1461.507492,-9474.636058,-919.314598,-444.123565
1461.507803,-9104.533087,766.095498,-814.226536
1461.508114,-10066.800811,1378.971896,-666.185348
1461.508426,-11547.212695,689.485948,296.082377
1461.508737,-12583.501014,0.000000,814.226536
1461.509049,-12361.439231,0.000000,1332.370696
1461.509360,-10510.924376,459.657299,148.041188
1461.509672,-8586.388927,0.000000,-962.267725
1461.509983,-6661.853478,1072.533697,-2368.659014
1461.510294,-5773.606348,1149.143247,-1850.514855
1461.510606,-7698.141797,459.657299,-444.123565
1461.510917,-9622.677246,-383.047749,740.205942
1461.511229,-10510.924376,-995.924147,962.267725
1461.511540,-9474.636058,0.000000,962.267725
1461.511852,-8438.347739,1532.190996,296.082377
1461.512163,-7624.121203,1991.848295,-888.247130
1461.512475,-7550.100608,1685.410096,-1110.308913
1461.512786,-8364.327145,1532.190996,-0.000000
1461.513097,-9548.656652,229.828649,1406.391290
1461.513409,-10214.842000,-919.314598,1110.308913
1461.513720,-9104.533087,-1225.752797,1184.329507
1461.514032,-7846.182985,-612.876398,592.164754
1461.514343,-7105.977043,76.609550,-370.102971
1461.514655,-7328.038826,1302.362347,740.205942
1461.514966,-8290.306550,229.828649,1628.453072
1461.515277,-8512.368333,-1455.581446,2812.782580
1461.515589,-7031.956449,-2221.676944,2072.576638
1461.515900,-7328.038826,0.000000,1850.514855
1461.516212,-8512.368333,1915.238745,1480.411884
1461.516523,-9622.677246,1302.362347,1850.514855
1461.516835,-10807.006753,919.314598,2442.679609
1461.517146,-11029.068536,-842.705048,3034.844362
1461.517457,-10807.006753,-766.095498,4293.194464
1461.517769,-8512.368333,-1225.752797,3478.967927
1461.518080,-8290.306550,-1378.971896,2516.700203
1461.518392,-7105.977043,-1915.238745,2294.638420
1461.518703,-6661.853478,-2451.505594,1406.391290
1461.519015,-7105.977043,-919.314598,1628.453072
1461.519326,-7994.224174,1302.362347,2294.638420
1461.519637,-9992.780217,612.876398,2220.617826
1461.519949,-10288.862594,-536.266849,2072.576638
1461.520260,-10066.800811,153.219100,1776.494261
1461.520572,-8734.430116,766.095498,962.267725
1461.520883,-8290.306550,1685.410096,1406.391290
1461.521195,-8660.409521,1762.019645,-888.247130
1461.521506,-8808.450710,3064.381992,-74.020594
1461.521818,-9030.512492,1838.629195,666.185348
1461.522129,-9622.677246,536.266849,1924.535449
1461.522440,-8364.327145,-229.828649,1036.288319
1461.522752,-7179.997637,-919.314598,-962.267725
1461.523063,-5847.626942,-1378.971896,-1258.350101
1461.523375,-4959.379811,-1225.752797,-2886.803174
1461.523686,-5921.647536,536.266849,-3849.070898
1461.523998,-7476.080014,1455.581446,-2590.720797
1461.524309,-11251.130318,0.000000,-1406.391290
1461.524620,-13101.645173,-1072.533697,-592.164754
1461.524932,-12805.562797,-1225.752797,-740.205942
1461.525243,-10955.047942,612.876398,-888.247130
1461.525555,-8956.491898,766.095498,-2220.617826
1461.525866,-7624.121203,1072.533697,-2960.823768
1461.526178,-8438.347739,995.924147,-3404.947333
1461.526489,-10362.883188,1072.533697,-1406.391290
1461.526800,-10807.006753,-689.485948,-814.226536
1461.527112,-11177.109724,-1225.752797,-592.164754
1461.527423,-9400.615463,-1915.238745,-518.144159
1461.527735,-7698.141797,-2528.115143,-2072.576638
1461.528046,-7402.059420,-2604.724693,-2590.720797
1461.528358,-8364.327145,-2221.676944,-1998.556043
1461.528669,-9918.759623,-1762.019645,-296.082377
1461.528981,-12065.356855,-2681.334243,666.185348
1461.529292,-12583.501014,-1991.848295,2072.576638
1461.529603,-12509.480420,-1991.848295,1184.329507
1461.529915,-10955.047942,0.000000,222.061783
1461.530226,-9326.594869,1149.143247,-74.020594
1461.530538,-9474.636058,1991.848295,-814.226536
1461.530849,-9844.739029,1762.019645,-0.000000
1461.531161,-10732.986159,1608.800546,1258.350101
1461.531472,-9770.718434,1685.410096,2664.741391
1461.531783,-9770.718434,766.095498,2368.659014
1461.532095,-7031.956449,-919.314598,2960.823768
1461.532406,-4145.153275,-2374.896044,592.164754
1461.532718,-3182.885551,-612.876398,-0.000000
1461.533029,-3775.050304,1608.800546,1776.494261
1461.533341,-8438.347739,919.314598,2812.782580
1461.533652,-11473.192101,-306.438199,4885.359217
1461.533963,-11843.295072,-919.314598,4737.318029
1461.534275,-10140.821405,536.266849,3478.967927
1461.534586,-6661.853478,3370.820191,2664.741391
1461.534898,-5181.441594,3524.039291,666.185348
1461.535209,-4219.173869,2298.286494,-0.000000
1461.535521,-5403.503377,1225.752797,962.267725
1461.535832,-6809.894666,383.047749,1998.556043
1461.536144,-8734.430116,766.095498,2442.679609
1461.536455,-10510.924376,-306.438199,3330.926739
1461.536766,-9104.533087,-689.485948,3997.112087
1461.537078,-7994.224174,-1915.238745,1924.535449
1461.537389,-7402.059420,-919.314598,1924.535449
1461.537701,-7105.977043,-229.828649,1924.535449
1461.538012,-7920.203579,-1072.533697,2146.597232
1461.538324,-7550.100608,-1608.800546,2294.638420
1461.538635,-9252.574275,-2451.505594,962.267725
1461.538946,-8290.306550,-1532.190996,148.041188
1461.539258,-8216.285956,842.705048,-1406.391290
1461.539569,-8956.491898,2298.286494,-1776.494261
1461.539881,-11621.233289,1685.410096,-296.082377
1461.540192,-15248.242405,0.000000,666.185348
1461.540504,-14804.118840,-383.047749,1554.432478
1461.540815,-13175.665768,-689.485948,666.185348
1461.541126,-9326.594869,-459.657299,222.061783
1461.541438,-6291.750507,-1302.362347,-2146.597232
1461.541749,-6587.832884,-1225.752797,-3182.885551
1461.542061,-6735.874072,-229.828649,-1554.432478
1461.542372,-9030.512492,-1455.581446,296.082377
1461.542683,-11177.109724,-2451.505594,740.205942
1461.542995,-11695.253884,-2068.457845,1406.391290
1461.543306,-10955.047942,-1915.238745,-592.164754
1461.543617,-8660.409521,383.047749,-1332.370696
1461.543929,-8068.244768,1685.410096,-3478.967927
1461.544240,-6661.853478,2987.772442,-3552.988522
1461.544552,-8216.285956,1991.848295,-2812.782580
1461.544863,-10140.821405,1072.533697,-1036.288319
1461.545174,-9770.718434,1225.752797,-962.267725
1461.545486,-9326.594869,1072.533697,-1702.473667
1461.545797,-7402.059420,919.314598,-1110.308913
1461.546109,-7031.956449,612.876398,-2590.720797
1461.546420,-6661.853478,1378.971896,-2590.720797
1461.546731,-7402.059420,766.095498,-1480.411884
1461.547043,-9474.636058,-1072.533697,666.185348
1461.547354,-9474.636058,-2604.724693,222.061783
1461.547665,-8364.327145,-1608.800546,-740.205942
1461.547977,-6957.935855,383.047749,-1406.391290
1461.548288,-7846.182985,919.314598,-1036.288319
1461.548600,-10066.800811,459.657299,666.185348
1461.548911,-11547.212695,-766.095498,296.082377
1461.549222,-11991.336260,-1302.362347,666.185348
1461.549534,-10140.821405,-689.485948,814.226536
1461.549845,-8956.491898,919.314598,1332.370696
1461.550157,-9400.615463,-459.657299,962.267725
1461.550468,-9770.718434,-1608.800546,1332.370696
1461.550779,-9474.636058,-2068.457845,1480.411884
1461.551091,-9030.512492,-689.485948,2516.700203
1461.551402,-8956.491898,-383.047749,3256.906145
1461.551713,-9918.759623,-2604.724693,1924.535449
1461.552025,-9474.636058,-2987.772442,1554.432478
1461.552336,-8364.327145,-1532.190996,740.205942
1461.552648,-7179.997637,229.828649,666.185348
1461.552959,-8142.265362,76.609550,1332.370696
1461.553270,-10658.965565,919.314598,1406.391290
1461.553582,-12435.459826,1455.581446,2516.700203
1461.553893,-10881.027347,842.705048,3775.050304
1461.554205,-8216.285956,536.266849,3330.926739
1461.554516,-6587.832884,153.219100,1554.432478
1461.554827,-5477.523971,0.000000,-814.226536
1461.555139,-5921.647536,1072.533697,-740.205942
1461.555450,-7402.059420,3064.381992,148.041188
1461.555762,-9326.594869,2298.286494,1036.288319
1461.556073,-10584.944971,1072.533697,814.226536
1461.556384,-7624.121203,-919.314598,592.164754
1461.556696,-6957.935855,76.609550,-666.185348
1461.557007,-6439.791695,2068.457845,-444.123565
1461.557318,-7920.203579,2528.115143,518.144159
1461.557630,-9770.718434,1302.362347,814.226536
1461.557941,-10214.842000,229.828649,2294.638420
1461.558253,-10510.924376,229.828649,2590.720797
1461.558564,-8660.409521,1149.143247,2368.659014
1461.558875,-6513.812290,383.047749,1110.308913
1461.559187,-5033.400406,-1378.971896,444.123565
1461.559498,-4737.318029,-2068.457845,-0.000000
1461.559810,-6587.832884,-1225.752797,-592.164754
1461.560121,-8512.368333,153.219100,296.082377
1461.560432,-10658.965565,-766.095498,1332.370696
1461.560744,-11695.253884,-1762.019645,2886.803174
1461.561055,-11251.130318,-1149.143247,1628.453072
1461.561366,-10510.924376,-459.657299,740.205942
1461.561678,-8882.471304,76.609550,1184.329507
1461.561989,-9178.553681,-153.219100,518.144159
1461.562301,-9548.656652,306.438199,518.144159
1461.562612,-9696.697840,459.657299,2146.597232
1461.562923,-10955.047942,-1149.143247,1998.556043
1461.563235,-9178.553681,-1225.752797,1850.514855
1461.563546,-8882.471304,-383.047749,1258.350101
1461.563858,-8882.471304,-995.924147,888.247130
1461.564169,-9770.718434,-459.657299,1406.391290
1461.564480,-9622.677246,-153.219100,1332.370696
1461.564792,-7994.224174,-766.095498,370.102971
1461.565103,-6661.853478,-1149.143247,-518.144159
1461.565414,-5847.626942,-459.657299,-296.082377
1461.565726,-7624.121203,1149.143247,-0.000000
1461.566037,-9844.739029,1455.581446,-296.082377
1461.566349,-11843.295072,1532.190996,222.061783
1461.566660,-13175.665768,1149.143247,740.205942
1461.566971,-11695.253884,2451.505594,1480.411884
1461.567283,-9474.636058,1838.629195,-0.000000
1461.567594,-7328.038826,0.000000,-888.247130
1461.567906,-4737.318029,-766.095498,-2368.659014
1461.568217,-3627.009116,-919.314598,-3330.926739
1461.568528,-4441.235652,153.219100,-2590.720797
1461.568840,-8142.265362,229.828649,-888.247130
1461.569151,-11251.130318,-383.047749,1110.308913
1461.569462,-11695.253884,-1532.190996,1258.350101
1461.569774,-11177.109724,-1302.362347,592.164754
1461.570085,-8438.347739,-459.657299,-1184.329507
1461.570397,-6957.935855,612.876398,-2072.576638
1461.570708,-7846.182985,-383.047749,-1998.556043
1461.571019,-10140.821405,-383.047749,-1924.535449
1461.571331,-12509.480420,-536.266849,-888.247130
1461.571642,-13841.851115,0.000000,-74.020594
1461.571954,-12361.439231,766.095498,1554.432478
1461.572265,-10436.903782,-842.705048,-148.041188
1461.572576,-8808.450710,-1225.752797,-444.123565
1461.572888,-7624.121203,-1838.629195,-1480.411884
1461.573199,-7179.997637,-536.266849,-814.226536
1461.573510,-8734.430116,-229.828649,518.144159
1461.573822,-9622.677246,0.000000,1776.494261
1461.574133,-11251.130318,-1378.971896,2146.597232
1461.574445,-11621.233289,-2145.067394,3108.864956
1461.574756,-9178.553681,-1991.848295,2294.638420
1461.575067,-7254.018232,-1225.752797,444.123565
1461.575379,-7179.997637,459.657299,1110.308913
1461.575690,-8660.409521,0.000000,-0.000000
1461.576002,-9918.759623,0.000000,888.247130
1461.576313,-9474.636058,383.047749,1924.535449
1461.576624,-9178.553681,995.924147,2072.576638
1461.576936,-8438.347739,919.314598,2294.638420
1461.577247,-8290.306550,919.314598,1702.473667
1461.577558,-7254.018232,1685.410096,1850.514855
1461.577870,-6735.874072,766.095498,1924.535449
1461.578181,-7254.018232,2068.457845,2664.741391
1461.578493,-6513.812290,1762.019645,2146.597232
1461.578804,-6661.853478,842.705048,2220.617826
1461.579115,-6735.874072,536.266849,2294.638420
1461.579427,-7698.141797,919.314598,2442.679609
1461.579738,-9104.533087,1149.143247,2886.803174
1461.580050,-9918.759623,842.705048,2738.761985
1461.580361,-9844.739029,-229.828649,2220.617826
1461.580672,-7772.162391,-383.047749,666.185348
1461.580984,-6143.709319,612.876398,444.123565
1461.581295,-6513.812290,459.657299,740.205942
1461.581606,-8438.347739,-842.705048,740.205942
1461.581918,-9696.697840,-1072.533697,1702.473667
1461.582229,-9844.739029,-689.485948,2664.741391
1461.582541,-10584.944971,-536.266849,2442.679609
1461.582852,-10214.842000,536.266849,1924.535449
1461.583163,-9104.533087,612.876398,1480.411884
1461.583475,-7994.224174,-842.705048,296.082377
1461.583786,-6809.894666,-1149.143247,-296.082377
1461.584098,-7772.162391,-842.705048,-1406.391290
1461.584409,-8586.388927,-306.438199,-888.247130
1461.584720,-10214.842000,0.000000,-1110.308913
1461.585032,-11251.130318,-383.047749,-888.247130
1461.585343,-11029.068536,-689.485948,370.102971
1461.585654,-11029.068536,-766.095498,-1110.308913
1461.585966,-9326.594869,-1072.533697,296.082377
1461.586277,-9696.697840,-1608.800546,148.041188
1461.586589,-9326.594869,-1378.971896,-148.041188
1461.586900,-10214.842000,0.000000,-1110.308913
1461.587211,-9696.697840,459.657299,-1258.350101
1461.587523,-7550.100608,76.609550,-814.226536
1461.587834,-7328.038826,153.219100,-2146.597232
1461.588146,-8216.285956,76.609550,-2590.720797
1461.588457,-9474.636058,766.095498,-2220.617826
1461.588768,-9326.594869,76.609550,-1628.453072
1461.589080,-10436.903782,1455.581446,-1406.391290
1461.589391,-11547.212695,1378.971896,-1702.473667
1461.589702,-10807.006753,459.657299,-1110.308913
1461.590014,-9770.718434,536.266849,-296.082377
1461.590325,-8438.347739,842.705048,-148.041188
1461.590637,-7550.100608,-459.657299,-518.144159
1461.590948,-8142.265362,-1915.238745,-0.000000
1461.591259,-9030.512492,-1378.971896,148.041188
1461.591571,-8956.491898,-612.876398,-0.000000
1461.591882,-8068.244768,76.609550,-1110.308913
1461.592194,-8586.388927,-153.219100,-0.000000
1461.592505,-8512.368333,-536.266849,592.164754
1461.592816,-7772.162391,-1991.848295,-148.041188
1461.593128,-8438.347739,-842.705048,-148.041188
1461.593439,-9992.780217,229.828649,-0.000000
1461.593750,-10955.047942,1072.533697,1480.411884
1461.594062,-11399.171507,842.705048,962.267725
1461.594373,-11103.089130,689.485948,1628.453072
1461.594685,-10362.883188,766.095498,1480.411884
1461.594996,-9030.512492,-842.705048,1776.494261
1461.595307,-8142.265362,-76.609550,1554.432478
1461.595619,-8808.450710,-153.219100,2368.659014
1461.595930,-9104.533087,-459.657299,3849.070898
1461.596242,-7105.977043,-2068.457845,1924.535449
1461.596553,-4737.318029,-1302.362347,592.164754
1461.596864,-3552.988522,383.047749,1628.453072
1461.597176,-5847.626942,306.438199,2368.659014
1461.597487,-7994.224174,0.000000,2220.617826
1461.597798,-10658.965565,-689.485948,1924.535449
1461.598110,-11769.274478,-306.438199,3256.906145
1461.598421,-11177.109724,536.266849,2516.700203
1461.598733,-9252.574275,2451.505594,1776.494261
1461.599044,-7772.162391,842.705048,666.185348
1461.599355,-8068.244768,-1149.143247,-0.000000
1461.599667,-6661.853478,-229.828649,814.226536
1461.599978,-5551.544565,459.657299,444.123565
1461.600290,-7624.121203,229.828649,1850.514855
1461.600601,-10066.800811,-995.924147,1628.453072
1461.600912,-9622.677246,76.609550,592.164754
1461.601224,-7476.080014,1762.019645,-0.000000
1461.601535,-5921.647536,1915.238745,296.082377
1461.601846,-7105.977043,76.609550,370.102971
1461.602158,-8660.409521,-1608.800546,-1406.391290
1461.602469,-9252.574275,1072.533697,-962.267725
1461.602781,-10658.965565,2145.067394,-148.041188
1461.603092,-11843.295072,1838.629195,1036.288319
1461.603403,-12509.480420,1685.410096,296.082377
1461.603715,-11029.068536,0.000000,592.164754
1461.604026,-9326.594869,-1378.971896,666.185348
1461.604338,-8216.285956,-1225.752797,370.102971
1461.604649,-6883.915261,-459.657299,-740.205942
1461.604960,-6587.832884,-1072.533697,-2072.576638
1461.605272,-8290.306550,-1685.410096,-1406.391290
1461.605583,-9474.636058,-612.876398,-592.164754
1461.605894,-9400.615463,0.000000,-0.000000
1461.606206,-9474.636058,-766.095498,148.041188
1461.606517,-9252.574275,-1149.143247,-0.000000
1461.606829,-10214.842000,-919.314598,-0.000000
1461.607140,-10732.986159,-383.047749,1406.391290
1461.607451,-12657.521608,-153.219100,740.205942
1461.607763,-12953.603985,0.000000,-74.020594
1461.608074,-10362.883188,229.828649,-148.041188
1461.608386,-7254.018232,-306.438199,-962.267725
1461.608697,-5773.606348,-995.924147,-1776.494261
1461.609008,-5625.565159,-1991.848295,-2368.659014
1461.609320,-6217.729913,-1608.800546,-1924.535449
1461.609631,-8808.450710,-842.705048,148.041188
1461.609943,-11177.109724,-919.314598,1332.370696
1461.610254,-11547.212695,-842.705048,2368.659014
1461.610565,-11695.253884,-919.314598,1776.494261
1461.610877,-10510.924376,383.047749,1702.473667
1461.611188,-8290.306550,1225.752797,888.247130
1461.611499,-6365.771101,1072.533697,592.164754
1461.611811,-5403.503377,-383.047749,-1110.308913
1461.612122,-5181.441594,-842.705048,-2146.597232
1461.612434,-6365.771101,2681.334243,-1480.411884
1461.612745,-9178.553681,3830.477490,296.082377
1461.613056,-12287.418637,1685.410096,1258.350101
1461.613368,-12879.583391,-1072.533697,1480.411884
1461.613679,-10584.944971,-1302.362347,1258.350101
1461.613991,-7031.956449,459.657299,814.226536
1461.614302,-6365.771101,153.219100,-814.226536
1461.614613,-5477.523971,229.828649,-740.205942
1461.614925,-6143.709319,-306.438199,-518.144159
1461.615236,-8586.388927,-1455.581446,1036.288319
1461.615547,-9696.697840,-1378.971896,1628.453072
1461.615859,-11399.171507,0.000000,1554.432478
1461.616170,-10362.883188,1072.533697,518.144159
1461.616482,-9474.636058,612.876398,-740.205942
1461.616793,-9844.739029,919.314598,-666.185348
1461.617104,-10140.821405,383.047749,296.082377
1461.617416,-10732.986159,0.000000,1480.411884
1461.617727,-9992.780217,-2298.286494,1184.329507
1461.618039,-10066.800811,-1915.238745,1406.391290
1461.618350,-8512.368333,-1378.971896,1776.494261
1461.618661,-7402.059420,-153.219100,1554.432478
1461.618973,-8364.327145,-1378.971896,1110.308913
1461.619284,-8512.368333,-1378.971896,1184.329507
1461.619595,-9992.780217,-306.438199,2294.638420
1461.619907,-9696.697840,0.000000,2294.638420
1461.620218,-8290.306550,76.609550,1332.370696
1461.620530,-7846.182985,-995.924147,-148.041188
1461.620841,-7105.977043,306.438199,592.164754
1461.621152,-7624.121203,1915.238745,-444.123565
1461.621464,-8142.265362,1915.238745,222.061783
1461.621775,-9548.656652,995.924147,1184.329507
1461.622087,-10658.965565,-459.657299,1776.494261
1461.622398,-9474.636058,-1225.752797,1924.535449
1461.622709,-8290.306550,0.000000,1554.432478
1461.623021,-7920.203579,766.095498,1628.453072
1461.623332,-7994.224174,-383.047749,740.205942
1461.623643,-7772.162391,-689.485948,740.205942
1461.623955,-7846.182985,0.000000,1406.391290
1461.624266,-7328.038826,306.438199,962.267725
1461.624578,-6883.915261,0.000000,-0.000000
1461.624889,-7476.080014,76.609550,-740.205942
1461.625200,-7624.121203,0.000000,-1184.329507
1461.625512,-8290.306550,766.095498,-222.061783
1461.625823,-10436.903782,2528.115143,-296.082377
1461.626135,-12731.542202,2681.334243,1480.411884
1461.626446,-12435.459826,306.438199,2738.761985
1461.626757,-10436.903782,-2068.457845,1924.535449
1461.627069,-7624.121203,-995.924147,222.061783
1461.627380,-5033.400406,-306.438199,-1554.432478
1461.627691,-4293.194464,0.000000,-1998.556043
1461.628003,-6883.915261,76.609550,-1554.432478
1461.628314,-9696.697840,-153.219100,-740.205942
1461.628626,-11251.130318,-383.047749,-0.000000
1461.628937,-11621.233289,-612.876398,1480.411884
1461.629248,-11547.212695,-1225.752797,1406.391290
1461.629560,-10510.924376,-1378.971896,222.061783
1461.629871,-8512.368333,-383.047749,-740.205942
1461.630183,-8438.347739,536.266849,-1406.391290
1461.630494,-8660.409521,1608.800546,-222.061783
1461.630805,-10584.944971,0.000000,-0.000000
1461.631117,-11325.150913,-919.314598,1110.308913
1461.631428,-9918.759623,-1532.190996,1258.350101
1461.631739,-8512.368333,-2298.286494,148.041188
1461.632051,-6513.812290,-1302.362347,-148.041188
1461.632362,-6883.915261,-995.924147,-1036.288319
1461.632674,-7920.203579,-1608.800546,-370.102971
1461.632985,-8438.347739,-2145.067394,370.102971
1461.633296,-10214.842000,-612.876398,1480.411884
1461.633608,-10732.986159,-612.876398,1628.453072
1461.633919,-9548.656652,-995.924147,740.205942
1461.634231,-8216.285956,0.000000,222.061783
1461.634542,-7772.162391,2374.896044,-74.020594
1461.634853,-8660.409521,2911.162892,-0.000000
1461.635165,-10066.800811,2221.676944,1110.308913
1461.635476,-11251.130318,1838.629195,1480.411884
1461.635787,-10362.883188,2221.676944,1702.473667
1461.636099,-8290.306550,689.485948,592.164754
1461.636410,-7698.141797,-229.828649,-0.000000
1461.636722,-5477.523971,-766.095498,-0.000000
1461.637033,-5107.421000,-1685.410096,-1480.411884
1461.637344,-6809.894666,-536.266849,-296.082377
1461.637656,-8586.388927,76.609550,962.267725
1461.637967,-11103.089130,-459.657299,2294.638420
1461.638279,-11251.130318,-1072.533697,2220.617826
1461.638590,-10066.800811,-459.657299,1258.350101
1461.638901,-9178.553681,459.657299,666.185348
1461.639213,-8438.347739,2298.286494,814.226536
1461.639524,-8364.327145,2068.457845,-0.000000
1461.639835,-9622.677246,995.924147,1110.308913
1461.640147,-10732.986159,153.219100,2368.659014
1461.640458,-9696.697840,-919.314598,2220.617826
1461.640770,-9030.512492,-1149.143247,888.247130
1461.641081,-6957.935855,-1149.143247,592.164754
1461.641392,-6291.750507,-1455.581446,888.247130
1461.641704,-7550.100608,-1532.190996,740.205942
1461.642015,-9326.594869,-383.047749,2664.741391
1461.642326,-9548.656652,-1378.971896,2516.700203
1461.642638,-8290.306550,-2604.724693,2146.597232
1461.642949,-6143.709319,-1532.190996,1406.391290
1461.643260,-6735.874072,1532.190996,370.102971
1461.643572,-7772.162391,1378.971896,592.164754
1461.643883,-10140.821405,459.657299,1184.329507
1461.644194,-11991.336260,-229.828649,1110.308913
1461.644506,-12361.439231,0.000000,1184.329507
1461.644817,-9474.636058,919.314598,2146.597232
1461.645128,-8364.327145,536.266849,148.041188
1461.645440,-7179.997637,-1149.143247,-0.000000
1461.645751,-5551.544565,-1608.800546,-1110.308913
1461.646062,-6587.832884,0.000000,-518.144159
1461.646374,-7846.182985,2451.505594,1184.329507
1461.646685,-10214.842000,2068.457845,1332.370696
1461.646996,-11769.274478,0.000000,1480.411884
1461.647308,-9622.677246,-76.609550,888.247130
1461.647619,-7624.121203,1072.533697,-666.185348
1461.647930,-6883.915261,1685.410096,-1702.473667
1461.648242,-7550.100608,2604.724693,-1850.514855
1461.648553,-8808.450710,1685.410096,-1924.535449
1461.648864,-10807.006753,1072.533697,-0.000000
1461.649176,-12731.542202,0.000000,1258.350101
1461.649487,-11917.315666,-306.438199,2220.617826
1461.649798,-10066.800811,-1225.752797,518.144159
1461.650110,-7328.038826,-1225.752797,-1036.288319
1461.650421,-5329.482782,-919.314598,-888.247130
1461.650732,-5847.626942,-689.485948,-1998.556043
1461.651044,-7772.162391,-229.828649,-148.041188
1461.651355,-10436.903782,-1302.362347,814.226536
1461.651667,-11621.233289,-2987.772442,2368.659014
1461.651978,-10955.047942,-3064.381992,1480.411884
1461.652289,-9622.677246,-1685.410096,-444.123565
1461.652601,-7698.141797,842.705048,-1258.350101
1461.652912,-8882.471304,1455.581446,-518.144159
1461.653223,-11843.295072,995.924147,-370.102971
1461.653535,-14211.954086,229.828649,592.164754
1461.653846,-14211.954086,306.438199,1406.391290
1461.654157,-9104.533087,229.828649,1110.308913
1461.654469,-5699.585753,0.000000,-888.247130
1461.654780,-2590.720797,-689.485948,-1776.494261
1461.655091,-3330.926739,-2221.676944,-2072.576638
1461.655403,-7994.224174,-919.314598,-666.185348
1461.655714,-11029.068536,-229.828649,2886.803174
1461.656025,-14582.057057,-842.705048,4515.256246
1461.656337,-13767.830521,-2604.724693,3923.091493
1461.656648,-10584.944971,-2374.896044,2072.576638
1461.656959,-6513.812290,76.609550,296.082377
1461.657271,-4071.132681,2604.724693,-444.123565
1461.657582,-5477.523971,1608.800546,-1036.288319
1461.657893,-6291.750507,536.266849,-1332.370696
1461.658205,-7994.224174,76.609550,222.061783
1461.658516,-9252.574275,1991.848295,2664.741391
1461.658827,-10362.883188,2757.943793,2886.803174
1461.659139,-11399.171507,1225.752797,2442.679609
1461.659450,-10436.903782,-383.047749,1554.432478
1461.659761,-8216.285956,-919.314598,1554.432478
1461.660073,-5699.585753,-459.657299,1184.329507
1461.660384,-5403.503377,689.485948,-0.000000
1461.660695,-7624.121203,-306.438199,-0.000000
1461.661007,-6735.874072,-1685.410096,-0.000000
1461.661318,-7254.018232,-229.828649,-222.061783
1461.661629,-9400.615463,1302.362347,962.267725
1461.661941,-11621.233289,1991.848295,2146.597232
1461.662252,-12509.480420,1149.143247,1776.494261
1461.662563,-11547.212695,842.705048,1628.453072
1461.662875,-9992.780217,1225.752797,888.247130
1461.663186,-7328.038826,0.000000,-592.164754
1461.663497,-6587.832884,0.000000,-740.205942
1461.663809,-6069.688724,-229.828649,-1110.308913
1461.664120,-7179.997637,-1302.362347,-222.061783
1461.664431,-9918.759623,-229.828649,666.185348
1461.664743,-12065.356855,1225.752797,2590.720797
1461.665054,-11843.295072,-919.314598,3552.988522
1461.665365,-10658.965565,-2757.943793,2442.679609
1461.665677,-8734.430116,-1915.238745,814.226536
1461.665988,-7031.956449,0.000000,-1628.453072
1461.666300,-5033.400406,1378.971896,-1406.391290
1461.666611,-5921.647536,689.485948,-1628.453072
1461.666922,-9400.615463,0.000000,-666.185348
1461.667234,-12361.439231,-689.485948,1776.494261
1461.667545,-13471.748144,-995.924147,3849.070898
1461.667856,-11029.068536,-1991.848295,3775.050304
1461.668168,-9400.615463,-1762.019645,148.041188
1461.668479,-5921.647536,-689.485948,-518.144159
1461.668790,-5551.544565,459.657299,-1480.411884
1461.669102,-7994.224174,1455.581446,-1332.370696
1461.669413,-10436.903782,1072.533697,-888.247130
1461.669724,-11473.192101,459.657299,-74.020594
1461.670036,-10288.862594,-153.219100,518.144159
1461.670347,-8956.491898,229.828649,-1036.288319
1461.670658,-7179.997637,536.266849,-1924.535449
1461.670970,-8438.347739,306.438199,-1850.514855
1461.671281,-10214.842000,919.314598,-0.000000
1461.671592,-12287.418637,1685.410096,1258.350101
1461.671904,-13915.871710,306.438199,2960.823768
1461.672215,-11399.171507,-383.047749,3182.885551
1461.672526,-8734.430116,-689.485948,370.102971
1461.672838,-5477.523971,-766.095498,-370.102971
1461.673149,-2442.679609,766.095498,-1184.329507
1461.673460,-3330.926739,459.657299,-1628.453072
1461.673772,-4959.379811,-1302.362347,-2368.659014
1461.674083,-6587.832884,-1225.752797,-1628.453072
1461.674394,-9548.656652,-689.485948,888.247130
1461.674706,-12361.439231,-76.609550,1702.473667
1461.675017,-13619.789333,-536.266849,2220.617826
1461.675328,-12657.521608,-1225.752797,1406.391290
1461.675640,-10658.965565,-1149.143247,1480.411884
1461.675951,-7402.059420,-536.266849,1480.411884
1461.676262,-6439.791695,0.000000,-0.000000
1461.676574,-6217.729913,-766.095498,-740.205942
1461.676885,-5699.585753,-1991.848295,-444.123565
1461.677196,-6883.915261,-1149.143247,-518.144159
1461.677508,-7698.141797,459.657299,148.041188
1461.677819,-9252.574275,76.609550,814.226536
1461.678130,-11251.130318,-1302.362347,592.164754
1461.678442,-10732.986159,-459.657299,814.226536
1461.678753,-10140.821405,689.485948,962.267725
1461.679064,-9474.636058,-153.219100,592.164754
1461.679376,-9030.512492,-995.924147,666.185348
1461.679687,-8586.388927,995.924147,-296.082377
1461.679999,-8364.327145,2374.896044,370.102971
1461.680310,-10436.903782,2451.505594,148.041188
1461.680621,-11769.274478,3140.991542,888.247130
1461.680933,-11843.295072,3064.381992,1184.329507
1461.681244,-10732.986159,1762.019645,1998.556043
1461.681555,-8956.491898,-459.657299,1480.411884
1461.681867,-7476.080014,-459.657299,-296.082377
1461.682178,-4811.338623,306.438199,148.041188
1461.682489,-4959.379811,-383.047749,-0.000000
1461.682801,-7550.100608,-995.924147,962.267725
1461.683112,-10658.965565,-1302.362347,1924.535449
1461.683423,-13175.665768,-1225.752797,2886.803174
1461.683735,-12361.439231,-766.095498,3701.029710
1461.684046,-10288.862594,-1225.752797,1406.391290
1461.684357,-7698.141797,0.000000,-666.185348
1461.684669,-7328.038826,919.314598,-1110.308913
1461.684980,-7846.182985,919.314598,-518.144159
1461.685291,-9770.718434,229.828649,-370.102971
1461.685603,-10955.047942,383.047749,1110.308913
1461.685914,-9474.636058,-229.828649,1628.453072
1461.686225,-7624.121203,-842.705048,1332.370696
1461.686537,-6587.832884,-1378.971896,444.123565
1461.686848,-5403.503377,-1455.581446,-74.020594
1461.687159,-6365.771101,-842.705048,370.102971
1461.687471,-8216.285956,306.438199,1702.473667
1461.687782,-10214.842000,76.609550,2960.823768
1461.688093,-10732.986159,-1532.190996,2442.679609
1461.688405,-8660.409521,-1072.533697,2146.597232
1461.688716,-7698.141797,-383.047749,222.061783
1461.689027,-5625.565159,2145.067394,-0.000000
1461.689339,-5847.626942,919.314598,-666.185348
1461.689650,-7402.059420,-459.657299,-1406.391290
1461.689961,-7846.182985,-689.485948,592.164754
1461.690273,-9992.780217,-383.047749,1480.411884
1461.690584,-11473.192101,-229.828649,2146.597232
1461.690895,-12287.418637,-383.047749,814.226536
1461.691207,-9474.636058,0.000000,1406.391290
1461.691518,-7772.162391,-229.828649,592.164754
1461.691829,-8142.265362,1149.143247,296.082377
1461.692141,-7846.182985,766.095498,-296.082377
1461.692452,-8216.285956,-153.219100,-0.000000
1461.692763,-8216.285956,-995.924147,-592.164754
1461.693075,-8364.327145,76.609550,-1406.391290
1461.693386,-9918.759623,689.485948,-740.205942
1461.693698,-10214.842000,-153.219100,-222.061783
1461.694009,-11769.274478,-153.219100,-444.123565
1461.694320,-12805.562797,766.095498,-518.144159
1461.694632,-13471.748144,612.876398,962.267725
1461.694943,-11843.295072,-842.705048,888.247130
1461.695254,-9030.512492,-1455.581446,-148.041188
1461.695566,-7105.977043,-919.314598,-1702.473667
1461.695877,-5403.503377,153.219100,-1406.391290
1461.696188,-7179.997637,459.657299,-370.102971
1461.696500,-8734.430116,766.095498,148.041188
1461.696811,-9918.759623,383.047749,1776.494261
1461.697122,-11029.068536,-612.876398,1554.432478
1461.697434,-11029.068536,0.000000,1924.535449
1461.697745,-9252.574275,0.000000,666.185348
1461.698056,-7698.141797,-306.438199,-518.144159
1461.698368,-6883.915261,-383.047749,-592.164754
1461.698679,-7550.100608,0.000000,-148.041188
1461.698990,-8734.430116,76.609550,962.267725
1461.699302,-9252.574275,-1532.190996,2590.720797
1461.699613,-8882.471304,-1915.238745,2960.823768
1461.699924,-7254.018232,-2221.676944,1036.288319
1461.700236,-6217.729913,-612.876398,222.061783
1461.700547,-7105.977043,612.876398,1332.370696
1461.700858,-8586.388927,459.657299,2368.659014
1461.701170,-10807.006753,0.000000,2590.720797
1461.701481,-11029.068536,-766.095498,2146.597232
1461.701792,-8512.368333,-153.219100,1776.494261
1461.702104,-5551.544565,919.314598,148.041188
1461.702415,-4367.215058,842.705048,-740.205942
1461.702726,-6513.812290,153.219100,-1110.308913
1461.703038,-9770.718434,306.438199,-370.102971
1461.703349,-11621.233289,1991.848295,1480.411884
1461.703660,-12805.562797,2145.067394,2960.823768
1461.703972,-13619.789333,842.705048,2442.679609
1461.704283,-11177.109724,-689.485948,1924.535449
1461.704594,-8586.388927,76.609550,814.226536
1461.704906,-6291.750507,1532.190996,1406.391290
1461.705217,-6439.791695,-153.219100,444.123565
1461.705528,-6217.729913,-1685.410096,-592.164754
1461.705840,-6661.853478,-1685.410096,-1406.391290
1461.706151,-7698.141797,0.000000,518.144159
1461.706462,-9178.553681,1149.143247,1110.308913
1461.706774,-11695.253884,306.438199,-0.000000
1461.707085,-12435.459826,0.000000,148.041188
1461.707396,-12139.377449,153.219100,444.123565
1461.707708,-11547.212695,2145.067394,1258.350101
1461.708019,-9622.677246,2221.676944,962.267725
1461.708331,-8586.388927,-383.047749,-0.000000
1461.708642,-6883.915261,-2757.943793,-296.082377
1461.708953,-5033.400406,-1455.581446,-370.102971
1461.709265,-5995.668130,-306.438199,-0.000000
1461.709576,-8808.450710,-1532.190996,1628.453072
1461.709887,-10288.862594,-2911.162892,1702.473667
1461.710199,-10584.944971,-2298.286494,1036.288319
1461.710510,-8956.491898,-153.219100,962.267725
1461.710821,-7920.203579,-229.828649,370.102971
1461.711133,-7624.121203,-1302.362347,222.061783
1461.711444,-7105.977043,-536.266849,-592.164754
1461.711755,-7698.141797,612.876398,-296.082377
1461.712067,-9770.718434,1149.143247,370.102971
1461.712378,-11177.109724,2221.676944,2294.638420
1461.712689,-11029.068536,1915.238745,2368.659014
1461.713001,-9696.697840,-229.828649,1850.514855
1461.713312,-8808.450710,-1455.581446,1036.288319
1461.713623,-6069.688724,306.438199,-74.020594
1461.713935,-4293.194464,1225.752797,-888.247130
1461.714246,-4811.338623,459.657299,-888.247130
1461.714557,-7624.121203,0.000000,-666.185348
1461.714869,-9770.718434,153.219100,740.205942
1461.715180,-9696.697840,536.266849,1702.473667
1461.715491,-8216.285956,229.828649,1258.350101
1461.715803,-8364.327145,0.000000,-74.020594
1461.716114,-9696.697840,919.314598,-518.144159
1461.716425,-11325.150913,1762.019645,888.247130
1461.716737,-13101.645173,1915.238745,-0.000000
1461.717048,-13545.768739,1455.581446,1036.288319
1461.717359,-11991.336260,-229.828649,1332.370696
1461.717671,-7624.121203,-2604.724693,-0.000000
1461.717982,-6143.709319,-1302.362347,-1628.453072
1461.718293,-5107.421000,-842.705048,-1998.556043
1461.718605,-5403.503377,-1532.190996,-1480.411884
1461.718916,-8660.409521,-1685.410096,370.102971
1461.719227,-11769.274478,-1225.752797,1480.411884
1461.719539,-12879.583391,-153.219100,2368.659014
1461.719850,-11695.253884,0.000000,2146.597232
1461.720161,-10584.944971,842.705048,1776.494261
1461.720473,-7994.224174,459.657299,-1036.288319
1461.720784,-4441.235652,-153.219100,-1332.370696
1461.721095,-4737.318029,0.000000,-3478.967927
1461.721407,-6735.874072,2068.457845,-1998.556043
1461.721718,-10066.800811,1685.410096,1110.308913
1461.722030,-14508.036463,-995.924147,2220.617826
1461.722341,-15618.345376,-1685.410096,2886.803174
1461.722652,-13471.748144,-1991.848295,2146.597232
1461.722964,-7105.977043,-1838.629195,1110.308913
1461.723275,-3997.112087,-1838.629195,-1702.473667
1461.723586,-3478.967927,-1532.190996,-1924.535449
1461.723898,-3923.091493,-766.095498,-1184.329507
1461.724209,-7624.121203,-229.828649,444.123565
1461.724520,-10288.862594,229.828649,3701.029710
1461.724832,-13101.645173,306.438199,3256.906145
1461.725143,-13545.768739,612.876398,3627.009116
1461.725454,-10658.965565,1532.190996,888.247130
1461.725766,-7254.018232,3447.429741,-1480.411884
1461.726077,-5403.503377,3370.820191,-2664.741391
