#time,accel_x,accel_y,accel_z
1213.292213,-9030.512492,-306.438199,592.164754
1213.292525,-9104.533087,0.000000,222.061783
1213.292837,-8956.491898,229.828649,814.226536
1213.293148,-9030.512492,-383.047749,370.102971
1213.293460,-8882.471304,-229.828649,296.082377
1213.293772,-9178.553681,0.000000,444.123565
1213.294084,-9030.512492,-153.219100,518.144159
1213.294395,-8956.491898,0.000000,370.102971
1213.294707,-8808.450710,-229.828649,592.164754
1213.295019,-8586.388927,76.609550,444.123565
1213.295331,-8660.409521,0.000000,370.102971
1213.295642,-8808.450710,76.609550,370.102971
1213.295954,-8808.450710,0.000000,370.102971
1213.296266,-9104.533087,-229.828649,518.144159
1213.296577,-8882.471304,-153.219100,592.164754
1213.296889,-8956.491898,0.000000,444.123565
1213.297201,-8882.471304,-153.219100,666.185348
1213.297513,-8808.450710,0.000000,222.061783
1213.297824,-9104.533087,612.876398,444.123565
1213.298136,-8808.450710,-306.438199,592.164754
1213.298448,-9104.533087,0.000000,370.102971
1213.298760,-8956.491898,153.219100,518.144159
1213.299071,-8956.491898,0.000000,370.102971
1213.299383,-8882.471304,0.000000,518.144159
1213.299695,-8734.430116,459.657299,296.082377
1213.300007,-8956.491898,0.000000,740.205942
1213.300318,-8660.409521,76.609550,592.164754
1213.300630,-8956.491898,0.000000,370.102971
1213.300942,-9030.512492,0.000000,444.123565
1213.301253,-8808.450710,-153.219100,592.164754
1213.301565,-8882.471304,76.609550,814.226536
1213.301877,-8956.491898,-153.219100,518.144159
1213.302189,-9030.512492,-383.047749,-0.000000
1213.302500,-8808.450710,-306.438199,296.082377
1213.302812,-8808.450710,0.000000,370.102971
1213.303124,-8734.430116,229.828649,592.164754
1213.303436,-9030.512492,-153.219100,592.164754
1213.303747,-8882.471304,-229.828649,740.205942
1213.304059,-8882.471304,0.000000,592.164754
1213.304371,-8882.471304,0.000000,518.144159
1213.304682,-8808.450710,0.000000,888.247130
1213.304994,-8290.306550,-459.657299,888.247130
1213.305306,-8586.388927,153.219100,518.144159
1213.305618,-8808.450710,-153.219100,370.102971
1213.305929,-8882.471304,0.000000,592.164754
1213.306241,-8882.471304,0.000000,518.144159
1213.306553,-8882.471304,0.000000,666.185348
1213.306865,-8956.491898,0.000000,592.164754
1213.307176,-8660.409521,0.000000,296.082377
1213.307488,-8956.491898,153.219100,444.123565
1213.307800,-8734.430116,0.000000,222.061783
1213.308111,-8956.491898,0.000000,370.102971
1213.308423,-9178.553681,0.000000,518.144159
1213.308735,-9030.512492,0.000000,518.144159
1213.309047,-8882.471304,0.000000,444.123565
1213.309358,-8438.347739,0.000000,444.123565
1213.309670,-8882.471304,0.000000,370.102971
1213.309982,-8808.450710,0.000000,370.102971
1213.310294,-8512.368333,-229.828649,296.082377
1213.310605,-8882.471304,0.000000,518.144159
1213.310917,-8882.471304,0.000000,518.144159
1213.311229,-8956.491898,0.000000,518.144159
1213.311541,-8882.471304,-306.438199,666.185348
1213.311852,-8512.368333,0.000000,518.144159
1213.312164,-8956.491898,0.000000,74.020594
1213.312476,-9030.512492,153.219100,-0.000000
1213.312787,-9030.512492,0.000000,444.123565
1213.313099,-9178.553681,0.000000,370.102971
1213.313411,-9104.533087,0.000000,518.144159
1213.313723,-8956.491898,0.000000,592.164754
1213.314034,-8882.471304,-383.047749,518.144159
1213.314346,-9030.512492,-306.438199,592.164754
1213.314658,-8734.430116,-306.438199,444.123565
1213.314970,-9030.512492,76.609550,370.102971
1213.315281,-9104.533087,0.000000,222.061783
1213.315593,-8882.471304,-229.828649,592.164754
1213.315905,-8882.471304,-153.219100,518.144159
1213.316216,-9030.512492,-153.219100,518.144159
1213.316528,-8956.491898,-306.438199,592.164754
1213.316840,-8734.430116,0.000000,370.102971
1213.317152,-9104.533087,-536.266849,666.185348
1213.317463,-8586.388927,0.000000,592.164754
1213.317775,-8808.450710,-153.219100,592.164754
1213.318087,-8956.491898,-76.609550,666.185348
1213.318399,-9030.512492,0.000000,370.102971
1213.318710,-8808.450710,76.609550,370.102971
1213.319022,-8956.491898,612.876398,444.123565
1213.319334,-8882.471304,-306.438199,444.123565
1213.319646,-8882.471304,-383.047749,592.164754
1213.319957,-8512.368333,0.000000,370.102971
1213.320269,-9844.739029,153.219100,370.102971
1213.320581,-11695.253884,1455.581446,222.061783
1213.320892,-9992.780217,3753.867940,666.185348
1213.321204,-7994.224174,4596.572988,666.185348
1213.321516,-7179.997637,2604.724693,592.164754
1213.321828,-6365.771101,306.438199,962.267725
1213.322139,-7550.100608,-1455.581446,-518.144159
1213.322451,-7105.977043,-459.657299,-296.082377
1213.322763,-9326.594869,-612.876398,-666.185348
1213.323075,-13101.645173,-842.705048,-1406.391290
1213.323386,-11325.150913,536.266849,370.102971
1213.323698,-9474.636058,229.828649,962.267725
1213.324010,-8956.491898,-919.314598,2368.659014
1213.324321,-10732.986159,-459.657299,2368.659014
1213.324633,-11103.089130,2604.724693,1554.432478
1213.324945,-5847.626942,5439.278036,2368.659014
1213.325257,-6069.688724,4060.306139,1184.329507
1213.325568,-7920.203579,2298.286494,-0.000000
1213.325880,-7105.977043,2911.162892,-1480.411884
1213.326192,-8142.265362,3294.210641,-2072.576638
1213.326504,-8882.471304,3907.087040,-296.082377
1213.326815,-10362.883188,3907.087040,-962.267725
1213.327127,-14730.098246,0.000000,-148.041188
1213.327439,-10881.027347,-1072.533697,2664.741391
1213.327751,-8586.388927,-306.438199,1628.453072
1213.328062,-9918.759623,2757.943793,1480.411884
1213.328374,-7105.977043,6894.859482,2738.761985
1213.328686,-8956.491898,4136.915689,1110.308913
1213.328997,-6069.688724,3600.648841,2960.823768
1213.329309,-6735.874072,6052.154434,518.144159
1213.329621,-7772.162391,7124.688131,-740.205942
1213.329933,-8808.450710,6128.763984,-1332.370696
1213.330244,-10732.986159,4673.182538,-740.205942
1213.330556,-9770.718434,4903.011187,-1628.453072
1213.330868,-11029.068536,5669.106685,-0.000000
1213.331180,-11399.171507,3983.696590,518.144159
1213.331491,-9770.718434,3830.477490,1776.494261
1213.331803,-9770.718434,4903.011187,2368.659014
1213.332115,-7328.038826,5209.449386,1998.556043
1213.332426,-5921.647536,4826.401637,1332.370696
1213.332738,-5995.668130,4290.134789,740.205942
1213.333050,-5181.441594,4443.353888,148.041188
1213.333362,-5773.606348,4136.915689,-740.205942
1213.333673,-7179.997637,3524.039291,-814.226536
1213.333985,-8956.491898,2374.896044,-666.185348
1213.334297,-9252.574275,995.924147,-518.144159
1213.334609,-9696.697840,-536.266849,296.082377
1213.334920,-10066.800811,-1378.971896,1850.514855
1213.335232,-11177.109724,-1838.629195,1776.494261
1213.335544,-10510.924376,0.000000,2590.720797
1213.335855,-8290.306550,919.314598,2442.679609
1213.336167,-7254.018232,1302.362347,962.267725
1213.336479,-7105.977043,1532.190996,-0.000000
1213.336791,-7402.059420,1532.190996,-962.267725
1213.337102,-7105.977043,2451.505594,-1184.329507
1213.337414,-6587.832884,1685.410096,-1258.350101
1213.337726,-8364.327145,-995.924147,-1258.350101
1213.338038,-10214.842000,-2911.162892,-296.082377
1213.338349,-10658.965565,-3677.258390,962.267725
1213.338661,-11473.192101,-4136.915689,1110.308913
1213.338973,-12509.480420,-3753.867940,1036.288319
1213.339285,-12287.418637,-2911.162892,1258.350101
1213.339596,-11769.274478,-2221.676944,-0.000000
1213.339908,-9992.780217,-1149.143247,-444.123565
1213.340220,-8512.368333,-229.828649,-666.185348
1213.340531,-8290.306550,306.438199,-296.082377
1213.340843,-8586.388927,1149.143247,222.061783
1213.341155,-9030.512492,383.047749,-74.020594
1213.341467,-9474.636058,153.219100,-370.102971
1213.341778,-10436.903782,-689.485948,1110.308913
1213.342090,-10510.924376,-919.314598,1184.329507
1213.342402,-11177.109724,-1685.410096,962.267725
1213.342714,-11399.171507,-1991.848295,1258.350101
1213.343025,-11547.212695,-1685.410096,888.247130
1213.343337,-11251.130318,0.000000,444.123565
1213.343649,-10066.800811,766.095498,-296.082377
1213.343960,-7920.203579,1991.848295,-888.247130
1213.344272,-6143.709319,2451.505594,-1406.391290
1213.344584,-5477.523971,2451.505594,-888.247130
1213.344896,-4811.338623,1915.238745,-0.000000
1213.345207,-5403.503377,1532.190996,1628.453072
1213.345519,-8142.265362,689.485948,2738.761985
1213.345831,-9696.697840,383.047749,3256.906145
1213.346143,-9400.615463,766.095498,2072.576638
1213.346454,-9400.615463,0.000000,1480.411884
1213.346766,-8068.244768,689.485948,888.247130
1213.347078,-7698.141797,766.095498,-740.205942
1213.347390,-7772.162391,1149.143247,-1036.288319
1213.347701,-7476.080014,1302.362347,-666.185348
1213.348013,-7698.141797,1378.971896,-148.041188
1213.348325,-7179.997637,2221.676944,296.082377
1213.348636,-7402.059420,1378.971896,1036.288319
1213.348948,-7846.182985,0.000000,1332.370696
1213.349260,-7994.224174,-842.705048,1924.535449
1213.349572,-8586.388927,-842.705048,1998.556043
1213.349883,-9252.574275,-689.485948,1776.494261
1213.350195,-10214.842000,-766.095498,1776.494261
1213.350507,-10584.944971,-842.705048,1628.453072
1213.350819,-9918.759623,-153.219100,814.226536
1213.351130,-10066.800811,-459.657299,-0.000000
1213.351442,-9474.636058,995.924147,-148.041188
1213.351754,-8882.471304,1225.752797,-888.247130
1213.352065,-8734.430116,612.876398,-592.164754
1213.352377,-7920.203579,-383.047749,-370.102971
1213.352689,-8438.347739,-689.485948,-0.000000
1213.353001,-8808.450710,-1378.971896,-0.000000
1213.353312,-9400.615463,-1532.190996,592.164754
1213.353624,-10140.821405,-1685.410096,1184.329507
1213.353936,-10510.924376,-2451.505594,1554.432478
1213.354248,-11251.130318,-2298.286494,1924.535449
1213.354559,-10807.006753,-1838.629195,1480.411884
1213.354871,-10066.800811,0.000000,740.205942
1213.355183,-9030.512492,919.314598,-148.041188
1213.355494,-7920.203579,1455.581446,-592.164754
1213.355806,-7254.018232,842.705048,-1406.391290
1213.356118,-7031.956449,1685.410096,-1036.288319
1213.356430,-7624.121203,1225.752797,-1480.411884
1213.356741,-8586.388927,153.219100,-592.164754
1213.357053,-9844.739029,-459.657299,-296.082377
1213.357365,-10436.903782,-1225.752797,296.082377
1213.357677,-10881.027347,-1762.019645,962.267725
1213.357988,-10658.965565,-1225.752797,1628.453072
1213.358300,-10140.821405,-1225.752797,1036.288319
1213.358612,-9400.615463,0.000000,666.185348
1213.358924,-9400.615463,0.000000,444.123565
1213.359235,-8438.347739,995.924147,222.061783
1213.359547,-7994.224174,2528.115143,-0.000000
1213.359859,-7179.997637,3294.210641,-0.000000
1213.360170,-7328.038826,1991.848295,-74.020594
1213.360482,-6957.935855,2451.505594,-0.000000
1213.360794,-7179.997637,1991.848295,148.041188
1213.361106,-7402.059420,995.924147,962.267725
1213.361417,-8808.450710,0.000000,1406.391290
1213.361729,-9992.780217,-1455.581446,1480.411884
1213.362041,-10658.965565,-1762.019645,1702.473667
1213.362353,-10214.842000,-1302.362347,1480.411884
1213.362664,-9474.636058,-1378.971896,1258.350101
1213.362976,-8068.244768,-306.438199,370.102971
1213.363288,-7846.182985,-76.609550,-222.061783
1213.363599,-7105.977043,76.609550,-296.082377
1213.363911,-7402.059420,383.047749,666.185348
1213.364223,-7772.162391,842.705048,1036.288319
1213.364535,-8216.285956,919.314598,1776.494261
1213.364846,-7772.162391,153.219100,2072.576638
1213.365158,-8364.327145,-766.095498,1480.411884
1213.365470,-8142.265362,-612.876398,888.247130
1213.365782,-8364.327145,-229.828649,888.247130
1213.366093,-9326.594869,-919.314598,370.102971
1213.366405,-9918.759623,-995.924147,222.061783
1213.366717,-10362.883188,-995.924147,-296.082377
1213.367028,-10436.903782,-919.314598,-518.144159
1213.367340,-9696.697840,-536.266849,-222.061783
1213.367651,-9696.697840,-229.828649,-148.041188
1213.367963,-9326.594869,-536.266849,222.061783
1213.368274,-9474.636058,-1302.362347,888.247130
1213.368586,-9474.636058,-995.924147,1554.432478
1213.368898,-9104.533087,-612.876398,2072.576638
1213.369209,-9622.677246,-536.266849,2220.617826
1213.369521,-9474.636058,0.000000,1702.473667
1213.369832,-8882.471304,-306.438199,888.247130
1213.370144,-9030.512492,76.609550,-0.000000
1213.370455,-8808.450710,766.095498,-592.164754
1213.370767,-9178.553681,766.095498,-1110.308913
1213.371078,-9548.656652,995.924147,-1036.288319
1213.371390,-9474.636058,76.609550,-592.164754
1213.371701,-9770.718434,-919.314598,-222.061783
1213.372013,-9474.636058,-842.705048,814.226536
1213.372325,-8808.450710,-1072.533697,1036.288319
1213.372636,-7846.182985,-1072.533697,1702.473667
1213.372948,-8364.327145,-842.705048,1628.453072
1213.373259,-8512.368333,-612.876398,1702.473667
1213.373571,-7698.141797,-229.828649,962.267725
1213.373882,-6957.935855,1072.533697,444.123565
1213.374194,-6809.894666,2145.067394,-370.102971
1213.374505,-7105.977043,2221.676944,-962.267725
1213.374817,-7772.162391,1455.581446,-814.226536
1213.375128,-7550.100608,1225.752797,-888.247130
1213.375440,-7698.141797,1072.533697,-666.185348
1213.375751,-8364.327145,766.095498,-74.020594
1213.376063,-9252.574275,-766.095498,-0.000000
1213.376375,-9548.656652,-1762.019645,666.185348
1213.376686,-9696.697840,-2068.457845,1406.391290
1213.376998,-10140.821405,-1225.752797,1480.411884
1213.377309,-10881.027347,-1608.800546,1332.370696
1213.377621,-10288.862594,-459.657299,1110.308913
1213.377932,-9474.636058,229.828649,518.144159
1213.378244,-9252.574275,919.314598,-0.000000
1213.378555,-8882.471304,1838.629195,-296.082377
1213.378867,-8734.430116,1991.848295,-148.041188
1213.379178,-8586.388927,1532.190996,-0.000000
1213.379490,-8882.471304,842.705048,-148.041188
1213.379802,-9474.636058,0.000000,518.144159
1213.380113,-9548.656652,76.609550,814.226536
1213.380425,-9696.697840,-919.314598,1554.432478
1213.380736,-9992.780217,-1762.019645,1776.494261
1213.381048,-10362.883188,-2298.286494,1554.432478
1213.381359,-9770.718434,-2298.286494,1332.370696
1213.381671,-9104.533087,-1915.238745,1036.288319
1213.381982,-8142.265362,-1072.533697,592.164754
1213.382294,-8364.327145,-1378.971896,-0.000000
1213.382605,-8068.244768,-689.485948,-0.000000
1213.382917,-8364.327145,-153.219100,666.185348
1213.383228,-8068.244768,919.314598,1258.350101
1213.383540,-8290.306550,1149.143247,1480.411884
1213.383852,-8216.285956,689.485948,1628.453072
1213.384163,-7698.141797,76.609550,1850.514855
1213.384475,-7550.100608,-766.095498,1554.432478
1213.384786,-7254.018232,0.000000,962.267725
1213.385098,-7105.977043,153.219100,148.041188
1213.385409,-7846.182985,-612.876398,-444.123565
1213.385721,-8882.471304,-842.705048,-518.144159
1213.386032,-9474.636058,-995.924147,-666.185348
1213.386344,-9622.677246,-612.876398,-296.082377
1213.386655,-9770.718434,-536.266849,-0.000000
1213.386967,-9918.759623,-229.828649,222.061783
1213.387278,-9770.718434,-612.876398,888.247130
1213.387590,-9622.677246,0.000000,1110.308913
1213.387902,-9326.594869,153.219100,1258.350101
1213.388213,-8956.491898,459.657299,1628.453072
1213.388525,-8734.430116,459.657299,1332.370696
1213.388836,-8586.388927,306.438199,666.185348
1213.389148,-8512.368333,76.609550,-0.000000
1213.389459,-8882.471304,766.095498,-148.041188
1213.389771,-9400.615463,612.876398,-1036.288319
1213.390082,-10214.842000,459.657299,-1036.288319
1213.390394,-10362.883188,153.219100,-962.267725
1213.390705,-10436.903782,-536.266849,-518.144159
1213.391017,-10214.842000,-536.266849,148.041188
1213.391329,-9104.533087,-383.047749,888.247130
1213.391640,-8438.347739,-612.876398,1110.308913
1213.391952,-8142.265362,-459.657299,1184.329507
1213.392263,-7254.018232,306.438199,1184.329507
1213.392575,-7624.121203,995.924147,1480.411884
1213.392886,-7402.059420,1149.143247,740.205942
1213.393198,-6957.935855,1608.800546,444.123565
1213.393509,-7105.977043,842.705048,222.061783
1213.393821,-7994.224174,153.219100,-222.061783
1213.394132,-7698.141797,-153.219100,-370.102971
1213.394444,-8364.327145,-766.095498,-222.061783
1213.394755,-8660.409521,-1072.533697,-0.000000
1213.395067,-10214.842000,-2145.067394,518.144159
1213.395379,-10214.842000,-1608.800546,666.185348
1213.395690,-10362.883188,-1225.752797,1332.370696
1213.396002,-10066.800811,-1072.533697,2072.576638
1213.396313,-9474.636058,-995.924147,1850.514855
1213.396625,-9326.594869,-766.095498,1036.288319
1213.396936,-8438.347739,-612.876398,1184.329507
1213.397248,-7772.162391,459.657299,518.144159
1213.397559,-8438.347739,1225.752797,-74.020594
1213.397871,-8438.347739,2145.067394,-0.000000
1213.398182,-8586.388927,1532.190996,296.082377
1213.398494,-9400.615463,689.485948,740.205942
1213.398806,-9844.739029,536.266849,1036.288319
1213.399117,-9400.615463,229.828649,1332.370696
1213.399429,-9474.636058,-459.657299,1110.308913
1213.399740,-9400.615463,-1302.362347,814.226536
1213.400052,-9844.739029,-1685.410096,518.144159
1213.400363,-9326.594869,-1225.752797,296.082377
1213.400675,-9030.512492,-1378.971896,740.205942
1213.400986,-8956.491898,-1378.971896,444.123565
1213.401298,-8438.347739,-1378.971896,296.082377
1213.401609,-7846.182985,-536.266849,222.061783
1213.401921,-8512.368333,-306.438199,296.082377
1213.402232,-7772.162391,612.876398,666.185348
1213.402544,-7994.224174,1302.362347,962.267725
1213.402856,-7994.224174,1302.362347,962.267725
1213.403167,-7994.224174,995.924147,814.226536
1213.403479,-8364.327145,995.924147,888.247130
1213.403790,-7772.162391,1149.143247,370.102971
1213.404102,-7994.224174,842.705048,-592.164754
1213.404413,-8142.265362,536.266849,-1110.308913
1213.404725,-9030.512492,0.000000,-1332.370696
1213.405036,-9252.574275,-383.047749,-888.247130
1213.405348,-9326.594869,-612.876398,-518.144159
1213.405659,-9992.780217,-306.438199,222.061783
1213.405971,-10510.924376,-459.657299,592.164754
1213.406282,-10362.883188,-612.876398,1110.308913
1213.406594,-10066.800811,-766.095498,962.267725
1213.406906,-9178.553681,153.219100,1480.411884
1213.407217,-9104.533087,306.438199,1258.350101
1213.407529,-9104.533087,306.438199,1406.391290
1213.407840,-8068.244768,383.047749,814.226536
1213.408152,-8142.265362,229.828649,-0.000000
1213.408463,-8586.388927,229.828649,-74.020594
1213.408775,-8808.450710,459.657299,-592.164754
1213.409086,-9474.636058,995.924147,-592.164754
1213.409398,-9474.636058,76.609550,-74.020594
1213.409709,-9918.759623,-689.485948,370.102971
1213.410021,-10066.800811,-1225.752797,962.267725
1213.410333,-9622.677246,-995.924147,1406.391290
1213.410644,-9400.615463,-842.705048,1332.370696
1213.410956,-8660.409521,-459.657299,1110.308913
1213.411267,-8660.409521,0.000000,962.267725
1213.411579,-7772.162391,0.000000,592.164754
1213.411890,-7179.997637,229.828649,592.164754
1213.412202,-7328.038826,689.485948,370.102971
1213.412513,-7254.018232,689.485948,222.061783
1213.412825,-8068.244768,383.047749,-222.061783
1213.413136,-7994.224174,-153.219100,-0.000000
1213.413448,-7994.224174,0.000000,-0.000000
1213.413759,-9252.574275,-306.438199,-148.041188
1213.414071,-9548.656652,-153.219100,-0.000000
1213.414383,-9992.780217,-1072.533697,518.144159
1213.414694,-10362.883188,-1225.752797,814.226536
1213.415006,-10362.883188,-842.705048,1184.329507
1213.415317,-10140.821405,-689.485948,1110.308913
1213.415629,-9178.553681,0.000000,1184.329507
1213.415940,-8586.388927,0.000000,592.164754
1213.416252,-8142.265362,919.314598,-0.000000
1213.416563,-8068.244768,1915.238745,-370.102971
1213.416875,-8142.265362,2221.676944,-0.000000
1213.417186,-8438.347739,2068.457845,592.164754
1213.417498,-9474.636058,1149.143247,518.144159
1213.417810,-9918.759623,995.924147,1110.308913
1213.418121,-9844.739029,536.266849,888.247130
1213.418433,-9918.759623,229.828649,814.226536
1213.418744,-9548.656652,-612.876398,888.247130
1213.419056,-9474.636058,-919.314598,370.102971
1213.419367,-9030.512492,-1225.752797,296.082377
1213.419679,-8660.409521,-1455.581446,592.164754
1213.419990,-8290.306550,-919.314598,666.185348
1213.420302,-7994.224174,-536.266849,592.164754
1213.420613,-8364.327145,-306.438199,592.164754
1213.420925,-7550.100608,-306.438199,1036.288319
1213.421236,-7328.038826,995.924147,1036.288319
1213.421548,-8438.347739,1302.362347,888.247130
1213.421860,-7772.162391,1455.581446,1184.329507
1213.422171,-7846.182985,995.924147,1036.288319
1213.422483,-7772.162391,383.047749,888.247130
1213.422794,-7772.162391,229.828649,518.144159
1213.423106,-7920.203579,153.219100,-0.000000
1213.423417,-8290.306550,0.000000,-0.000000
1213.423729,-9326.594869,-689.485948,-814.226536
1213.424040,-9918.759623,-995.924147,-148.041188
1213.424352,-10510.924376,-1225.752797,-222.061783
1213.424663,-10362.883188,-842.705048,222.061783
1213.424975,-10140.821405,-383.047749,518.144159
1213.425286,-10140.821405,-536.266849,518.144159
1213.425598,-9622.677246,-536.266849,814.226536
1213.425910,-9252.574275,-153.219100,814.226536
1213.426221,-8956.491898,536.266849,962.267725
1213.426533,-9178.553681,1072.533697,740.205942
1213.426844,-9030.512492,766.095498,592.164754
1213.427156,-8734.430116,0.000000,370.102971
1213.427467,-9030.512492,0.000000,296.082377
1213.427779,-9030.512492,0.000000,-0.000000
1213.428090,-9030.512492,-306.438199,-296.082377
1213.428402,-9548.656652,-995.924147,-0.000000
1213.428713,-9918.759623,-1225.752797,518.144159
1213.429025,-10140.821405,-1762.019645,888.247130
1213.429337,-9770.718434,-995.924147,888.247130
1213.429648,-9548.656652,-766.095498,1036.288319
1213.429960,-8586.388927,-919.314598,1258.350101
1213.430271,-8364.327145,-306.438199,1184.329507
1213.430583,-8216.285956,0.000000,1036.288319
1213.430894,-7105.977043,-306.438199,888.247130
1213.431206,-6661.853478,842.705048,444.123565
1213.431517,-6587.832884,1608.800546,592.164754
1213.431829,-6883.915261,689.485948,-74.020594
1213.432140,-7031.956449,383.047749,-0.000000
1213.432452,-7550.100608,229.828649,-0.000000
1213.432763,-8586.388927,76.609550,74.020594
1213.433075,-9400.615463,-536.266849,296.082377
1213.433387,-10140.821405,-1149.143247,-0.000000
1213.433698,-10807.006753,-1225.752797,148.041188
1213.434010,-11251.130318,-995.924147,370.102971
1213.434321,-10807.006753,-842.705048,962.267725
1213.434633,-10140.821405,-459.657299,592.164754
1213.434944,-9326.594869,-536.266849,592.164754
1213.435256,-8808.450710,459.657299,296.082377
1213.435567,-8586.388927,1378.971896,-0.000000
1213.435879,-8216.285956,1532.190996,814.226536
1213.436190,-8364.327145,1532.190996,888.247130
1213.436502,-8808.450710,1532.190996,962.267725
1213.436814,-9252.574275,919.314598,666.185348
1213.437125,-9622.677246,459.657299,814.226536
1213.437437,-9918.759623,383.047749,740.205942
1213.437748,-9844.739029,0.000000,666.185348
1213.438060,-9918.759623,-766.095498,740.205942
1213.438371,-9474.636058,-1762.019645,740.205942
1213.438683,-8956.491898,-1838.629195,444.123565
1213.438994,-8586.388927,-1455.581446,1036.288319
1213.439306,-7772.162391,-1149.143247,1110.308913
1213.439617,-8290.306550,-689.485948,518.144159
1213.439929,-7772.162391,153.219100,666.185348
1213.440240,-7476.080014,842.705048,666.185348
1213.440552,-7920.203579,306.438199,740.205942
1213.440864,-8216.285956,1072.533697,1406.391290
1213.441175,-7994.224174,919.314598,1110.308913
1213.441487,-7920.203579,0.000000,1258.350101
1213.441798,-8142.265362,0.000000,1110.308913
1213.442110,-8068.244768,-153.219100,296.082377
1213.442421,-8438.347739,-995.924147,-296.082377
1213.442733,-9178.553681,-995.924147,-148.041188
1213.443044,-9400.615463,-1072.533697,-370.102971
1213.443356,-9992.780217,-306.438199,-444.123565
1213.443667,-10066.800811,-842.705048,444.123565
1213.443979,-9992.780217,-842.705048,666.185348
1213.444291,-9696.697840,-383.047749,592.164754
1213.444602,-9622.677246,-459.657299,592.164754
1213.444914,-9326.594869,153.219100,444.123565
1213.445225,-9474.636058,612.876398,370.102971
1213.445537,-9474.636058,459.657299,888.247130
1213.445848,-8956.491898,842.705048,814.226536
1213.446160,-8586.388927,0.000000,740.205942
1213.446471,-8586.388927,-459.657299,296.082377
1213.446783,-8438.347739,-612.876398,-0.000000
1213.447094,-8586.388927,0.000000,-370.102971
1213.447406,-8586.388927,0.000000,-74.020594
1213.447717,-9104.533087,-1685.410096,-0.000000
1213.448029,-9770.718434,-1378.971896,-0.000000
1213.448341,-9918.759623,-1378.971896,370.102971
1213.448652,-9400.615463,-1225.752797,888.247130
1213.448964,-8882.471304,-919.314598,888.247130
1213.449275,-8438.347739,-842.705048,962.267725
1213.449587,-8438.347739,-383.047749,814.226536
1213.449898,-7698.141797,153.219100,518.144159
1213.450210,-7254.018232,766.095498,370.102971
1213.450521,-6735.874072,1455.581446,740.205942
1213.450833,-7402.059420,689.485948,666.185348
1213.451144,-7920.203579,-153.219100,-0.000000
1213.451456,-7698.141797,0.000000,-0.000000
1213.451767,-8290.306550,0.000000,-0.000000
1213.452079,-9474.636058,-612.876398,-148.041188
1213.452391,-10140.821405,-536.266849,-296.082377
1213.452702,-10658.965565,-1149.143247,-0.000000
1213.453014,-10066.800811,-919.314598,962.267725
1213.453325,-10658.965565,-919.314598,962.267725
1213.453637,-10214.842000,-383.047749,1332.370696
1213.453948,-9770.718434,-306.438199,962.267725
1213.454260,-9178.553681,459.657299,740.205942
1213.454571,-8438.347739,1762.019645,-0.000000
1213.454883,-7698.141797,2528.115143,518.144159
1213.455194,-7994.224174,2298.286494,-0.000000
1213.455506,-8068.244768,1072.533697,888.247130
1213.455818,-9252.574275,612.876398,962.267725
1213.456129,-9548.656652,766.095498,962.267725
1213.456441,-9844.739029,229.828649,888.247130
1213.456752,-9844.739029,-612.876398,1258.350101
1213.457064,-9474.636058,-1378.971896,888.247130
1213.457375,-9104.533087,-1685.410096,888.247130
1213.457687,-8290.306550,-766.095498,370.102971
1213.457998,-8586.388927,-459.657299,814.226536
1213.458310,-7772.162391,-383.047749,814.226536
1213.458621,-7698.141797,0.000000,518.144159
1213.458933,-7846.182985,76.609550,444.123565
1213.459244,-7402.059420,919.314598,740.205942
1213.459556,-7402.059420,1378.971896,518.144159
1213.459868,-7772.162391,1455.581446,1110.308913
1213.460179,-7698.141797,1149.143247,962.267725
1213.460491,-7846.182985,0.000000,1184.329507
1213.460802,-8438.347739,76.609550,962.267725
1213.461114,-8290.306550,0.000000,444.123565
1213.461425,-8586.388927,-306.438199,296.082377
1213.461737,-8956.491898,-1149.143247,-0.000000
1213.462048,-9326.594869,-1225.752797,-222.061783
1213.462360,-9400.615463,-2068.457845,-444.123565
1213.462671,-9474.636058,-689.485948,-74.020594
1213.462983,-9622.677246,0.000000,296.082377
1213.463295,-10436.903782,-459.657299,148.041188
1213.463606,-10584.944971,-306.438199,592.164754
1213.463918,-10510.924376,0.000000,740.205942
1213.464229,-9474.636058,689.485948,1036.288319
1213.464541,-9326.594869,536.266849,740.205942
1213.464852,-9104.533087,689.485948,444.123565
1213.465164,-8734.430116,306.438199,-74.020594
1213.465475,-8956.491898,153.219100,-0.000000
1213.465787,-9178.553681,536.266849,-222.061783
1213.466098,-9474.636058,536.266849,-518.144159
1213.466410,-9474.636058,76.609550,-370.102971
1213.466721,-9844.739029,-1149.143247,-222.061783
1213.467033,-9622.677246,-2068.457845,518.144159
1213.467344,-9548.656652,-1532.190996,-0.000000
1213.467656,-9030.512492,-995.924147,888.247130
1213.467967,-8586.388927,-995.924147,1184.329507
1213.468279,-8660.409521,-766.095498,1332.370696
1213.468590,-8956.491898,-612.876398,1480.411884
1213.468902,-7105.977043,306.438199,1036.288319
1213.469213,-6439.791695,1378.971896,444.123565
1213.469525,-6365.771101,1838.629195,666.185348
1213.469836,-6735.874072,1225.752797,-296.082377
1213.470148,-7031.956449,1302.362347,-666.185348
1213.470459,-7105.977043,536.266849,-0.000000
1213.470771,-7698.141797,76.609550,-0.000000
1213.471082,-8808.450710,-536.266849,296.082377
1213.471394,-9918.759623,-842.705048,-0.000000
1213.471705,-10658.965565,-1455.581446,296.082377
1213.472017,-10732.986159,-995.924147,1406.391290
1213.472328,-10955.047942,-306.438199,888.247130
1213.472640,-9770.718434,-459.657299,962.267725
1213.472951,-9400.615463,-229.828649,740.205942
1213.473263,-9030.512492,306.438199,666.185348
1213.473574,-8068.244768,1455.581446,592.164754
1213.473886,-8290.306550,2145.067394,148.041188
1213.474197,-8660.409521,1608.800546,-74.020594
1213.474509,-8882.471304,1072.533697,518.144159
1213.474820,-9992.780217,995.924147,74.020594
1213.475132,-9844.739029,919.314598,666.185348
1213.475443,-10140.821405,383.047749,888.247130
1213.475755,-10140.821405,-459.657299,1406.391290
1213.476066,-10066.800811,-1762.019645,1036.288319
1213.476378,-9770.718434,-1685.410096,740.205942
1213.476689,-9252.574275,-1149.143247,666.185348
1213.477001,-7994.224174,0.000000,740.205942
1213.477312,-8068.244768,-766.095498,444.123565
1213.477624,-7920.203579,0.000000,518.144159
1213.477935,-7994.224174,459.657299,666.185348
1213.478247,-7772.162391,919.314598,740.205942
1213.478558,-7994.224174,1532.190996,962.267725
1213.478870,-8068.244768,1455.581446,1110.308913
1213.479181,-7698.141797,689.485948,518.144159
1213.479493,-7698.141797,0.000000,518.144159
1213.479804,-7698.141797,0.000000,370.102971
1213.480116,-7994.224174,-306.438199,-0.000000
1213.480427,-8882.471304,-689.485948,-74.020594
1213.480738,-9104.533087,-1225.752797,-0.000000
1213.481050,-9474.636058,-1532.190996,-148.041188
1213.481361,-9474.636058,-919.314598,-0.000000
1213.481673,-9400.615463,-766.095498,-0.000000
1213.481984,-9474.636058,-459.657299,-0.000000
1213.482296,-9400.615463,-459.657299,592.164754
1213.482607,-9622.677246,-306.438199,740.205942
1213.482919,-9326.594869,0.000000,1036.288319
1213.483230,-9400.615463,153.219100,1110.308913
1213.483542,-9326.594869,612.876398,1110.308913
1213.483853,-8660.409521,1072.533697,592.164754
1213.484165,-8216.285956,1149.143247,444.123565
1213.484476,-8882.471304,306.438199,-296.082377
1213.484788,-9178.553681,0.000000,-296.082377
1213.485099,-9400.615463,76.609550,-74.020594
1213.485411,-9696.697840,76.609550,-74.020594
1213.485722,-9918.759623,-383.047749,-0.000000
1213.486034,-9770.718434,-1149.143247,370.102971
1213.486345,-9474.636058,-842.705048,740.205942
1213.486657,-9104.533087,-1378.971896,1554.432478
1213.486968,-8882.471304,-383.047749,1184.329507
1213.487280,-8808.450710,-995.924147,962.267725
1213.487591,-8438.347739,-689.485948,1110.308913
1213.487903,-7846.182985,0.000000,1110.308913
1213.488214,-7402.059420,1149.143247,1036.288319
1213.488526,-7328.038826,1532.190996,740.205942
1213.488837,-7698.141797,612.876398,222.061783
1213.489149,-7476.080014,306.438199,888.247130
1213.489460,-7550.100608,0.000000,148.041188
1213.489772,-7846.182985,153.219100,296.082377
1213.490083,-8882.471304,0.000000,222.061783
1213.490395,-10066.800811,-689.485948,222.061783
1213.490706,-10584.944971,-1302.362347,518.144159
1213.491018,-10140.821405,-995.924147,1036.288319
1213.491329,-9918.759623,-766.095498,888.247130
1213.491641,-10066.800811,-153.219100,592.164754
1213.491952,-9474.636058,-459.657299,666.185348
1213.492264,-8586.388927,383.047749,814.226536
1213.492575,-8142.265362,1378.971896,148.041188
1213.492887,-8290.306550,2221.676944,148.041188
1213.493198,-8808.450710,2298.286494,296.082377
1213.493510,-8660.409521,1225.752797,-0.000000
1213.493821,-8808.450710,536.266849,444.123565
1213.494133,-8956.491898,459.657299,814.226536
1213.494444,-9622.677246,0.000000,518.144159
1213.494756,-10066.800811,-536.266849,740.205942
1213.495067,-10066.800811,-1685.410096,740.205942
1213.495379,-9844.739029,-1991.848295,666.185348
1213.495690,-9696.697840,-1455.581446,518.144159
1213.496002,-8956.491898,-536.266849,370.102971
1213.496313,-8438.347739,-1302.362347,444.123565
1213.496625,-8068.244768,0.000000,-0.000000
1213.496936,-7772.162391,0.000000,-0.000000
1213.497248,-8068.244768,536.266849,296.082377
1213.497559,-8216.285956,1072.533697,666.185348
1213.497870,-7994.224174,1455.581446,1184.329507
1213.498182,-7550.100608,536.266849,962.267725
1213.498493,-7772.162391,-306.438199,666.185348
1213.498805,-8142.265362,-1072.533697,740.205942
1213.499116,-7698.141797,0.000000,222.061783
1213.499428,-8512.368333,-689.485948,-74.020594
1213.499739,-8956.491898,-1532.190996,-74.020594
1213.500051,-9918.759623,-1378.971896,-74.020594
1213.500362,-10436.903782,-1149.143247,-148.041188
1213.500674,-10510.924376,-153.219100,-0.000000
1213.500985,-10288.862594,-766.095498,148.041188
1213.501297,-9918.759623,383.047749,666.185348
1213.501608,-9770.718434,306.438199,592.164754
1213.501920,-9252.574275,536.266849,740.205942
1213.502231,-8882.471304,612.876398,1184.329507
1213.502543,-8882.471304,689.485948,1258.350101
1213.502854,-8956.491898,536.266849,1184.329507
1213.503166,-8438.347739,536.266849,592.164754
1213.503477,-8882.471304,1225.752797,-0.000000
1213.503789,-9252.574275,459.657299,-296.082377
1213.504100,-9548.656652,229.828649,-518.144159
1213.504412,-10362.883188,383.047749,-222.061783
1213.504723,-10140.821405,-229.828649,148.041188
1213.505035,-10214.842000,-1225.752797,518.144159
1213.505346,-9474.636058,-1225.752797,1036.288319
1213.505658,-8438.347739,-995.924147,1258.350101
1213.505969,-8216.285956,-995.924147,1628.453072
1213.506281,-7624.121203,-1302.362347,1628.453072
1213.506592,-7550.100608,-459.657299,1110.308913
1213.506904,-7254.018232,459.657299,962.267725
1213.507215,-7179.997637,919.314598,888.247130
1213.507527,-7402.059420,919.314598,814.226536
1213.507838,-7254.018232,842.705048,592.164754
1213.508150,-7772.162391,229.828649,222.061783
1213.508461,-7179.997637,229.828649,-0.000000
1213.508773,-7624.121203,0.000000,148.041188
1213.509084,-8660.409521,-229.828649,370.102971
1213.509396,-9252.574275,-842.705048,222.061783
1213.509707,-9770.718434,-842.705048,296.082377
1213.510019,-9918.759623,-689.485948,888.247130
1213.510330,-9770.718434,-383.047749,962.267725
1213.510642,-10436.903782,-459.657299,814.226536
1213.510953,-9326.594869,-229.828649,1480.411884
1213.511265,-8882.471304,153.219100,148.041188
1213.511576,-8660.409521,919.314598,-0.000000
1213.511888,-8808.450710,1991.848295,-222.061783
1213.512199,-8734.430116,1685.410096,-0.000000
1213.512511,-9030.512492,689.485948,222.061783
1213.512822,-9548.656652,76.609550,296.082377
1213.513134,-9696.697840,0.000000,518.144159
1213.513445,-10436.903782,-306.438199,444.123565
1213.513757,-10066.800811,-919.314598,1036.288319
1213.514068,-10658.965565,-1685.410096,592.164754
1213.514380,-10214.842000,-2068.457845,296.082377
1213.514691,-9622.677246,-1608.800546,148.041188
1213.515002,-9622.677246,-1225.752797,-0.000000
1213.515314,-8364.327145,0.000000,444.123565
1213.515625,-7846.182985,-459.657299,222.061783
1213.515937,-8364.327145,0.000000,296.082377
1213.516248,-8290.306550,0.000000,1480.411884
1213.516560,-8068.244768,612.876398,740.205942
1213.516871,-7624.121203,1225.752797,1184.329507
1213.517183,-7550.100608,995.924147,962.267725
1213.517494,-7624.121203,459.657299,740.205942
1213.517806,-7550.100608,153.219100,592.164754
1213.518117,-7624.121203,76.609550,-74.020594
1213.518429,-8142.265362,-842.705048,-296.082377
1213.518740,-9030.512492,0.000000,-592.164754
1213.519052,-9548.656652,-459.657299,-666.185348
1213.519363,-9844.739029,-689.485948,-518.144159
1213.519675,-10066.800811,-612.876398,-0.000000
1213.519986,-9918.759623,-153.219100,888.247130
1213.520298,-9992.780217,0.000000,740.205942
1213.520609,-9622.677246,0.000000,1702.473667
1213.520921,-9474.636058,-306.438199,1406.391290
1213.521232,-8808.450710,-229.828649,1036.288319
1213.521544,-8068.244768,612.876398,1332.370696
1213.521855,-8586.388927,842.705048,740.205942
1213.522167,-8142.265362,1225.752797,518.144159
1213.522478,-8660.409521,1378.971896,-0.000000
1213.522790,-8808.450710,612.876398,-0.000000
1213.523101,-9326.594869,842.705048,-518.144159
1213.523413,-9918.759623,383.047749,-222.061783
1213.523724,-9844.739029,-229.828649,-0.000000
1213.524036,-10436.903782,-995.924147,222.061783
1213.524347,-10066.800811,-766.095498,1036.288319
1213.524659,-9178.553681,-689.485948,1332.370696
1213.524970,-8290.306550,-612.876398,1110.308913
1213.525282,-8068.244768,-1225.752797,1480.411884
1213.525593,-7402.059420,-1302.362347,1110.308913
1213.525905,-7179.997637,-306.438199,740.205942
1213.526216,-7105.977043,76.609550,962.267725
1213.526528,-7476.080014,459.657299,888.247130
1213.526839,-7550.100608,229.828649,666.185348
1213.527151,-7994.224174,-153.219100,296.082377
1213.527462,-8142.265362,-306.438199,-74.020594
1213.527774,-8290.306550,0.000000,-0.000000
1213.528085,-8660.409521,-842.705048,148.041188
1213.528397,-9474.636058,-1532.190996,-222.061783
1213.528708,-10140.821405,-1762.019645,296.082377
1213.529020,-10658.965565,-1455.581446,888.247130
1213.529331,-10362.883188,-919.314598,962.267725
1213.529643,-10140.821405,-1302.362347,1184.329507
1213.529954,-9474.636058,-842.705048,740.205942
1213.530266,-8956.491898,-153.219100,592.164754
1213.530577,-8512.368333,306.438199,370.102971
1213.530889,-8660.409521,536.266849,148.041188
1213.531200,-8808.450710,1072.533697,-0.000000
1213.531512,-8734.430116,842.705048,222.061783
1213.531823,-9400.615463,76.609550,370.102971
1213.532134,-9918.759623,689.485948,222.061783
1213.532446,-9622.677246,229.828649,518.144159
1213.532757,-9770.718434,-383.047749,666.185348
1213.533069,-9770.718434,-1532.190996,814.226536
1213.533380,-10807.006753,-995.924147,148.041188
1213.533692,-10066.800811,-612.876398,148.041188
1213.534003,-9178.553681,-229.828649,296.082377
1213.534315,-8660.409521,0.000000,296.082377
1213.534626,-8142.265362,536.266849,-0.000000
1213.534938,-7920.203579,536.266849,-74.020594
1213.535249,-7846.182985,1302.362347,888.247130
1213.535561,-7920.203579,1685.410096,518.144159
1213.535872,-8290.306550,2145.067394,1184.329507
1213.536184,-8068.244768,1455.581446,1480.411884
1213.536495,-7550.100608,383.047749,1036.288319
1213.536807,-7772.162391,153.219100,740.205942
1213.537118,-7105.977043,459.657299,222.061783
1213.537430,-7179.997637,-306.438199,-370.102971
1213.537741,-8438.347739,-229.828649,-444.123565
1213.538053,-8882.471304,-842.705048,-444.123565
1213.538364,-9696.697840,-995.924147,-74.020594
1213.538676,-10066.800811,-995.924147,148.041188
1213.538987,-10214.842000,-612.876398,1036.288319
1213.539299,-10140.821405,-383.047749,888.247130
1213.539610,-9770.718434,76.609550,666.185348
1213.539922,-8734.430116,76.609550,1258.350101
1213.540233,-8438.347739,383.047749,1110.308913
1213.540545,-8142.265362,612.876398,1110.308913
1213.540856,-8290.306550,306.438199,1184.329507
1213.541168,-7846.182985,459.657299,740.205942
1213.541479,-8660.409521,383.047749,296.082377
1213.541791,-9030.512492,229.828649,-0.000000
1213.542102,-8734.430116,229.828649,-0.000000
1213.542414,-9770.718434,-306.438199,-222.061783
1213.542725,-10214.842000,-536.266849,370.102971
1213.543037,-10584.944971,-1378.971896,-0.000000
1213.543348,-10436.903782,-1685.410096,814.226536
1213.543660,-9844.739029,-1455.581446,1036.288319
1213.543971,-9104.533087,-1302.362347,1258.350101
1213.544283,-8290.306550,-842.705048,962.267725
1213.544594,-8586.388927,0.000000,888.247130
1213.544906,-8216.285956,0.000000,222.061783
1213.545217,-7624.121203,536.266849,592.164754
1213.545529,-7550.100608,689.485948,592.164754
1213.545840,-7624.121203,229.828649,592.164754
1213.546152,-8364.327145,0.000000,222.061783
1213.546463,-8142.265362,76.609550,370.102971
1213.546775,-7698.141797,459.657299,-0.000000
1213.547086,-8586.388927,-766.095498,-74.020594
1213.547398,-8734.430116,-1072.533697,592.164754
1213.547709,-9622.677246,-1532.190996,-0.000000
1213.548021,-10214.842000,-995.924147,518.144159
1213.548332,-9918.759623,-459.657299,888.247130
1213.548644,-9696.697840,-306.438199,888.247130
1213.548955,-9326.594869,0.000000,592.164754
1213.549266,-9178.553681,459.657299,-0.000000
1213.549578,-8438.347739,689.485948,-0.000000
1213.549889,-7994.224174,1532.190996,148.041188
1213.550201,-8586.388927,1762.019645,148.041188
1213.550512,-8512.368333,1072.533697,592.164754
1213.550824,-8734.430116,459.657299,666.185348
1213.551135,-9178.553681,383.047749,666.185348
1213.551447,-9326.594869,76.609550,814.226536
1213.551758,-9400.615463,76.609550,444.123565
1213.552070,-9992.780217,-76.609550,518.144159
1213.552381,-10066.800811,-306.438199,370.102971
1213.552693,-9474.636058,-919.314598,-0.000000
1213.553004,-9252.574275,-383.047749,-0.000000
1213.553316,-8512.368333,153.219100,222.061783
1213.553627,-8512.368333,306.438199,-0.000000
1213.553939,-8734.430116,919.314598,592.164754
1213.554250,-8216.285956,919.314598,962.267725
1213.554562,-8364.327145,1072.533697,1110.308913
1213.554873,-7624.121203,1762.019645,1406.391290
1213.555185,-7920.203579,1378.971896,1110.308913
1213.555496,-7105.977043,612.876398,1184.329507
1213.555808,-7254.018232,76.609550,518.144159
1213.556119,-7624.121203,-153.219100,370.102971
1213.556431,-7698.141797,0.000000,-370.102971
1213.556742,-8734.430116,-536.266849,-444.123565
1213.557054,-9696.697840,-1149.143247,-296.082377
1213.557365,-9918.759623,-1302.362347,-222.061783
1213.557677,-10214.842000,-995.924147,370.102971
1213.557988,-10362.883188,-612.876398,814.226536
1213.558300,-10140.821405,-306.438199,1036.288319
1213.558611,-10066.800811,0.000000,1110.308913
1213.558923,-9474.636058,306.438199,1036.288319
1213.559234,-8808.450710,459.657299,962.267725
1213.559546,-8290.306550,766.095498,1702.473667
1213.559857,-8660.409521,995.924147,740.205942
1213.560169,-8364.327145,1072.533697,222.061783
1213.560480,-8586.388927,459.657299,-0.000000
1213.560792,-9030.512492,153.219100,-74.020594
1213.561103,-9326.594869,76.609550,-222.061783
1213.561415,-9622.677246,-306.438199,-148.041188
1213.561726,-10066.800811,-383.047749,370.102971
1213.562038,-10288.862594,-1302.362347,370.102971
1213.562349,-9918.759623,-1225.752797,1036.288319
1213.562661,-9474.636058,-1532.190996,1480.411884
1213.562972,-8660.409521,-1302.362347,1184.329507
1213.563284,-8142.265362,-995.924147,814.226536
1213.563595,-7846.182985,-536.266849,518.144159
1213.563907,-7624.121203,459.657299,296.082377
1213.564218,-7550.100608,1225.752797,518.144159
1213.564530,-8142.265362,995.924147,148.041188
1213.564841,-7920.203579,1149.143247,444.123565
1213.565153,-7994.224174,536.266849,148.041188
1213.565464,-7698.141797,229.828649,-0.000000
1213.565776,-7328.038826,153.219100,-0.000000
1213.566087,-8438.347739,0.000000,-148.041188
1213.566398,-8586.388927,-536.266849,666.185348
1213.566710,-10288.862594,-1072.533697,-222.061783
1213.567021,-9918.759623,-995.924147,888.247130
1213.567333,-10214.842000,-995.924147,740.205942
1213.567644,-10288.862594,-612.876398,814.226536
1213.567956,-9918.759623,-153.219100,666.185348
1213.568267,-9252.574275,-153.219100,518.144159
1213.568579,-8882.471304,536.266849,-0.000000
1213.568890,-8142.265362,1532.190996,-0.000000
1213.569202,-8142.265362,1608.800546,-74.020594
1213.569513,-8068.244768,1378.971896,-0.000000
1213.569824,-9178.553681,383.047749,666.185348
1213.570136,-9918.759623,306.438199,592.164754
1213.570447,-9622.677246,612.876398,518.144159
1213.570759,-9696.697840,153.219100,370.102971
1213.571070,-9992.780217,-612.876398,444.123565
1213.571382,-9992.780217,-1455.581446,370.102971
1213.571693,-10362.883188,-1532.190996,-370.102971
1213.572005,-9326.594869,-919.314598,666.185348
1213.572316,-9030.512492,-536.266849,814.226536
1213.572628,-8882.471304,0.000000,740.205942
1213.572939,-8586.388927,0.000000,740.205942
1213.573250,-7994.224174,0.000000,962.267725
1213.573562,-7624.121203,766.095498,1184.329507
1213.573873,-7550.100608,1762.019645,1110.308913
1213.574185,-7476.080014,1302.362347,1332.370696
1213.574496,-7698.141797,612.876398,1110.308913
1213.574808,-7698.141797,0.000000,962.267725
1213.575119,-7698.141797,0.000000,592.164754
1213.575431,-7624.121203,-306.438199,-0.000000
1213.575742,-8734.430116,-689.485948,-148.041188
1213.576054,-9326.594869,-1302.362347,-222.061783
1213.576365,-9474.636058,-689.485948,-370.102971
1213.576676,-10140.821405,-919.314598,-74.020594
1213.576988,-9622.677246,-689.485948,1036.288319
1213.577299,-9844.739029,-689.485948,1036.288319
1213.577611,-9474.636058,-306.438199,1480.411884
1213.577922,-9178.553681,0.000000,1332.370696
1213.578234,-8734.430116,153.219100,1924.535449
1213.578545,-7772.162391,612.876398,962.267725
1213.578857,-8290.306550,919.314598,962.267725
1213.579168,-8216.285956,766.095498,-0.000000
1213.579480,-8808.450710,459.657299,-296.082377
1213.579791,-9622.677246,306.438199,-222.061783
1213.580102,-9844.739029,229.828649,-222.061783
1213.580414,-10436.903782,0.000000,-0.000000
1213.580725,-9992.780217,-459.657299,518.144159
1213.581037,-9770.718434,-1302.362347,444.123565
1213.581348,-9696.697840,-1532.190996,296.082377
1213.581660,-8734.430116,-1378.971896,814.226536
1213.581971,-8364.327145,-995.924147,888.247130
1213.582283,-8142.265362,-536.266849,740.205942
1213.582594,-8068.244768,-383.047749,740.205942
1213.582905,-8290.306550,0.000000,518.144159
1213.583217,-8290.306550,229.828649,-148.041188
1213.583528,-8142.265362,383.047749,518.144159
1213.583840,-8734.430116,383.047749,592.164754
1213.584151,-8142.265362,-76.609550,148.041188
1213.584463,-9178.553681,-612.876398,-0.000000
1213.584774,-8068.244768,-229.828649,148.041188
1213.585086,-8438.347739,0.000000,-148.041188
1213.585397,-9400.615463,-306.438199,-0.000000
1213.585709,-9326.594869,0.000000,-148.041188
1213.586020,-10288.862594,-1838.629195,-0.000000
1213.586331,-9918.759623,-995.924147,1332.370696
1213.586643,-9178.553681,-459.657299,1332.370696
1213.586954,-9622.677246,-536.266849,296.082377
1213.587266,-8882.471304,-153.219100,814.226536
1213.587577,-8438.347739,76.609550,370.102971
1213.587889,-8216.285956,689.485948,74.020594
1213.588200,-8808.450710,1455.581446,296.082377
1213.588512,-9104.533087,1685.410096,1184.329507
1213.588823,-8956.491898,383.047749,962.267725
1213.589135,-9474.636058,76.609550,888.247130
1213.589446,-8956.491898,153.219100,814.226536
1213.589757,-8882.471304,0.000000,370.102971
1213.590069,-9548.656652,-1149.143247,740.205942
1213.590380,-9696.697840,-1685.410096,444.123565
1213.590692,-9770.718434,-1685.410096,296.082377
1213.591003,-9326.594869,-995.924147,814.226536
1213.591315,-9030.512492,-766.095498,296.082377
1213.591626,-8438.347739,-612.876398,740.205942
1213.591938,-8142.265362,-229.828649,592.164754
1213.592249,-7772.162391,229.828649,888.247130
1213.592561,-7624.121203,536.266849,740.205942
1213.592872,-7846.182985,1225.752797,888.247130
1213.593183,-7994.224174,1762.019645,1184.329507
1213.593495,-7476.080014,153.219100,814.226536
1213.593806,-7550.100608,-153.219100,-0.000000
1213.594118,-7772.162391,-306.438199,-0.000000
1213.594429,-7994.224174,0.000000,-444.123565
1213.594741,-8290.306550,-612.876398,-444.123565
1213.595052,-9474.636058,-1149.143247,-222.061783
1213.595364,-9770.718434,-1225.752797,-296.082377
1213.595675,-10584.944971,-1149.143247,222.061783
1213.595987,-10436.903782,-612.876398,444.123565
1213.596298,-9918.759623,153.219100,444.123565
1213.596609,-9622.677246,0.000000,444.123565
1213.596921,-9030.512492,229.828649,740.205942
1213.597232,-8586.388927,229.828649,666.185348
1213.597544,-8512.368333,612.876398,518.144159
1213.597855,-8512.368333,1149.143247,740.205942
1213.598167,-8734.430116,612.876398,148.041188
1213.598478,-9474.636058,459.657299,148.041188
1213.598790,-9770.718434,-229.828649,-74.020594
1213.599101,-9548.656652,153.219100,-148.041188
1213.599413,-9918.759623,0.000000,-148.041188
1213.599724,-10436.903782,229.828649,222.061783
1213.600035,-10362.883188,-612.876398,-0.000000
1213.600347,-9696.697840,-766.095498,-0.000000
1213.600658,-8956.491898,-459.657299,222.061783
1213.600970,-8142.265362,-383.047749,370.102971
1213.601281,-7846.182985,0.000000,222.061783
1213.601593,-8068.244768,-383.047749,814.226536
1213.601904,-7698.141797,-306.438199,518.144159
1213.602216,-7550.100608,536.266849,962.267725
1213.602527,-7846.182985,1072.533697,962.267725
1213.602839,-7772.162391,1455.581446,1110.308913
1213.603150,-7698.141797,229.828649,962.267725
1213.603461,-8068.244768,-306.438199,592.164754
1213.603773,-7624.121203,-229.828649,740.205942
1213.604084,-8216.285956,-459.657299,296.082377
1213.604396,-9252.574275,-536.266849,666.185348
1213.604707,-9622.677246,-995.924147,-0.000000
1213.605019,-9622.677246,-1608.800546,296.082377
1213.605330,-9992.780217,-919.314598,814.226536
1213.605642,-9770.718434,-459.657299,740.205942
1213.605953,-9474.636058,-612.876398,1110.308913
1213.606265,-9252.574275,-383.047749,1184.329507
1213.606576,-8512.368333,0.000000,962.267725
1213.606887,-7772.162391,1072.533697,444.123565
1213.607199,-8364.327145,1762.019645,444.123565
1213.607510,-8142.265362,1838.629195,222.061783
1213.607822,-8290.306550,2068.457845,518.144159
1213.608133,-9474.636058,995.924147,370.102971
1213.608445,-9548.656652,153.219100,370.102971
1213.608756,-9844.739029,229.828649,518.144159
1213.609068,-10214.842000,-153.219100,888.247130
1213.609379,-10362.883188,-919.314598,666.185348
1213.609691,-10584.944971,-1149.143247,222.061783
1213.610002,-9770.718434,-1072.533697,518.144159
1213.610313,-8586.388927,-612.876398,666.185348
1213.610625,-8660.409521,153.219100,296.082377
1213.610936,-7994.224174,229.828649,370.102971
1213.611248,-7772.162391,0.000000,814.226536
1213.611559,-7550.100608,536.266849,740.205942
1213.611871,-7772.162391,1302.362347,962.267725
1213.612182,-7846.182985,1455.581446,740.205942
1213.612494,-7846.182985,842.705048,370.102971
1213.612805,-7476.080014,-612.876398,-0.000000
1213.613117,-7179.997637,0.000000,-74.020594
1213.613428,-7550.100608,-153.219100,-222.061783
1213.613739,-8290.306550,-383.047749,-74.020594
1213.614051,-9326.594869,-995.924147,-0.000000
1213.614362,-10214.842000,-1378.971896,-0.000000
1213.614674,-10436.903782,-995.924147,-222.061783
1213.614985,-10658.965565,-306.438199,-0.000000
1213.615297,-10066.800811,-229.828649,518.144159
1213.615608,-9622.677246,0.000000,666.185348
1213.615920,-9252.574275,0.000000,666.185348
1213.616231,-8438.347739,0.000000,888.247130
1213.616542,-8586.388927,0.000000,740.205942
1213.616854,-8882.471304,153.219100,1036.288319
1213.617165,-8660.409521,1072.533697,592.164754
1213.617477,-8586.388927,612.876398,-0.000000
1213.617788,-9178.553681,536.266849,-74.020594
1213.618100,-9326.594869,-153.219100,-74.020594
1213.618411,-9696.697840,229.828649,-74.020594
1213.618723,-9918.759623,229.828649,222.061783
1213.619034,-10214.842000,-306.438199,296.082377
1213.619346,-9992.780217,-1072.533697,814.226536
1213.619657,-9030.512492,-1072.533697,370.102971
1213.619968,-8438.347739,-536.266849,518.144159
1213.620280,-8216.285956,-229.828649,962.267725
1213.620591,-8438.347739,-536.266849,888.247130
1213.620903,-8956.491898,-689.485948,814.226536
1213.621214,-8068.244768,0.000000,1184.329507
1213.621526,-7846.182985,153.219100,1184.329507
1213.621837,-7772.162391,1378.971896,1480.411884
1213.622149,-7550.100608,612.876398,1184.329507
1213.622460,-7846.182985,0.000000,592.164754
1213.622772,-7179.997637,153.219100,666.185348
1213.623083,-7698.141797,306.438199,222.061783
1213.623394,-9326.594869,536.266849,148.041188
1213.623706,-9918.759623,0.000000,-0.000000
1213.624017,-10214.842000,-459.657299,-0.000000
1213.624329,-9622.677246,-612.876398,592.164754
1213.624640,-9474.636058,-153.219100,888.247130
1213.624952,-9252.574275,-153.219100,1258.350101
1213.625263,-9104.533087,-919.314598,1406.391290
1213.625575,-8660.409521,-612.876398,1406.391290
1213.625886,-8068.244768,306.438199,1036.288319
1213.626198,-8142.265362,995.924147,740.205942
1213.626509,-8216.285956,1302.362347,666.185348
1213.626820,-7698.141797,612.876398,888.247130
1213.627132,-8586.388927,306.438199,-0.000000
1213.627443,-9326.594869,153.219100,296.082377
1213.627755,-9326.594869,842.705048,-0.000000
1213.628066,-9770.718434,0.000000,814.226536
1213.628378,-10140.821405,-383.047749,592.164754
1213.628689,-10066.800811,-1302.362347,370.102971
1213.629001,-9326.594869,-612.876398,518.144159
1213.629312,-8512.368333,-459.657299,370.102971
1213.629624,-8364.327145,229.828649,518.144159
1213.629935,-7624.121203,0.000000,740.205942
1213.630246,-7624.121203,-536.266849,814.226536
1213.630558,-7846.182985,-383.047749,666.185348
1213.630869,-7624.121203,306.438199,666.185348
1213.631181,-8290.306550,995.924147,740.205942
1213.631492,-8808.450710,612.876398,962.267725
1213.631804,-8216.285956,-919.314598,666.185348
1213.632115,-8216.285956,-766.095498,370.102971
1213.632427,-8068.244768,-383.047749,296.082377
1213.632738,-8290.306550,-383.047749,-74.020594
1213.633050,-8808.450710,-995.924147,-74.020594
1213.633361,-9030.512492,-995.924147,-222.061783
1213.633672,-10214.842000,-1072.533697,-518.144159
1213.633984,-9992.780217,-612.876398,-222.061783
1213.634295,-10066.800811,306.438199,-0.000000
1213.634607,-10214.842000,0.000000,370.102971
1213.634918,-9696.697840,153.219100,518.144159
1213.635230,-9400.615463,0.000000,518.144159
1213.635541,-9030.512492,229.828649,666.185348
1213.635853,-8956.491898,842.705048,1110.308913
1213.636164,-9252.574275,612.876398,592.164754
1213.636476,-9030.512492,306.438199,518.144159
1213.636787,-9252.574275,383.047749,222.061783
1213.637098,-9104.533087,0.000000,296.082377
1213.637410,-8956.491898,536.266849,-148.041188
1213.637721,-9474.636058,229.828649,-148.041188
1213.638033,-9474.636058,-459.657299,-74.020594
1213.638344,-9770.718434,-1072.533697,222.061783
1213.638656,-9622.677246,-995.924147,740.205942
1213.638967,-8808.450710,-1149.143247,888.247130
1213.639279,-8808.450710,-1149.143247,962.267725
1213.639590,-8438.347739,-689.485948,1110.308913
1213.639902,-8142.265362,-612.876398,1110.308913
1213.640213,-7402.059420,0.000000,1184.329507
1213.640524,-7328.038826,229.828649,962.267725
1213.640836,-7254.018232,536.266849,1036.288319
1213.641147,-7179.997637,919.314598,666.185348
1213.641459,-7550.100608,612.876398,-0.000000
1213.641770,-6809.894666,1378.971896,-0.000000
1213.642082,-7550.100608,689.485948,-148.041188
1213.642393,-8586.388927,-229.828649,-0.000000
1213.642705,-9252.574275,-842.705048,370.102971
1213.643016,-10362.883188,-1149.143247,592.164754
1213.643328,-10288.862594,-995.924147,1184.329507
1213.643639,-10140.821405,0.000000,1110.308913
1213.643950,-9622.677246,-383.047749,1184.329507
1213.644262,-9252.574275,-689.485948,1110.308913
1213.644573,-8586.388927,-306.438199,888.247130
1213.644885,-8142.265362,459.657299,444.123565
1213.645196,-8142.265362,1455.581446,592.164754
1213.645508,-8660.409521,842.705048,666.185348
1213.645819,-9326.594869,153.219100,740.205942
1213.646131,-9696.697840,0.000000,444.123565
1213.646442,-9548.656652,459.657299,296.082377
1213.646754,-10066.800811,689.485948,222.061783
1213.647065,-9696.697840,229.828649,370.102971
1213.647376,-10066.800811,-766.095498,592.164754
1213.647688,-10214.842000,-1225.752797,370.102971
1213.647999,-9992.780217,-766.095498,740.205942
1213.648311,-9326.594869,-229.828649,592.164754
1213.648622,-8586.388927,-153.219100,-0.000000
1213.648934,-7550.100608,153.219100,296.082377
1213.649245,-7328.038826,459.657299,148.041188
1213.649557,-7476.080014,229.828649,444.123565
1213.649868,-7550.100608,919.314598,740.205942
1213.650179,-8512.368333,1302.362347,888.247130
1213.650491,-8586.388927,842.705048,1184.329507
1213.650802,-8142.265362,0.000000,888.247130
1213.651114,-7624.121203,-612.876398,444.123565
1213.651425,-7550.100608,-612.876398,-74.020594
1213.651737,-7698.141797,-229.828649,-370.102971
1213.652048,-8216.285956,-842.705048,-148.041188
1213.652360,-9400.615463,-766.095498,-444.123565
1213.652671,-10436.903782,-919.314598,-222.061783
1213.652983,-10658.965565,-229.828649,-0.000000
1213.653294,-10214.842000,0.000000,296.082377
1213.653605,-9770.718434,383.047749,962.267725
1213.653917,-10066.800811,766.095498,148.041188
1213.654228,-9252.574275,229.828649,740.205942
1213.654540,-8734.430116,306.438199,740.205942
1213.654851,-8734.430116,919.314598,888.247130
1213.655163,-8882.471304,995.924147,888.247130
1213.655474,-8734.430116,536.266849,296.082377
1213.655786,-8882.471304,0.000000,-0.000000
1213.656097,-8660.409521,0.000000,-0.000000
1213.656409,-8512.368333,612.876398,-74.020594
1213.656720,-9918.759623,153.219100,-0.000000
1213.657031,-10140.821405,-383.047749,518.144159
1213.657343,-9992.780217,-1072.533697,518.144159
1213.657654,-9474.636058,-1532.190996,740.205942
1213.657966,-9030.512492,-1225.752797,740.205942
1213.658277,-8438.347739,-1149.143247,814.226536
1213.658589,-8586.388927,-1149.143247,814.226536
1213.658900,-8142.265362,-842.705048,518.144159
1213.659212,-8142.265362,0.000000,814.226536
1213.659523,-7920.203579,306.438199,1036.288319
1213.659835,-7846.182985,306.438199,1184.329507
1213.660146,-7254.018232,459.657299,888.247130
1213.660457,-7402.059420,153.219100,296.082377
1213.660769,-6883.915261,612.876398,222.061783
1213.661080,-7328.038826,0.000000,-0.000000
1213.661392,-8290.306550,-153.219100,296.082377
1213.661703,-9474.636058,76.609550,-0.000000
1213.662015,-10658.965565,-842.705048,-0.000000
1213.662326,-10658.965565,-689.485948,666.185348
1213.662638,-10288.862594,-536.266849,814.226536
1213.662949,-10066.800811,-766.095498,962.267725
1213.663261,-9474.636058,-995.924147,666.185348
1213.663572,-8808.450710,-689.485948,666.185348
1213.663883,-8290.306550,306.438199,444.123565
1213.664195,-8364.327145,1149.143247,370.102971
1213.664506,-8364.327145,1302.362347,370.102971
1213.664818,-8882.471304,842.705048,518.144159
1213.665129,-9326.594869,0.000000,592.164754
1213.665441,-9622.677246,76.609550,296.082377
1213.665752,-9622.677246,1149.143247,814.226536
1213.666064,-9918.759623,383.047749,370.102971
1213.666375,-10140.821405,-766.095498,518.144159
1213.666687,-10288.862594,-1149.143247,592.164754
1213.666998,-9474.636058,-536.266849,518.144159
1213.667309,-8512.368333,-306.438199,518.144159
1213.667621,-8142.265362,-383.047749,666.185348
1213.667932,-7476.080014,0.000000,222.061783
1213.668244,-7994.224174,-306.438199,-0.000000
1213.668555,-7624.121203,76.609550,962.267725
1213.668867,-7402.059420,919.314598,444.123565
1213.669178,-7920.203579,1455.581446,962.267725
1213.669490,-8290.306550,612.876398,1184.329507
1213.669801,-8216.285956,-459.657299,1184.329507
1213.670113,-8142.265362,-612.876398,814.226536
1213.670424,-7772.162391,-383.047749,666.185348
1213.670735,-8142.265362,-459.657299,-74.020594
1213.671047,-8216.285956,-459.657299,-222.061783
1213.671358,-9252.574275,-919.314598,-370.102971
1213.671670,-9326.594869,-689.485948,-148.041188
1213.671981,-9622.677246,-689.485948,-148.041188
1213.672293,-9992.780217,0.000000,370.102971
1213.672604,-9992.780217,153.219100,962.267725
1213.672916,-10288.862594,0.000000,518.144159
1213.673227,-9622.677246,76.609550,962.267725
1213.673539,-9400.615463,612.876398,814.226536
1213.673850,-9178.553681,612.876398,666.185348
1213.674161,-8734.430116,842.705048,1110.308913
1213.674473,-8956.491898,842.705048,296.082377
1213.674784,-8956.491898,536.266849,222.061783
1213.675096,-9400.615463,76.609550,74.020594
1213.675407,-9252.574275,459.657299,518.144159
1213.675719,-9548.656652,689.485948,-74.020594
1213.676030,-9622.677246,-383.047749,222.061783
1213.676341,-9474.636058,-612.876398,296.082377
1213.676653,-9474.636058,-1225.752797,592.164754
1213.676964,-9474.636058,-1149.143247,1036.288319
1213.677276,-8882.471304,-1225.752797,1184.329507
1213.677587,-8364.327145,-689.485948,1332.370696
1213.677899,-8734.430116,-459.657299,1036.288319
1213.678210,-7698.141797,0.000000,1036.288319
1213.678521,-7476.080014,689.485948,1036.288319
1213.678833,-7179.997637,995.924147,666.185348
1213.679144,-7179.997637,1302.362347,444.123565
1213.679456,-7624.121203,1149.143247,-0.000000
1213.679767,-7772.162391,919.314598,-0.000000
1213.680078,-7402.059420,536.266849,-0.000000
1213.680390,-8216.285956,0.000000,-296.082377
1213.680701,-8882.471304,0.000000,148.041188
1213.681013,-10066.800811,-995.924147,-0.000000
1213.681324,-10584.944971,-1302.362347,666.185348
1213.681636,-10140.821405,-1378.971896,1110.308913
1213.681947,-10140.821405,-1225.752797,1110.308913
1213.682258,-9474.636058,-919.314598,1110.308913
1213.682570,-8586.388927,-766.095498,296.082377
1213.682881,-8512.368333,-306.438199,-74.020594
1213.683193,-8808.450710,1072.533697,-0.000000
1213.683504,-8882.471304,1532.190996,222.061783
1213.683816,-9252.574275,689.485948,666.185348
1213.684127,-9252.574275,306.438199,740.205942
1213.684438,-9400.615463,-153.219100,296.082377
1213.684750,-8956.491898,-153.219100,444.123565
1213.685061,-9770.718434,0.000000,-0.000000
1213.685373,-9622.677246,-766.095498,518.144159
1213.685684,-10362.883188,-1378.971896,296.082377
1213.685995,-10140.821405,-1225.752797,740.205942
1213.686307,-9400.615463,-919.314598,888.247130
1213.686618,-9326.594869,-689.485948,592.164754
1213.686930,-8438.347739,-153.219100,148.041188
1213.687241,-7994.224174,306.438199,-0.000000
1213.687553,-7402.059420,842.705048,222.061783
1213.687864,-7476.080014,1149.143247,444.123565
1213.688175,-8142.265362,995.924147,1110.308913
1213.688487,-8586.388927,536.266849,1110.308913
1213.688798,-8068.244768,153.219100,1406.391290
1213.689110,-8216.285956,0.000000,814.226536
1213.689421,-7920.203579,153.219100,592.164754
1213.689732,-7846.182985,0.000000,-222.061783
1213.690044,-8216.285956,-229.828649,-1036.288319
1213.690355,-9252.574275,-459.657299,-740.205942
1213.690667,-9770.718434,0.000000,-444.123565
1213.690978,-10362.883188,-153.219100,-0.000000
1213.691290,-10288.862594,383.047749,740.205942
1213.691601,-9844.739029,229.828649,962.267725
1213.691912,-9474.636058,306.438199,1036.288319
1213.692224,-8364.327145,766.095498,1110.308913
1213.692535,-7994.224174,459.657299,518.144159
1213.692847,-8068.244768,919.314598,962.267725
1213.693158,-8660.409521,1608.800546,370.102971
1213.693470,-9030.512492,1149.143247,444.123565
1213.693781,-9474.636058,1149.143247,296.082377
1213.694092,-9844.739029,306.438199,370.102971
1213.694404,-9622.677246,1225.752797,296.082377
1213.694715,-9104.533087,1072.533697,-0.000000
1213.695027,-8660.409521,-612.876398,296.082377
1213.695338,-9178.553681,-1302.362347,444.123565
1213.695649,-8956.491898,-1608.800546,74.020594
1213.695961,-8512.368333,-919.314598,814.226536
1213.696272,-8438.347739,-612.876398,1184.329507
1213.696584,-8438.347739,-995.924147,1332.370696
1213.696895,-8808.450710,-995.924147,962.267725
1213.697207,-8438.347739,-612.876398,1110.308913
1213.697518,-8068.244768,153.219100,1036.288319
1213.697829,-7994.224174,995.924147,1110.308913
1213.698141,-7476.080014,766.095498,740.205942
1213.698452,-7105.977043,76.609550,592.164754
1213.698764,-7402.059420,76.609550,-0.000000
1213.699075,-7328.038826,153.219100,-0.000000
1213.699386,-8438.347739,-153.219100,-0.000000
1213.699698,-9252.574275,-766.095498,296.082377
1213.700009,-11029.068536,-1685.410096,-0.000000
1213.700321,-10510.924376,-1762.019645,962.267725
1213.700632,-10658.965565,-1378.971896,666.185348
1213.700944,-10807.006753,-1072.533697,518.144159
1213.701255,-10066.800811,-995.924147,518.144159
1213.701566,-9474.636058,-766.095498,592.164754
1213.701878,-9696.697840,-383.047749,222.061783
1213.702189,-8882.471304,459.657299,592.164754
1213.702501,-8142.265362,1149.143247,1110.308913
1213.702812,-8290.306550,229.828649,888.247130
1213.703124,-8586.388927,153.219100,444.123565
1213.703435,-9474.636058,536.266849,-0.000000
1213.703746,-9474.636058,766.095498,-0.000000
1213.704058,-9548.656652,612.876398,-0.000000
1213.704369,-9770.718434,0.000000,296.082377
1213.704681,-9844.739029,-612.876398,592.164754
1213.704992,-10140.821405,-536.266849,444.123565
1213.705303,-9474.636058,-536.266849,444.123565
1213.705615,-8660.409521,0.000000,740.205942
1213.705926,-7994.224174,229.828649,740.205942
1213.706238,-7254.018232,459.657299,296.082377
1213.706549,-6809.894666,229.828649,148.041188
1213.706861,-6883.915261,1378.971896,666.185348
1213.707172,-6883.915261,1302.362347,740.205942
1213.707483,-7772.162391,919.314598,592.164754
1213.707795,-8068.244768,306.438199,1332.370696
1213.708106,-8216.285956,-536.266849,1036.288319
1213.708418,-8660.409521,-842.705048,592.164754
1213.708729,-8068.244768,-306.438199,370.102971
1213.709040,-8586.388927,-459.657299,-296.082377
1213.709352,-9030.512492,-1149.143247,-0.000000
1213.709663,-9474.636058,-1225.752797,-222.061783
1213.709975,-9918.759623,0.000000,-0.000000
1213.710286,-10140.821405,153.219100,222.061783
1213.710598,-10140.821405,229.828649,962.267725
1213.710909,-9696.697840,76.609550,962.267725
1213.711220,-9474.636058,76.609550,814.226536
1213.711532,-8882.471304,459.657299,1036.288319
1213.711843,-8512.368333,689.485948,814.226536
1213.712155,-8808.450710,1072.533697,814.226536
1213.712466,-8956.491898,612.876398,592.164754
1213.712777,-9104.533087,153.219100,592.164754
1213.713089,-9326.594869,229.828649,370.102971
1213.713400,-9474.636058,766.095498,296.082377
1213.713712,-9696.697840,536.266849,-0.000000
1213.714023,-9252.574275,0.000000,518.144159
1213.714335,-9622.677246,-842.705048,-0.000000
1213.714646,-8808.450710,-1072.533697,370.102971
1213.714957,-8660.409521,-995.924147,666.185348
1213.715269,-8956.491898,-1302.362347,666.185348
1213.715580,-8660.409521,-1685.410096,1110.308913
1213.715892,-8734.430116,-1685.410096,1110.308913
1213.716203,-8438.347739,-536.266849,1258.350101
1213.716515,-8364.327145,153.219100,888.247130
1213.716826,-7846.182985,536.266849,962.267725
1213.717137,-7105.977043,0.000000,1036.288319
1213.717449,-7550.100608,0.000000,370.102971
1213.717760,-7772.162391,229.828649,148.041188
1213.718072,-7550.100608,459.657299,-0.000000
1213.718383,-8216.285956,383.047749,-444.123565
1213.718694,-9104.533087,-229.828649,-518.144159
1213.719006,-9622.677246,-766.095498,-296.082377
1213.719317,-10362.883188,-995.924147,-74.020594
1213.719629,-10362.883188,-766.095498,962.267725
1213.719940,-10658.965565,-1302.362347,888.247130
1213.720252,-10436.903782,-1072.533697,740.205942
1213.720563,-9696.697840,-459.657299,592.164754
1213.720874,-8808.450710,0.000000,370.102971
1213.721186,-8290.306550,919.314598,-0.000000
1213.721497,-7920.203579,1838.629195,-0.000000
1213.721809,-7846.182985,2145.067394,148.041188
1213.722120,-8364.327145,1149.143247,370.102971
1213.722431,-9400.615463,0.000000,370.102971
1213.722743,-9548.656652,383.047749,592.164754
1213.723054,-9548.656652,306.438199,370.102971
1213.723366,-10066.800811,-306.438199,518.144159
1213.723677,-10362.883188,-1455.581446,592.164754
1213.723989,-10436.903782,-995.924147,518.144159
1213.724300,-9548.656652,-229.828649,592.164754
1213.724611,-8956.491898,-459.657299,592.164754
1213.724923,-8364.327145,-459.657299,740.205942
1213.725234,-7920.203579,-229.828649,518.144159
1213.725546,-7402.059420,-383.047749,518.144159
1213.725857,-7328.038826,0.000000,666.185348
1213.726169,-7402.059420,459.657299,1406.391290
1213.726480,-8216.285956,536.266849,1184.329507
1213.726791,-7994.224174,0.000000,1110.308913
1213.727103,-7772.162391,-612.876398,1110.308913
1213.727414,-7994.224174,-306.438199,666.185348
1213.727726,-7476.080014,-383.047749,-0.000000
1213.728037,-8364.327145,-766.095498,-518.144159
1213.728348,-8956.491898,-995.924147,-74.020594
1213.728660,-9548.656652,-306.438199,-296.082377
1213.728971,-10288.862594,-842.705048,370.102971
1213.729283,-9992.780217,-153.219100,814.226536
1213.729594,-10214.842000,-229.828649,740.205942
1213.729906,-9770.718434,0.000000,740.205942
1213.730217,-9326.594869,0.000000,592.164754
1213.730528,-8956.491898,0.000000,740.205942
1213.730840,-8956.491898,153.219100,592.164754
1213.731151,-8660.409521,306.438199,740.205942
1213.731463,-8660.409521,0.000000,518.144159
1213.731774,-8438.347739,0.000000,592.164754
1213.732085,-9474.636058,-612.876398,296.082377
1213.732397,-9548.656652,-229.828649,-0.000000
1213.732708,-9474.636058,0.000000,-148.041188
1213.733020,-10140.821405,-229.828649,-222.061783
1213.733331,-9474.636058,-229.828649,148.041188
1213.733643,-9770.718434,-612.876398,-148.041188
1213.733954,-8660.409521,-536.266849,592.164754
1213.734265,-8068.244768,-383.047749,518.144159
1213.734577,-8438.347739,-536.266849,814.226536
1213.734888,-8808.450710,-459.657299,592.164754
1213.735200,-8660.409521,153.219100,666.185348
1213.735511,-7994.224174,612.876398,592.164754
1213.735823,-7698.141797,1378.971896,740.205942
1213.736134,-7179.997637,689.485948,666.185348
1213.736445,-7254.018232,306.438199,296.082377
1213.736757,-7550.100608,76.609550,-0.000000
1213.737068,-7179.997637,229.828649,296.082377
1213.737380,-8142.265362,0.000000,-0.000000
1213.737691,-9474.636058,-842.705048,-0.000000
1213.738002,-10214.842000,-1072.533697,-0.000000
1213.738314,-11103.089130,-1072.533697,-222.061783
1213.738625,-10510.924376,-842.705048,740.205942
1213.738937,-10362.883188,-612.876398,1036.288319
1213.739248,-10214.842000,-689.485948,1184.329507
1213.739560,-9474.636058,-1072.533697,1406.391290
1213.739871,-9104.533087,-995.924147,888.247130
1213.740182,-8734.430116,842.705048,666.185348
1213.740494,-8438.347739,1915.238745,222.061783
1213.740805,-8512.368333,1838.629195,296.082377
1213.741117,-8364.327145,1302.362347,740.205942
1213.741428,-8364.327145,229.828649,592.164754
1213.741739,-9178.553681,766.095498,592.164754
1213.742051,-9030.512492,766.095498,1184.329507
1213.742362,-9252.574275,76.609550,814.226536
1213.742674,-9474.636058,-459.657299,888.247130
1213.742985,-8882.471304,-1302.362347,962.267725
1213.743297,-9030.512492,-919.314598,666.185348
1213.743608,-8956.491898,459.657299,1036.288319
1213.743919,-8956.491898,76.609550,518.144159
1213.744231,-8808.450710,0.000000,1036.288319
1213.744542,-8364.327145,0.000000,1036.288319
1213.744854,-7772.162391,229.828649,1110.308913
1213.745165,-7402.059420,536.266849,962.267725
1213.745477,-7328.038826,842.705048,962.267725
1213.745788,-7254.018232,306.438199,1258.350101
1213.746099,-7031.956449,0.000000,962.267725
1213.746411,-7624.121203,-229.828649,444.123565
1213.746722,-7698.141797,-306.438199,222.061783
1213.747034,-8438.347739,-383.047749,-0.000000
1213.747345,-9474.636058,-229.828649,-296.082377
1213.747656,-9622.677246,-229.828649,-222.061783
1213.747968,-9992.780217,-153.219100,-296.082377
1213.748279,-9770.718434,-459.657299,-0.000000
1213.748591,-10510.924376,612.876398,-0.000000
1213.748902,-9918.759623,229.828649,370.102971
1213.749214,-10066.800811,153.219100,592.164754
1213.749525,-9474.636058,76.609550,740.205942
1213.749836,-9030.512492,153.219100,518.144159
1213.750148,-8734.430116,229.828649,518.144159
1213.750459,-9178.553681,76.609550,148.041188
1213.750771,-8956.491898,459.657299,222.061783
1213.751082,-9474.636058,536.266849,-74.020594
1213.751393,-10066.800811,919.314598,-370.102971
1213.751705,-9770.718434,536.266849,-74.020594
1213.752016,-9622.677246,-229.828649,-0.000000
1213.752328,-9252.574275,-689.485948,-148.041188
1213.752639,-8956.491898,-1072.533697,-148.041188
1213.752951,-8734.430116,-1072.533697,-74.020594
1213.753262,-8586.388927,-995.924147,444.123565
1213.753573,-8290.306550,-1225.752797,814.226536
1213.753885,-8808.450710,-689.485948,1036.288319
1213.754196,-8660.409521,-459.657299,1036.288319
1213.754508,-8364.327145,306.438199,888.247130
1213.754819,-7476.080014,689.485948,1036.288319
1213.755130,-7254.018232,153.219100,740.205942
1213.755442,-6661.853478,459.657299,148.041188
1213.755753,-7550.100608,306.438199,-444.123565
1213.756065,-7105.977043,459.657299,222.061783
1213.756376,-7846.182985,-383.047749,148.041188
1213.756688,-9178.553681,-842.705048,444.123565
1213.756999,-9992.780217,-1302.362347,962.267725
1213.757310,-10510.924376,-1762.019645,962.267725
1213.757622,-10510.924376,-1532.190996,1406.391290
1213.757933,-10362.883188,-1072.533697,1406.391290
1213.758245,-10066.800811,-536.266849,814.226536
1213.758556,-9178.553681,-229.828649,962.267725
1213.758868,-8512.368333,-306.438199,1110.308913
1213.759179,-7994.224174,383.047749,814.226536
1213.759490,-8512.368333,995.924147,518.144159
1213.759802,-9030.512492,1455.581446,814.226536
1213.760113,-8882.471304,1838.629195,740.205942
1213.760425,-9400.615463,2145.067394,592.164754
1213.760736,-9326.594869,1608.800546,148.041188
1213.761047,-9400.615463,1685.410096,740.205942
1213.761359,-9548.656652,1149.143247,518.144159
1213.761670,-9622.677246,229.828649,740.205942
1213.761982,-9844.739029,-383.047749,666.185348
1213.762293,-9696.697840,-459.657299,740.205942
1213.762605,-9252.574275,-689.485948,740.205942
1213.762916,-7920.203579,-153.219100,1480.411884
1213.763227,-7698.141797,-459.657299,222.061783
1213.763539,-7772.162391,-766.095498,444.123565
1213.763850,-7550.100608,-153.219100,370.102971
1213.764162,-7402.059420,459.657299,666.185348
1213.764473,-7772.162391,229.828649,740.205942
1213.764784,-7994.224174,76.609550,962.267725
1213.765096,-7624.121203,-459.657299,1036.288319
1213.765407,-8068.244768,-306.438199,518.144159
1213.765719,-7402.059420,229.828649,1036.288319
1213.766030,-7698.141797,0.000000,222.061783
1213.766342,-8364.327145,-536.266849,-222.061783
1213.766653,-9104.533087,-919.314598,-518.144159
1213.766964,-9622.677246,-689.485948,-518.144159
1213.767276,-9474.636058,-612.876398,-148.041188
1213.767587,-9770.718434,-383.047749,-0.000000
1213.767899,-10362.883188,0.000000,-0.000000
1213.768210,-10214.842000,0.000000,962.267725
1213.768522,-9844.739029,0.000000,814.226536
1213.768833,-9178.553681,229.828649,962.267725
1213.769144,-8956.491898,153.219100,1036.288319
1213.769456,-8808.450710,306.438199,740.205942
1213.769767,-8364.327145,-383.047749,518.144159
1213.770079,-8512.368333,-842.705048,-0.000000
1213.770390,-8586.388927,0.000000,-0.000000
1213.770701,-9474.636058,76.609550,-444.123565
1213.771013,-10066.800811,-459.657299,-148.041188
1213.771324,-10436.903782,-1149.143247,296.082377
1213.771636,-10881.027347,-1915.238745,444.123565
1213.771947,-10288.862594,-1762.019645,740.205942
1213.772258,-9918.759623,-842.705048,444.123565
1213.772570,-9400.615463,-842.705048,666.185348
1213.772881,-9030.512492,-536.266849,740.205942
1213.773192,-8364.327145,0.000000,1184.329507
1213.773504,-7476.080014,229.828649,814.226536
1213.773815,-7031.956449,919.314598,1110.308913
1213.774126,-7105.977043,842.705048,1036.288319
1213.774438,-6735.874072,459.657299,962.267725
1213.774749,-7105.977043,383.047749,-0.000000
1213.775060,-6957.935855,689.485948,148.041188
1213.775372,-7550.100608,76.609550,-148.041188
1213.775683,-9104.533087,-229.828649,-0.000000
1213.775994,-9992.780217,-612.876398,740.205942
1213.776306,-10807.006753,-842.705048,814.226536
1213.776617,-10584.944971,-536.266849,1184.329507
1213.776928,-10066.800811,-306.438199,1184.329507
1213.777240,-9474.636058,-766.095498,1184.329507
1213.777551,-7846.182985,-383.047749,1110.308913
1213.777862,-7550.100608,-306.438199,444.123565
1213.778174,-7179.997637,612.876398,296.082377
1213.778485,-8068.244768,919.314598,370.102971
1213.778796,-8512.368333,1072.533697,740.205942
1213.779108,-9030.512492,766.095498,888.247130
1213.779419,-9844.739029,689.485948,444.123565
1213.779730,-9622.677246,383.047749,740.205942
1213.780042,-9622.677246,1149.143247,148.041188
1213.780353,-9696.697840,612.876398,-0.000000
1213.780664,-9548.656652,76.609550,666.185348
1213.780976,-9918.759623,-306.438199,296.082377
1213.781287,-9178.553681,-459.657299,370.102971
1213.781598,-8512.368333,-689.485948,444.123565
1213.781910,-7846.182985,-612.876398,296.082377
1213.782221,-7772.162391,-766.095498,148.041188
1213.782532,-7994.224174,-1072.533697,-0.000000
1213.782844,-7920.203579,-459.657299,740.205942
1213.783155,-8438.347739,76.609550,592.164754
1213.783466,-9104.533087,229.828649,814.226536
1213.783778,-9104.533087,229.828649,1110.308913
1213.784089,-8438.347739,-229.828649,1258.350101
1213.784400,-8438.347739,-229.828649,888.247130
1213.784712,-8142.265362,-383.047749,1184.329507
1213.785023,-7846.182985,-229.828649,-0.000000
1213.785334,-8586.388927,-689.485948,-148.041188
1213.785646,-8882.471304,-842.705048,-444.123565
1213.785957,-9696.697840,-1072.533697,-666.185348
1213.786268,-10510.924376,-995.924147,-296.082377
1213.786580,-10807.006753,-995.924147,-74.020594
1213.786891,-10288.862594,-229.828649,222.061783
1213.787202,-10658.965565,-612.876398,-0.000000
1213.787514,-9918.759623,-306.438199,1036.288319
1213.787825,-9474.636058,76.609550,740.205942
1213.788136,-8956.491898,612.876398,962.267725
1213.788448,-8290.306550,689.485948,962.267725
1213.788759,-7846.182985,536.266849,518.144159
1213.789070,-7846.182985,0.000000,-0.000000
1213.789382,-8142.265362,153.219100,-0.000000
1213.789693,-8438.347739,842.705048,-148.041188
1213.790004,-9326.594869,919.314598,-444.123565
1213.790316,-9918.759623,0.000000,-148.041188
1213.790627,-9992.780217,-689.485948,222.061783
1213.790938,-9770.718434,-995.924147,666.185348
1213.791250,-9696.697840,-459.657299,962.267725
1213.791561,-9326.594869,-536.266849,888.247130
1213.791872,-8364.327145,-842.705048,1184.329507
1213.792184,-7920.203579,459.657299,1332.370696
1213.792495,-7402.059420,842.705048,1036.288319
1213.792806,-6587.832884,1149.143247,888.247130
1213.793118,-6587.832884,1685.410096,888.247130
1213.793429,-6291.750507,1378.971896,518.144159
1213.793740,-6661.853478,995.924147,148.041188
1213.794052,-7254.018232,995.924147,-444.123565
1213.794363,-7920.203579,689.485948,-148.041188
1213.794674,-9252.574275,0.000000,-0.000000
1213.794986,-10066.800811,0.000000,666.185348
1213.795297,-10658.965565,-995.924147,592.164754
1213.795608,-10658.965565,-1302.362347,1184.329507
1213.795920,-10288.862594,-1149.143247,1036.288319
1213.796231,-10214.842000,-1302.362347,1184.329507
1213.796542,-8808.450710,-995.924147,1258.350101
1213.796854,-8512.368333,-995.924147,962.267725
1213.797165,-8734.430116,0.000000,592.164754
1213.797476,-8882.471304,536.266849,666.185348
1213.797788,-8882.471304,766.095498,740.205942
1213.798099,-9252.574275,689.485948,888.247130
1213.798410,-9548.656652,383.047749,740.205942
1213.798722,-9474.636058,612.876398,370.102971
1213.799033,-9400.615463,536.266849,444.123565
1213.799344,-9918.759623,842.705048,814.226536
1213.799656,-9844.739029,0.000000,444.123565
1213.799967,-10214.842000,-689.485948,592.164754
1213.800278,-9622.677246,-995.924147,666.185348
1213.800590,-9030.512492,-919.314598,666.185348
1213.800901,-8660.409521,-1149.143247,518.144159
1213.801212,-8068.244768,-306.438199,-0.000000
1213.801524,-7550.100608,-383.047749,-0.000000
1213.801835,-7624.121203,0.000000,-0.000000
1213.802146,-7624.121203,383.047749,666.185348
1213.802457,-8068.244768,536.266849,814.226536
1213.802769,-8216.285956,459.657299,1332.370696
1213.803080,-7846.182985,0.000000,1332.370696
1213.803391,-7920.203579,-383.047749,814.226536
1213.803703,-7402.059420,0.000000,-0.000000
1213.804014,-7328.038826,-153.219100,-370.102971
1213.804325,-8068.244768,-612.876398,-444.123565
1213.804637,-8808.450710,-919.314598,-0.000000
1213.804948,-9992.780217,-919.314598,-296.082377
1213.805259,-10955.047942,-1149.143247,-0.000000
1213.805571,-10510.924376,-766.095498,814.226536
1213.805882,-10584.944971,-536.266849,1110.308913
1213.806193,-10140.821405,0.000000,962.267725
1213.806505,-8956.491898,153.219100,1184.329507
1213.806816,-8586.388927,536.266849,296.082377
1213.807127,-7920.203579,1072.533697,222.061783
1213.807439,-8068.244768,1302.362347,222.061783
1213.807750,-8438.347739,1302.362347,-0.000000
1213.808061,-8734.430116,919.314598,-0.000000
1213.808373,-9178.553681,766.095498,-0.000000
1213.808684,-9548.656652,1149.143247,-222.061783
1213.808995,-9548.656652,1302.362347,-0.000000
1213.809307,-9992.780217,0.000000,-296.082377
1213.809618,-9770.718434,-1149.143247,592.164754
1213.809929,-9474.636058,-1685.410096,666.185348
1213.810241,-9104.533087,-1378.971896,888.247130
1213.810552,-9030.512492,-1302.362347,1184.329507
1213.810863,-9030.512492,-1302.362347,1258.350101
1213.811175,-8586.388927,-1149.143247,1184.329507
1213.811486,-7698.141797,-766.095498,1184.329507
1213.811797,-7550.100608,0.000000,814.226536
1213.812109,-7772.162391,383.047749,740.205942
1213.812420,-7624.121203,153.219100,666.185348
1213.812731,-7624.121203,76.609550,296.082377
1213.813043,-7994.224174,0.000000,296.082377
1213.813354,-8438.347739,0.000000,222.061783
1213.813665,-8882.471304,-459.657299,740.205942
1213.813977,-9400.615463,-383.047749,814.226536
1213.814288,-9622.677246,-1302.362347,370.102971
1213.814599,-9918.759623,-1608.800546,740.205942
1213.814911,-9474.636058,-1302.362347,962.267725
1213.815222,-9474.636058,-612.876398,666.185348
1213.815533,-9178.553681,-689.485948,592.164754
1213.815845,-8882.471304,0.000000,444.123565
1213.816156,-8808.450710,-536.266849,444.123565
1213.816467,-8882.471304,919.314598,666.185348
1213.816779,-8956.491898,1072.533697,888.247130
1213.817090,-8956.491898,842.705048,1110.308913
1213.817401,-9104.533087,1149.143247,1184.329507
1213.817713,-9400.615463,612.876398,666.185348
1213.818024,-9030.512492,919.314598,444.123565
1213.818335,-9030.512492,383.047749,148.041188
1213.818647,-9178.553681,689.485948,296.082377
1213.818958,-9844.739029,-383.047749,444.123565
1213.819269,-10066.800811,0.000000,518.144159
1213.819581,-9474.636058,-459.657299,814.226536
1213.819892,-8956.491898,-842.705048,962.267725
1213.820203,-8512.368333,-689.485948,740.205942
1213.820515,-7476.080014,-842.705048,-0.000000
1213.820826,-7328.038826,-766.095498,-0.000000
1213.821137,-6809.894666,153.219100,888.247130
1213.821449,-7846.182985,536.266849,740.205942
1213.821760,-8438.347739,1072.533697,1184.329507
1213.822071,-8438.347739,383.047749,1628.453072
1213.822383,-8068.244768,76.609550,1110.308913
1213.822694,-7994.224174,153.219100,518.144159
1213.823005,-7476.080014,0.000000,-222.061783
1213.823317,-7846.182985,-153.219100,-666.185348
1213.823628,-9030.512492,-383.047749,-666.185348
1213.823939,-9474.636058,-229.828649,-592.164754
1213.824251,-10288.862594,0.000000,-148.041188
1213.824562,-10732.986159,0.000000,296.082377
1213.824873,-10658.965565,0.000000,740.205942
1213.825185,-10362.883188,0.000000,962.267725
1213.825496,-9548.656652,-153.219100,962.267725
1213.825807,-8882.471304,612.876398,814.226536
1213.826119,-8364.327145,536.266849,740.205942
1213.826430,-8068.244768,689.485948,962.267725
1213.826741,-8216.285956,766.095498,148.041188
1213.827053,-8512.368333,459.657299,-0.000000
1213.827364,-9030.512492,-153.219100,-0.000000
1213.827675,-9474.636058,0.000000,-74.020594
1213.827987,-9918.759623,-306.438199,-0.000000
1213.828298,-10214.842000,-995.924147,370.102971
1213.828609,-10436.903782,-1302.362347,592.164754
1213.828921,-10066.800811,-1455.581446,888.247130
1213.829232,-9548.656652,-1302.362347,1036.288319
1213.829543,-8956.491898,-919.314598,962.267725
1213.829855,-8660.409521,-919.314598,888.247130
1213.830166,-8068.244768,-842.705048,666.185348
1213.830477,-7624.121203,-612.876398,370.102971
1213.830789,-7105.977043,0.000000,814.226536
1213.831100,-7105.977043,0.000000,740.205942
1213.831411,-7254.018232,229.828649,962.267725
1213.831723,-7402.059420,0.000000,666.185348
1213.832034,-7772.162391,0.000000,148.041188
1213.832345,-7179.997637,229.828649,148.041188
1213.832657,-8290.306550,-306.438199,-222.061783
1213.832968,-9030.512492,-383.047749,-0.000000
1213.833279,-9992.780217,-612.876398,518.144159
1213.833591,-10510.924376,-1378.971896,296.082377
1213.833902,-10288.862594,-842.705048,666.185348
1213.834213,-10510.924376,-229.828649,592.164754
1213.834525,-9844.739029,-612.876398,296.082377
1213.834836,-8956.491898,0.000000,444.123565
1213.835147,-8216.285956,229.828649,518.144159
1213.835459,-8512.368333,842.705048,518.144159
1213.835770,-9252.574275,766.095498,222.061783
1213.836081,-9400.615463,1302.362347,518.144159
1213.836393,-9474.636058,842.705048,1036.288319
1213.836704,-9992.780217,459.657299,148.041188
1213.837015,-9622.677246,1072.533697,518.144159
1213.837327,-9474.636058,1378.971896,222.061783
1213.837638,-8808.450710,229.828649,592.164754
1213.837949,-8808.450710,-536.266849,222.061783
1213.838261,-9474.636058,-766.095498,296.082377
1213.838572,-9548.656652,-612.876398,370.102971
1213.838883,-9252.574275,-383.047749,518.144159
1213.839195,-8660.409521,0.000000,592.164754
1213.839506,-7846.182985,76.609550,444.123565
1213.839817,-8290.306550,0.000000,-0.000000
1213.840129,-7550.100608,306.438199,962.267725
1213.840440,-7550.100608,1685.410096,666.185348
1213.840751,-8142.265362,1302.362347,962.267725
1213.841063,-8142.265362,689.485948,1480.411884
1213.841374,-7846.182985,0.000000,1184.329507
1213.841685,-7994.224174,-536.266849,370.102971
1213.841997,-7550.100608,0.000000,148.041188
1213.842308,-8068.244768,536.266849,-666.185348
1213.842619,-8364.327145,-306.438199,-148.041188
1213.842931,-8882.471304,-919.314598,-296.082377
1213.843242,-9548.656652,-1685.410096,-0.000000
1213.843553,-9992.780217,-1455.581446,1036.288319
1213.843865,-10066.800811,-383.047749,1258.350101
1213.844176,-10140.821405,-306.438199,1258.350101
1213.844487,-10362.883188,-229.828649,1406.391290
1213.844799,-9474.636058,689.485948,1258.350101
1213.845110,-8882.471304,76.609550,888.247130
1213.845421,-8512.368333,153.219100,1036.288319
1213.845733,-8586.388927,766.095498,296.082377
1213.846044,-8364.327145,536.266849,222.061783
1213.846355,-8956.491898,306.438199,-0.000000
1213.846667,-9400.615463,612.876398,444.123565
1213.846978,-9918.759623,229.828649,-0.000000
1213.847289,-10288.862594,0.000000,370.102971
1213.847601,-9992.780217,-229.828649,592.164754
1213.847912,-10140.821405,-459.657299,518.144159
1213.848223,-9622.677246,-383.047749,888.247130
1213.848535,-8586.388927,-459.657299,1036.288319
1213.848846,-8364.327145,-842.705048,962.267725
1213.849157,-8216.285956,-536.266849,962.267725
1213.849469,-7698.141797,306.438199,666.185348
1213.849780,-7402.059420,689.485948,296.082377
1213.850091,-7179.997637,1072.533697,1036.288319
1213.850403,-7179.997637,76.609550,666.185348
1213.850714,-7105.977043,0.000000,370.102971
1213.851025,-7994.224174,0.000000,148.041188
1213.851337,-7994.224174,0.000000,370.102971
1213.851648,-9030.512492,-153.219100,-0.000000
1213.851959,-9030.512492,-153.219100,148.041188
1213.852270,-9400.615463,-995.924147,296.082377
1213.852582,-10288.862594,-459.657299,-0.000000
1213.852893,-9400.615463,-919.314598,962.267725
1213.853204,-9770.718434,-919.314598,444.123565
1213.853516,-9548.656652,-919.314598,370.102971
1213.853827,-9178.553681,-306.438199,444.123565
1213.854138,-8734.430116,0.000000,-0.000000
1213.854450,-8512.368333,306.438199,-0.000000
1213.854761,-8956.491898,842.705048,444.123565
1213.855072,-9252.574275,842.705048,444.123565
1213.855384,-9622.677246,689.485948,444.123565
1213.855695,-9696.697840,229.828649,518.144159
1213.856006,-9918.759623,306.438199,370.102971
1213.856318,-9622.677246,0.000000,444.123565
1213.856629,-9400.615463,-459.657299,518.144159
1213.856940,-9252.574275,-689.485948,592.164754
1213.857252,-9548.656652,-919.314598,222.061783
1213.857563,-9400.615463,-842.705048,370.102971
1213.857874,-9326.594869,-842.705048,222.061783
1213.858186,-9030.512492,-459.657299,444.123565
1213.858497,-8364.327145,229.828649,518.144159
1213.858808,-8142.265362,153.219100,296.082377
1213.859120,-7994.224174,153.219100,444.123565
1213.859431,-7476.080014,1302.362347,814.226536
1213.859742,-8068.244768,1532.190996,1480.411884
1213.860054,-7476.080014,995.924147,1480.411884
1213.860365,-7550.100608,306.438199,1184.329507
1213.860676,-7698.141797,-229.828649,666.185348
1213.860988,-7105.977043,0.000000,296.082377
1213.861299,-7772.162391,0.000000,-518.144159
1213.861610,-9030.512492,-459.657299,-962.267725
1213.861922,-9474.636058,-383.047749,-0.000000
1213.862233,-9770.718434,-842.705048,444.123565
1213.862544,-10658.965565,-1455.581446,1036.288319
1213.862856,-10732.986159,-536.266849,1628.453072
1213.863167,-10362.883188,-383.047749,1628.453072
1213.863478,-9844.739029,-229.828649,1110.308913
1213.863790,-8808.450710,536.266849,1184.329507
1213.864101,-8142.265362,1455.581446,518.144159
1213.864412,-7994.224174,919.314598,518.144159
1213.864724,-7476.080014,995.924147,592.164754
1213.865035,-7920.203579,995.924147,-0.000000
1213.865346,-8882.471304,383.047749,-0.000000
1213.865658,-9474.636058,459.657299,-0.000000
1213.865969,-9844.739029,229.828649,-222.061783
1213.866280,-10214.842000,76.609550,148.041188
1213.866592,-9770.718434,-383.047749,-0.000000
1213.866903,-10066.800811,-689.485948,-0.000000
1213.867214,-9104.533087,-995.924147,962.267725
1213.867526,-9326.594869,-1072.533697,962.267725
1213.867837,-8512.368333,-1072.533697,1184.329507
1213.868148,-7994.224174,-919.314598,1036.288319
1213.868460,-7772.162391,-612.876398,814.226536
1213.868771,-7476.080014,-153.219100,518.144159
1213.869082,-6883.915261,-153.219100,518.144159
1213.869394,-7476.080014,689.485948,888.247130
1213.869705,-8068.244768,0.000000,740.205942
1213.870016,-8660.409521,-306.438199,296.082377
1213.870328,-8364.327145,153.219100,222.061783
1213.870639,-8438.347739,0.000000,370.102971
1213.870950,-9326.594869,-689.485948,222.061783
1213.871262,-9548.656652,-1149.143247,-0.000000
1213.871573,-9474.636058,-1072.533697,-148.041188
1213.871884,-10066.800811,0.000000,-222.061783
1213.872196,-9548.656652,0.000000,296.082377
1213.872507,-10362.883188,-919.314598,222.061783
1213.872818,-9474.636058,-919.314598,592.164754
1213.873130,-9178.553681,-689.485948,518.144159
1213.873441,-8956.491898,229.828649,592.164754
1213.873752,-9030.512492,459.657299,666.185348
1213.874064,-9474.636058,459.657299,592.164754
1213.874375,-9252.574275,766.095498,1036.288319
1213.874685,-9622.677246,536.266849,444.123565
1213.874996,-9696.697840,689.485948,296.082377
1213.875307,-9696.697840,689.485948,444.123565
1213.875619,-9252.574275,383.047749,370.102971
1213.875930,-9326.594869,-229.828649,296.082377
1213.876242,-9474.636058,-536.266849,296.082377
1213.876553,-8808.450710,-306.438199,370.102971
1213.876864,-8586.388927,-536.266849,962.267725
1213.877176,-8364.327145,-612.876398,666.185348
1213.877487,-7624.121203,-306.438199,592.164754
1213.877798,-7402.059420,-306.438199,296.082377
1213.878110,-7624.121203,0.000000,444.123565
1213.878421,-7772.162391,612.876398,740.205942
1213.878732,-8216.285956,1685.410096,1480.411884
1213.879044,-8290.306550,612.876398,1406.391290
1213.879355,-7476.080014,0.000000,1628.453072
1213.879666,-7920.203579,-153.219100,1036.288319
1213.879978,-7550.100608,0.000000,222.061783
1213.880289,-7846.182985,-229.828649,-74.020594
1213.880600,-8142.265362,-536.266849,-370.102971
1213.880912,-8956.491898,-766.095498,-296.082377
1213.881223,-9844.739029,-536.266849,-0.000000
1213.881535,-10436.903782,-612.876398,-0.000000
1213.881846,-10658.965565,-383.047749,666.185348
1213.882157,-10436.903782,536.266849,666.185348
1213.882469,-9918.759623,-229.828649,888.247130
1213.882780,-9474.636058,-306.438199,814.226536
1213.883091,-8512.368333,459.657299,814.226536
1213.883403,-8438.347739,766.095498,888.247130
1213.883714,-8734.430116,995.924147,1184.329507
1213.884025,-8660.409521,0.000000,296.082377
1213.884337,-8586.388927,76.609550,518.144159
1213.884648,-8882.471304,-229.828649,370.102971
1213.884959,-9474.636058,229.828649,-0.000000
1213.885271,-10066.800811,383.047749,-0.000000
1213.885582,-10066.800811,0.000000,444.123565
1213.885894,-10066.800811,-689.485948,296.082377
1213.886205,-10066.800811,-1149.143247,740.205942
1213.886516,-10140.821405,-306.438199,296.082377
1213.886828,-8734.430116,-306.438199,1258.350101
1213.887139,-8216.285956,-536.266849,666.185348
1213.887450,-7994.224174,-383.047749,814.226536
1213.887762,-7772.162391,0.000000,370.102971
1213.888073,-7476.080014,229.828649,814.226536
1213.888384,-7328.038826,459.657299,814.226536
1213.888696,-6735.874072,612.876398,666.185348
1213.889007,-7402.059420,229.828649,-74.020594
1213.889318,-7846.182985,383.047749,-444.123565
1213.889630,-8290.306550,153.219100,-222.061783
1213.889941,-9178.553681,76.609550,-0.000000
1213.890253,-9696.697840,-306.438199,444.123565
1213.890564,-10658.965565,-919.314598,296.082377
1213.890875,-10140.821405,-919.314598,296.082377
1213.891187,-9548.656652,-383.047749,518.144159
1213.891498,-9326.594869,-459.657299,592.164754
1213.891809,-8882.471304,-612.876398,222.061783
1213.892121,-8956.491898,-383.047749,148.041188
1213.892432,-8586.388927,536.266849,444.123565
1213.892743,-8882.471304,1149.143247,296.082377
1213.893055,-9326.594869,1149.143247,740.205942
1213.893366,-9474.636058,995.924147,814.226536
1213.893677,-9474.636058,612.876398,814.226536
1213.893989,-9622.677246,766.095498,-0.000000
1213.894300,-9474.636058,919.314598,518.144159
1213.894611,-9844.739029,383.047749,296.082377
1213.894923,-9696.697840,-229.828649,444.123565
1213.895234,-9548.656652,-459.657299,518.144159
1213.895546,-9252.574275,-536.266849,370.102971
1213.895857,-8956.491898,-536.266849,296.082377
1213.896168,-8290.306550,-1608.800546,888.247130
1213.896480,-7846.182985,-995.924147,518.144159
1213.896791,-7698.141797,-612.876398,518.144159
1213.897102,-7698.141797,-229.828649,740.205942
1213.897414,-8142.265362,459.657299,962.267725
1213.897725,-8512.368333,995.924147,1406.391290
1213.898036,-8586.388927,995.924147,1554.432478
1213.898348,-8068.244768,536.266849,1184.329507
1213.898659,-8290.306550,229.828649,592.164754
1213.898970,-7254.018232,689.485948,296.082377
1213.899282,-7179.997637,153.219100,-296.082377
1213.899593,-7698.141797,0.000000,-518.144159
1213.899905,-8734.430116,-536.266849,-370.102971
1213.900216,-9696.697840,-612.876398,-222.061783
1213.900527,-10584.944971,-153.219100,-0.000000
1213.900839,-10066.800811,-766.095498,814.226536
1213.901150,-9844.739029,-536.266849,962.267725
1213.901461,-10362.883188,-842.705048,814.226536
1213.901773,-9622.677246,-229.828649,962.267725
1213.902084,-9326.594869,0.000000,888.247130
1213.902395,-8882.471304,229.828649,1184.329507
1213.902707,-8512.368333,536.266849,1258.350101
1213.903018,-8142.265362,919.314598,740.205942
1213.903329,-8438.347739,153.219100,222.061783
1213.903641,-8956.491898,306.438199,222.061783
1213.903952,-9474.636058,612.876398,-74.020594
1213.904263,-9918.759623,306.438199,-0.000000
1213.904575,-9992.780217,-76.609550,370.102971
1213.904886,-10140.821405,-1225.752797,370.102971
1213.905198,-9622.677246,-1685.410096,962.267725
1213.905509,-8956.491898,-1378.971896,888.247130
1213.905820,-8734.430116,-1225.752797,1258.350101
1213.906132,-8068.244768,-612.876398,814.226536
1213.906443,-8216.285956,-229.828649,518.144159
1213.906754,-7328.038826,0.000000,518.144159
1213.907066,-7105.977043,306.438199,666.185348
1213.907377,-7179.997637,459.657299,740.205942
1213.907688,-6809.894666,459.657299,666.185348
1213.908000,-7402.059420,842.705048,518.144159
1213.908311,-7772.162391,-229.828649,-0.000000
1213.908622,-8142.265362,0.000000,-0.000000
1213.908934,-9326.594869,-306.438199,-148.041188
1213.909245,-9844.739029,-536.266849,-0.000000
1213.909557,-10658.965565,-995.924147,-0.000000
1213.909868,-10658.965565,-919.314598,592.164754
1213.910179,-10436.903782,-1149.143247,1036.288319
1213.910491,-10584.944971,-995.924147,1036.288319
1213.910802,-9696.697840,-1225.752797,666.185348
1213.911113,-8512.368333,0.000000,296.082377
1213.911425,-8364.327145,536.266849,296.082377
1213.911736,-8364.327145,842.705048,222.061783
1213.912047,-8364.327145,1225.752797,370.102971
1213.912359,-8882.471304,1225.752797,518.144159
1213.912670,-9474.636058,919.314598,666.185348
1213.912981,-9992.780217,995.924147,444.123565
1213.913293,-9844.739029,995.924147,370.102971
1213.913604,-9400.615463,459.657299,296.082377
1213.913915,-9622.677246,-459.657299,592.164754
1213.914227,-9474.636058,-919.314598,592.164754
1213.914538,-9696.697840,-1149.143247,740.205942
1213.914850,-8808.450710,-1225.752797,740.205942
1213.915161,-8956.491898,-995.924147,740.205942
1213.915472,-8068.244768,-383.047749,1554.432478
1213.915784,-7846.182985,-306.438199,148.041188
1213.916095,-7994.224174,-612.876398,962.267725
1213.916406,-7698.141797,229.828649,1184.329507
1213.916718,-7624.121203,919.314598,1480.411884
1213.917029,-8142.265362,1072.533697,1554.432478
1213.917340,-7624.121203,306.438199,1406.391290
1213.917652,-7179.997637,153.219100,444.123565
1213.917963,-7328.038826,612.876398,-0.000000
1213.918274,-7254.018232,536.266849,-148.041188
1213.918586,-8438.347739,0.000000,-666.185348
1213.918897,-9474.636058,-383.047749,-444.123565
1213.919209,-9918.759623,-612.876398,-0.000000
1213.919520,-10214.842000,-766.095498,370.102971
1213.919831,-10362.883188,-1149.143247,962.267725
1213.920143,-10140.821405,-612.876398,1184.329507
1213.920454,-9400.615463,-995.924147,1110.308913
1213.920765,-9474.636058,-1149.143247,740.205942
1213.921077,-8808.450710,-306.438199,1184.329507
1213.921388,-8512.368333,153.219100,888.247130
1213.921699,-9104.533087,306.438199,666.185348
1213.922011,-8882.471304,536.266849,444.123565
1213.922322,-8734.430116,689.485948,-148.041188
1213.922633,-9030.512492,76.609550,-148.041188
1213.922945,-9326.594869,76.609550,-370.102971
1213.923256,-9548.656652,766.095498,-370.102971
1213.923568,-9992.780217,76.609550,-0.000000
1213.923879,-9844.739029,-842.705048,-0.000000
1213.924190,-9844.739029,-1378.971896,370.102971
1213.924502,-9474.636058,-1149.143247,666.185348
1213.924813,-8512.368333,-1225.752797,962.267725
1213.925124,-8216.285956,-842.705048,444.123565
1213.925436,-8734.430116,-689.485948,592.164754
1213.925747,-7920.203579,-459.657299,444.123565
1213.926058,-7624.121203,0.000000,370.102971
1213.926370,-7550.100608,459.657299,444.123565
1213.926681,-7550.100608,766.095498,518.144159
1213.926992,-8142.265362,612.876398,-74.020594
1213.927304,-7920.203579,0.000000,-148.041188
1213.927615,-7698.141797,-153.219100,-0.000000
1213.927926,-8808.450710,-229.828649,-222.061783
1213.928238,-9548.656652,-612.876398,296.082377
1213.928549,-10436.903782,-1072.533697,-0.000000
1213.928861,-10436.903782,-1072.533697,444.123565
1213.929172,-10140.821405,-995.924147,962.267725
1213.929483,-10140.821405,-919.314598,1036.288319
1213.929795,-9622.677246,-842.705048,888.247130
1213.930106,-8956.491898,0.000000,444.123565
1213.930417,-8142.265362,0.000000,740.205942
1213.930729,-8216.285956,1072.533697,592.164754
1213.931040,-8586.388927,1302.362347,592.164754
1213.931351,-8586.388927,1149.143247,814.226536
1213.931663,-8956.491898,766.095498,592.164754
1213.931974,-9326.594869,766.095498,-0.000000
1213.932285,-9474.636058,1225.752797,444.123565
1213.932597,-9696.697840,919.314598,148.041188
1213.932908,-9252.574275,0.000000,666.185348
1213.933220,-9844.739029,-1302.362347,518.144159
1213.933531,-9844.739029,-995.924147,1110.308913
1213.933842,-9326.594869,-689.485948,1110.308913
1213.934154,-8808.450710,-306.438199,962.267725
1213.934465,-8142.265362,-536.266849,888.247130
1213.934776,-7476.080014,-306.438199,666.185348
1213.935088,-7698.141797,0.000000,-0.000000
1213.935399,-7846.182985,459.657299,370.102971
1213.935710,-7920.203579,1608.800546,740.205942
1213.936022,-8364.327145,1225.752797,1332.370696
1213.936333,-7772.162391,612.876398,1258.350101
1213.936644,-7476.080014,0.000000,1184.329507
1213.936956,-7772.162391,383.047749,296.082377
1213.937267,-7550.100608,919.314598,148.041188
1213.937578,-8290.306550,0.000000,-518.144159
1213.937890,-9474.636058,-459.657299,-592.164754
1213.938201,-10140.821405,-459.657299,-444.123565
1213.938513,-10362.883188,0.000000,-222.061783
1213.938824,-10807.006753,0.000000,370.102971
1213.939135,-10288.862594,0.000000,296.082377
1213.939447,-9770.718434,-383.047749,814.226536
1213.939758,-9326.594869,-612.876398,888.247130
1213.940069,-8512.368333,-229.828649,1258.350101
1213.940381,-9252.574275,306.438199,740.205942
1213.940692,-9030.512492,612.876398,666.185348
1213.941003,-8956.491898,842.705048,296.082377
1213.941315,-8808.450710,459.657299,-74.020594
1213.941626,-9622.677246,229.828649,-0.000000
1213.941937,-9622.677246,0.000000,-0.000000
1213.942249,-9770.718434,0.000000,-0.000000
1213.942560,-10362.883188,-306.438199,-0.000000
1213.942872,-10066.800811,-612.876398,222.061783
1213.943183,-9622.677246,-842.705048,-0.000000
1213.943494,-8438.347739,-306.438199,148.041188
1213.943806,-8068.244768,0.000000,296.082377
1213.944117,-7624.121203,-459.657299,518.144159
1213.944428,-7920.203579,-229.828649,296.082377
1213.944740,-7846.182985,76.609550,444.123565
1213.945051,-7476.080014,459.657299,814.226536
1213.945362,-7772.162391,306.438199,1110.308913
1213.945674,-7476.080014,0.000000,888.247130
1213.945985,-7254.018232,-153.219100,444.123565
1213.946296,-8216.285956,-306.438199,296.082377
1213.946608,-7846.182985,-536.266849,592.164754
1213.946919,-8586.388927,-306.438199,740.205942
1213.947231,-9104.533087,-459.657299,666.185348
1213.947542,-10066.800811,-995.924147,814.226536
1213.947853,-10436.903782,-919.314598,1036.288319
1213.948165,-10214.842000,-612.876398,1258.350101
1213.948476,-10584.944971,-153.219100,1184.329507
1213.948787,-10140.821405,-842.705048,1036.288319
1213.949099,-9326.594869,-153.219100,740.205942
1213.949410,-8882.471304,766.095498,-0.000000
1213.949721,-8364.327145,1455.581446,222.061783
1213.950033,-8364.327145,1225.752797,592.164754
1213.950344,-8512.368333,1225.752797,814.226536
1213.950655,-8882.471304,689.485948,814.226536
1213.950967,-9326.594869,1455.581446,740.205942
1213.951278,-9474.636058,1455.581446,962.267725
1213.951589,-9252.574275,536.266849,814.226536
1213.951901,-9178.553681,689.485948,518.144159
1213.952212,-9622.677246,-383.047749,592.164754
1213.952524,-9844.739029,-919.314598,222.061783
1213.952835,-9326.594869,-383.047749,518.144159
1213.953146,-8956.491898,-459.657299,814.226536
1213.953458,-8734.430116,-995.924147,888.247130
1213.953769,-7994.224174,-842.705048,962.267725
1213.954080,-7920.203579,-306.438199,592.164754
1213.954392,-8142.265362,306.438199,814.226536
1213.954703,-7920.203579,1302.362347,1480.411884
1213.955014,-8142.265362,1225.752797,1258.350101
1213.955326,-7772.162391,536.266849,1480.411884
1213.955637,-7105.977043,229.828649,1110.308913
1213.955948,-7105.977043,612.876398,296.082377
1213.956260,-7105.977043,766.095498,-666.185348
1213.956571,-7550.100608,0.000000,-740.205942
1213.956883,-8586.388927,-536.266849,-518.144159
1213.957194,-9178.553681,-919.314598,-222.061783
1213.957505,-10362.883188,-459.657299,-222.061783
1213.957817,-10510.924376,-536.266849,296.082377
1213.958128,-10362.883188,-689.485948,740.205942
1213.958439,-9992.780217,-383.047749,592.164754
1213.958751,-9252.574275,306.438199,518.144159
1213.959062,-9178.553681,-459.657299,888.247130
1213.959373,-8660.409521,-306.438199,666.185348
1213.959685,-9030.512492,153.219100,814.226536
1213.959996,-9474.636058,459.657299,296.082377
1213.960307,-9474.636058,153.219100,148.041188
1213.960619,-9992.780217,-383.047749,148.041188
1213.960930,-9918.759623,-229.828649,518.144159
1213.961241,-9474.636058,-306.438199,222.061783
1213.961553,-9992.780217,0.000000,-0.000000
1213.961864,-9770.718434,-612.876398,370.102971
1213.962176,-9696.697840,-1072.533697,444.123565
1213.962487,-8882.471304,-766.095498,888.247130
1213.962798,-8216.285956,-383.047749,592.164754
1213.963110,-8660.409521,-153.219100,666.185348
1213.963421,-8142.265362,-689.485948,888.247130
1213.963732,-7920.203579,-536.266849,592.164754
1213.964044,-8586.388927,0.000000,222.061783
1213.964355,-7994.224174,536.266849,592.164754
1213.964666,-7624.121203,459.657299,962.267725
1213.964978,-8142.265362,229.828649,666.185348
1213.965289,-8216.285956,76.609550,296.082377
1213.965600,-8068.244768,459.657299,148.041188
1213.965912,-8068.244768,1149.143247,-0.000000
1213.966223,-8956.491898,612.876398,296.082377
1213.966535,-9474.636058,0.000000,-148.041188
1213.966846,-9844.739029,-459.657299,296.082377
1213.967157,-9474.636058,-383.047749,888.247130
1213.967469,-9696.697840,-153.219100,740.205942
1213.967780,-9770.718434,-766.095498,962.267725
1213.968091,-8882.471304,-1149.143247,814.226536
1213.968403,-8882.471304,0.000000,740.205942
1213.968714,-7994.224174,-306.438199,888.247130
1213.969025,-8438.347739,459.657299,814.226536
1213.969337,-8734.430116,459.657299,666.185348
1213.969648,-8882.471304,536.266849,740.205942
1213.969959,-8956.491898,306.438199,592.164754
1213.970271,-9178.553681,459.657299,370.102971
1213.970582,-9326.594869,689.485948,222.061783
1213.970894,-9030.512492,-229.828649,814.226536
1213.971205,-9400.615463,-1378.971896,888.247130
1213.971516,-9622.677246,-1915.238745,444.123565
1213.971828,-9844.739029,-1225.752797,814.226536
1213.972139,-9400.615463,-842.705048,1036.288319
1213.972450,-8438.347739,-459.657299,740.205942
1213.972762,-7772.162391,-306.438199,370.102971
1213.973073,-7624.121203,-153.219100,-222.061783
1213.973384,-8290.306550,229.828649,-74.020594
1213.973696,-7624.121203,1225.752797,518.144159
1213.974007,-8586.388927,1532.190996,518.144159
1213.974318,-8882.471304,1072.533697,666.185348
1213.974630,-8734.430116,229.828649,740.205942
1213.974941,-8512.368333,-306.438199,370.102971
1213.975253,-8290.306550,-229.828649,-74.020594
1213.975564,-8364.327145,153.219100,-74.020594
1213.975875,-9326.594869,-2298.286494,-296.082377
1213.976187,-9770.718434,-2145.067394,-0.000000
1213.976498,-10510.924376,-1532.190996,-0.000000
1213.976809,-10658.965565,-459.657299,222.061783
1213.977121,-10658.965565,0.000000,666.185348
1213.977432,-10362.883188,0.000000,592.164754
1213.977743,-9474.636058,-306.438199,592.164754
1213.978055,-9400.615463,76.609550,222.061783
1213.978366,-8438.347739,995.924147,666.185348
1213.978678,-8068.244768,1608.800546,666.185348
1213.978989,-8808.450710,1302.362347,296.082377
1213.979300,-8808.450710,1072.533697,370.102971
1213.979612,-8882.471304,1225.752797,-0.000000
1213.979923,-9252.574275,995.924147,148.041188
1213.980234,-9104.533087,1608.800546,-0.000000
1213.980546,-9548.656652,1072.533697,-0.000000
1213.980857,-8734.430116,0.000000,296.082377
1213.981168,-8364.327145,-842.705048,370.102971
1213.981480,-8290.306550,-1225.752797,592.164754
1213.981791,-8512.368333,-919.314598,666.185348
1213.982103,-8512.368333,-995.924147,814.226536
1213.982414,-8586.388927,-1072.533697,1036.288319
1213.982725,-8438.347739,-229.828649,888.247130
1213.983037,-8216.285956,1072.533697,1332.370696
1213.983348,-7772.162391,-459.657299,1480.411884
1213.983659,-7402.059420,0.000000,1480.411884
1213.983971,-7179.997637,459.657299,962.267725
1213.984282,-7105.977043,842.705048,148.041188
1213.984594,-7254.018232,842.705048,-0.000000
1213.984905,-8142.265362,153.219100,-0.000000
1213.985216,-9030.512492,76.609550,-74.020594
1213.985528,-9474.636058,0.000000,-0.000000
1213.985839,-10214.842000,-306.438199,444.123565
1213.986150,-10436.903782,-1302.362347,1258.350101
1213.986462,-10584.944971,-1378.971896,1184.329507
1213.986773,-10214.842000,-1455.581446,1110.308913
1213.987084,-9178.553681,-1378.971896,1036.288319
1213.987396,-8660.409521,-459.657299,1036.288319
1213.987707,-8438.347739,306.438199,962.267725
1213.988019,-8438.347739,1149.143247,592.164754
1213.988330,-8438.347739,1225.752797,740.205942
1213.988641,-9178.553681,612.876398,814.226536
1213.988953,-9474.636058,459.657299,518.144159
1213.989264,-9474.636058,689.485948,148.041188
1213.989575,-9622.677246,536.266849,296.082377
1213.989887,-9844.739029,-229.828649,-0.000000
1213.990198,-9696.697840,-995.924147,370.102971
1213.990510,-9992.780217,-1532.190996,296.082377
1213.990821,-9548.656652,-1532.190996,518.144159
1213.991132,-8586.388927,-1225.752797,1258.350101
1213.991444,-8512.368333,-842.705048,740.205942
1213.991755,-7846.182985,-689.485948,296.082377
1213.992066,-7402.059420,-383.047749,-0.000000
1213.992378,-7031.956449,766.095498,-74.020594
1213.992689,-7476.080014,1455.581446,370.102971
1213.993000,-8364.327145,1149.143247,592.164754
1213.993312,-8290.306550,766.095498,814.226536
1213.993623,-8364.327145,0.000000,1036.288319
1213.993935,-8142.265362,-229.828649,518.144159
1213.994246,-8142.265362,306.438199,-0.000000
1213.994557,-8734.430116,383.047749,-518.144159
1213.994869,-9104.533087,-306.438199,-592.164754
1213.995180,-10288.862594,-153.219100,-666.185348
1213.995491,-10288.862594,-229.828649,-148.041188
1213.995803,-10288.862594,-229.828649,-0.000000
1213.996114,-10066.800811,-383.047749,296.082377
1213.996425,-9696.697840,-153.219100,888.247130
1213.996737,-9548.656652,0.000000,888.247130
1213.997048,-8882.471304,459.657299,888.247130
1213.997360,-8438.347739,0.000000,888.247130
1213.997671,-9178.553681,842.705048,666.185348
1213.997982,-8808.450710,1225.752797,1036.288319
1213.998294,-8586.388927,1455.581446,296.082377
1213.998605,-9252.574275,1149.143247,-0.000000
1213.998916,-9326.594869,1072.533697,-0.000000
1213.999228,-9104.533087,842.705048,-0.000000
1213.999539,-9474.636058,459.657299,-148.041188
1213.999851,-9622.677246,306.438199,370.102971
1214.000162,-9770.718434,-689.485948,-0.000000
1214.000473,-9252.574275,-1225.752797,666.185348
1214.000785,-9030.512492,-1532.190996,814.226536
1214.001096,-8364.327145,-1762.019645,1332.370696
1214.001407,-8142.265362,-1838.629195,1480.411884
1214.001719,-7920.203579,-1532.190996,1628.453072
1214.002030,-7846.182985,-919.314598,1036.288319
1214.002341,-7328.038826,0.000000,1258.350101
1214.002653,-8068.244768,76.609550,222.061783
1214.002964,-7179.997637,689.485948,1184.329507
1214.003276,-7920.203579,229.828649,148.041188
1214.003587,-7550.100608,383.047749,296.082377
1214.003898,-7550.100608,153.219100,148.041188
1214.004210,-8956.491898,-536.266849,-0.000000
1214.004521,-9622.677246,-383.047749,370.102971
1214.004832,-10288.862594,-995.924147,74.020594
1214.005144,-9696.697840,-1378.971896,814.226536
1214.005455,-10584.944971,-1302.362347,444.123565
1214.005767,-10288.862594,-1225.752797,814.226536
1214.006078,-9548.656652,-995.924147,888.247130
1214.006389,-8586.388927,-459.657299,592.164754
1214.006701,-8512.368333,76.609550,296.082377
1214.007012,-8438.347739,766.095498,296.082377
1214.007323,-8364.327145,1378.971896,148.041188
1214.007635,-8438.347739,383.047749,222.061783
1214.007946,-8956.491898,76.609550,148.041188
1214.008257,-9400.615463,459.657299,444.123565
1214.008569,-9622.677246,689.485948,518.144159
1214.008880,-9992.780217,76.609550,370.102971
1214.009192,-10732.986159,-766.095498,888.247130
1214.009503,-10510.924376,-1302.362347,148.041188
1214.009814,-9992.780217,-842.705048,518.144159
1214.010126,-9178.553681,-766.095498,296.082377
1214.010437,-8438.347739,-995.924147,518.144159
1214.010748,-8216.285956,153.219100,370.102971
1214.011060,-7920.203579,459.657299,-0.000000
1214.011371,-7476.080014,766.095498,592.164754
1214.011682,-7476.080014,1072.533697,740.205942
1214.011994,-7476.080014,1762.019645,888.247130
1214.012305,-7624.121203,1455.581446,962.267725
1214.012617,-7624.121203,536.266849,888.247130
1214.012928,-7476.080014,229.828649,962.267725
1214.013239,-7994.224174,76.609550,518.144159
1214.013551,-8438.347739,-306.438199,-74.020594
1214.013862,-9474.636058,-689.485948,-74.020594
1214.014173,-9696.697840,-919.314598,-148.041188
1214.014485,-10288.862594,-919.314598,-222.061783
1214.014796,-9696.697840,-1149.143247,592.164754
1214.015108,-9770.718434,-1072.533697,222.061783
1214.015419,-9918.759623,-1149.143247,814.226536
1214.015730,-9474.636058,-612.876398,1036.288319
1214.016042,-9326.594869,-536.266849,1110.308913
1214.016353,-8808.450710,-383.047749,962.267725
1214.016664,-8216.285956,153.219100,814.226536
1214.016976,-7772.162391,383.047749,962.267725
1214.017287,-7846.182985,383.047749,296.082377
1214.017598,-8438.347739,536.266849,-74.020594
1214.017910,-8956.491898,229.828649,-0.000000
1214.018221,-9104.533087,459.657299,-296.082377
1214.018533,-10066.800811,153.219100,-74.020594
1214.018844,-10066.800811,-459.657299,148.041188
1214.019155,-9770.718434,-842.705048,222.061783
1214.019467,-9548.656652,-1225.752797,222.061783
1214.019778,-9474.636058,-766.095498,518.144159
1214.020089,-8808.450710,-1378.971896,592.164754
1214.020401,-8512.368333,-1302.362347,592.164754
1214.020712,-8290.306550,-995.924147,666.185348
1214.021023,-8438.347739,-459.657299,666.185348
1214.021335,-8364.327145,153.219100,666.185348
1214.021646,-8882.471304,842.705048,592.164754
1214.021958,-8364.327145,1072.533697,444.123565
1214.022269,-8364.327145,536.266849,-74.020594
1214.022580,-8290.306550,536.266849,-0.000000
1214.022892,-7772.162391,612.876398,-74.020594
1214.023203,-8364.327145,153.219100,-148.041188
1214.023514,-8956.491898,-229.828649,148.041188
1214.023826,-9844.739029,-459.657299,-74.020594
1214.024137,-9548.656652,-153.219100,666.185348
1214.024449,-10140.821405,-153.219100,1036.288319
1214.024760,-9992.780217,-536.266849,1036.288319
1214.025071,-9622.677246,-153.219100,888.247130
1214.025383,-8956.491898,229.828649,888.247130
1214.025694,-8068.244768,689.485948,296.082377
1214.026005,-7624.121203,1302.362347,222.061783
1214.026317,-7698.141797,1225.752797,148.041188
1214.026628,-7402.059420,1225.752797,296.082377
1214.026939,-8142.265362,612.876398,592.164754
1214.027251,-9178.553681,689.485948,1036.288319
1214.027562,-9474.636058,153.219100,1110.308913
1214.027874,-9770.718434,0.000000,1184.329507
1214.028185,-10066.800811,-919.314598,1036.288319
1214.028496,-10066.800811,-1072.533697,592.164754
1214.028808,-9992.780217,-995.924147,222.061783
1214.029119,-8512.368333,-1302.362347,814.226536
1214.029430,-8068.244768,-612.876398,592.164754
1214.029742,-7846.182985,-612.876398,888.247130
1214.030053,-8142.265362,0.000000,370.102971
1214.030365,-8364.327145,689.485948,592.164754
1214.030676,-8290.306550,1532.190996,962.267725
1214.030987,-8364.327145,1302.362347,1110.308913
1214.031299,-8290.306550,1149.143247,962.267725
1214.031610,-7476.080014,0.000000,1110.308913
1214.031921,-7624.121203,0.000000,370.102971
1214.032233,-7624.121203,0.000000,-0.000000
1214.032544,-7994.224174,-229.828649,-0.000000
1214.032855,-8956.491898,-919.314598,-222.061783
1214.033167,-9844.739029,-1455.581446,222.061783
1214.033478,-10214.842000,-1378.971896,-0.000000
1214.033790,-10214.842000,-1225.752797,-0.000000
1214.034101,-9992.780217,-383.047749,666.185348
1214.034412,-9992.780217,-766.095498,370.102971
1214.034724,-9918.759623,-306.438199,370.102971
1214.035035,-9252.574275,229.828649,740.205942
1214.035346,-8882.471304,459.657299,666.185348
1214.035658,-8956.491898,306.438199,592.164754
1214.035969,-8512.368333,612.876398,518.144159
1214.036280,-9474.636058,1072.533697,-74.020594
1214.036592,-8364.327145,229.828649,296.082377
1214.036903,-9474.636058,383.047749,-74.020594
1214.037215,-9548.656652,383.047749,222.061783
1214.037526,-9474.636058,229.828649,-0.000000
1214.037837,-9400.615463,0.000000,296.082377
1214.038149,-9030.512492,-153.219100,370.102971
1214.038460,-8586.388927,-919.314598,-0.000000
1214.038771,-8808.450710,-995.924147,222.061783
1214.039083,-8512.368333,-919.314598,518.144159
1214.039394,-8586.388927,-689.485948,444.123565
1214.039706,-8512.368333,-459.657299,888.247130
1214.040017,-8364.327145,-383.047749,962.267725
1214.040328,-7846.182985,0.000000,1110.308913
1214.040640,-7772.162391,76.609550,814.226536
1214.040951,-7402.059420,919.314598,962.267725
1214.041262,-8142.265362,995.924147,148.041188
1214.041574,-7920.203579,-306.438199,-0.000000
1214.041885,-7179.997637,459.657299,222.061783
1214.042196,-8290.306550,-306.438199,-74.020594
1214.042508,-9326.594869,-689.485948,-0.000000
1214.042819,-10214.842000,-1225.752797,222.061783
1214.043131,-10658.965565,-1225.752797,666.185348
1214.043442,-10140.821405,-919.314598,962.267725
1214.043753,-10436.903782,-919.314598,1036.288319
1214.044065,-9474.636058,-919.314598,740.205942
1214.044376,-8586.388927,-689.485948,888.247130
1214.044687,-8364.327145,0.000000,296.082377
1214.044999,-8660.409521,1072.533697,148.041188
1214.045310,-8956.491898,1532.190996,222.061783
1214.045621,-8956.491898,1532.190996,370.102971
1214.045933,-9474.636058,919.314598,-0.000000
1214.046244,-9696.697840,1149.143247,296.082377
1214.046556,-9474.636058,1149.143247,-0.000000
1214.046867,-9400.615463,612.876398,74.020594
1214.047178,-9844.739029,-383.047749,592.164754
1214.047490,-10510.924376,-1072.533697,814.226536
1214.047801,-10214.842000,-995.924147,1036.288319
1214.048112,-9474.636058,-919.314598,1110.308913
1214.048424,-8586.388927,-1302.362347,1258.350101
1214.048735,-8216.285956,0.000000,666.185348
1214.049047,-7624.121203,306.438199,296.082377
1214.049358,-7254.018232,76.609550,444.123565
1214.049669,-7254.018232,536.266849,740.205942
1214.049981,-7624.121203,1378.971896,962.267725
1214.050292,-8216.285956,995.924147,1110.308913
1214.050603,-8068.244768,383.047749,1110.308913
1214.050915,-7179.997637,-229.828649,1036.288319
1214.051226,-7402.059420,-689.485948,888.247130
1214.051537,-7994.224174,-995.924147,296.082377
1214.051849,-7920.203579,-612.876398,74.020594
1214.052160,-9178.553681,-536.266849,-0.000000
1214.052472,-9622.677246,-612.876398,-0.000000
1214.052783,-9844.739029,-842.705048,-148.041188
1214.053094,-9474.636058,-919.314598,148.041188
1214.053406,-9696.697840,-306.438199,518.144159
1214.053717,-9474.636058,0.000000,518.144159
1214.054028,-9326.594869,76.609550,888.247130
1214.054340,-8956.491898,459.657299,962.267725
1214.054651,-8660.409521,153.219100,962.267725
1214.054963,-9104.533087,76.609550,814.226536
1214.055274,-9030.512492,766.095498,962.267725
1214.055585,-9326.594869,612.876398,592.164754
1214.055897,-9548.656652,153.219100,370.102971
1214.056208,-9252.574275,612.876398,-0.000000
1214.056519,-9770.718434,536.266849,-74.020594
1214.056831,-9844.739029,306.438199,-74.020594
1214.057142,-9474.636058,-536.266849,-0.000000
1214.057453,-9252.574275,-1225.752797,222.061783
1214.057765,-8142.265362,-1149.143247,666.185348
1214.058076,-8734.430116,-1532.190996,814.226536
1214.058388,-8882.471304,-1455.581446,666.185348
1214.058699,-8808.450710,-919.314598,1332.370696
1214.059010,-8586.388927,-229.828649,1036.288319
1214.059322,-7994.224174,306.438199,962.267725
1214.059633,-8290.306550,153.219100,962.267725
1214.059944,-7846.182985,612.876398,666.185348
1214.060256,-7328.038826,766.095498,444.123565
1214.060567,-7994.224174,306.438199,-296.082377
1214.060878,-7402.059420,76.609550,518.144159
1214.061190,-8808.450710,-842.705048,-370.102971
1214.061501,-9622.677246,-766.095498,-0.000000
1214.061813,-9844.739029,-1149.143247,-0.000000
1214.062124,-10584.944971,-1532.190996,148.041188
1214.062435,-10140.821405,-1455.581446,888.247130
1214.062747,-10214.842000,-1378.971896,592.164754
1214.063058,-9548.656652,-766.095498,1184.329507
1214.063369,-8512.368333,153.219100,1110.308913
1214.063681,-8290.306550,383.047749,296.082377
1214.063992,-7920.203579,229.828649,518.144159
1214.064304,-7772.162391,842.705048,222.061783
1214.064615,-7920.203579,842.705048,148.041188
1214.064926,-8216.285956,766.095498,222.061783
1214.065238,-9622.677246,612.876398,-0.000000
1214.065549,-10066.800811,459.657299,-0.000000
1214.065860,-9696.697840,459.657299,-0.000000
1214.066172,-9918.759623,-229.828649,296.082377
1214.066483,-10584.944971,-1225.752797,666.185348
1214.066794,-10510.924376,-1072.533697,814.226536
1214.067106,-9548.656652,-536.266849,962.267725
1214.067417,-8586.388927,76.609550,814.226536
1214.067729,-8142.265362,153.219100,444.123565
1214.068040,-7328.038826,229.828649,-0.000000
1214.068351,-7179.997637,153.219100,444.123565
1214.068663,-7105.977043,1149.143247,592.164754
1214.068974,-7772.162391,1532.190996,518.144159
1214.069285,-8586.388927,1685.410096,888.247130
1214.069597,-8512.368333,612.876398,1110.308913
1214.069908,-8068.244768,0.000000,962.267725
1214.070219,-7994.224174,0.000000,444.123565
1214.070531,-7772.162391,153.219100,296.082377
1214.070842,-8364.327145,-229.828649,-0.000000
1214.071154,-8882.471304,-842.705048,370.102971
1214.071465,-9178.553681,-612.876398,148.041188
1214.071776,-9696.697840,-612.876398,148.041188
1214.072088,-9622.677246,-153.219100,518.144159
1214.072399,-9474.636058,-383.047749,592.164754
1214.072710,-9104.533087,-536.266849,592.164754
1214.073022,-9030.512492,76.609550,518.144159
1214.073333,-9252.574275,-306.438199,814.226536
1214.073645,-9030.512492,0.000000,888.247130
1214.073956,-9400.615463,689.485948,1036.288319
1214.074267,-9178.553681,919.314598,740.205942
1214.074579,-8882.471304,1225.752797,740.205942
1214.074890,-9252.574275,536.266849,296.082377
