#time,accel_x,accel_y,accel_z
1174.734987,-8660.409521,-612.876398,592.164754
1174.735298,-8956.491898,-306.438199,592.164754
1174.735610,-8882.471304,-153.219100,666.185348
1174.735921,-8956.491898,0.000000,444.123565
1174.736233,-9030.512492,-229.828649,444.123565
1174.736544,-8882.471304,-153.219100,370.102971
1174.736855,-9178.553681,0.000000,-0.000000
1174.737167,-8808.450710,0.000000,296.082377
1174.737478,-8734.430116,0.000000,444.123565
1174.737790,-8956.491898,0.000000,370.102971
1174.738101,-8808.450710,0.000000,666.185348
1174.738413,-9030.512492,0.000000,518.144159
1174.738724,-8882.471304,0.000000,740.205942
1174.739035,-8956.491898,-153.219100,666.185348
1174.739347,-8438.347739,459.657299,666.185348
1174.739658,-8586.388927,-459.657299,222.061783
1174.739970,-8734.430116,0.000000,518.144159
1174.740281,-8808.450710,0.000000,370.102971
1174.740593,-9030.512492,0.000000,370.102971
1174.740904,-8808.450710,76.609550,814.226536
1174.741215,-8734.430116,-153.219100,444.123565
1174.741527,-8956.491898,0.000000,370.102971
1174.741838,-8660.409521,0.000000,444.123565
1174.742150,-8512.368333,0.000000,666.185348
1174.742461,-9178.553681,536.266849,296.082377
1174.742773,-9252.574275,-383.047749,444.123565
1174.743084,-9030.512492,0.000000,518.144159
1174.743395,-9030.512492,76.609550,444.123565
1174.743707,-9030.512492,0.000000,592.164754
1174.744018,-8882.471304,0.000000,222.061783
1174.744330,-8808.450710,153.219100,666.185348
1174.744641,-8882.471304,689.485948,444.123565
1174.744953,-8808.450710,0.000000,444.123565
1174.745264,-8956.491898,0.000000,592.164754
1174.745575,-8882.471304,0.000000,592.164754
1174.745887,-8808.450710,-153.219100,740.205942
1174.746198,-9104.533087,-229.828649,444.123565
1174.746510,-8660.409521,0.000000,518.144159
1174.746821,-8734.430116,0.000000,370.102971
1174.747133,-8808.450710,306.438199,518.144159
1174.747444,-8438.347739,0.000000,518.144159
1174.747755,-9030.512492,0.000000,296.082377
1174.748067,-8956.491898,0.000000,592.164754
1174.748378,-9178.553681,0.000000,444.123565
1174.748690,-8956.491898,0.000000,592.164754
1174.749001,-8808.450710,0.000000,666.185348
1174.749312,-8808.450710,0.000000,592.164754
1174.749624,-8660.409521,0.000000,444.123565
1174.749935,-8734.430116,-536.266849,592.164754
1174.750247,-8956.491898,0.000000,296.082377
1174.750558,-9030.512492,76.609550,444.123565
1174.750870,-8882.471304,0.000000,666.185348
1174.751181,-8956.491898,0.000000,592.164754
1174.751492,-8882.471304,0.000000,222.061783
1174.751804,-8808.450710,-306.438199,296.082377
1174.752115,-9030.512492,229.828649,148.041188
1174.752427,-8956.491898,76.609550,444.123565
1174.752738,-9252.574275,76.609550,444.123565
1174.753050,-9104.533087,0.000000,666.185348
1174.753361,-9326.594869,-229.828649,370.102971
1174.753672,-8364.327145,-536.266849,814.226536
1174.753984,-9104.533087,0.000000,370.102971
1174.754295,-8586.388927,0.000000,666.185348
1174.754607,-8882.471304,383.047749,518.144159
1174.754918,-8956.491898,0.000000,518.144159
1174.755230,-9104.533087,-229.828649,592.164754
1174.755541,-8808.450710,0.000000,370.102971
1174.755852,-9104.533087,0.000000,518.144159
1174.756164,-8808.450710,0.000000,666.185348
1174.756475,-8438.347739,-306.438199,370.102971
1174.756787,-9178.553681,-459.657299,-0.000000
1174.757098,-9030.512492,-306.438199,518.144159
1174.757410,-9326.594869,0.000000,518.144159
1174.757721,-9104.533087,76.609550,518.144159
1174.758032,-8956.491898,0.000000,444.123565
1174.758344,-8956.491898,0.000000,518.144159
1174.758655,-8956.491898,0.000000,296.082377
1174.758967,-9030.512492,0.000000,592.164754
1174.759278,-8956.491898,0.000000,296.082377
1174.759590,-9326.594869,229.828649,222.061783
1174.759901,-8956.491898,-306.438199,592.164754
1174.760212,-8808.450710,76.609550,296.082377
1174.760524,-8734.430116,-153.219100,444.123565
1174.760835,-8808.450710,612.876398,518.144159
1174.761147,-8660.409521,-229.828649,592.164754
1174.761458,-8142.265362,-612.876398,518.144159
1174.761770,-8734.430116,-536.266849,592.164754
1174.762081,-8882.471304,-383.047749,592.164754
1174.762392,-9104.533087,0.000000,518.144159
1174.762704,-8956.491898,0.000000,518.144159
1174.763015,-8956.491898,-153.219100,666.185348
1174.763327,-8956.491898,76.609550,518.144159
1174.763638,-9030.512492,-229.828649,370.102971
1174.763949,-8882.471304,-612.876398,444.123565
1174.764261,-8882.471304,0.000000,296.082377
1174.764572,-9104.533087,0.000000,444.123565
1174.764884,-8882.471304,0.000000,518.144159
1174.765195,-8734.430116,0.000000,666.185348
1174.765507,-8734.430116,-306.438199,518.144159
1174.765818,-8660.409521,0.000000,222.061783
1174.766129,-9030.512492,459.657299,666.185348
1174.766441,-8956.491898,0.000000,-0.000000
1174.766752,-9104.533087,229.828649,296.082377
1174.767064,-8882.471304,76.609550,444.123565
1174.767375,-8808.450710,-153.219100,444.123565
1174.767687,-9030.512492,76.609550,370.102971
1174.767998,-9030.512492,0.000000,666.185348
1174.768309,-10584.944971,536.266849,222.061783
1174.768621,-11547.212695,2298.286494,518.144159
1174.768932,-9030.512492,4596.572988,888.247130
1174.769244,-7698.141797,4213.525239,740.205942
1174.769555,-6883.915261,1762.019645,1332.370696
1174.769867,-6513.812290,-536.266849,296.082377
1174.770178,-7254.018232,-1225.752797,-0.000000
1174.770489,-7254.018232,-306.438199,-0.000000
1174.770801,-10881.027347,-1302.362347,-1036.288319
1174.771112,-13101.645173,-306.438199,-592.164754
1174.771424,-10584.944971,995.924147,592.164754
1174.771735,-8808.450710,229.828649,1184.329507
1174.772047,-8734.430116,-383.047749,2812.782580
1174.772358,-11547.212695,153.219100,1258.350101
1174.772669,-8882.471304,4290.134789,2368.659014
1174.772981,-4663.297435,5669.106685,2368.659014
1174.773292,-7772.162391,3524.039291,1480.411884
1174.773604,-8808.450710,1991.848295,-592.164754
1174.773915,-7698.141797,2911.162892,-1850.514855
1174.774227,-8290.306550,3140.991542,-1554.432478
1174.774538,-8290.306550,3830.477490,-518.144159
1174.774849,-11473.192101,2298.286494,-1924.535449
1174.775161,-14137.933492,-842.705048,666.185348
1174.775472,-9326.594869,-1455.581446,2738.761985
1174.775784,-9992.780217,0.000000,1036.288319
1174.776095,-8660.409521,4443.353888,2664.741391
1174.776407,-6365.771101,5515.887586,1258.350101
1174.776718,-7031.956449,2834.553343,1776.494261
1174.777029,-6587.832884,3753.867940,3108.864956
1174.777341,-7920.203579,5132.839837,814.226536
1174.777652,-9622.677246,6128.763984,-222.061783
1174.777964,-9548.656652,4213.525239,-1332.370696
1174.778275,-9030.512492,3447.429741,-1184.329507
1174.778586,-9326.594869,3064.381992,-1924.535449
1174.778898,-10807.006753,3447.429741,-296.082377
1174.779209,-11177.109724,3370.820191,1110.308913
1174.779521,-10066.800811,2528.115143,1924.535449
1174.779832,-10066.800811,4519.963438,2812.782580
1174.780144,-7105.977043,3830.477490,2146.597232
1174.780455,-5625.565159,4673.182538,370.102971
1174.780766,-6217.729913,3524.039291,370.102971
1174.781078,-5181.441594,4749.792088,222.061783
1174.781389,-6587.832884,3217.601092,-1628.453072
1174.781701,-7846.182985,2604.724693,-296.082377
1174.782012,-9548.656652,842.705048,-740.205942
1174.782324,-10140.821405,-612.876398,740.205942
1174.782635,-9918.759623,-1838.629195,592.164754
1174.782946,-10436.903782,-1991.848295,1406.391290
1174.783258,-9474.636058,-2374.896044,2072.576638
1174.783569,-9400.615463,-1302.362347,1702.473667
1174.783881,-8956.491898,0.000000,2072.576638
1174.784192,-7698.141797,842.705048,444.123565
1174.784504,-8216.285956,306.438199,592.164754
1174.784815,-8364.327145,536.266849,-0.000000
1174.785126,-7402.059420,459.657299,-814.226536
1174.785438,-7179.997637,-919.314598,-1184.329507
1174.785749,-7476.080014,-3447.429741,-592.164754
1174.786061,-7994.224174,-3600.648841,-0.000000
1174.786372,-10140.821405,-3983.696590,370.102971
1174.786684,-11843.295072,-4060.306139,814.226536
1174.786995,-12287.418637,-3064.381992,814.226536
1174.787306,-12287.418637,-1838.629195,888.247130
1174.787618,-12139.377449,-919.314598,296.082377
1174.787929,-9992.780217,-1072.533697,444.123565
1174.788241,-8290.306550,-612.876398,-1110.308913
1174.788552,-7698.141797,-383.047749,-0.000000
1174.788864,-7624.121203,-842.705048,-592.164754
1174.789175,-8512.368333,-842.705048,-222.061783
1174.789486,-9474.636058,-1072.533697,-370.102971
1174.789798,-11103.089130,-1838.629195,370.102971
1174.790109,-11917.315666,-1225.752797,1554.432478
1174.790421,-12361.439231,-1455.581446,1258.350101
1174.790732,-12065.356855,0.000000,1110.308913
1174.791043,-11325.150913,383.047749,888.247130
1174.791355,-9918.759623,2145.067394,518.144159
1174.791666,-8586.388927,3064.381992,-222.061783
1174.791978,-6883.915261,3600.648841,-518.144159
1174.792289,-6143.709319,3600.648841,-296.082377
1174.792601,-5329.482782,2451.505594,-0.000000
1174.792912,-5255.462188,1149.143247,222.061783
1174.793223,-6365.771101,0.000000,962.267725
1174.793535,-7846.182985,-1225.752797,1406.391290
1174.793846,-9030.512492,-1685.410096,1554.432478
1174.794158,-10436.903782,-1455.581446,1924.535449
1174.794469,-10881.027347,-459.657299,1924.535449
1174.794781,-10140.821405,229.828649,1258.350101
1174.795092,-8956.491898,459.657299,1258.350101
1174.795403,-7624.121203,1072.533697,740.205942
1174.795715,-6883.915261,2068.457845,444.123565
1174.796026,-6069.688724,3370.820191,222.061783
1174.796338,-5995.668130,2987.772442,148.041188
1174.796649,-5995.668130,1915.238745,296.082377
1174.796961,-6809.894666,1608.800546,888.247130
1174.797272,-7846.182985,919.314598,592.164754
1174.797583,-8660.409521,0.000000,592.164754
1174.797895,-10140.821405,-459.657299,518.144159
1174.798206,-10214.842000,-689.485948,962.267725
1174.798518,-9992.780217,-1302.362347,1036.288319
1174.798829,-10066.800811,-689.485948,888.247130
1174.799141,-9696.697840,0.000000,444.123565
1174.799452,-9400.615463,306.438199,222.061783
1174.799763,-8586.388927,306.438199,296.082377
1174.800075,-8290.306550,689.485948,148.041188
1174.800386,-7920.203579,-612.876398,-74.020594
1174.800698,-8512.368333,-1608.800546,962.267725
1174.801009,-9474.636058,-2298.286494,666.185348
1174.801321,-9696.697840,-2298.286494,1184.329507
1174.801632,-10584.944971,-2298.286494,1332.370696
1174.801943,-11251.130318,-2604.724693,1332.370696
1174.802255,-11399.171507,-842.705048,1184.329507
1174.802566,-11325.150913,-1608.800546,592.164754
1174.802878,-10584.944971,0.000000,444.123565
1174.803189,-9918.759623,919.314598,-148.041188
1174.803501,-9474.636058,1302.362347,-0.000000
1174.803812,-8438.347739,1149.143247,-888.247130
1174.804123,-7920.203579,766.095498,-888.247130
1174.804435,-7254.018232,1149.143247,-666.185348
1174.804746,-7698.141797,1072.533697,-592.164754
1174.805058,-8216.285956,459.657299,296.082377
1174.805369,-9178.553681,-1685.410096,370.102971
1174.805680,-9474.636058,-1532.190996,518.144159
1174.805992,-9548.656652,-1455.581446,666.185348
1174.806303,-9770.718434,-766.095498,1036.288319
1174.806615,-9770.718434,-612.876398,666.185348
1174.806926,-9252.574275,-536.266849,222.061783
1174.807238,-8586.388927,0.000000,296.082377
1174.807549,-7994.224174,153.219100,-148.041188
1174.807860,-7254.018232,459.657299,296.082377
1174.808172,-7402.059420,536.266849,-0.000000
1174.808483,-7550.100608,689.485948,370.102971
1174.808795,-7698.141797,766.095498,814.226536
1174.809106,-8068.244768,689.485948,962.267725
1174.809418,-8734.430116,229.828649,1110.308913
1174.809729,-9400.615463,766.095498,1184.329507
1174.810040,-9252.574275,612.876398,814.226536
1174.810352,-9178.553681,995.924147,-222.061783
1174.810663,-8586.388927,842.705048,-370.102971
1174.810975,-8068.244768,689.485948,-962.267725
1174.811286,-7550.100608,612.876398,-666.185348
1174.811598,-8068.244768,153.219100,-888.247130
1174.811909,-7772.162391,-536.266849,-0.000000
1174.812220,-8586.388927,-1838.629195,814.226536
1174.812532,-8734.430116,-1762.019645,1850.514855
1174.812843,-9622.677246,-2451.505594,2368.659014
1174.813155,-10362.883188,-2451.505594,2368.659014
1174.813466,-10955.047942,-1915.238745,2072.576638
1174.813778,-10288.862594,-919.314598,1776.494261
1174.814089,-9844.739029,-383.047749,888.247130
1174.814400,-9696.697840,306.438199,518.144159
1174.814712,-9178.553681,995.924147,-148.041188
1174.815023,-8808.450710,919.314598,-666.185348
1174.815335,-8364.327145,1685.410096,-148.041188
1174.815646,-8808.450710,1532.190996,370.102971
1174.815958,-9252.574275,842.705048,814.226536
1174.816269,-9030.512492,76.609550,1036.288319
1174.816580,-9326.594869,76.609550,1554.432478
1174.816892,-9104.533087,0.000000,1850.514855
1174.817203,-9400.615463,-612.876398,1480.411884
1174.817515,-9474.636058,-383.047749,1110.308913
1174.817826,-9400.615463,-995.924147,740.205942
1174.818137,-8956.491898,-1762.019645,-0.000000
1174.818449,-8512.368333,-1302.362347,-148.041188
1174.818760,-7846.182985,-612.876398,-370.102971
1174.819072,-8290.306550,-612.876398,-666.185348
1174.819383,-8364.327145,-766.095498,-0.000000
1174.819695,-8364.327145,-1072.533697,592.164754
1174.820006,-8290.306550,-612.876398,1184.329507
1174.820317,-8882.471304,-306.438199,1702.473667
1174.820629,-9178.553681,229.828649,1850.514855
1174.820940,-9178.553681,612.876398,1628.453072
1174.821252,-8808.450710,842.705048,814.226536
1174.821563,-7920.203579,1991.848295,296.082377
1174.821875,-7994.224174,2221.676944,-592.164754
1174.822186,-7994.224174,2604.724693,-888.247130
1174.822497,-7846.182985,2451.505594,-1924.535449
1174.822809,-7550.100608,1838.629195,-1924.535449
1174.823120,-7476.080014,1225.752797,-1110.308913
1174.823432,-7846.182985,689.485948,-444.123565
1174.823743,-9030.512492,536.266849,148.041188
1174.824054,-9400.615463,-383.047749,1036.288319
1174.824366,-9252.574275,-383.047749,1036.288319
1174.824677,-9992.780217,-1149.143247,1258.350101
1174.824989,-10140.821405,-995.924147,1332.370696
1174.825300,-10140.821405,-1225.752797,1036.288319
1174.825612,-9770.718434,-1378.971896,592.164754
1174.825923,-9918.759623,-919.314598,-0.000000
1174.826234,-9252.574275,-612.876398,148.041188
1174.826546,-8808.450710,-153.219100,-518.144159
1174.826857,-9030.512492,76.609550,-296.082377
1174.827169,-9104.533087,-612.876398,-74.020594
1174.827480,-9474.636058,306.438199,222.061783
1174.827792,-9622.677246,612.876398,1184.329507
1174.828103,-9622.677246,1072.533697,1628.453072
1174.828414,-9548.656652,612.876398,1776.494261
1174.828726,-8734.430116,459.657299,1332.370696
1174.829037,-8142.265362,153.219100,1036.288319
1174.829349,-8364.327145,383.047749,370.102971
1174.829660,-8142.265362,689.485948,518.144159
1174.829972,-8660.409521,-689.485948,-0.000000
1174.830283,-8438.347739,-1532.190996,296.082377
1174.830594,-8364.327145,-2221.676944,370.102971
1174.830906,-8216.285956,-2221.676944,740.205942
1174.831217,-8734.430116,-2298.286494,740.205942
1174.831529,-8808.450710,-1915.238745,1554.432478
1174.831840,-9030.512492,-1838.629195,1850.514855
1174.832151,-8808.450710,-2374.896044,2146.597232
1174.832463,-8660.409521,-1225.752797,1998.556043
1174.832774,-8512.368333,-612.876398,1332.370696
1174.833086,-8734.430116,0.000000,814.226536
1174.833397,-8586.388927,306.438199,444.123565
1174.833709,-8882.471304,383.047749,-74.020594
1174.834020,-8364.327145,306.438199,-0.000000
1174.834331,-7772.162391,1149.143247,-0.000000
1174.834643,-8290.306550,766.095498,-0.000000
1174.834954,-8364.327145,383.047749,-0.000000
1174.835266,-8142.265362,229.828649,-0.000000
1174.835577,-8290.306550,383.047749,370.102971
1174.835889,-9104.533087,919.314598,592.164754
1174.836200,-9622.677246,-536.266849,518.144159
1174.836511,-9252.574275,0.000000,444.123565
1174.836823,-9548.656652,153.219100,148.041188
1174.837134,-9474.636058,-153.219100,222.061783
1174.837446,-9622.677246,-766.095498,370.102971
1174.837757,-9474.636058,-1072.533697,148.041188
1174.838068,-9400.615463,-842.705048,222.061783
1174.838380,-8734.430116,-383.047749,-0.000000
1174.838691,-8882.471304,919.314598,-0.000000
1174.839003,-8882.471304,459.657299,-0.000000
1174.839314,-8512.368333,459.657299,148.041188
1174.839626,-9326.594869,919.314598,222.061783
1174.839937,-9918.759623,1838.629195,-0.000000
1174.840248,-10066.800811,2451.505594,-0.000000
1174.840560,-9992.780217,2528.115143,370.102971
1174.840871,-9474.636058,1608.800546,-0.000000
1174.841183,-8956.491898,1302.362347,-0.000000
1174.841494,-8142.265362,919.314598,-0.000000
1174.841806,-7920.203579,459.657299,148.041188
1174.842117,-7772.162391,153.219100,518.144159
1174.842428,-7846.182985,-229.828649,888.247130
1174.842740,-8142.265362,-842.705048,888.247130
1174.843051,-8216.285956,-1762.019645,1184.329507
1174.843363,-8438.347739,-1762.019645,1332.370696
1174.843674,-8068.244768,-1378.971896,1110.308913
1174.843986,-8364.327145,-1838.629195,814.226536
1174.844297,-9326.594869,-1915.238745,740.205942
1174.844608,-9474.636058,-1455.581446,1036.288319
1174.844920,-9178.553681,-1302.362347,1332.370696
1174.845231,-8438.347739,-1072.533697,1406.391290
1174.845543,-8364.327145,-229.828649,1110.308913
1174.845854,-8142.265362,153.219100,814.226536
1174.846165,-8142.265362,536.266849,962.267725
1174.846477,-7994.224174,995.924147,518.144159
1174.846788,-7920.203579,1378.971896,666.185348
1174.847100,-8438.347739,1302.362347,518.144159
1174.847411,-8512.368333,1225.752797,-0.000000
1174.847723,-8882.471304,842.705048,-148.041188
1174.848034,-9178.553681,459.657299,296.082377
1174.848345,-9178.553681,153.219100,148.041188
1174.848657,-9474.636058,-306.438199,222.061783
1174.848968,-10066.800811,-383.047749,148.041188
1174.849280,-9696.697840,-919.314598,1036.288319
1174.849591,-9770.718434,-1149.143247,962.267725
1174.849903,-9400.615463,-995.924147,1184.329507
1174.850214,-9622.677246,-995.924147,1036.288319
1174.850525,-9770.718434,-919.314598,1628.453072
1174.850837,-9918.759623,-1378.971896,444.123565
1174.851148,-9548.656652,-306.438199,740.205942
1174.851460,-8882.471304,153.219100,296.082377
1174.851771,-9030.512492,229.828649,-74.020594
1174.852083,-9178.553681,0.000000,-0.000000
1174.852394,-9770.718434,459.657299,-0.000000
1174.852705,-9474.636058,1072.533697,518.144159
1174.853017,-9400.615463,1762.019645,-0.000000
1174.853328,-8882.471304,1762.019645,148.041188
1174.853640,-7698.141797,919.314598,518.144159
1174.853951,-7624.121203,0.000000,222.061783
1174.854262,-7624.121203,612.876398,666.185348
1174.854574,-7994.224174,766.095498,666.185348
1174.854885,-8882.471304,306.438199,296.082377
1174.855197,-9030.512492,-383.047749,592.164754
1174.855508,-8586.388927,-1072.533697,518.144159
1174.855820,-8586.388927,-1225.752797,592.164754
1174.856131,-8956.491898,-1072.533697,370.102971
1174.856442,-8586.388927,-1762.019645,592.164754
1174.856754,-8512.368333,-1378.971896,962.267725
1174.857065,-8808.450710,-1225.752797,1184.329507
1174.857377,-8734.430116,-766.095498,1332.370696
1174.857688,-8216.285956,0.000000,1036.288319
1174.858000,-7920.203579,536.266849,444.123565
1174.858311,-8068.244768,919.314598,666.185348
1174.858622,-8734.430116,612.876398,296.082377
1174.858934,-9326.594869,1072.533697,-0.000000
1174.859245,-9252.574275,1608.800546,-74.020594
1174.859557,-9030.512492,1072.533697,-0.000000
1174.859868,-8364.327145,306.438199,148.041188
1174.860179,-8290.306550,0.000000,-74.020594
1174.860491,-7994.224174,-689.485948,148.041188
1174.860802,-8290.306550,76.609550,444.123565
1174.861114,-9252.574275,306.438199,222.061783
1174.861425,-9992.780217,-306.438199,740.205942
1174.861737,-10140.821405,-689.485948,666.185348
1174.862048,-10140.821405,-1302.362347,962.267725
1174.862359,-9918.759623,-1072.533697,1036.288319
1174.862671,-9548.656652,-612.876398,814.226536
1174.862982,-10066.800811,-459.657299,814.226536
1174.863294,-9844.739029,-1225.752797,1332.370696
1174.863605,-9622.677246,-1072.533697,444.123565
1174.863917,-8882.471304,76.609550,518.144159
1174.864228,-9030.512492,306.438199,-0.000000
1174.864539,-8956.491898,612.876398,296.082377
1174.864851,-9326.594869,919.314598,-0.000000
1174.865162,-9474.636058,1762.019645,296.082377
1174.865474,-8956.491898,1915.238745,666.185348
1174.865785,-9104.533087,1378.971896,888.247130
1174.866097,-8808.450710,1532.190996,518.144159
1174.866408,-8142.265362,766.095498,444.123565
1174.866719,-8142.265362,383.047749,666.185348
1174.867031,-7698.141797,76.609550,592.164754
1174.867342,-7994.224174,-306.438199,666.185348
1174.867654,-7846.182985,-459.657299,592.164754
1174.867965,-7846.182985,-306.438199,666.185348
1174.868276,-8290.306550,-1072.533697,814.226536
1174.868588,-8068.244768,-1455.581446,518.144159
1174.868899,-8068.244768,-1302.362347,592.164754
1174.869211,-8660.409521,-1302.362347,740.205942
1174.869522,-8956.491898,-1149.143247,1110.308913
1174.869834,-9030.512492,-459.657299,888.247130
1174.870145,-8290.306550,-229.828649,666.185348
1174.870456,-7698.141797,0.000000,814.226536
1174.870768,-7698.141797,0.000000,518.144159
1174.871079,-8438.347739,229.828649,518.144159
1174.871391,-8660.409521,306.438199,222.061783
1174.871702,-8586.388927,842.705048,148.041188
1174.872014,-9030.512492,995.924147,-74.020594
1174.872325,-8734.430116,919.314598,-370.102971
1174.872636,-8734.430116,459.657299,-666.185348
1174.872948,-9400.615463,383.047749,-740.205942
1174.873259,-9696.697840,536.266849,-74.020594
1174.873571,-9770.718434,0.000000,-0.000000
1174.873882,-10214.842000,-153.219100,370.102971
1174.874193,-10066.800811,-689.485948,666.185348
1174.874505,-10362.883188,-842.705048,592.164754
1174.874816,-10214.842000,-995.924147,740.205942
1174.875128,-9696.697840,0.000000,740.205942
1174.875439,-9474.636058,-766.095498,666.185348
1174.875751,-9992.780217,-1378.971896,370.102971
1174.876062,-9918.759623,-766.095498,296.082377
1174.876373,-9104.533087,0.000000,370.102971
1174.876685,-8808.450710,76.609550,148.041188
1174.876996,-9252.574275,153.219100,222.061783
1174.877308,-9474.636058,459.657299,-0.000000
1174.877619,-9844.739029,612.876398,-0.000000
1174.877931,-9474.636058,1225.752797,148.041188
1174.878242,-9252.574275,1378.971896,666.185348
1174.878553,-8734.430116,995.924147,888.247130
1174.878865,-7994.224174,689.485948,666.185348
1174.879176,-8142.265362,536.266849,814.226536
1174.879488,-7920.203579,919.314598,962.267725
1174.879799,-7994.224174,1072.533697,444.123565
1174.880111,-8142.265362,0.000000,814.226536
1174.880422,-7550.100608,-536.266849,666.185348
1174.880733,-7920.203579,-842.705048,444.123565
1174.881045,-7772.162391,-919.314598,888.247130
1174.881356,-8142.265362,-919.314598,888.247130
1174.881668,-8068.244768,-1225.752797,1036.288319
1174.881979,-8068.244768,-1072.533697,1110.308913
1174.882290,-8142.265362,0.000000,1110.308913
1174.882602,-8216.285956,-995.924147,1258.350101
1174.882913,-7772.162391,-306.438199,1258.350101
1174.883225,-8438.347739,0.000000,1184.329507
1174.883536,-8438.347739,0.000000,814.226536
1174.883848,-9104.533087,153.219100,370.102971
1174.884159,-8956.491898,612.876398,444.123565
1174.884470,-8512.368333,995.924147,148.041188
1174.884782,-8512.368333,153.219100,148.041188
1174.885093,-8660.409521,-153.219100,-0.000000
1174.885405,-8438.347739,0.000000,-222.061783
1174.885716,-8956.491898,229.828649,-0.000000
1174.886028,-9474.636058,-536.266849,-0.000000
1174.886339,-9770.718434,-766.095498,222.061783
1174.886650,-9918.759623,-766.095498,296.082377
1174.886962,-10066.800811,-766.095498,444.123565
1174.887273,-10214.842000,-995.924147,518.144159
1174.887585,-10214.842000,-919.314598,1110.308913
1174.887896,-10214.842000,-1455.581446,740.205942
1174.888208,-10066.800811,-1225.752797,888.247130
1174.888519,-9992.780217,-766.095498,-0.000000
1174.888830,-9622.677246,76.609550,-0.000000
1174.889142,-9104.533087,229.828649,-222.061783
1174.889453,-8808.450710,-383.047749,-0.000000
1174.889765,-9474.636058,459.657299,-222.061783
1174.890076,-9252.574275,1455.581446,-0.000000
1174.890387,-9252.574275,1302.362347,296.082377
1174.890699,-9770.718434,919.314598,814.226536
1174.891010,-9622.677246,459.657299,814.226536
1174.891322,-9178.553681,536.266849,370.102971
1174.891633,-8142.265362,995.924147,518.144159
1174.891945,-7994.224174,0.000000,740.205942
1174.892256,-7328.038826,-229.828649,814.226536
1174.892567,-8068.244768,-306.438199,148.041188
1174.892879,-7328.038826,-995.924147,740.205942
1174.893190,-7328.038826,-1378.971896,444.123565
1174.893502,-7402.059420,-1149.143247,888.247130
1174.893813,-7624.121203,-1225.752797,592.164754
1174.894125,-7994.224174,-1455.581446,592.164754
1174.894436,-8142.265362,-842.705048,1036.288319
1174.894747,-8956.491898,-536.266849,666.185348
1174.895059,-8734.430116,0.000000,1702.473667
1174.895370,-8808.450710,-306.438199,1332.370696
1174.895682,-8660.409521,0.000000,1776.494261
1174.895993,-8216.285956,383.047749,1184.329507
1174.896304,-8512.368333,1072.533697,518.144159
1174.896616,-7698.141797,1915.238745,296.082377
1174.896927,-7920.203579,612.876398,296.082377
1174.897239,-8290.306550,1225.752797,592.164754
1174.897550,-8142.265362,1225.752797,-0.000000
1174.897862,-8808.450710,612.876398,-296.082377
1174.898173,-9178.553681,383.047749,-0.000000
1174.898484,-9696.697840,229.828649,296.082377
1174.898796,-10288.862594,536.266849,-0.000000
1174.899107,-9992.780217,-229.828649,592.164754
1174.899419,-10214.842000,-1072.533697,370.102971
1174.899730,-9622.677246,-536.266849,814.226536
1174.900042,-9918.759623,-689.485948,888.247130
1174.900353,-9474.636058,-842.705048,814.226536
1174.900664,-9548.656652,-766.095498,888.247130
1174.900976,-9622.677246,-919.314598,370.102971
1174.901287,-8956.491898,-612.876398,666.185348
1174.901599,-9030.512492,0.000000,-0.000000
1174.901910,-9326.594869,76.609550,-74.020594
1174.902222,-9474.636058,0.000000,-74.020594
1174.902533,-9992.780217,383.047749,222.061783
1174.902844,-9844.739029,612.876398,370.102971
1174.903156,-9918.759623,1072.533697,666.185348
1174.903467,-9178.553681,766.095498,888.247130
1174.903779,-8586.388927,1149.143247,444.123565
1174.904090,-7920.203579,459.657299,148.041188
1174.904401,-7476.080014,459.657299,518.144159
1174.904713,-7846.182985,0.000000,222.061783
1174.905024,-7994.224174,0.000000,444.123565
1174.905336,-7920.203579,-689.485948,666.185348
1174.905647,-7994.224174,-1455.581446,296.082377
1174.905959,-7920.203579,-1455.581446,592.164754
1174.906270,-8364.327145,-1608.800546,296.082377
1174.906581,-8512.368333,-1378.971896,888.247130
1174.906893,-8660.409521,-1302.362347,1036.288319
1174.907204,-8438.347739,-1072.533697,1332.370696
1174.907516,-8438.347739,-995.924147,1332.370696
1174.907827,-8438.347739,-612.876398,1036.288319
1174.908139,-8438.347739,-153.219100,1036.288319
1174.908450,-8956.491898,76.609550,518.144159
1174.908761,-8882.471304,995.924147,666.185348
1174.909073,-8660.409521,-612.876398,370.102971
1174.909384,-8364.327145,459.657299,370.102971
1174.909696,-8660.409521,612.876398,148.041188
1174.910007,-8512.368333,306.438199,-148.041188
1174.910319,-8586.388927,76.609550,-0.000000
1174.910630,-8734.430116,153.219100,148.041188
1174.910941,-9104.533087,536.266849,888.247130
1174.911253,-9696.697840,-229.828649,222.061783
1174.911564,-9474.636058,-612.876398,370.102971
1174.911876,-9474.636058,-919.314598,518.144159
1174.912187,-9696.697840,-1149.143247,296.082377
1174.912498,-9918.759623,-612.876398,148.041188
1174.912810,-9992.780217,-995.924147,592.164754
1174.913121,-9844.739029,-995.924147,740.205942
1174.913433,-9992.780217,-995.924147,444.123565
1174.913744,-9474.636058,0.000000,814.226536
1174.914055,-9622.677246,-383.047749,-0.000000
1174.914367,-9770.718434,-229.828649,370.102971
1174.914678,-9548.656652,612.876398,296.082377
1174.914989,-9622.677246,1302.362347,-0.000000
1174.915301,-9400.615463,1455.581446,592.164754
1174.915612,-9326.594869,1455.581446,518.144159
1174.915924,-9030.512492,1378.971896,592.164754
1174.916235,-7846.182985,842.705048,518.144159
1174.916546,-7846.182985,1072.533697,296.082377
1174.916858,-7698.141797,306.438199,814.226536
1174.917169,-7550.100608,76.609550,740.205942
1174.917480,-7994.224174,-612.876398,888.247130
1174.917792,-7994.224174,-1225.752797,1184.329507
1174.918103,-8512.368333,-1532.190996,518.144159
1174.918414,-7846.182985,-1149.143247,1036.288319
1174.918726,-7994.224174,-1149.143247,666.185348
1174.919037,-9178.553681,-919.314598,-0.000000
1174.919348,-8808.450710,-919.314598,814.226536
1174.919660,-8660.409521,-766.095498,1036.288319
1174.919971,-8438.347739,-842.705048,1554.432478
1174.920282,-7920.203579,-766.095498,1554.432478
1174.920594,-9104.533087,0.000000,518.144159
1174.920905,-8660.409521,536.266849,1036.288319
1174.921216,-8438.347739,1608.800546,222.061783
1174.921528,-8216.285956,842.705048,666.185348
1174.921839,-8438.347739,1302.362347,370.102971
1174.922151,-8808.450710,1378.971896,-0.000000
1174.922462,-8882.471304,1225.752797,-370.102971
1174.922773,-8586.388927,1302.362347,-296.082377
1174.923085,-8438.347739,1072.533697,-370.102971
1174.923396,-9474.636058,536.266849,-370.102971
1174.923707,-9844.739029,383.047749,-444.123565
1174.924019,-9844.739029,383.047749,-0.000000
1174.924330,-9992.780217,0.000000,-0.000000
1174.924641,-9992.780217,-306.438199,740.205942
1174.924953,-9770.718434,-229.828649,888.247130
1174.925264,-10214.842000,-919.314598,888.247130
1174.925575,-9548.656652,-1455.581446,962.267725
1174.925887,-9770.718434,-766.095498,222.061783
1174.926198,-9400.615463,-153.219100,222.061783
1174.926509,-9030.512492,0.000000,-148.041188
1174.926821,-9104.533087,-153.219100,-0.000000
1174.927132,-9400.615463,-153.219100,-0.000000
1174.927443,-9474.636058,76.609550,296.082377
1174.927755,-9474.636058,612.876398,518.144159
1174.928066,-9030.512492,153.219100,1258.350101
1174.928378,-8956.491898,689.485948,888.247130
1174.928689,-8512.368333,1302.362347,592.164754
1174.929000,-7920.203579,229.828649,666.185348
1174.929312,-8142.265362,229.828649,666.185348
1174.929623,-7772.162391,306.438199,814.226536
1174.929934,-8142.265362,0.000000,296.082377
1174.930246,-8216.285956,-1072.533697,814.226536
1174.930557,-7772.162391,-1608.800546,592.164754
1174.930868,-7550.100608,-2068.457845,814.226536
1174.931180,-8068.244768,-1762.019645,740.205942
1174.931491,-8142.265362,-1915.238745,814.226536
1174.931802,-8808.450710,-2068.457845,1184.329507
1174.932114,-8808.450710,-1838.629195,1110.308913
1174.932425,-8438.347739,-1455.581446,1554.432478
1174.932736,-8290.306550,-1225.752797,1258.350101
1174.933048,-9326.594869,-536.266849,888.247130
1174.933359,-8808.450710,-153.219100,888.247130
1174.933670,-8364.327145,383.047749,370.102971
1174.933982,-8734.430116,766.095498,148.041188
1174.934293,-8586.388927,1225.752797,296.082377
1174.934605,-8808.450710,1225.752797,-148.041188
1174.934916,-9030.512492,995.924147,-148.041188
1174.935227,-8882.471304,1455.581446,-444.123565
1174.935539,-9104.533087,1225.752797,-666.185348
1174.935850,-9178.553681,536.266849,-74.020594
1174.936161,-9696.697840,0.000000,-0.000000
1174.936473,-9622.677246,-383.047749,370.102971
1174.936784,-9770.718434,76.609550,592.164754
1174.937095,-10140.821405,0.000000,740.205942
1174.937407,-10066.800811,-383.047749,888.247130
1174.937718,-9918.759623,-536.266849,814.226536
1174.938029,-9696.697840,-383.047749,592.164754
1174.938341,-9400.615463,229.828649,296.082377
1174.938652,-9400.615463,306.438199,-0.000000
1174.938963,-9104.533087,459.657299,148.041188
1174.939275,-9104.533087,306.438199,-0.000000
1174.939586,-9252.574275,306.438199,-0.000000
1174.939897,-9178.553681,919.314598,-0.000000
1174.940209,-9252.574275,2145.067394,296.082377
1174.940520,-8956.491898,2757.943793,740.205942
1174.940832,-8808.450710,1762.019645,444.123565
1174.941143,-8216.285956,1302.362347,666.185348
1174.941454,-7698.141797,1225.752797,370.102971
1174.941766,-7550.100608,842.705048,814.226536
1174.942077,-7402.059420,383.047749,888.247130
1174.942388,-7698.141797,-612.876398,592.164754
1174.942700,-7846.182985,-766.095498,1036.288319
1174.943011,-7254.018232,-1608.800546,888.247130
1174.943322,-7624.121203,-1762.019645,666.185348
1174.943634,-7772.162391,-1685.410096,962.267725
1174.943945,-8734.430116,-2145.067394,740.205942
1174.944256,-8882.471304,-1915.238745,1332.370696
1174.944568,-8808.450710,-1532.190996,1554.432478
1174.944879,-9178.553681,-919.314598,1184.329507
1174.945190,-8660.409521,-995.924147,1406.391290
1174.945502,-8586.388927,-306.438199,1258.350101
1174.945813,-8216.285956,0.000000,740.205942
1174.946124,-8216.285956,459.657299,444.123565
1174.946436,-8586.388927,612.876398,296.082377
1174.946747,-8586.388927,766.095498,370.102971
1174.947059,-9030.512492,919.314598,148.041188
1174.947370,-8734.430116,766.095498,-148.041188
1174.947681,-9178.553681,612.876398,-444.123565
1174.947993,-9400.615463,0.000000,-0.000000
1174.948304,-9548.656652,76.609550,-0.000000
1174.948615,-10288.862594,153.219100,-0.000000
1174.948927,-10436.903782,0.000000,296.082377
1174.949238,-10732.986159,-459.657299,592.164754
1174.949549,-10140.821405,-842.705048,592.164754
1174.949861,-9770.718434,-919.314598,518.144159
1174.950172,-9400.615463,-612.876398,296.082377
1174.950483,-9400.615463,-995.924147,740.205942
1174.950795,-9622.677246,-1378.971896,370.102971
1174.951106,-9400.615463,-612.876398,296.082377
1174.951417,-9104.533087,-153.219100,148.041188
1174.951729,-9030.512492,0.000000,-0.000000
1174.952040,-9326.594869,229.828649,296.082377
1174.952351,-8956.491898,459.657299,-0.000000
1174.952663,-9918.759623,1072.533697,-518.144159
1174.952974,-9178.553681,1838.629195,222.061783
1174.953286,-8882.471304,1149.143247,370.102971
1174.953597,-8142.265362,995.924147,370.102971
1174.953908,-7624.121203,229.828649,518.144159
1174.954220,-7920.203579,153.219100,740.205942
1174.954531,-8068.244768,76.609550,888.247130
1174.954842,-8068.244768,0.000000,-0.000000
1174.955154,-7994.224174,-766.095498,592.164754
1174.955465,-8068.244768,-1532.190996,740.205942
1174.955776,-8364.327145,-1762.019645,518.144159
1174.956088,-8290.306550,-1455.581446,814.226536
1174.956399,-8216.285956,-1225.752797,740.205942
1174.956710,-8438.347739,-1378.971896,962.267725
1174.957022,-8956.491898,-1378.971896,814.226536
1174.957333,-8216.285956,-766.095498,1332.370696
1174.957644,-8290.306550,76.609550,666.185348
1174.957956,-7994.224174,-306.438199,888.247130
1174.958267,-8290.306550,383.047749,888.247130
1174.958578,-8734.430116,536.266849,666.185348
1174.958890,-9252.574275,995.924147,592.164754
1174.959201,-9104.533087,1072.533697,518.144159
1174.959513,-9104.533087,459.657299,-74.020594
1174.959824,-9030.512492,1225.752797,-0.000000
1174.960135,-8956.491898,76.609550,-74.020594
1174.960447,-8808.450710,229.828649,-74.020594
1174.960758,-9178.553681,459.657299,-0.000000
1174.961069,-9400.615463,306.438199,370.102971
1174.961381,-9770.718434,0.000000,444.123565
1174.961692,-10288.862594,76.609550,444.123565
1174.962003,-9918.759623,-919.314598,962.267725
1174.962315,-10140.821405,-689.485948,518.144159
1174.962626,-9844.739029,-229.828649,666.185348
1174.962937,-9992.780217,-536.266849,962.267725
1174.963249,-9770.718434,-842.705048,740.205942
1174.963560,-9918.759623,-459.657299,-0.000000
1174.963871,-9252.574275,0.000000,222.061783
1174.964183,-8734.430116,76.609550,-0.000000
1174.964494,-8586.388927,0.000000,-0.000000
1174.964805,-8956.491898,1455.581446,-0.000000
1174.965117,-8956.491898,1455.581446,-0.000000
1174.965428,-9474.636058,1225.752797,296.082377
1174.965739,-9400.615463,1302.362347,666.185348
1174.966051,-8956.491898,1225.752797,814.226536
1174.966362,-8808.450710,689.485948,592.164754
1174.966674,-8216.285956,612.876398,592.164754
1174.966985,-7402.059420,0.000000,592.164754
1174.967296,-7179.997637,-766.095498,740.205942
1174.967608,-7476.080014,-1149.143247,740.205942
1174.967919,-7698.141797,-1838.629195,666.185348
1174.968230,-7698.141797,-2068.457845,444.123565
1174.968542,-7624.121203,-1532.190996,814.226536
1174.968853,-8216.285956,-1225.752797,592.164754
1174.969164,-8882.471304,-1685.410096,592.164754
1174.969476,-8956.491898,-612.876398,1332.370696
1174.969787,-8882.471304,-842.705048,1332.370696
1174.970098,-8216.285956,-842.705048,962.267725
1174.970410,-8068.244768,-306.438199,814.226536
1174.970721,-8364.327145,229.828649,740.205942
1174.971032,-8438.347739,306.438199,666.185348
1174.971344,-8882.471304,1072.533697,592.164754
1174.971655,-8290.306550,612.876398,592.164754
1174.971966,-8512.368333,1608.800546,-74.020594
1174.972278,-9474.636058,995.924147,-444.123565
1174.972589,-8956.491898,1072.533697,-222.061783
1174.972901,-9770.718434,612.876398,-592.164754
1174.973212,-9770.718434,536.266849,-0.000000
1174.973523,-10066.800811,229.828649,-74.020594
1174.973835,-10140.821405,689.485948,-0.000000
1174.974146,-10436.903782,-306.438199,296.082377
1174.974457,-10066.800811,-995.924147,666.185348
1174.974769,-9770.718434,0.000000,814.226536
1174.975080,-9770.718434,-1302.362347,1036.288319
1174.975391,-9770.718434,-919.314598,814.226536
1174.975703,-9992.780217,-919.314598,888.247130
1174.976014,-10066.800811,-306.438199,370.102971
1174.976325,-9104.533087,0.000000,222.061783
1174.976637,-8882.471304,0.000000,-0.000000
1174.976948,-8808.450710,229.828649,296.082377
1174.977259,-8734.430116,766.095498,296.082377
1174.977571,-9400.615463,919.314598,222.061783
1174.977882,-9104.533087,1072.533697,740.205942
1174.978193,-8808.450710,1149.143247,740.205942
1174.978505,-8364.327145,842.705048,1036.288319
1174.978816,-7698.141797,536.266849,592.164754
1174.979128,-8216.285956,459.657299,444.123565
1174.979439,-7920.203579,842.705048,740.205942
1174.979750,-7846.182985,383.047749,1036.288319
1174.980062,-7994.224174,-153.219100,888.247130
1174.980373,-7920.203579,-995.924147,814.226536
1174.980684,-7624.121203,-1302.362347,666.185348
1174.980996,-7920.203579,-1072.533697,592.164754
1174.981307,-7920.203579,-1072.533697,518.144159
1174.981618,-8142.265362,-1455.581446,814.226536
1174.981930,-8142.265362,-1225.752797,1184.329507
1174.982241,-8586.388927,-1149.143247,1036.288319
1174.982552,-8438.347739,-919.314598,888.247130
1174.982864,-8512.368333,-383.047749,962.267725
1174.983175,-8808.450710,383.047749,814.226536
1174.983486,-8808.450710,153.219100,296.082377
1174.983798,-8586.388927,459.657299,-0.000000
1174.984109,-8808.450710,995.924147,-0.000000
1174.984420,-8586.388927,383.047749,296.082377
1174.984732,-8882.471304,842.705048,222.061783
1174.985043,-8660.409521,306.438199,-0.000000
1174.985355,-9030.512492,0.000000,-0.000000
1174.985666,-9178.553681,-229.828649,148.041188
1174.985977,-9474.636058,-229.828649,148.041188
1174.986289,-9844.739029,-306.438199,222.061783
1174.986600,-10214.842000,-229.828649,370.102971
1174.986911,-10510.924376,-229.828649,592.164754
1174.987223,-10066.800811,-612.876398,666.185348
1174.987534,-9844.739029,-689.485948,962.267725
1174.987845,-9548.656652,-383.047749,814.226536
1174.988157,-9770.718434,-536.266849,518.144159
1174.988468,-9992.780217,-612.876398,-0.000000
1174.988779,-9474.636058,-383.047749,148.041188
1174.989091,-9326.594869,-612.876398,592.164754
1174.989402,-9474.636058,76.609550,370.102971
1174.989713,-9696.697840,766.095498,370.102971
1174.990025,-9844.739029,1225.752797,-0.000000
1174.990336,-9326.594869,1455.581446,518.144159
1174.990647,-9104.533087,1378.971896,444.123565
1174.990959,-8808.450710,766.095498,518.144159
1174.991270,-8216.285956,1072.533697,592.164754
1174.991582,-7550.100608,689.485948,444.123565
1174.991893,-7476.080014,383.047749,814.226536
1174.992204,-7772.162391,0.000000,740.205942
1174.992516,-7846.182985,-689.485948,1110.308913
1174.992827,-7476.080014,-1532.190996,814.226536
1174.993138,-7846.182985,-1838.629195,592.164754
1174.993450,-8068.244768,-1532.190996,518.144159
1174.993761,-8364.327145,-1149.143247,888.247130
1174.994072,-8364.327145,-1149.143247,1184.329507
1174.994384,-8142.265362,-1225.752797,888.247130
1174.994695,-7772.162391,-1072.533697,888.247130
1174.995006,-7550.100608,-766.095498,1036.288319
1174.995318,-7920.203579,76.609550,888.247130
1174.995629,-8586.388927,229.828649,518.144159
1174.995940,-8808.450710,229.828649,296.082377
1174.996252,-8808.450710,995.924147,1110.308913
1174.996563,-8586.388927,1378.971896,518.144159
1174.996874,-8956.491898,1149.143247,370.102971
1174.997186,-9326.594869,919.314598,296.082377
1174.997497,-8882.471304,612.876398,-222.061783
1174.997809,-9104.533087,306.438199,-444.123565
1174.998120,-9400.615463,383.047749,-148.041188
1174.998431,-9770.718434,612.876398,-74.020594
1174.998743,-10140.821405,-383.047749,-296.082377
1174.999054,-9696.697840,0.000000,-0.000000
1174.999365,-9992.780217,-919.314598,444.123565
1174.999677,-10066.800811,-689.485948,962.267725
1174.999988,-10140.821405,-689.485948,888.247130
1175.000299,-10436.903782,-766.095498,962.267725
1175.000611,-9252.574275,-919.314598,1110.308913
1175.000922,-9696.697840,-383.047749,296.082377
1175.001233,-9326.594869,612.876398,222.061783
1175.001545,-9326.594869,0.000000,-0.000000
1175.001856,-9474.636058,383.047749,-0.000000
1175.002167,-9622.677246,612.876398,-0.000000
1175.002479,-9548.656652,1149.143247,-0.000000
1175.002790,-9400.615463,1302.362347,370.102971
1175.003101,-9474.636058,1302.362347,370.102971
1175.003413,-9104.533087,1149.143247,888.247130
1175.003724,-8438.347739,919.314598,296.082377
1175.004036,-7994.224174,612.876398,888.247130
1175.004347,-7994.224174,612.876398,888.247130
1175.004658,-7772.162391,536.266849,962.267725
1175.004970,-7846.182985,0.000000,962.267725
1175.005281,-8290.306550,-612.876398,1554.432478
1175.005592,-7550.100608,-1455.581446,444.123565
1175.005904,-7254.018232,-1532.190996,518.144159
1175.006215,-7550.100608,-1532.190996,592.164754
1175.006526,-7846.182985,-1532.190996,666.185348
1175.006838,-8512.368333,-1455.581446,1184.329507
1175.007149,-8882.471304,-1149.143247,1258.350101
1175.007460,-8290.306550,-919.314598,1702.473667
1175.007772,-7698.141797,-689.485948,1776.494261
1175.008083,-8734.430116,0.000000,1184.329507
1175.008394,-8290.306550,383.047749,814.226536
1175.008706,-8290.306550,689.485948,962.267725
1175.009017,-8364.327145,766.095498,592.164754
1175.009328,-8364.327145,919.314598,-0.000000
1175.009640,-8882.471304,766.095498,-296.082377
1175.009951,-8808.450710,536.266849,-296.082377
1175.010263,-8438.347739,0.000000,-518.144159
1175.010574,-8734.430116,0.000000,-74.020594
1175.010885,-9622.677246,-995.924147,-222.061783
1175.011197,-9844.739029,-536.266849,592.164754
1175.011508,-10140.821405,-459.657299,222.061783
1175.011819,-10362.883188,-153.219100,444.123565
1175.012131,-10362.883188,-383.047749,444.123565
1175.012442,-10214.842000,-306.438199,962.267725
1175.012753,-10362.883188,-536.266849,740.205942
1175.013065,-9992.780217,-766.095498,444.123565
1175.013376,-9992.780217,0.000000,222.061783
1175.013688,-9474.636058,0.000000,148.041188
1175.013999,-9474.636058,-306.438199,-0.000000
1175.014310,-9548.656652,-153.219100,-148.041188
1175.014622,-9326.594869,306.438199,-148.041188
1175.014933,-9622.677246,1455.581446,-444.123565
1175.015245,-9400.615463,1532.190996,-74.020594
1175.015556,-9400.615463,1685.410096,370.102971
1175.015868,-9400.615463,1225.752797,518.144159
1175.016179,-8660.409521,766.095498,1258.350101
1175.016491,-7920.203579,229.828649,592.164754
1175.016802,-7550.100608,229.828649,1036.288319
1175.017114,-7328.038826,0.000000,814.226536
1175.017425,-7772.162391,-689.485948,148.041188
1175.017736,-7476.080014,-842.705048,518.144159
1175.018048,-7328.038826,-1149.143247,-0.000000
1175.018359,-7846.182985,-1532.190996,518.144159
1175.018671,-8216.285956,-1302.362347,1036.288319
1175.018982,-8956.491898,-1302.362347,1036.288319
1175.019294,-8808.450710,-1532.190996,1258.350101
1175.019605,-8660.409521,-842.705048,1406.391290
1175.019917,-8586.388927,-306.438199,1554.432478
1175.020228,-8142.265362,-306.438199,1628.453072
1175.020540,-7698.141797,306.438199,1332.370696
1175.020851,-7772.162391,383.047749,814.226536
1175.021162,-8364.327145,536.266849,370.102971
1175.021474,-8068.244768,995.924147,740.205942
1175.021785,-8438.347739,1072.533697,-0.000000
1175.022097,-9030.512492,995.924147,-0.000000
1175.022408,-8956.491898,1072.533697,-370.102971
1175.022720,-8956.491898,919.314598,-740.205942
1175.023031,-9326.594869,1838.629195,-74.020594
1175.023343,-9474.636058,919.314598,148.041188
1175.023654,-9844.739029,229.828649,-0.000000
1175.023966,-9844.739029,0.000000,518.144159
1175.024277,-9770.718434,-689.485948,592.164754
1175.024588,-9844.739029,-1072.533697,814.226536
1175.024900,-9918.759623,-1072.533697,370.102971
1175.025211,-9622.677246,-1225.752797,666.185348
1175.025523,-9622.677246,-1608.800546,370.102971
1175.025834,-10066.800811,-1685.410096,148.041188
1175.026146,-9992.780217,-995.924147,370.102971
1175.026457,-9696.697840,-383.047749,296.082377
1175.026769,-9770.718434,0.000000,-0.000000
1175.027080,-9474.636058,612.876398,-0.000000
1175.027392,-9252.574275,689.485948,-0.000000
1175.027703,-9400.615463,766.095498,296.082377
1175.028014,-9030.512492,1455.581446,518.144159
1175.028326,-9252.574275,1608.800546,296.082377
1175.028637,-8512.368333,1302.362347,444.123565
1175.028949,-8216.285956,842.705048,296.082377
1175.029260,-8216.285956,612.876398,518.144159
1175.029572,-7846.182985,689.485948,814.226536
1175.029883,-7994.224174,0.000000,296.082377
1175.030195,-8216.285956,-995.924147,518.144159
1175.030506,-8364.327145,-1991.848295,1036.288319
1175.030818,-8438.347739,-1915.238745,888.247130
1175.031129,-8290.306550,-1685.410096,1036.288319
1175.031440,-8290.306550,-1762.019645,888.247130
1175.031752,-8438.347739,-1685.410096,1184.329507
1175.032063,-8586.388927,-1072.533697,1184.329507
1175.032375,-7698.141797,-995.924147,1554.432478
1175.032686,-8068.244768,-612.876398,814.226536
1175.032998,-8216.285956,-229.828649,1480.411884
1175.033309,-7994.224174,-306.438199,1110.308913
1175.033621,-8512.368333,306.438199,592.164754
1175.033932,-9104.533087,383.047749,444.123565
1175.034244,-8956.491898,689.485948,370.102971
1175.034555,-8956.491898,766.095498,-222.061783
1175.034866,-8364.327145,153.219100,-148.041188
1175.035178,-7920.203579,306.438199,-296.082377
1175.035489,-8438.347739,0.000000,-296.082377
1175.035801,-9030.512492,0.000000,-0.000000
1175.036112,-9326.594869,-306.438199,-0.000000
1175.036424,-9400.615463,-383.047749,518.144159
1175.036735,-9770.718434,-306.438199,740.205942
1175.037047,-10066.800811,-306.438199,518.144159
1175.037358,-9992.780217,-536.266849,592.164754
1175.037670,-9548.656652,-689.485948,444.123565
1175.037981,-9696.697840,-995.924147,296.082377
1175.038292,-10066.800811,-842.705048,444.123565
1175.038604,-10362.883188,-612.876398,370.102971
1175.038915,-9844.739029,-306.438199,-0.000000
1175.039227,-9622.677246,0.000000,-74.020594
1175.039538,-9696.697840,612.876398,-0.000000
1175.039850,-9696.697840,1378.971896,-0.000000
1175.040161,-10140.821405,1762.019645,-370.102971
1175.040473,-9400.615463,1991.848295,148.041188
1175.040784,-9178.553681,1225.752797,444.123565
1175.041096,-8882.471304,1149.143247,740.205942
1175.041407,-8216.285956,842.705048,592.164754
1175.041718,-8216.285956,766.095498,518.144159
1175.042030,-7550.100608,0.000000,666.185348
1175.042341,-8142.265362,-459.657299,370.102971
1175.042653,-7846.182985,-995.924147,1258.350101
1175.042964,-7846.182985,-919.314598,1332.370696
1175.043276,-8364.327145,-1685.410096,1036.288319
1175.043587,-8142.265362,-1608.800546,1110.308913
1175.043899,-8438.347739,-1455.581446,962.267725
1175.044210,-7994.224174,-995.924147,1332.370696
1175.044522,-8216.285956,-229.828649,1332.370696
1175.044833,-8142.265362,0.000000,1110.308913
1175.045144,-7920.203579,-153.219100,962.267725
1175.045456,-7846.182985,0.000000,888.247130
1175.045767,-8216.285956,536.266849,1110.308913
1175.046079,-8808.450710,842.705048,592.164754
1175.046390,-8734.430116,766.095498,740.205942
1175.046702,-8660.409521,1455.581446,444.123565
1175.047013,-8512.368333,459.657299,296.082377
1175.047325,-7994.224174,766.095498,148.041188
1175.047636,-8438.347739,536.266849,-74.020594
1175.047948,-8660.409521,919.314598,-0.000000
1175.048259,-9030.512492,229.828649,-0.000000
1175.048570,-9030.512492,-229.828649,-0.000000
1175.048882,-9400.615463,-153.219100,444.123565
1175.049193,-9696.697840,-459.657299,518.144159
1175.049505,-9992.780217,-919.314598,666.185348
1175.049816,-9992.780217,-842.705048,666.185348
1175.050128,-10140.821405,-1378.971896,296.082377
1175.050439,-10066.800811,-1685.410096,740.205942
1175.050751,-10066.800811,-1149.143247,518.144159
1175.051062,-10140.821405,-766.095498,296.082377
1175.051374,-9844.739029,-383.047749,370.102971
1175.051685,-9770.718434,0.000000,-0.000000
1175.051996,-9474.636058,-459.657299,148.041188
1175.052308,-9326.594869,689.485948,-0.000000
1175.052619,-9474.636058,1072.533697,370.102971
1175.052931,-9252.574275,1378.971896,222.061783
1175.053242,-9622.677246,1532.190996,-0.000000
1175.053554,-9030.512492,1455.581446,592.164754
1175.053865,-8956.491898,995.924147,814.226536
1175.054177,-8882.471304,612.876398,-0.000000
1175.054488,-7994.224174,842.705048,296.082377
1175.054800,-7846.182985,306.438199,148.041188
1175.055111,-8364.327145,0.000000,444.123565
1175.055422,-8364.327145,-1072.533697,592.164754
1175.055734,-8438.347739,-1378.971896,592.164754
1175.056045,-8216.285956,-1532.190996,666.185348
1175.056357,-7994.224174,-1302.362347,518.144159
1175.056668,-7846.182985,-1072.533697,888.247130
1175.056980,-8586.388927,-2068.457845,1406.391290
1175.057291,-8142.265362,-1149.143247,1554.432478
1175.057603,-7772.162391,-1072.533697,1258.350101
1175.057914,-8216.285956,-459.657299,1258.350101
1175.058226,-8512.368333,0.000000,1406.391290
1175.058537,-8660.409521,0.000000,1036.288319
1175.058848,-8734.430116,229.828649,222.061783
1175.059160,-7550.100608,689.485948,370.102971
1175.059471,-7772.162391,383.047749,-0.000000
1175.059783,-8290.306550,536.266849,-0.000000
1175.060094,-8290.306550,459.657299,-0.000000
1175.060406,-8808.450710,76.609550,-0.000000
1175.060717,-9104.533087,76.609550,444.123565
1175.061029,-9622.677246,0.000000,444.123565
1175.061340,-10214.842000,-536.266849,592.164754
1175.061652,-9770.718434,0.000000,666.185348
1175.061963,-10140.821405,-919.314598,444.123565
1175.062274,-9622.677246,-689.485948,814.226536
1175.062586,-10066.800811,-995.924147,592.164754
1175.062897,-9918.759623,-995.924147,740.205942
1175.063209,-9918.759623,-766.095498,592.164754
1175.063520,-10140.821405,-919.314598,-0.000000
1175.063832,-9918.759623,0.000000,-0.000000
1175.064143,-8956.491898,0.000000,296.082377
1175.064455,-9770.718434,153.219100,-0.000000
1175.064766,-10066.800811,383.047749,-0.000000
1175.065077,-10362.883188,1072.533697,296.082377
1175.065389,-9622.677246,1608.800546,518.144159
1175.065700,-9474.636058,1225.752797,370.102971
1175.066012,-8882.471304,1838.629195,518.144159
1175.066323,-8068.244768,766.095498,370.102971
1175.066635,-7624.121203,1072.533697,74.020594
1175.066946,-7476.080014,919.314598,444.123565
1175.067258,-7920.203579,306.438199,666.185348
1175.067569,-7994.224174,-536.266849,888.247130
1175.067881,-7994.224174,-995.924147,592.164754
1175.068192,-8216.285956,-1608.800546,592.164754
1175.068503,-8216.285956,-1378.971896,814.226536
1175.068815,-8660.409521,-1302.362347,888.247130
1175.069126,-9104.533087,-1378.971896,740.205942
1175.069438,-8142.265362,-1302.362347,1998.556043
1175.069749,-8290.306550,-995.924147,1184.329507
1175.070061,-7772.162391,-306.438199,1258.350101
1175.070372,-8290.306550,229.828649,1110.308913
1175.070684,-8364.327145,536.266849,1036.288319
1175.070995,-8142.265362,1915.238745,888.247130
1175.071307,-8512.368333,689.485948,-0.000000
1175.071618,-8438.347739,1455.581446,-0.000000
1175.071929,-8142.265362,1685.410096,-148.041188
1175.072241,-8882.471304,1455.581446,-0.000000
1175.072552,-8586.388927,919.314598,-222.061783
1175.072864,-8808.450710,689.485948,-296.082377
1175.073175,-8734.430116,306.438199,-0.000000
1175.073487,-9030.512492,0.000000,222.061783
1175.073798,-9548.656652,0.000000,148.041188
1175.074110,-9400.615463,-612.876398,592.164754
1175.074421,-9622.677246,-995.924147,518.144159
1175.074733,-9622.677246,-1149.143247,814.226536
1175.075044,-9770.718434,-1072.533697,740.205942
1175.075355,-9992.780217,-1149.143247,888.247130
1175.075667,-9548.656652,-1685.410096,740.205942
1175.075978,-9622.677246,-1072.533697,518.144159
1175.076290,-9252.574275,-766.095498,444.123565
1175.076601,-9178.553681,0.000000,444.123565
1175.076913,-9844.739029,0.000000,148.041188
1175.077224,-9844.739029,536.266849,148.041188
1175.077536,-9918.759623,919.314598,-0.000000
1175.077847,-9548.656652,1225.752797,222.061783
1175.078159,-9104.533087,1378.971896,370.102971
1175.078470,-9252.574275,995.924147,296.082377
1175.078781,-8586.388927,1378.971896,222.061783
1175.079093,-8586.388927,689.485948,370.102971
1175.079404,-8364.327145,689.485948,592.164754
1175.079716,-8660.409521,153.219100,666.185348
1175.080027,-8734.430116,-153.219100,444.123565
1175.080339,-8586.388927,-995.924147,740.205942
1175.080650,-8142.265362,-1762.019645,888.247130
1175.080962,-7698.141797,-1302.362347,888.247130
1175.081273,-8142.265362,-1149.143247,962.267725
1175.081585,-7402.059420,-995.924147,1184.329507
1175.081896,-8364.327145,-1455.581446,962.267725
1175.082207,-8882.471304,-1225.752797,1110.308913
1175.082519,-8290.306550,-612.876398,1258.350101
1175.082830,-8216.285956,-612.876398,1332.370696
1175.083142,-8734.430116,-459.657299,1258.350101
1175.083453,-8438.347739,0.000000,592.164754
1175.083765,-8586.388927,383.047749,296.082377
1175.084076,-8438.347739,306.438199,592.164754
1175.084388,-8216.285956,842.705048,666.185348
1175.084699,-8660.409521,766.095498,296.082377
1175.085011,-8364.327145,536.266849,-148.041188
1175.085322,-8216.285956,766.095498,-444.123565
1175.085633,-8216.285956,383.047749,-444.123565
1175.085945,-8882.471304,306.438199,-0.000000
1175.086256,-9548.656652,0.000000,222.061783
1175.086568,-9474.636058,0.000000,370.102971
1175.086879,-9770.718434,0.000000,370.102971
1175.087191,-9548.656652,-689.485948,666.185348
1175.087502,-9844.739029,-689.485948,888.247130
1175.087814,-9918.759623,-995.924147,814.226536
1175.088125,-9474.636058,-766.095498,518.144159
1175.088437,-9474.636058,-766.095498,-0.000000
1175.088748,-8956.491898,-153.219100,370.102971
1175.089059,-9030.512492,0.000000,296.082377
1175.089371,-9474.636058,-383.047749,-0.000000
1175.089682,-9474.636058,229.828649,-0.000000
1175.089994,-9696.697840,919.314598,-222.061783
1175.090305,-9474.636058,1225.752797,148.041188
1175.090617,-9400.615463,1302.362347,444.123565
1175.090928,-9474.636058,1072.533697,814.226536
1175.091240,-9252.574275,229.828649,740.205942
1175.091551,-9030.512492,459.657299,740.205942
1175.091863,-8586.388927,76.609550,962.267725
1175.092174,-8068.244768,-153.219100,740.205942
1175.092485,-8586.388927,-306.438199,592.164754
1175.092797,-8142.265362,-1225.752797,740.205942
1175.093108,-7698.141797,-919.314598,148.041188
1175.093420,-7920.203579,-612.876398,518.144159
1175.093731,-7920.203579,-612.876398,666.185348
1175.094043,-8734.430116,-1149.143247,666.185348
1175.094354,-9178.553681,-1149.143247,1332.370696
1175.094666,-9030.512492,-766.095498,1036.288319
1175.094977,-8216.285956,-383.047749,1554.432478
1175.095289,-8142.265362,306.438199,1036.288319
1175.095600,-8438.347739,306.438199,1554.432478
1175.095911,-8364.327145,153.219100,666.185348
1175.096223,-8290.306550,306.438199,444.123565
1175.096534,-8216.285956,995.924147,666.185348
1175.096846,-8216.285956,995.924147,296.082377
1175.097157,-8808.450710,1072.533697,222.061783
1175.097469,-8586.388927,612.876398,-148.041188
1175.097780,-8142.265362,76.609550,-296.082377
1175.098092,-8142.265362,536.266849,-0.000000
1175.098403,-8512.368333,383.047749,370.102971
1175.098715,-9474.636058,0.000000,370.102971
1175.099026,-9474.636058,-536.266849,740.205942
1175.099337,-9400.615463,-919.314598,888.247130
1175.099649,-9474.636058,-1225.752797,962.267725
1175.099960,-9326.594869,-689.485948,296.082377
1175.100272,-9622.677246,-689.485948,518.144159
1175.100583,-9474.636058,-1302.362347,370.102971
1175.100895,-9400.615463,-842.705048,222.061783
1175.101206,-9696.697840,-536.266849,370.102971
1175.101518,-9548.656652,-306.438199,-0.000000
1175.101829,-9696.697840,-153.219100,148.041188
1175.102141,-9770.718434,0.000000,-0.000000
1175.102452,-9400.615463,459.657299,148.041188
1175.102763,-9400.615463,1532.190996,370.102971
1175.103075,-9326.594869,1302.362347,666.185348
1175.103386,-9622.677246,842.705048,518.144159
1175.103698,-9104.533087,842.705048,518.144159
1175.104009,-9030.512492,612.876398,222.061783
1175.104321,-8882.471304,459.657299,444.123565
1175.104632,-8142.265362,536.266849,666.185348
1175.104944,-8364.327145,0.000000,-74.020594
1175.105255,-8438.347739,-612.876398,814.226536
1175.105567,-8216.285956,-1225.752797,592.164754
1175.105878,-8142.265362,-1378.971896,592.164754
1175.106189,-8290.306550,-1225.752797,740.205942
1175.106501,-8438.347739,-1532.190996,1036.288319
1175.106812,-8660.409521,-1915.238745,1332.370696
1175.107124,-8956.491898,-1225.752797,1184.329507
1175.107435,-8290.306550,-1072.533697,1406.391290
1175.107747,-8068.244768,-459.657299,1110.308913
1175.108058,-8364.327145,0.000000,962.267725
1175.108370,-8660.409521,0.000000,518.144159
1175.108681,-8734.430116,153.219100,370.102971
1175.108993,-8882.471304,612.876398,370.102971
1175.109304,-8290.306550,995.924147,740.205942
1175.109615,-7698.141797,229.828649,148.041188
1175.109927,-7624.121203,229.828649,222.061783
1175.110238,-7920.203579,0.000000,-296.082377
1175.110550,-8438.347739,229.828649,-0.000000
1175.110861,-9104.533087,459.657299,370.102971
1175.111173,-9474.636058,229.828649,222.061783
1175.111484,-9622.677246,0.000000,296.082377
1175.111796,-9474.636058,-459.657299,592.164754
1175.112107,-9252.574275,-766.095498,740.205942
1175.112419,-9548.656652,-536.266849,592.164754
1175.112730,-9770.718434,-995.924147,962.267725
1175.113041,-9178.553681,-995.924147,1184.329507
1175.113353,-9918.759623,-1302.362347,370.102971
1175.113664,-9918.759623,-689.485948,444.123565
1175.113976,-9178.553681,229.828649,-0.000000
1175.114287,-9918.759623,153.219100,518.144159
1175.114599,-9548.656652,0.000000,296.082377
1175.114910,-9770.718434,-229.828649,-0.000000
1175.115222,-10066.800811,995.924147,740.205942
1175.115533,-9400.615463,1532.190996,888.247130
1175.115845,-9696.697840,1302.362347,148.041188
1175.116156,-8882.471304,1532.190996,592.164754
1175.116467,-8068.244768,919.314598,296.082377
1175.116779,-7772.162391,766.095498,-0.000000
1175.117090,-7772.162391,919.314598,148.041188
1175.117401,-8216.285956,383.047749,148.041188
1175.117713,-7920.203579,459.657299,666.185348
1175.118024,-8734.430116,-1225.752797,296.082377
1175.118336,-8660.409521,-1225.752797,1036.288319
1175.118647,-8216.285956,-1225.752797,1184.329507
1175.118958,-8364.327145,-1302.362347,592.164754
1175.119270,-8364.327145,-1915.238745,1110.308913
1175.119581,-8438.347739,-689.485948,666.185348
1175.119892,-8512.368333,-612.876398,1184.329507
1175.120204,-8512.368333,-689.485948,1258.350101
1175.120515,-8586.388927,0.000000,962.267725
1175.120827,-8438.347739,0.000000,962.267725
1175.121138,-8660.409521,153.219100,666.185348
1175.121449,-8734.430116,536.266849,592.164754
1175.121761,-8068.244768,1378.971896,222.061783
1175.122072,-8512.368333,1072.533697,-370.102971
1175.122384,-8364.327145,1302.362347,-74.020594
1175.122695,-8586.388927,459.657299,-148.041188
1175.123006,-8882.471304,306.438199,-0.000000
1175.123318,-8808.450710,0.000000,444.123565
1175.123629,-8956.491898,0.000000,444.123565
1175.123940,-9030.512492,0.000000,518.144159
1175.124252,-9326.594869,-612.876398,814.226536
1175.124563,-9474.636058,-919.314598,888.247130
1175.124875,-9548.656652,-612.876398,740.205942
1175.125186,-9474.636058,-1072.533697,296.082377
1175.125497,-9622.677246,-1149.143247,666.185348
1175.125809,-10066.800811,-1455.581446,296.082377
1175.126120,-10066.800811,-689.485948,444.123565
1175.126431,-9326.594869,-689.485948,296.082377
1175.126743,-9474.636058,0.000000,148.041188
1175.127054,-9178.553681,76.609550,-0.000000
1175.127366,-9622.677246,383.047749,148.041188
1175.127677,-9548.656652,1225.752797,148.041188
1175.127988,-9474.636058,1608.800546,592.164754
1175.128300,-9474.636058,1532.190996,592.164754
1175.128611,-8956.491898,1149.143247,592.164754
1175.128923,-8586.388927,612.876398,-0.000000
1175.129234,-8586.388927,383.047749,-0.000000
1175.129545,-8068.244768,306.438199,962.267725
1175.129857,-8438.347739,306.438199,222.061783
1175.130168,-8216.285956,-612.876398,592.164754
1175.130479,-8364.327145,-1378.971896,962.267725
1175.130791,-8068.244768,-1455.581446,666.185348
1175.131102,-8068.244768,-995.924147,666.185348
1175.131414,-7994.224174,-1072.533697,740.205942
1175.131725,-8808.450710,-1072.533697,962.267725
1175.132036,-8882.471304,-1378.971896,1110.308913
1175.132348,-8512.368333,-842.705048,1332.370696
1175.132659,-8734.430116,-612.876398,1110.308913
1175.132971,-8586.388927,-229.828649,1036.288319
1175.133282,-8586.388927,0.000000,962.267725
1175.133593,-8586.388927,383.047749,666.185348
1175.133905,-8808.450710,689.485948,-0.000000
1175.134216,-8364.327145,1455.581446,-0.000000
1175.134527,-8142.265362,1685.410096,-0.000000
1175.134839,-8364.327145,1149.143247,-296.082377
1175.135150,-8364.327145,1149.143247,-222.061783
1175.135462,-8142.265362,995.924147,-222.061783
1175.135773,-8512.368333,459.657299,-0.000000
1175.136084,-8882.471304,0.000000,-0.000000
1175.136396,-9696.697840,0.000000,370.102971
1175.136707,-9992.780217,-306.438199,518.144159
1175.137018,-10140.821405,-306.438199,518.144159
1175.137330,-9622.677246,-919.314598,962.267725
1175.137641,-9474.636058,-1225.752797,962.267725
1175.137953,-9474.636058,-995.924147,740.205942
1175.138264,-9548.656652,-842.705048,814.226536
1175.138575,-9622.677246,-229.828649,-0.000000
1175.138887,-9178.553681,229.828649,592.164754
1175.139198,-8512.368333,0.000000,-0.000000
1175.139510,-8586.388927,-383.047749,222.061783
1175.139821,-9400.615463,76.609550,-0.000000
1175.140132,-9696.697840,919.314598,-0.000000
1175.140444,-9474.636058,1532.190996,222.061783
1175.140755,-9400.615463,1302.362347,814.226536
1175.141066,-8734.430116,1149.143247,740.205942
1175.141378,-8808.450710,689.485948,296.082377
1175.141689,-7994.224174,995.924147,518.144159
1175.142001,-7624.121203,842.705048,370.102971
1175.142312,-8216.285956,0.000000,518.144159
1175.142623,-8438.347739,-383.047749,592.164754
1175.142935,-8290.306550,-919.314598,444.123565
1175.143246,-8660.409521,-1455.581446,222.061783
1175.143557,-8586.388927,-995.924147,1110.308913
1175.143869,-8438.347739,-153.219100,370.102971
1175.144180,-9030.512492,-1608.800546,1184.329507
1175.144492,-8734.430116,-1302.362347,1406.391290
1175.144803,-9252.574275,-1225.752797,1184.329507
1175.145114,-8734.430116,-536.266849,1184.329507
1175.145426,-8290.306550,76.609550,1184.329507
1175.145737,-8142.265362,-306.438199,888.247130
1175.146049,-8364.327145,612.876398,666.185348
1175.146360,-8808.450710,842.705048,-0.000000
1175.146671,-8438.347739,842.705048,-148.041188
1175.146983,-8142.265362,1072.533697,74.020594
1175.147294,-8438.347739,689.485948,-0.000000
1175.147605,-8586.388927,153.219100,-148.041188
1175.147917,-8660.409521,306.438199,-148.041188
1175.148228,-8660.409521,689.485948,444.123565
1175.148540,-9030.512492,153.219100,222.061783
1175.148851,-9548.656652,0.000000,740.205942
1175.149162,-8956.491898,-229.828649,1184.329507
1175.149474,-9400.615463,-1149.143247,740.205942
1175.149785,-8956.491898,-383.047749,814.226536
1175.150096,-9178.553681,-459.657299,814.226536
1175.150408,-9400.615463,-766.095498,666.185348
1175.150719,-9474.636058,-919.314598,518.144159
1175.151031,-9918.759623,-919.314598,-74.020594
1175.151342,-9474.636058,0.000000,-148.041188
1175.151653,-8956.491898,842.705048,-148.041188
1175.151965,-9474.636058,383.047749,148.041188
1175.152276,-9770.718434,306.438199,296.082377
1175.152588,-9770.718434,766.095498,222.061783
1175.152899,-9400.615463,1378.971896,592.164754
1175.153210,-9178.553681,1608.800546,370.102971
1175.153522,-9030.512492,766.095498,1110.308913
1175.153833,-8586.388927,1149.143247,444.123565
1175.154144,-8734.430116,0.000000,666.185348
1175.154456,-8512.368333,306.438199,666.185348
1175.154767,-8956.491898,0.000000,592.164754
1175.155079,-9104.533087,-383.047749,740.205942
1175.155390,-8734.430116,-995.924147,888.247130
1175.155701,-8512.368333,-1608.800546,740.205942
1175.156013,-8290.306550,-2528.115143,1036.288319
1175.156324,-7550.100608,-1302.362347,1036.288319
1175.156636,-8364.327145,-1149.143247,962.267725
1175.156947,-8438.347739,-1149.143247,1110.308913
1175.157258,-8364.327145,-1072.533697,1258.350101
1175.157570,-8216.285956,-995.924147,888.247130
1175.157881,-8216.285956,-306.438199,814.226536
1175.158192,-8586.388927,153.219100,518.144159
1175.158504,-8586.388927,383.047749,-0.000000
1175.158815,-8660.409521,459.657299,148.041188
1175.159127,-8364.327145,459.657299,-0.000000
1175.159438,-8734.430116,612.876398,370.102971
1175.159749,-8512.368333,612.876398,518.144159
1175.160061,-8290.306550,229.828649,-0.000000
1175.160372,-8364.327145,0.000000,-222.061783
1175.160683,-8142.265362,383.047749,-222.061783
1175.160995,-8660.409521,689.485948,-74.020594
1175.161306,-9474.636058,0.000000,518.144159
1175.161618,-10066.800811,-536.266849,148.041188
1175.161929,-10214.842000,-536.266849,296.082377
1175.162240,-10066.800811,-766.095498,740.205942
1175.162552,-9770.718434,-766.095498,1036.288319
1175.162863,-10140.821405,-919.314598,296.082377
1175.163175,-9992.780217,-612.876398,1110.308913
1175.163486,-9474.636058,-995.924147,518.144159
1175.163797,-8882.471304,0.000000,74.020594
1175.164109,-9030.512492,229.828649,222.061783
1175.164420,-9252.574275,0.000000,-0.000000
1175.164731,-9400.615463,0.000000,-74.020594
1175.165043,-9770.718434,612.876398,-0.000000
1175.165354,-9474.636058,1608.800546,148.041188
1175.165666,-9400.615463,1378.971896,518.144159
1175.165977,-9474.636058,1072.533697,740.205942
1175.166288,-8734.430116,153.219100,666.185348
1175.166600,-8586.388927,153.219100,444.123565
1175.166911,-8142.265362,383.047749,1036.288319
1175.167222,-8290.306550,229.828649,888.247130
1175.167534,-8808.450710,0.000000,814.226536
1175.167845,-8512.368333,-995.924147,444.123565
1175.168157,-8216.285956,-1455.581446,-0.000000
1175.168468,-7920.203579,-536.266849,592.164754
1175.168779,-7920.203579,-766.095498,888.247130
1175.169091,-8956.491898,-995.924147,370.102971
1175.169402,-8734.430116,-842.705048,1036.288319
1175.169714,-8956.491898,-766.095498,1036.288319
1175.170025,-8586.388927,-1149.143247,1628.453072
1175.170336,-8142.265362,-842.705048,1184.329507
1175.170648,-8068.244768,0.000000,1110.308913
1175.170959,-8068.244768,76.609550,888.247130
1175.171270,-8438.347739,612.876398,518.144159
1175.171582,-8216.285956,842.705048,740.205942
1175.171893,-8660.409521,689.485948,296.082377
1175.172205,-8882.471304,842.705048,-0.000000
1175.172516,-8512.368333,536.266849,-222.061783
1175.172827,-8808.450710,0.000000,-666.185348
1175.173139,-7920.203579,306.438199,-370.102971
1175.173450,-9030.512492,229.828649,-0.000000
1175.173762,-9474.636058,-306.438199,444.123565
1175.174073,-9844.739029,-306.438199,814.226536
1175.174384,-9992.780217,-536.266849,666.185348
1175.174696,-9474.636058,-919.314598,1184.329507
1175.175007,-9400.615463,-766.095498,962.267725
1175.175318,-9548.656652,-1149.143247,592.164754
1175.175630,-9326.594869,-383.047749,518.144159
1175.175941,-9696.697840,-766.095498,-74.020594
1175.176253,-9622.677246,0.000000,222.061783
1175.176564,-9326.594869,153.219100,222.061783
1175.176875,-9474.636058,306.438199,296.082377
1175.177187,-9474.636058,229.828649,148.041188
1175.177498,-9548.656652,459.657299,148.041188
1175.177809,-9178.553681,1378.971896,370.102971
1175.178121,-9548.656652,2374.896044,222.061783
1175.178432,-9474.636058,1302.362347,666.185348
1175.178744,-8956.491898,842.705048,444.123565
1175.179055,-8586.388927,459.657299,518.144159
1175.179366,-8364.327145,229.828649,666.185348
1175.179678,-7846.182985,689.485948,148.041188
1175.179989,-8290.306550,-383.047749,148.041188
1175.180301,-7846.182985,-383.047749,962.267725
1175.180612,-7624.121203,-1838.629195,370.102971
1175.180923,-7920.203579,-1991.848295,888.247130
1175.181235,-8364.327145,-1378.971896,814.226536
1175.181546,-8438.347739,-1149.143247,888.247130
1175.181857,-8290.306550,-1532.190996,1036.288319
1175.182169,-8142.265362,-1455.581446,1036.288319
1175.182480,-8364.327145,-995.924147,962.267725
1175.182792,-8882.471304,-306.438199,1036.288319
1175.183103,-9326.594869,-153.219100,1036.288319
1175.183414,-8660.409521,0.000000,666.185348
1175.183726,-8734.430116,0.000000,370.102971
1175.184037,-8216.285956,536.266849,296.082377
1175.184348,-8290.306550,612.876398,222.061783
1175.184660,-8364.327145,229.828649,-0.000000
1175.184971,-8290.306550,536.266849,-74.020594
1175.185283,-8660.409521,229.828649,-74.020594
1175.185594,-8290.306550,383.047749,-74.020594
1175.185905,-9400.615463,-383.047749,-0.000000
1175.186217,-9548.656652,-612.876398,666.185348
1175.186528,-10214.842000,-383.047749,296.082377
1175.186840,-10140.821405,-229.828649,666.185348
1175.187151,-10140.821405,-229.828649,518.144159
1175.187462,-9548.656652,-536.266849,666.185348
1175.187774,-9474.636058,-1225.752797,666.185348
1175.188085,-9326.594869,-1072.533697,666.185348
1175.188396,-9548.656652,-919.314598,518.144159
1175.188708,-9474.636058,-306.438199,592.164754
1175.189019,-9474.636058,0.000000,296.082377
1175.189331,-9474.636058,0.000000,370.102971
1175.189642,-9400.615463,0.000000,-0.000000
1175.189953,-9400.615463,536.266849,370.102971
1175.190265,-9474.636058,1608.800546,-74.020594
1175.190576,-9178.553681,1762.019645,444.123565
1175.190887,-9030.512492,1072.533697,814.226536
1175.191199,-8586.388927,766.095498,518.144159
1175.191510,-8142.265362,229.828649,666.185348
1175.191822,-8068.244768,689.485948,962.267725
1175.192133,-7328.038826,306.438199,888.247130
1175.192444,-7920.203579,306.438199,370.102971
1175.192756,-8290.306550,-229.828649,444.123565
1175.193067,-7846.182985,-995.924147,814.226536
1175.193379,-8216.285956,-995.924147,592.164754
1175.193690,-8142.265362,-689.485948,888.247130
1175.194001,-8808.450710,-995.924147,666.185348
1175.194313,-8660.409521,-1072.533697,888.247130
1175.194624,-8808.450710,-689.485948,740.205942
1175.194935,-8882.471304,-536.266849,1406.391290
1175.195247,-8586.388927,383.047749,1406.391290
1175.195558,-8438.347739,229.828649,1036.288319
1175.195870,-8216.285956,306.438199,518.144159
1175.196181,-8142.265362,383.047749,814.226536
1175.196492,-8364.327145,536.266849,666.185348
1175.196804,-8586.388927,536.266849,666.185348
1175.197115,-9030.512492,0.000000,296.082377
1175.197427,-9030.512492,536.266849,-444.123565
1175.197738,-8586.388927,842.705048,-296.082377
1175.198049,-8660.409521,383.047749,-148.041188
1175.198361,-8956.491898,-229.828649,-0.000000
1175.198672,-9252.574275,-383.047749,-74.020594
1175.198983,-9770.718434,0.000000,444.123565
1175.199295,-9844.739029,76.609550,1110.308913
1175.199606,-9770.718434,-153.219100,962.267725
1175.199918,-9326.594869,-536.266849,1110.308913
1175.200229,-9622.677246,-1072.533697,518.144159
1175.200540,-9474.636058,-919.314598,518.144159
1175.200852,-9622.677246,-1072.533697,148.041188
1175.201163,-10066.800811,-536.266849,296.082377
1175.201474,-9474.636058,-459.657299,-74.020594
1175.201786,-9696.697840,0.000000,222.061783
1175.202097,-9474.636058,-229.828649,-0.000000
1175.202409,-9622.677246,689.485948,-74.020594
1175.202720,-9696.697840,995.924147,222.061783
1175.203031,-9326.594869,1762.019645,444.123565
1175.203343,-9178.553681,1915.238745,518.144159
1175.203654,-8512.368333,1225.752797,518.144159
1175.203966,-8216.285956,766.095498,740.205942
1175.204277,-8216.285956,-306.438199,370.102971
1175.204588,-7476.080014,766.095498,444.123565
1175.204900,-8142.265362,76.609550,-74.020594
1175.205211,-8512.368333,-612.876398,518.144159
1175.205522,-8512.368333,-1838.629195,740.205942
1175.205834,-8364.327145,-1991.848295,962.267725
1175.206145,-8068.244768,-1455.581446,962.267725
1175.206457,-8068.244768,-1149.143247,740.205942
1175.206768,-8290.306550,-919.314598,962.267725
1175.207079,-8364.327145,-1225.752797,1406.391290
1175.207391,-7846.182985,-766.095498,1332.370696
1175.207702,-8512.368333,-459.657299,814.226536
1175.208013,-8512.368333,0.000000,962.267725
1175.208325,-8512.368333,383.047749,666.185348
1175.208636,-8882.471304,842.705048,518.144159
1175.208948,-8660.409521,919.314598,592.164754
1175.209259,-8290.306550,919.314598,444.123565
1175.209570,-8956.491898,995.924147,-296.082377
1175.209882,-8142.265362,842.705048,-0.000000
1175.210193,-8364.327145,919.314598,-222.061783
1175.210505,-8438.347739,766.095498,-0.000000
1175.210816,-8956.491898,229.828649,296.082377
1175.211127,-9326.594869,0.000000,-0.000000
1175.211439,-9548.656652,0.000000,370.102971
1175.211750,-9918.759623,0.000000,592.164754
1175.212061,-9918.759623,-689.485948,518.144159
1175.212373,-9696.697840,-612.876398,666.185348
1175.212684,-9474.636058,-1072.533697,962.267725
1175.212996,-9622.677246,-1455.581446,962.267725
1175.213307,-9918.759623,-1149.143247,814.226536
1175.213618,-9400.615463,-842.705048,444.123565
1175.213930,-9252.574275,-842.705048,296.082377
1175.214241,-9400.615463,-919.314598,222.061783
1175.214553,-9326.594869,76.609550,-296.082377
1175.214864,-9696.697840,536.266849,-74.020594
1175.215175,-9918.759623,1378.971896,148.041188
1175.215487,-9622.677246,1838.629195,370.102971
1175.215798,-9696.697840,1455.581446,592.164754
1175.216109,-8882.471304,1225.752797,962.267725
1175.216421,-8142.265362,0.000000,814.226536
1175.216732,-8068.244768,306.438199,888.247130
1175.217043,-7846.182985,76.609550,592.164754
1175.217355,-8068.244768,153.219100,518.144159
1175.217666,-7920.203579,-383.047749,666.185348
1175.217978,-8142.265362,-919.314598,518.144159
1175.218289,-8882.471304,-1225.752797,444.123565
1175.218600,-8364.327145,-766.095498,296.082377
1175.218912,-8216.285956,-536.266849,222.061783
1175.219223,-8290.306550,-842.705048,740.205942
1175.219534,-8290.306550,-919.314598,1258.350101
1175.219846,-8660.409521,-1072.533697,1406.391290
1175.220157,-8512.368333,-536.266849,1184.329507
1175.220468,-8216.285956,306.438199,1036.288319
1175.220780,-8216.285956,536.266849,888.247130
1175.221091,-8216.285956,766.095498,518.144159
1175.221402,-8512.368333,1072.533697,296.082377
1175.221714,-8290.306550,689.485948,222.061783
1175.222025,-8438.347739,766.095498,-148.041188
1175.222337,-8512.368333,842.705048,-0.000000
1175.222648,-8956.491898,306.438199,-370.102971
1175.222959,-9030.512492,76.609550,-148.041188
1175.223271,-8882.471304,0.000000,444.123565
1175.223582,-9252.574275,0.000000,296.082377
1175.223893,-9622.677246,-229.828649,592.164754
1175.224205,-9696.697840,0.000000,962.267725
1175.224516,-9696.697840,-689.485948,1036.288319
1175.224827,-9622.677246,-919.314598,740.205942
1175.225139,-9400.615463,-842.705048,444.123565
1175.225450,-9474.636058,-842.705048,814.226536
1175.225762,-9918.759623,-612.876398,148.041188
1175.226073,-10140.821405,-689.485948,148.041188
1175.226384,-9992.780217,-995.924147,-0.000000
1175.226696,-9326.594869,0.000000,148.041188
1175.227007,-9474.636058,-383.047749,222.061783
1175.227318,-9622.677246,76.609550,148.041188
1175.227630,-9548.656652,842.705048,518.144159
1175.227941,-9030.512492,1378.971896,444.123565
1175.228252,-8882.471304,1225.752797,888.247130
1175.228564,-8586.388927,766.095498,592.164754
1175.228875,-8142.265362,1072.533697,592.164754
1175.229186,-8660.409521,459.657299,296.082377
1175.229498,-8068.244768,459.657299,666.185348
1175.229809,-8290.306550,153.219100,296.082377
1175.230121,-8734.430116,-766.095498,518.144159
1175.230432,-8660.409521,-1302.362347,1110.308913
1175.230743,-8808.450710,-1915.238745,592.164754
1175.231055,-8068.244768,-1302.362347,1036.288319
1175.231366,-7550.100608,-1455.581446,814.226536
1175.231677,-7846.182985,-1378.971896,888.247130
1175.231989,-7920.203579,-1072.533697,1184.329507
1175.232300,-7994.224174,-766.095498,1406.391290
1175.232611,-7846.182985,-383.047749,1110.308913
1175.232923,-8290.306550,-229.828649,740.205942
1175.233234,-8882.471304,612.876398,1332.370696
1175.233546,-8808.450710,229.828649,962.267725
1175.233857,-8882.471304,1072.533697,444.123565
1175.234168,-8808.450710,1149.143247,-0.000000
1175.234480,-8660.409521,459.657299,148.041188
1175.234791,-8512.368333,689.485948,-0.000000
1175.235102,-8660.409521,459.657299,-0.000000
1175.235414,-8364.327145,536.266849,-74.020594
1175.235725,-8364.327145,153.219100,-0.000000
1175.236036,-8956.491898,0.000000,222.061783
1175.236348,-9178.553681,0.000000,370.102971
1175.236659,-9992.780217,0.000000,370.102971
1175.236970,-9770.718434,-383.047749,740.205942
1175.237282,-9844.739029,-689.485948,518.144159
1175.237593,-9770.718434,-1072.533697,888.247130
1175.237905,-9252.574275,-1532.190996,1036.288319
1175.238216,-9548.656652,-1225.752797,592.164754
1175.238527,-9844.739029,-612.876398,222.061783
1175.238839,-9178.553681,0.000000,-0.000000
1175.239150,-9178.553681,-153.219100,222.061783
1175.239461,-9474.636058,-153.219100,-0.000000
1175.239773,-9696.697840,383.047749,370.102971
1175.240084,-9844.739029,995.924147,-0.000000
1175.240395,-9326.594869,1072.533697,-148.041188
1175.240707,-9104.533087,459.657299,296.082377
1175.241018,-8808.450710,306.438199,666.185348
1175.241330,-8956.491898,0.000000,666.185348
1175.241641,-9030.512492,-229.828649,740.205942
1175.241952,-8068.244768,-153.219100,1036.288319
1175.242264,-7994.224174,-229.828649,592.164754
1175.242575,-8364.327145,-1072.533697,666.185348
1175.242886,-7772.162391,-1302.362347,814.226536
1175.243198,-8586.388927,-1685.410096,-0.000000
1175.243509,-7698.141797,-842.705048,1036.288319
1175.243820,-8438.347739,-1149.143247,592.164754
1175.244132,-8808.450710,-919.314598,666.185348
1175.244443,-8660.409521,-766.095498,814.226536
1175.244755,-8808.450710,-919.314598,814.226536
1175.245066,-8438.347739,-919.314598,592.164754
1175.245377,-8808.450710,-612.876398,962.267725
1175.245689,-8438.347739,536.266849,1036.288319
1175.246000,-8734.430116,0.000000,962.267725
1175.246311,-8512.368333,383.047749,592.164754
1175.246623,-8142.265362,689.485948,296.082377
1175.246934,-8512.368333,995.924147,-0.000000
1175.247245,-8364.327145,1072.533697,-0.000000
1175.247557,-8142.265362,1072.533697,-370.102971
1175.247868,-8882.471304,689.485948,-518.144159
1175.248179,-8808.450710,229.828649,-74.020594
1175.248491,-9400.615463,153.219100,-0.000000
1175.248802,-9696.697840,229.828649,518.144159
1175.249114,-9548.656652,0.000000,1036.288319
1175.249425,-9918.759623,-306.438199,592.164754
1175.249736,-9770.718434,-229.828649,666.185348
1175.250048,-9474.636058,0.000000,814.226536
1175.250359,-9326.594869,0.000000,1258.350101
1175.250670,-9696.697840,-383.047749,296.082377
1175.250982,-9696.697840,-536.266849,296.082377
1175.251293,-9622.677246,153.219100,-0.000000
1175.251604,-9548.656652,229.828649,-0.000000
1175.251916,-9696.697840,306.438199,148.041188
1175.252227,-9770.718434,153.219100,-0.000000
1175.252539,-9104.533087,842.705048,-0.000000
1175.252850,-9030.512492,1072.533697,148.041188
1175.253161,-8734.430116,1149.143247,1258.350101
1175.253473,-9030.512492,689.485948,1036.288319
1175.253784,-8290.306550,459.657299,666.185348
1175.254095,-8438.347739,229.828649,518.144159
1175.254407,-8290.306550,536.266849,666.185348
1175.254718,-8438.347739,383.047749,370.102971
1175.255029,-8438.347739,-689.485948,370.102971
1175.255341,-8142.265362,-1302.362347,814.226536
1175.255652,-7920.203579,-1378.971896,296.082377
1175.255963,-7772.162391,-1838.629195,740.205942
1175.256275,-8290.306550,-1838.629195,1184.329507
1175.256586,-8364.327145,-1991.848295,1406.391290
1175.256898,-8438.347739,-1762.019645,1480.411884
1175.257209,-7920.203579,-1685.410096,1332.370696
1175.257520,-8142.265362,-1302.362347,1036.288319
1175.257832,-8438.347739,-459.657299,814.226536
1175.258143,-8808.450710,459.657299,666.185348
1175.258454,-9326.594869,536.266849,296.082377
1175.258766,-9326.594869,612.876398,148.041188
1175.259077,-8734.430116,766.095498,370.102971
1175.259388,-8808.450710,689.485948,-0.000000
1175.259700,-8734.430116,229.828649,-74.020594
1175.260011,-8734.430116,306.438199,-0.000000
1175.260323,-8956.491898,229.828649,-222.061783
1175.260634,-8882.471304,612.876398,370.102971
1175.260945,-9474.636058,0.000000,-0.000000
1175.261257,-9696.697840,-383.047749,518.144159
1175.261568,-9992.780217,0.000000,222.061783
1175.261879,-9696.697840,0.000000,-0.000000
1175.262191,-9326.594869,0.000000,444.123565
1175.262502,-9992.780217,-612.876398,592.164754
1175.262813,-9474.636058,-689.485948,1184.329507
1175.263125,-9844.739029,-1072.533697,814.226536
1175.263436,-9622.677246,-612.876398,370.102971
1175.263747,-9030.512492,0.000000,444.123565
1175.264059,-8586.388927,76.609550,518.144159
1175.264370,-8660.409521,76.609550,370.102971
1175.264682,-9474.636058,-153.219100,-592.164754
1175.264993,-9918.759623,1378.971896,-148.041188
1175.265304,-9474.636058,1302.362347,370.102971
1175.265616,-9178.553681,2068.457845,814.226536
1175.265927,-9178.553681,1072.533697,592.164754
1175.266238,-8142.265362,306.438199,444.123565
1175.266550,-7920.203579,76.609550,370.102971
1175.266861,-7550.100608,842.705048,962.267725
1175.267172,-7698.141797,612.876398,740.205942
1175.267484,-8882.471304,0.000000,518.144159
1175.267795,-8290.306550,-689.485948,962.267725
1175.268107,-7846.182985,-1225.752797,888.247130
1175.268418,-7772.162391,-1072.533697,740.205942
1175.268729,-7772.162391,-689.485948,666.185348
1175.269041,-8882.471304,-536.266849,666.185348
1175.269352,-8586.388927,-1072.533697,962.267725
1175.269663,-8586.388927,-536.266849,1110.308913
1175.269975,-8808.450710,-1455.581446,1554.432478
1175.270286,-8808.450710,-1378.971896,1702.473667
1175.270597,-9030.512492,-383.047749,1110.308913
1175.270909,-8660.409521,76.609550,814.226536
1175.271220,-8660.409521,0.000000,666.185348
1175.271531,-8734.430116,-306.438199,740.205942
1175.271843,-8660.409521,766.095498,666.185348
1175.272154,-8734.430116,306.438199,296.082377
1175.272466,-8216.285956,995.924147,-148.041188
1175.272777,-8586.388927,612.876398,-296.082377
1175.273088,-8734.430116,229.828649,-0.000000
1175.273400,-9400.615463,-383.047749,-74.020594
1175.273711,-9696.697840,0.000000,-0.000000
1175.274022,-9474.636058,-229.828649,296.082377
1175.274334,-10584.944971,-153.219100,-0.000000
1175.274645,-9992.780217,0.000000,370.102971
1175.274956,-9474.636058,-919.314598,666.185348
1175.275268,-9474.636058,-689.485948,962.267725
1175.275579,-9696.697840,-919.314598,814.226536
1175.275891,-9622.677246,-459.657299,370.102971
1175.276202,-9326.594869,153.219100,370.102971
1175.276513,-9030.512492,153.219100,-148.041188
1175.276825,-8586.388927,383.047749,-0.000000
1175.277136,-9178.553681,459.657299,-370.102971
1175.277447,-9400.615463,689.485948,-0.000000
1175.277759,-9326.594869,919.314598,444.123565
1175.278070,-9326.594869,1455.581446,592.164754
1175.278381,-9400.615463,995.924147,1110.308913
1175.278693,-8734.430116,229.828649,592.164754
1175.279004,-8216.285956,0.000000,592.164754
1175.279315,-7994.224174,536.266849,518.144159
1175.279627,-7698.141797,689.485948,814.226536
1175.279938,-8438.347739,612.876398,370.102971
1175.280250,-8216.285956,-459.657299,740.205942
1175.280561,-7402.059420,-1302.362347,592.164754
1175.280872,-7698.141797,-1149.143247,518.144159
1175.281184,-7846.182985,-1302.362347,666.185348
1175.281495,-8808.450710,-1378.971896,296.082377
1175.281806,-8512.368333,-919.314598,1036.288319
1175.282118,-8512.368333,-1149.143247,962.267725
1175.282429,-8512.368333,-842.705048,1258.350101
1175.282740,-9178.553681,-612.876398,1184.329507
1175.283052,-9030.512492,0.000000,1332.370696
1175.283363,-8956.491898,0.000000,740.205942
1175.283675,-8808.450710,459.657299,518.144159
1175.283986,-8438.347739,229.828649,-0.000000
1175.284297,-8512.368333,153.219100,74.020594
1175.284609,-8882.471304,383.047749,-0.000000
1175.284920,-8586.388927,383.047749,-74.020594
1175.285231,-8882.471304,383.047749,-370.102971
1175.285543,-9178.553681,0.000000,148.041188
1175.285854,-9474.636058,-383.047749,370.102971
1175.286165,-9918.759623,0.000000,-0.000000
1175.286477,-9844.739029,-153.219100,444.123565
1175.286788,-9770.718434,-306.438199,-148.041188
1175.287099,-9696.697840,-689.485948,888.247130
1175.287411,-9622.677246,-919.314598,814.226536
1175.287722,-9474.636058,-1072.533697,592.164754
1175.288034,-9474.636058,-1225.752797,666.185348
1175.288345,-9696.697840,-1072.533697,444.123565
1175.288656,-9474.636058,-842.705048,370.102971
1175.288968,-9030.512492,0.000000,-74.020594
1175.289279,-8882.471304,-76.609550,296.082377
1175.289590,-9474.636058,-383.047749,-0.000000
1175.289902,-9844.739029,612.876398,-0.000000
1175.290213,-9622.677246,1378.971896,444.123565
1175.290524,-9252.574275,1302.362347,740.205942
1175.290836,-9104.533087,1302.362347,814.226536
1175.291147,-8142.265362,766.095498,740.205942
1175.291459,-7624.121203,766.095498,518.144159
1175.291770,-8068.244768,536.266849,814.226536
1175.292081,-8216.285956,766.095498,592.164754
1175.292393,-8512.368333,766.095498,370.102971
1175.292704,-8216.285956,0.000000,444.123565
1175.293015,-7772.162391,-689.485948,444.123565
1175.293327,-7994.224174,-919.314598,740.205942
1175.293638,-8290.306550,-306.438199,148.041188
1175.293949,-8290.306550,-153.219100,1480.411884
1175.294261,-8808.450710,-153.219100,814.226536
1175.294572,-8512.368333,-1072.533697,1406.391290
1175.294883,-8586.388927,-766.095498,1554.432478
1175.295195,-8512.368333,-766.095498,1258.350101
1175.295506,-8586.388927,-153.219100,1184.329507
1175.295818,-8290.306550,153.219100,666.185348
1175.296129,-8438.347739,0.000000,222.061783
1175.296440,-8660.409521,153.219100,222.061783
1175.296752,-8660.409521,153.219100,666.185348
1175.297063,-8734.430116,306.438199,222.061783
1175.297374,-8586.388927,689.485948,-0.000000
1175.297686,-8660.409521,536.266849,-148.041188
1175.297997,-8734.430116,-229.828649,222.061783
1175.298308,-8956.491898,-995.924147,-0.000000
1175.298620,-9178.553681,-383.047749,444.123565
1175.298931,-10066.800811,153.219100,296.082377
1175.299243,-9474.636058,153.219100,666.185348
1175.299554,-10288.862594,-842.705048,740.205942
1175.299865,-9992.780217,-612.876398,888.247130
1175.300177,-9326.594869,-689.485948,666.185348
1175.300488,-9400.615463,-919.314598,888.247130
1175.300799,-9474.636058,-1072.533697,888.247130
1175.301111,-9770.718434,-1149.143247,370.102971
1175.301422,-9326.594869,-612.876398,222.061783
1175.301733,-9178.553681,-229.828649,592.164754
1175.302045,-9400.615463,0.000000,296.082377
1175.302356,-9844.739029,536.266849,148.041188
1175.302667,-9622.677246,766.095498,370.102971
1175.302979,-9178.553681,1302.362347,370.102971
1175.303290,-9104.533087,1378.971896,370.102971
1175.303602,-8438.347739,995.924147,444.123565
1175.303913,-8216.285956,0.000000,296.082377
1175.304224,-7920.203579,229.828649,814.226536
1175.304536,-7476.080014,766.095498,962.267725
1175.304847,-7846.182985,153.219100,370.102971
1175.305158,-7920.203579,-383.047749,962.267725
1175.305470,-8216.285956,-1685.410096,888.247130
1175.305781,-8216.285956,-2451.505594,740.205942
1175.306092,-8290.306550,-1608.800546,666.185348
1175.306404,-8586.388927,-1072.533697,222.061783
1175.306715,-8438.347739,-1225.752797,592.164754
1175.307027,-8660.409521,-1455.581446,666.185348
1175.307338,-8512.368333,-842.705048,962.267725
1175.307649,-8734.430116,-612.876398,814.226536
1175.307961,-8734.430116,0.000000,1036.288319
1175.308272,-8734.430116,76.609550,740.205942
1175.308583,-8512.368333,536.266849,814.226536
1175.308895,-9104.533087,842.705048,-74.020594
1175.309206,-9030.512492,919.314598,-0.000000
1175.309517,-8586.388927,995.924147,-444.123565
1175.309829,-8142.265362,1072.533697,-148.041188
1175.310140,-8660.409521,383.047749,-518.144159
1175.310452,-8882.471304,229.828649,-296.082377
1175.310763,-8882.471304,-229.828649,-74.020594
1175.311074,-9622.677246,-689.485948,296.082377
1175.311386,-9844.739029,0.000000,296.082377
1175.311697,-10066.800811,-689.485948,592.164754
1175.312008,-9770.718434,-383.047749,962.267725
1175.312320,-9622.677246,-612.876398,814.226536
1175.312631,-9474.636058,-1072.533697,962.267725
1175.312942,-9474.636058,-919.314598,962.267725
1175.313254,-9696.697840,-995.924147,370.102971
1175.313565,-9474.636058,0.000000,370.102971
1175.313876,-9178.553681,-383.047749,148.041188
1175.314188,-8882.471304,76.609550,-0.000000
1175.314499,-9030.512492,153.219100,296.082377
1175.314811,-9696.697840,536.266849,222.061783
1175.315122,-9844.739029,1302.362347,444.123565
1175.315433,-9326.594869,1455.581446,444.123565
1175.315745,-9104.533087,1302.362347,518.144159
1175.316056,-8216.285956,1072.533697,666.185348
1175.316367,-8142.265362,0.000000,444.123565
1175.316679,-8216.285956,383.047749,518.144159
1175.316990,-7550.100608,842.705048,962.267725
1175.317301,-7846.182985,612.876398,888.247130
1175.317613,-8142.265362,-229.828649,1036.288319
1175.317924,-7772.162391,-1378.971896,888.247130
1175.318235,-8216.285956,-1762.019645,444.123565
1175.318547,-7994.224174,-766.095498,592.164754
1175.318858,-8364.327145,-766.095498,518.144159
1175.319170,-9252.574275,-689.485948,888.247130
1175.319481,-9104.533087,-995.924147,1258.350101
1175.319792,-9030.512492,-1072.533697,1480.411884
1175.320104,-8290.306550,-842.705048,888.247130
1175.320415,-8438.347739,383.047749,740.205942
1175.320726,-8068.244768,76.609550,814.226536
1175.321038,-8142.265362,383.047749,444.123565
1175.321349,-8216.285956,459.657299,444.123565
1175.321660,-8216.285956,612.876398,518.144159
1175.321972,-8660.409521,536.266849,-0.000000
1175.322283,-8956.491898,919.314598,-74.020594
1175.322594,-9252.574275,689.485948,-518.144159
1175.322906,-9030.512492,689.485948,222.061783
1175.323217,-9474.636058,153.219100,-148.041188
1175.323529,-9992.780217,76.609550,-148.041188
1175.323840,-9548.656652,153.219100,370.102971
1175.324151,-9992.780217,-153.219100,592.164754
1175.324463,-9918.759623,-536.266849,814.226536
1175.324774,-9770.718434,-536.266849,592.164754
1175.325085,-9474.636058,-306.438199,740.205942
1175.325397,-9474.636058,-306.438199,962.267725
1175.325708,-9548.656652,-919.314598,666.185348
1175.326019,-9918.759623,-229.828649,222.061783
1175.326331,-9400.615463,-306.438199,296.082377
1175.326642,-9030.512492,-306.438199,148.041188
1175.326953,-9104.533087,-229.828649,222.061783
1175.327265,-9474.636058,0.000000,148.041188
1175.327576,-9400.615463,153.219100,444.123565
1175.327888,-9178.553681,1455.581446,444.123565
1175.328199,-8882.471304,1608.800546,592.164754
1175.328510,-8660.409521,612.876398,888.247130
1175.328822,-8660.409521,76.609550,814.226536
1175.329133,-8512.368333,0.000000,888.247130
1175.329444,-7920.203579,459.657299,666.185348
1175.329756,-8142.265362,995.924147,814.226536
1175.330067,-7994.224174,153.219100,592.164754
1175.330378,-8290.306550,-689.485948,-0.000000
1175.330690,-7994.224174,-1149.143247,148.041188
1175.331001,-7846.182985,-1302.362347,888.247130
1175.331312,-8438.347739,-842.705048,1036.288319
1175.331624,-8512.368333,-995.924147,1184.329507
1175.331935,-9178.553681,-1302.362347,1184.329507
1175.332247,-8364.327145,-1149.143247,1184.329507
1175.332558,-7920.203579,-612.876398,962.267725
1175.332869,-8660.409521,-383.047749,740.205942
1175.333181,-8364.327145,-153.219100,592.164754
1175.333492,-9030.512492,306.438199,296.082377
1175.333803,-9030.512492,306.438199,444.123565
1175.334115,-8734.430116,536.266849,148.041188
1175.334426,-9030.512492,766.095498,370.102971
1175.334737,-8660.409521,919.314598,592.164754
1175.335049,-9622.677246,383.047749,-296.082377
1175.335360,-8586.388927,766.095498,-666.185348
1175.335671,-8290.306550,383.047749,-74.020594
1175.335983,-9252.574275,0.000000,-0.000000
1175.336294,-9400.615463,-306.438199,222.061783
1175.336606,-9992.780217,-306.438199,222.061783
1175.336917,-9918.759623,0.000000,518.144159
1175.337228,-9400.615463,-383.047749,444.123565
1175.337540,-9252.574275,-766.095498,370.102971
1175.337851,-9474.636058,-1072.533697,370.102971
1175.338162,-9770.718434,-919.314598,666.185348
1175.338474,-9696.697840,-459.657299,444.123565
1175.338785,-9178.553681,0.000000,740.205942
1175.339096,-9178.553681,0.000000,222.061783
1175.339408,-9104.533087,-383.047749,370.102971
1175.339719,-9474.636058,459.657299,222.061783
1175.340030,-9474.636058,1302.362347,-0.000000
1175.340342,-9474.636058,1762.019645,370.102971
1175.340653,-9622.677246,1302.362347,592.164754
1175.340965,-8956.491898,1225.752797,888.247130
1175.341276,-8660.409521,995.924147,518.144159
1175.341587,-8586.388927,612.876398,370.102971
1175.341899,-8364.327145,76.609550,518.144159
1175.342210,-7994.224174,536.266849,666.185348
1175.342521,-8142.265362,0.000000,740.205942
1175.342833,-8142.265362,229.828649,740.205942
1175.343144,-8364.327145,-995.924147,444.123565
1175.343455,-8216.285956,-1072.533697,592.164754
1175.343767,-8216.285956,-919.314598,888.247130
1175.344078,-8808.450710,-766.095498,666.185348
1175.344389,-8660.409521,-1302.362347,1036.288319
1175.344701,-8734.430116,-919.314598,1184.329507
1175.345012,-8142.265362,-1378.971896,1184.329507
1175.345324,-8438.347739,-995.924147,1258.350101
1175.345635,-8660.409521,153.219100,962.267725
1175.345946,-8364.327145,306.438199,592.164754
1175.346258,-8956.491898,459.657299,296.082377
1175.346569,-8364.327145,919.314598,444.123565
1175.346880,-7920.203579,689.485948,518.144159
1175.347192,-8586.388927,536.266849,-74.020594
1175.347503,-8586.388927,919.314598,-74.020594
1175.347814,-8808.450710,459.657299,-444.123565
1175.348126,-8956.491898,383.047749,-0.000000
1175.348437,-9104.533087,76.609550,74.020594
1175.348748,-9770.718434,-306.438199,296.082377
1175.349060,-10066.800811,0.000000,518.144159
1175.349371,-9770.718434,-612.876398,296.082377
1175.349682,-9104.533087,-383.047749,592.164754
1175.349994,-9622.677246,-459.657299,592.164754
1175.350305,-9696.697840,-1072.533697,814.226536
1175.350617,-9622.677246,-1302.362347,740.205942
1175.350928,-9548.656652,-1072.533697,296.082377
1175.351239,-9400.615463,-612.876398,592.164754
1175.351551,-9474.636058,-536.266849,-0.000000
1175.351862,-9474.636058,-306.438199,296.082377
1175.352173,-9622.677246,-306.438199,148.041188
1175.352485,-9696.697840,0.000000,-0.000000
1175.352796,-9400.615463,842.705048,592.164754
1175.353107,-9400.615463,842.705048,740.205942
1175.353419,-8808.450710,459.657299,740.205942
1175.353730,-8438.347739,459.657299,666.185348
1175.354041,-8364.327145,459.657299,296.082377
1175.354353,-8142.265362,536.266849,222.061783
1175.354664,-7994.224174,919.314598,444.123565
1175.354976,-8586.388927,153.219100,296.082377
1175.355287,-8290.306550,-612.876398,666.185348
1175.355598,-8142.265362,-1149.143247,592.164754
1175.355910,-8142.265362,-1378.971896,740.205942
1175.356221,-8216.285956,-1149.143247,888.247130
1175.356532,-8512.368333,-689.485948,592.164754
1175.356844,-8808.450710,-766.095498,592.164754
1175.357155,-8882.471304,-689.485948,666.185348
1175.357466,-8216.285956,-459.657299,1036.288319
1175.357778,-8364.327145,0.000000,592.164754
1175.358089,-8956.491898,383.047749,814.226536
1175.358400,-9326.594869,766.095498,444.123565
1175.358712,-9104.533087,766.095498,444.123565
1175.359023,-8290.306550,1302.362347,740.205942
1175.359335,-8142.265362,459.657299,592.164754
1175.359646,-8882.471304,689.485948,-0.000000
1175.359957,-8660.409521,306.438199,-0.000000
1175.360269,-8512.368333,459.657299,-148.041188
1175.360580,-8290.306550,0.000000,-0.000000
1175.360891,-9400.615463,-229.828649,222.061783
1175.361203,-9622.677246,459.657299,222.061783
1175.361514,-9474.636058,-459.657299,444.123565
1175.361825,-9622.677246,-306.438199,740.205942
1175.362137,-9252.574275,-229.828649,962.267725
1175.362448,-9400.615463,-842.705048,814.226536
1175.362759,-9400.615463,-1225.752797,888.247130
1175.363071,-9474.636058,-1302.362347,814.226536
1175.363382,-9474.636058,-306.438199,592.164754
1175.363694,-8808.450710,0.000000,518.144159
1175.364005,-8808.450710,-919.314598,444.123565
1175.364316,-8882.471304,-306.438199,370.102971
1175.364628,-9030.512492,0.000000,814.226536
1175.364939,-9474.636058,536.266849,-0.000000
1175.365250,-9326.594869,1072.533697,370.102971
1175.365562,-9474.636058,919.314598,592.164754
1175.365873,-9474.636058,842.705048,666.185348
1175.366184,-8216.285956,1149.143247,370.102971
1175.366496,-8290.306550,0.000000,592.164754
1175.366807,-8068.244768,229.828649,888.247130
1175.367118,-7920.203579,459.657299,962.267725
1175.367430,-8512.368333,-306.438199,518.144159
1175.367741,-8364.327145,-842.705048,740.205942
1175.368053,-8364.327145,-1149.143247,592.164754
1175.368364,-8512.368333,-1149.143247,814.226536
1175.368675,-8364.327145,-1225.752797,444.123565
1175.368987,-8660.409521,-995.924147,148.041188
1175.369298,-8734.430116,-689.485948,666.185348
1175.369609,-9104.533087,-1072.533697,592.164754
1175.369921,-9030.512492,-1225.752797,1184.329507
1175.370232,-8734.430116,-689.485948,1332.370696
1175.370543,-8808.450710,-153.219100,1036.288319
1175.370855,-8364.327145,689.485948,518.144159
1175.371166,-8438.347739,536.266849,666.185348
1175.371477,-7846.182985,995.924147,518.144159
1175.371789,-8734.430116,612.876398,-74.020594
1175.372100,-8586.388927,995.924147,148.041188
1175.372412,-8586.388927,1302.362347,-0.000000
1175.372723,-8734.430116,766.095498,-370.102971
1175.373034,-8660.409521,612.876398,-0.000000
1175.373346,-9252.574275,0.000000,-0.000000
1175.373657,-9326.594869,-383.047749,-0.000000
1175.373968,-9474.636058,383.047749,-0.000000
1175.374280,-10214.842000,0.000000,-0.000000
1175.374591,-10362.883188,-459.657299,666.185348
1175.374902,-9844.739029,-383.047749,1258.350101
1175.375214,-9770.718434,-766.095498,1184.329507
1175.375525,-9474.636058,-1072.533697,1036.288319
1175.375836,-9622.677246,-842.705048,814.226536
1175.376148,-9326.594869,766.095498,592.164754
1175.376459,-9104.533087,0.000000,-0.000000
1175.376771,-9326.594869,0.000000,-148.041188
1175.377082,-9400.615463,0.000000,-0.000000
1175.377393,-9474.636058,153.219100,-0.000000
1175.377705,-9326.594869,766.095498,740.205942
1175.378016,-9696.697840,689.485948,814.226536
1175.378327,-8808.450710,919.314598,1480.411884
1175.378639,-8068.244768,919.314598,592.164754
1175.378950,-7476.080014,383.047749,740.205942
1175.379261,-7846.182985,383.047749,814.226536
1175.379573,-7920.203579,689.485948,814.226536
1175.379884,-8734.430116,-229.828649,370.102971
1175.380195,-8512.368333,-842.705048,814.226536
1175.380507,-7920.203579,-1608.800546,740.205942
1175.380818,-7920.203579,-1455.581446,592.164754
1175.381130,-8882.471304,-1302.362347,222.061783
1175.381441,-8734.430116,-1302.362347,888.247130
1175.381752,-8660.409521,-1608.800546,888.247130
1175.382064,-8660.409521,-1302.362347,1110.308913
1175.382375,-8660.409521,-842.705048,1110.308913
1175.382686,-9178.553681,-612.876398,1110.308913
1175.382998,-8808.450710,-229.828649,1110.308913
1175.383309,-9178.553681,0.000000,296.082377
1175.383620,-8882.471304,383.047749,222.061783
1175.383932,-9178.553681,1149.143247,-148.041188
1175.384243,-8882.471304,1072.533697,-0.000000
1175.384554,-8660.409521,919.314598,-74.020594
1175.384866,-8586.388927,612.876398,-222.061783
1175.385177,-9030.512492,919.314598,-444.123565
1175.385489,-8512.368333,1225.752797,148.041188
1175.385800,-9326.594869,229.828649,-444.123565
1175.386111,-9326.594869,0.000000,-0.000000
1175.386423,-9474.636058,0.000000,518.144159
1175.386734,-9770.718434,0.000000,666.185348
1175.387045,-9548.656652,0.000000,888.247130
1175.387357,-9474.636058,-383.047749,666.185348
1175.387668,-9252.574275,-842.705048,1036.288319
1175.387979,-8808.450710,-842.705048,666.185348
1175.388291,-8956.491898,-459.657299,370.102971
1175.388602,-8882.471304,229.828649,-0.000000
1175.388913,-8660.409521,0.000000,148.041188
1175.389225,-9030.512492,0.000000,-0.000000
1175.389536,-9178.553681,0.000000,222.061783
1175.389848,-9696.697840,919.314598,444.123565
1175.390159,-9770.718434,1225.752797,592.164754
1175.390470,-9696.697840,1608.800546,444.123565
1175.390782,-9104.533087,1072.533697,962.267725
1175.391093,-7994.224174,383.047749,740.205942
1175.391404,-7624.121203,153.219100,888.247130
1175.391716,-7772.162391,536.266849,740.205942
1175.392027,-7698.141797,306.438199,740.205942
1175.392338,-8290.306550,-153.219100,740.205942
1175.392650,-8068.244768,-229.828649,666.185348
1175.392961,-7846.182985,-1302.362347,666.185348
1175.393272,-8512.368333,-1072.533697,-0.000000
1175.393584,-8216.285956,-689.485948,740.205942
1175.393895,-8734.430116,-766.095498,444.123565
1175.394207,-9252.574275,-919.314598,888.247130
1175.394518,-8956.491898,-1149.143247,1110.308913
1175.394829,-8956.491898,-995.924147,1332.370696
1175.395141,-8808.450710,-536.266849,1406.391290
1175.395452,-8882.471304,-306.438199,740.205942
1175.395763,-8216.285956,0.000000,962.267725
1175.396075,-7920.203579,229.828649,666.185348
1175.396386,-8438.347739,689.485948,518.144159
1175.396697,-8586.388927,689.485948,-0.000000
1175.397009,-8882.471304,689.485948,222.061783
1175.397320,-8586.388927,995.924147,-74.020594
1175.397631,-8512.368333,766.095498,-0.000000
1175.397943,-8734.430116,689.485948,-444.123565
1175.398254,-8660.409521,459.657299,-148.041188
1175.398565,-9548.656652,-229.828649,-222.061783
1175.398877,-9696.697840,0.000000,222.061783
1175.399188,-10140.821405,-229.828649,296.082377
1175.399500,-10288.862594,-459.657299,740.205942
1175.399811,-9622.677246,-536.266849,962.267725
1175.400122,-9326.594869,-766.095498,740.205942
1175.400434,-9400.615463,-612.876398,1110.308913
1175.400745,-9326.594869,-1302.362347,740.205942
1175.401056,-9104.533087,-1072.533697,592.164754
1175.401368,-9030.512492,-383.047749,-0.000000
1175.401679,-9030.512492,-306.438199,-74.020594
1175.401990,-9030.512492,-383.047749,444.123565
1175.402302,-9844.739029,-306.438199,-0.000000
1175.402613,-9622.677246,153.219100,592.164754
1175.402924,-9770.718434,995.924147,-0.000000
1175.403236,-9474.636058,1225.752797,518.144159
1175.403547,-8734.430116,689.485948,666.185348
1175.403859,-8142.265362,689.485948,666.185348
1175.404170,-8068.244768,766.095498,592.164754
1175.404481,-7920.203579,1072.533697,666.185348
1175.404793,-7994.224174,689.485948,296.082377
1175.405104,-8586.388927,-306.438199,592.164754
1175.405415,-8216.285956,-459.657299,740.205942
1175.405727,-8290.306550,-1072.533697,666.185348
1175.406038,-8142.265362,-1072.533697,370.102971
1175.406349,-8734.430116,-1225.752797,518.144159
1175.406661,-8808.450710,-1072.533697,1036.288319
1175.406972,-9326.594869,-1072.533697,666.185348
1175.407283,-8586.388927,-842.705048,1480.411884
1175.407595,-8586.388927,-766.095498,1184.329507
1175.407906,-8438.347739,-229.828649,1036.288319
1175.408218,-8586.388927,153.219100,1036.288319
1175.408529,-9030.512492,383.047749,666.185348
1175.408840,-8808.450710,383.047749,370.102971
1175.409152,-8512.368333,383.047749,296.082377
1175.409463,-8882.471304,536.266849,222.061783
1175.409774,-8512.368333,383.047749,296.082377
1175.410086,-8956.491898,306.438199,-0.000000
1175.410397,-8438.347739,76.609550,370.102971
1175.410708,-9030.512492,0.000000,-0.000000
1175.411020,-9178.553681,0.000000,148.041188
1175.411331,-9474.636058,0.000000,518.144159
1175.411642,-9622.677246,-383.047749,370.102971
1175.411954,-9474.636058,229.828649,370.102971
1175.412265,-8734.430116,-229.828649,592.164754
1175.412577,-8956.491898,-1149.143247,592.164754
1175.412888,-9474.636058,-1072.533697,814.226536
1175.413199,-9918.759623,-1072.533697,740.205942
1175.413511,-9918.759623,-919.314598,370.102971
1175.413822,-9252.574275,-306.438199,-0.000000
1175.414133,-9178.553681,-383.047749,148.041188
1175.414445,-9252.574275,-229.828649,-0.000000
1175.414756,-9696.697840,229.828649,-222.061783
1175.415067,-9548.656652,689.485948,518.144159
1175.415379,-8882.471304,1455.581446,592.164754
1175.415690,-9178.553681,1455.581446,518.144159
1175.416001,-8734.430116,919.314598,592.164754
1175.416313,-8142.265362,536.266849,666.185348
1175.416624,-8438.347739,229.828649,666.185348
1175.416936,-8290.306550,383.047749,666.185348
1175.417247,-8290.306550,229.828649,370.102971
1175.417558,-8586.388927,-536.266849,962.267725
1175.417870,-8068.244768,-1302.362347,814.226536
1175.418181,-8290.306550,-1378.971896,592.164754
1175.418492,-7920.203579,-995.924147,518.144159
1175.418804,-8068.244768,-689.485948,444.123565
1175.419115,-8290.306550,-1225.752797,740.205942
1175.419427,-8586.388927,-842.705048,1110.308913
1175.419738,-8808.450710,-1072.533697,1110.308913
1175.420049,-8142.265362,-689.485948,1258.350101
1175.420361,-8364.327145,-689.485948,1110.308913
1175.420672,-8808.450710,229.828649,1110.308913
1175.420984,-8660.409521,229.828649,592.164754
1175.421295,-9030.512492,536.266849,296.082377
1175.421606,-8512.368333,459.657299,148.041188
1175.421918,-8660.409521,1532.190996,148.041188
1175.422229,-8142.265362,919.314598,-0.000000
1175.422541,-8512.368333,229.828649,-222.061783
1175.422852,-8808.450710,306.438199,-444.123565
1175.423163,-8660.409521,153.219100,-148.041188
1175.423475,-9178.553681,153.219100,148.041188
1175.423786,-9696.697840,0.000000,370.102971
1175.424098,-10066.800811,-153.219100,370.102971
1175.424409,-10066.800811,0.000000,74.020594
1175.424720,-9844.739029,0.000000,518.144159
1175.425032,-9474.636058,-1072.533697,888.247130
1175.425343,-9400.615463,-1072.533697,962.267725
1175.425655,-9326.594869,-995.924147,1036.288319
1175.425966,-9474.636058,-689.485948,370.102971
1175.426277,-8956.491898,0.000000,518.144159
1175.426589,-9030.512492,459.657299,-0.000000
1175.426900,-8734.430116,229.828649,222.061783
1175.427212,-9252.574275,459.657299,-0.000000
1175.427523,-9696.697840,689.485948,-0.000000
1175.427834,-9178.553681,612.876398,518.144159
1175.428146,-8734.430116,689.485948,666.185348
1175.428457,-8660.409521,536.266849,814.226536
1175.428769,-8142.265362,383.047749,666.185348
1175.429080,-8290.306550,76.609550,370.102971
1175.429391,-8142.265362,153.219100,666.185348
1175.429703,-7624.121203,153.219100,592.164754
1175.430014,-8808.450710,-229.828649,296.082377
1175.430326,-8808.450710,-995.924147,592.164754
1175.430637,-8660.409521,-1685.410096,370.102971
1175.430948,-8364.327145,-1455.581446,740.205942
1175.431260,-8734.430116,-919.314598,740.205942
1175.431571,-9178.553681,-1072.533697,666.185348
1175.431883,-9326.594869,-1072.533697,518.144159
1175.432194,-8956.491898,-689.485948,-0.000000
1175.432505,-7920.203579,-689.485948,962.267725
1175.432817,-8512.368333,-612.876398,1184.329507
1175.433128,-8808.450710,-229.828649,1184.329507
1175.433440,-9104.533087,76.609550,740.205942
1175.433751,-8808.450710,612.876398,296.082377
1175.434062,-8438.347739,842.705048,-0.000000
1175.434374,-8956.491898,536.266849,-148.041188
1175.434685,-8660.409521,1072.533697,-0.000000
1175.434997,-9104.533087,229.828649,-592.164754
1175.435308,-9104.533087,459.657299,-296.082377
1175.435619,-8956.491898,306.438199,74.020594
1175.435931,-9178.553681,-383.047749,444.123565
1175.436242,-9474.636058,-536.266849,740.205942
1175.436554,-9918.759623,-919.314598,592.164754
1175.436865,-9696.697840,-383.047749,518.144159
1175.437176,-9326.594869,0.000000,592.164754
1175.437488,-9696.697840,-612.876398,962.267725
1175.437799,-9400.615463,-842.705048,1036.288319
1175.438111,-9548.656652,-689.485948,518.144159
1175.438422,-9400.615463,-306.438199,370.102971
1175.438733,-8438.347739,536.266849,592.164754
1175.439045,-8290.306550,0.000000,222.061783
1175.439356,-9252.574275,153.219100,-74.020594
1175.439668,-9178.553681,153.219100,-0.000000
1175.439979,-9770.718434,1149.143247,222.061783
1175.440290,-9548.656652,1991.848295,592.164754
1175.440602,-9252.574275,1378.971896,666.185348
1175.440913,-8808.450710,612.876398,740.205942
1175.441225,-8364.327145,689.485948,444.123565
1175.441536,-8142.265362,612.876398,666.185348
1175.441847,-7698.141797,536.266849,888.247130
1175.442159,-7994.224174,459.657299,1332.370696
1175.442470,-8734.430116,-612.876398,814.226536
1175.442782,-8142.265362,-1072.533697,740.205942
1175.443093,-7994.224174,-995.924147,370.102971
1175.443404,-7994.224174,-766.095498,814.226536
1175.443716,-7994.224174,-1225.752797,1110.308913
1175.444027,-8882.471304,-1149.143247,444.123565
1175.444339,-8808.450710,-1225.752797,1110.308913
1175.444650,-8808.450710,-1072.533697,1184.329507
1175.444961,-8734.430116,-995.924147,1406.391290
1175.445273,-8216.285956,-229.828649,1258.350101
1175.445584,-8364.327145,229.828649,814.226536
1175.445896,-8142.265362,383.047749,592.164754
1175.446207,-8586.388927,612.876398,-0.000000
1175.446518,-8364.327145,995.924147,444.123565
1175.446830,-8660.409521,689.485948,148.041188
1175.447141,-9178.553681,1149.143247,148.041188
1175.447453,-8956.491898,919.314598,-296.082377
1175.447764,-9400.615463,766.095498,-592.164754
1175.448075,-8956.491898,536.266849,-74.020594
1175.448387,-9178.553681,383.047749,-0.000000
1175.448698,-9474.636058,0.000000,-222.061783
1175.449010,-9770.718434,459.657299,-0.000000
1175.449321,-9918.759623,0.000000,666.185348
1175.449632,-9622.677246,-306.438199,592.164754
1175.449944,-9474.636058,-689.485948,666.185348
1175.450255,-9178.553681,-842.705048,740.205942
1175.450567,-9252.574275,-689.485948,370.102971
1175.450878,-9252.574275,-536.266849,222.061783
1175.451189,-8882.471304,-153.219100,-0.000000
1175.451501,-9030.512492,0.000000,-0.000000
1175.451812,-9326.594869,-229.828649,-0.000000
1175.452124,-9548.656652,76.609550,-0.000000
1175.452435,-9622.677246,229.828649,370.102971
1175.452746,-9252.574275,689.485948,888.247130
1175.453058,-9400.615463,536.266849,888.247130
1175.453369,-8882.471304,689.485948,740.205942
1175.453681,-8586.388927,536.266849,296.082377
1175.453992,-8290.306550,919.314598,444.123565
1175.454303,-7698.141797,383.047749,518.144159
1175.454615,-8216.285956,766.095498,444.123565
1175.454926,-8512.368333,153.219100,370.102971
1175.455238,-8142.265362,-766.095498,740.205942
1175.455549,-8216.285956,-1149.143247,592.164754
1175.455860,-8586.388927,-995.924147,888.247130
1175.456172,-8586.388927,-612.876398,444.123565
1175.456483,-8586.388927,-766.095498,1036.288319
1175.456795,-8512.368333,-766.095498,814.226536
1175.457106,-8512.368333,-842.705048,962.267725
1175.457417,-8068.244768,-766.095498,1036.288319
1175.457729,-8142.265362,-766.095498,1184.329507
1175.458040,-8438.347739,-459.657299,962.267725
1175.458352,-8734.430116,0.000000,814.226536
1175.458663,-8882.471304,306.438199,518.144159
1175.458974,-8586.388927,383.047749,518.144159
1175.459286,-8882.471304,536.266849,518.144159
1175.459597,-9030.512492,229.828649,222.061783
1175.459909,-8660.409521,229.828649,-0.000000
1175.460220,-8882.471304,153.219100,-0.000000
1175.460531,-8956.491898,76.609550,370.102971
1175.460843,-9474.636058,0.000000,-148.041188
1175.461154,-8956.491898,-612.876398,592.164754
1175.461466,-9178.553681,-612.876398,-0.000000
1175.461777,-9104.533087,-153.219100,296.082377
1175.462088,-9252.574275,0.000000,518.144159
1175.462400,-9622.677246,-383.047749,444.123565
1175.462711,-9770.718434,-995.924147,444.123565
1175.463023,-9474.636058,-766.095498,444.123565
1175.463334,-9918.759623,-766.095498,370.102971
1175.463645,-9474.636058,76.609550,592.164754
1175.463957,-9622.677246,-306.438199,-0.000000
1175.464268,-9622.677246,-153.219100,74.020594
1175.464580,-9178.553681,306.438199,-0.000000
1175.464891,-9474.636058,689.485948,-0.000000
1175.465202,-9474.636058,1532.190996,444.123565
1175.465514,-9474.636058,1685.410096,370.102971
1175.465825,-9326.594869,1149.143247,-0.000000
1175.466137,-8216.285956,1149.143247,-0.000000
1175.466448,-8290.306550,689.485948,296.082377
1175.466759,-8364.327145,229.828649,740.205942
1175.467071,-8290.306550,459.657299,962.267725
1175.467382,-8586.388927,153.219100,370.102971
1175.467694,-8512.368333,-383.047749,518.144159
1175.468005,-7994.224174,-612.876398,592.164754
1175.468316,-8290.306550,-2145.067394,740.205942
1175.468628,-7254.018232,-1149.143247,740.205942
1175.468939,-8512.368333,-995.924147,666.185348
1175.469251,-8364.327145,-995.924147,1110.308913
1175.469562,-8216.285956,-459.657299,814.226536
1175.469873,-8438.347739,-612.876398,1184.329507
1175.470185,-8142.265362,-459.657299,1036.288319
1175.470496,-8956.491898,76.609550,518.144159
1175.470808,-8364.327145,1149.143247,518.144159
1175.471119,-8734.430116,153.219100,518.144159
1175.471430,-8808.450710,842.705048,518.144159
1175.471742,-9104.533087,689.485948,444.123565
1175.472053,-9252.574275,919.314598,296.082377
1175.472365,-8734.430116,766.095498,-0.000000
1175.472676,-8512.368333,612.876398,-222.061783
1175.472987,-8068.244768,612.876398,-148.041188
1175.473299,-8734.430116,0.000000,-148.041188
1175.473610,-9104.533087,-229.828649,-0.000000
1175.473922,-9548.656652,0.000000,222.061783
1175.474233,-9844.739029,-306.438199,444.123565
1175.474544,-10066.800811,-689.485948,888.247130
1175.474856,-10066.800811,-919.314598,1258.350101
1175.475167,-9696.697840,-612.876398,1184.329507
1175.475479,-9474.636058,-1225.752797,1110.308913
1175.475790,-9770.718434,-1378.971896,740.205942
1175.476101,-9770.718434,-612.876398,592.164754
1175.476413,-9252.574275,-383.047749,296.082377
1175.476724,-8808.450710,0.000000,222.061783
1175.477036,-8882.471304,76.609550,-0.000000
1175.477347,-9104.533087,229.828649,-0.000000
1175.477658,-9326.594869,842.705048,-0.000000
1175.477970,-9474.636058,1149.143247,-0.000000
1175.478281,-9326.594869,1225.752797,740.205942
1175.478593,-8364.327145,1072.533697,666.185348
1175.478904,-7994.224174,306.438199,666.185348
1175.479215,-8290.306550,306.438199,592.164754
1175.479527,-8068.244768,383.047749,666.185348
1175.479838,-8438.347739,536.266849,444.123565
1175.480150,-8290.306550,-459.657299,666.185348
1175.480461,-7920.203579,-995.924147,666.185348
1175.480772,-7920.203579,-1532.190996,370.102971
1175.481084,-8364.327145,-1149.143247,666.185348
1175.481395,-8438.347739,-1149.143247,592.164754
1175.481707,-8438.347739,-612.876398,592.164754
1175.482018,-8808.450710,-612.876398,740.205942
1175.482330,-8660.409521,-1072.533697,888.247130
1175.482641,-9178.553681,-1072.533697,740.205942
1175.482952,-8660.409521,-306.438199,1110.308913
1175.483264,-8512.368333,0.000000,296.082377
1175.483575,-8882.471304,229.828649,518.144159
1175.483887,-8956.491898,459.657299,518.144159
1175.484198,-8808.450710,612.876398,296.082377
1175.484509,-8660.409521,306.438199,-0.000000
1175.484821,-8290.306550,1149.143247,-0.000000
1175.485132,-8734.430116,919.314598,-148.041188
1175.485444,-8512.368333,383.047749,-148.041188
1175.485755,-8956.491898,-306.438199,-222.061783
1175.486066,-9252.574275,-612.876398,-0.000000
1175.486378,-9252.574275,-766.095498,666.185348
1175.486689,-9770.718434,-689.485948,444.123565
1175.487001,-9918.759623,-383.047749,962.267725
1175.487312,-9992.780217,-766.095498,592.164754
1175.487623,-10066.800811,-919.314598,962.267725
1175.487935,-9844.739029,-995.924147,518.144159
1175.488246,-9622.677246,-536.266849,592.164754
1175.488558,-9474.636058,-229.828649,592.164754
1175.488869,-9252.574275,0.000000,370.102971
1175.489180,-8808.450710,0.000000,222.061783
1175.489492,-8734.430116,0.000000,-0.000000
1175.489803,-9326.594869,689.485948,-0.000000
1175.490115,-9474.636058,1455.581446,-0.000000
1175.490426,-9400.615463,1302.362347,592.164754
1175.490737,-9474.636058,1072.533697,518.144159
1175.491049,-9104.533087,612.876398,888.247130
1175.491360,-8660.409521,536.266849,1036.288319
1175.491672,-8882.471304,383.047749,1036.288319
1175.491983,-7920.203579,689.485948,1406.391290
1175.492294,-8142.265362,-229.828649,444.123565
1175.492606,-7624.121203,-689.485948,592.164754
1175.492917,-7698.141797,-919.314598,370.102971
1175.493229,-7846.182985,-1225.752797,370.102971
1175.493540,-7772.162391,-689.485948,740.205942
1175.493851,-8364.327145,-995.924147,592.164754
1175.494163,-8882.471304,-1302.362347,814.226536
1175.494474,-8734.430116,-995.924147,1184.329507
1175.494786,-8808.450710,-842.705048,1332.370696
1175.495097,-8512.368333,-842.705048,888.247130
1175.495408,-8808.450710,0.000000,888.247130
1175.495720,-8586.388927,306.438199,1036.288319
1175.496031,-8660.409521,766.095498,666.185348
1175.496343,-8512.368333,842.705048,444.123565
1175.496654,-8438.347739,1072.533697,296.082377
1175.496965,-8438.347739,1225.752797,-0.000000
1175.497277,-7846.182985,1072.533697,-74.020594
1175.497588,-7920.203579,842.705048,-0.000000
1175.497900,-9326.594869,153.219100,-444.123565
1175.498211,-9104.533087,0.000000,-148.041188
1175.498522,-9696.697840,0.000000,-0.000000
1175.498834,-9844.739029,153.219100,296.082377
1175.499145,-10288.862594,0.000000,444.123565
1175.499457,-10510.924376,-153.219100,296.082377
1175.499768,-9918.759623,-306.438199,444.123565
1175.500079,-8956.491898,-459.657299,962.267725
1175.500391,-9326.594869,-766.095498,962.267725
1175.500702,-9548.656652,-842.705048,444.123565
1175.501014,-9252.574275,-842.705048,148.041188
1175.501325,-8734.430116,-612.876398,-0.000000
1175.501636,-9252.574275,-459.657299,-148.041188
1175.501948,-9474.636058,76.609550,-222.061783
1175.502259,-9918.759623,612.876398,-222.061783
1175.502571,-10214.842000,0.000000,444.123565
1175.502882,-9844.739029,229.828649,592.164754
1175.503193,-9696.697840,459.657299,666.185348
1175.503505,-8734.430116,766.095498,1036.288319
1175.503816,-8512.368333,306.438199,592.164754
1175.504128,-8216.285956,383.047749,222.061783
1175.504439,-7105.977043,1149.143247,518.144159
1175.504750,-7920.203579,0.000000,-0.000000
1175.505062,-7846.182985,-459.657299,370.102971
1175.505373,-8438.347739,-842.705048,888.247130
1175.505685,-8290.306550,-919.314598,740.205942
1175.505996,-8364.327145,-919.314598,518.144159
1175.506307,-8512.368333,-842.705048,740.205942
1175.506619,-8512.368333,-842.705048,666.185348
1175.506930,-8956.491898,0.000000,592.164754
1175.507242,-8586.388927,0.000000,1332.370696
1175.507553,-8216.285956,-919.314598,1036.288319
1175.507864,-8734.430116,-306.438199,1332.370696
1175.508176,-8586.388927,0.000000,1110.308913
1175.508487,-8734.430116,153.219100,518.144159
1175.508799,-8586.388927,612.876398,370.102971
1175.509110,-8734.430116,766.095498,296.082377
1175.509421,-8586.388927,995.924147,666.185348
1175.509733,-8364.327145,766.095498,-0.000000
1175.510044,-8660.409521,383.047749,-0.000000
1175.510356,-8808.450710,76.609550,-0.000000
1175.510667,-8660.409521,0.000000,444.123565
1175.510978,-9178.553681,0.000000,-0.000000
1175.511290,-9622.677246,0.000000,370.102971
1175.511601,-9844.739029,306.438199,370.102971
1175.511913,-9696.697840,612.876398,-0.000000
1175.512224,-9252.574275,0.000000,666.185348
1175.512535,-9104.533087,-459.657299,518.144159
1175.512847,-9474.636058,-919.314598,740.205942
1175.513158,-9474.636058,-689.485948,740.205942
1175.513470,-9548.656652,-229.828649,222.061783
1175.513781,-9252.574275,383.047749,222.061783
1175.514092,-9326.594869,76.609550,148.041188
1175.514404,-9622.677246,76.609550,296.082377
1175.514715,-10140.821405,612.876398,-222.061783
1175.515027,-9992.780217,1072.533697,-0.000000
1175.515338,-9030.512492,1378.971896,296.082377
1175.515649,-8882.471304,1302.362347,444.123565
1175.515961,-8956.491898,766.095498,592.164754
1175.516272,-8586.388927,766.095498,888.247130
1175.516584,-8660.409521,-153.219100,296.082377
1175.516895,-7920.203579,536.266849,666.185348
1175.517206,-8216.285956,612.876398,592.164754
1175.517518,-8512.368333,-383.047749,814.226536
1175.517829,-8068.244768,-1072.533697,888.247130
1175.518141,-7994.224174,-1225.752797,444.123565
1175.518452,-7698.141797,-995.924147,814.226536
1175.518763,-7994.224174,-536.266849,518.144159
1175.519075,-8660.409521,-919.314598,666.185348
1175.519386,-8068.244768,-689.485948,962.267725
1175.519698,-8734.430116,-536.266849,444.123565
