#time,accel_x,accel_y,accel_z
1366.439322,-9030.512492,0.000000,592.164754
1366.439634,-9030.512492,459.657299,370.102971
1366.439945,-8956.491898,76.609550,444.123565
1366.440257,-8586.388927,0.000000,518.144159
1366.440569,-8586.388927,0.000000,518.144159
1366.440880,-9030.512492,0.000000,296.082377
1366.441192,-8808.450710,0.000000,592.164754
1366.441504,-8882.471304,0.000000,592.164754
1366.441815,-8956.491898,0.000000,592.164754
1366.442127,-9030.512492,-153.219100,-0.000000
1366.442439,-9178.553681,-229.828649,518.144159
1366.442750,-8956.491898,-459.657299,740.205942
1366.443062,-8956.491898,0.000000,-0.000000
1366.443373,-9030.512492,-153.219100,370.102971
1366.443685,-8808.450710,-306.438199,592.164754
1366.443997,-8956.491898,0.000000,592.164754
1366.444308,-9178.553681,229.828649,370.102971
1366.444620,-8882.471304,153.219100,962.267725
1366.444932,-8660.409521,0.000000,740.205942
1366.445243,-8882.471304,-306.438199,814.226536
1366.445555,-8808.450710,-383.047749,296.082377
1366.445867,-8808.450710,-76.609550,518.144159
1366.446178,-9030.512492,0.000000,296.082377
1366.446490,-8660.409521,-153.219100,666.185348
1366.446802,-9030.512492,0.000000,444.123565
1366.447113,-8956.491898,612.876398,518.144159
1366.447425,-8808.450710,153.219100,370.102971
1366.447737,-9030.512492,0.000000,222.061783
1366.448048,-8956.491898,0.000000,444.123565
1366.448360,-8956.491898,0.000000,370.102971
1366.448672,-9104.533087,0.000000,444.123565
1366.448983,-9030.512492,0.000000,444.123565
1366.449295,-9104.533087,306.438199,148.041188
1366.449606,-9030.512492,-383.047749,370.102971
1366.449918,-8586.388927,0.000000,666.185348
1366.450230,-8660.409521,0.000000,222.061783
1366.450541,-8882.471304,0.000000,444.123565
1366.450853,-8734.430116,-153.219100,740.205942
1366.451165,-8808.450710,0.000000,666.185348
1366.451476,-8660.409521,0.000000,740.205942
1366.451788,-8956.491898,0.000000,-0.000000
1366.452100,-8808.450710,0.000000,814.226536
1366.452411,-9030.512492,-76.609550,370.102971
1366.452723,-8660.409521,-306.438199,444.123565
1366.453035,-8956.491898,0.000000,444.123565
1366.453346,-9104.533087,0.000000,518.144159
1366.453658,-9030.512492,0.000000,518.144159
1366.453970,-8956.491898,76.609550,518.144159
1366.454281,-8956.491898,-383.047749,592.164754
1366.454593,-8586.388927,0.000000,592.164754
1366.454904,-8808.450710,0.000000,444.123565
1366.455216,-8808.450710,-229.828649,740.205942
1366.455528,-8882.471304,0.000000,592.164754
1366.455839,-8956.491898,0.000000,444.123565
1366.456151,-8882.471304,0.000000,518.144159
1366.456463,-8586.388927,-306.438199,518.144159
1366.456774,-9474.636058,153.219100,666.185348
1366.457086,-8660.409521,153.219100,592.164754
1366.457398,-8882.471304,0.000000,592.164754
1366.457709,-9030.512492,-229.828649,444.123565
1366.458021,-9030.512492,0.000000,518.144159
1366.458333,-8882.471304,0.000000,296.082377
1366.458644,-9178.553681,0.000000,444.123565
1366.458956,-8882.471304,0.000000,370.102971
1366.459268,-8808.450710,383.047749,592.164754
1366.459579,-8956.491898,-153.219100,740.205942
1366.459891,-8882.471304,0.000000,518.144159
1366.460202,-8956.491898,-153.219100,518.144159
1366.460514,-8734.430116,0.000000,666.185348
1366.460826,-8882.471304,-153.219100,666.185348
1366.461137,-8956.491898,0.000000,592.164754
1366.461449,-9104.533087,229.828649,148.041188
1366.461761,-8882.471304,-383.047749,518.144159
1366.462072,-8660.409521,-383.047749,444.123565
1366.462384,-8734.430116,153.219100,222.061783
1366.462696,-9030.512492,0.000000,444.123565
1366.463007,-9178.553681,0.000000,592.164754
1366.463319,-8956.491898,76.609550,518.144159
1366.463631,-8956.491898,0.000000,740.205942
1366.463942,-8660.409521,153.219100,518.144159
1366.464254,-8808.450710,306.438199,592.164754
1366.464566,-8808.450710,-153.219100,592.164754
1366.464877,-8808.450710,-306.438199,370.102971
1366.465189,-8956.491898,0.000000,370.102971
1366.465500,-8956.491898,0.000000,518.144159
1366.465812,-8956.491898,-153.219100,592.164754
1366.466124,-8734.430116,76.609550,740.205942
1366.466435,-9104.533087,-536.266849,592.164754
1366.466747,-8808.450710,76.609550,962.267725
1366.467059,-8882.471304,0.000000,518.144159
1366.467370,-9178.553681,-153.219100,370.102971
1366.467682,-8956.491898,-229.828649,370.102971
1366.467994,-8956.491898,0.000000,444.123565
1366.468305,-8956.491898,0.000000,666.185348
1366.468617,-9030.512492,0.000000,444.123565
1366.468929,-8882.471304,-383.047749,222.061783
1366.469240,-8586.388927,-229.828649,444.123565
1366.469552,-8882.471304,-229.828649,74.020594
1366.469864,-8956.491898,0.000000,518.144159
1366.470175,-9104.533087,0.000000,666.185348
1366.470487,-11103.089130,383.047749,148.041188
1366.470799,-11399.171507,2451.505594,592.164754
1366.471110,-8290.306550,4903.011187,740.205942
1366.471422,-7846.182985,4136.915689,592.164754
1366.471733,-6291.750507,1149.143247,1628.453072
1366.472045,-6661.853478,-1378.971896,296.082377
1366.472357,-7550.100608,-1532.190996,-74.020594
1366.472668,-7402.059420,-536.266849,-148.041188
1366.472980,-11399.171507,-766.095498,-1110.308913
1366.473292,-13249.686362,-383.047749,-592.164754
1366.473603,-10288.862594,842.705048,296.082377
1366.473915,-9104.533087,0.000000,962.267725
1366.474227,-9030.512492,0.000000,2738.761985
1366.474538,-11769.274478,306.438199,1258.350101
1366.474850,-8660.409521,3983.696590,2738.761985
1366.475162,-5255.462188,4979.620737,2368.659014
1366.475473,-7179.997637,3064.381992,1110.308913
1366.475785,-7698.141797,2528.115143,-222.061783
1366.476097,-7476.080014,3140.991542,-2146.597232
1366.476408,-8512.368333,3983.696590,-740.205942
1366.476720,-8956.491898,3830.477490,-592.164754
1366.477031,-11843.295072,2528.115143,-1332.370696
1366.477343,-14285.974681,-612.876398,592.164754
1366.477655,-8808.450710,-1225.752797,2812.782580
1366.477966,-10436.903782,536.266849,962.267725
1366.478278,-8438.347739,5669.106685,3034.844362
1366.478590,-8068.244768,6511.811733,1702.473667
1366.478901,-7254.018232,3753.867940,2220.617826
1366.479213,-5255.462188,4443.353888,2146.597232
1366.479525,-6883.915261,7124.688131,-0.000000
1366.479836,-7994.224174,7201.297681,-1184.329507
1366.480148,-9696.697840,5515.887586,-1184.329507
1366.480460,-9474.636058,4903.011187,-1332.370696
1366.480771,-10066.800811,5975.544884,-1480.411884
1366.481083,-11547.212695,4749.792088,-74.020594
1366.481395,-11843.295072,4519.963438,1554.432478
1366.481706,-11547.212695,3524.039291,2368.659014
1366.482018,-9030.512492,4826.401637,2738.761985
1366.482329,-6365.771101,5209.449386,2072.576638
1366.482641,-5699.585753,5515.887586,-0.000000
1366.482953,-5329.482782,4749.792088,666.185348
1366.483264,-4737.318029,4749.792088,-370.102971
1366.483576,-5847.626942,4443.353888,-1480.411884
1366.483888,-7624.121203,4979.620737,-666.185348
1366.484199,-9918.759623,3140.991542,-518.144159
1366.484511,-11029.068536,1378.971896,740.205942
1366.484823,-10881.027347,689.485948,962.267725
1366.485134,-11251.130318,0.000000,1480.411884
1366.485446,-11177.109724,459.657299,1850.514855
1366.485758,-9770.718434,3370.820191,2368.659014
1366.486069,-8438.347739,4060.306139,1258.350101
1366.486381,-5847.626942,3907.087040,740.205942
1366.486693,-6143.709319,3294.210641,-370.102971
1366.487004,-6883.915261,3600.648841,-814.226536
1366.487316,-6217.729913,3753.867940,-1110.308913
1366.487627,-7105.977043,1838.629195,-1258.350101
1366.487939,-9474.636058,-689.485948,-962.267725
1366.488251,-11325.150913,-2221.676944,-74.020594
1366.488562,-12213.398043,-2451.505594,814.226536
1366.488874,-13545.768739,-1685.410096,1184.329507
1366.489186,-14211.954086,-1149.143247,1258.350101
1366.489497,-13101.645173,459.657299,1406.391290
1366.489809,-11695.253884,2221.676944,592.164754
1366.490121,-8660.409521,3907.087040,-0.000000
1366.490432,-6217.729913,4903.011187,-148.041188
1366.490744,-5921.647536,4903.011187,444.123565
1366.491056,-5995.668130,4903.011187,-0.000000
1366.491367,-6883.915261,3447.429741,-444.123565
1366.491679,-9474.636058,2451.505594,-592.164754
1366.491991,-11399.171507,1302.362347,-296.082377
1366.492302,-13101.645173,306.438199,-296.082377
1366.492614,-14285.974681,-229.828649,-0.000000
1366.492926,-13915.871710,766.095498,444.123565
1366.493237,-12435.459826,2528.115143,1036.288319
1366.493549,-9696.697840,3983.696590,1184.329507
1366.493860,-7402.059420,5056.230287,1554.432478
1366.494172,-5033.400406,5362.668486,1702.473667
1366.494484,-1924.535449,6128.763984,370.102971
1366.494795,-740.205942,6894.859482,-740.205942
1366.495107,-2220.617826,4903.011187,-1258.350101
1366.495419,-6365.771101,2757.943793,-1850.514855
1366.495730,-10658.965565,2528.115143,-814.226536
1366.496042,-13841.851115,2987.772442,-222.061783
1366.496354,-16136.489536,3217.601092,2146.597232
1366.496665,-15396.283594,2834.553343,3108.864956
1366.496977,-12731.542202,2911.162892,3701.029710
1366.497289,-7772.162391,2451.505594,3404.947333
1366.497600,-3849.070898,3217.601092,2072.576638
1366.497912,-1554.432478,6128.763984,518.144159
1366.498224,-2220.617826,7354.516781,-2072.576638
1366.498535,-3775.050304,7354.516781,-2368.659014
1366.498847,-6587.832884,5669.106685,-2442.679609
1366.499158,-8586.388927,4519.963438,-888.247130
1366.499470,-9622.677246,1302.362347,148.041188
1366.499782,-11621.233289,-2298.286494,1184.329507
1366.500093,-11991.336260,-3830.477490,2072.576638
1366.500405,-12583.501014,-2987.772442,1924.535449
1366.500717,-13471.748144,-1225.752797,1184.329507
1366.501028,-12509.480420,2681.334243,1924.535449
1366.501340,-10881.027347,4366.744339,1924.535449
1366.501652,-8882.471304,5132.839837,1480.411884
1366.501963,-6587.832884,5439.278036,1850.514855
1366.502275,-6143.709319,4673.182538,-0.000000
1366.502587,-5551.544565,2757.943793,-0.000000
1366.502898,-6217.729913,2451.505594,-1850.514855
1366.503210,-8734.430116,3677.258390,-2812.782580
1366.503522,-10732.986159,3370.820191,-2886.803174
1366.503833,-12065.356855,3447.429741,-1258.350101
1366.504145,-12805.562797,2068.457845,148.041188
1366.504456,-13101.645173,766.095498,2146.597232
1366.504768,-12953.603985,1072.533697,2442.679609
1366.505080,-12065.356855,2374.896044,2294.638420
1366.505391,-10214.842000,5745.716235,1480.411884
1366.505703,-7254.018232,6511.811733,962.267725
1366.506015,-5181.441594,5209.449386,-1036.288319
1366.506326,-5181.441594,2604.724693,-1406.391290
1366.506638,-6513.812290,1378.971896,-1406.391290
1366.506950,-7105.977043,995.924147,-1258.350101
1366.507261,-8068.244768,1149.143247,-148.041188
1366.507573,-8882.471304,-153.219100,962.267725
1366.507885,-8956.491898,-3294.210641,2146.597232
1366.508196,-7476.080014,-4596.572988,2294.638420
1366.508508,-7772.162391,-2681.334243,2072.576638
1366.508820,-9030.512492,1225.752797,962.267725
1366.509131,-9918.759623,5745.716235,-148.041188
1366.509443,-10510.924376,8733.488677,-666.185348
1366.509754,-9770.718434,6894.859482,-0.000000
1366.510066,-8216.285956,3677.258390,1184.329507
1366.510378,-7550.100608,306.438199,1776.494261
1366.510689,-6587.832884,306.438199,1332.370696
1366.511001,-6957.935855,-153.219100,1184.329507
1366.511313,-7624.121203,-689.485948,1184.329507
1366.511624,-5921.647536,-1532.190996,888.247130
1366.511936,-5403.503377,-2451.505594,148.041188
1366.512248,-6365.771101,-2528.115143,-0.000000
1366.512559,-9474.636058,-689.485948,-1554.432478
1366.512871,-11621.233289,1225.752797,-1258.350101
1366.513183,-12879.583391,3294.210641,-370.102971
1366.513494,-15396.283594,2451.505594,1480.411884
1366.513806,-14952.160028,229.828649,2294.638420
1366.514118,-12953.603985,-1225.752797,2664.741391
1366.514429,-9844.739029,-1915.238745,2368.659014
1366.514740,-7105.977043,-1608.800546,2368.659014
1366.515052,-4515.256246,-2604.724693,814.226536
1366.515363,-3256.906145,-5132.839837,1184.329507
1366.515674,-4367.215058,-6741.640382,962.267725
1366.515986,-5773.606348,-6358.592633,-592.164754
1366.516297,-8216.285956,-842.705048,-2072.576638
1366.516608,-11843.295072,2987.772442,-2590.720797
1366.516920,-14656.077652,3907.087040,-1628.453072
1366.517231,-16136.489536,2604.724693,518.144159
1366.517543,-14952.160028,1072.533697,2516.700203
1366.517854,-13915.871710,-1685.410096,3552.988522
1366.518165,-11029.068536,-1838.629195,2960.823768
1366.518477,-7179.997637,-153.219100,1480.411884
1366.518788,-2516.700203,153.219100,592.164754
1366.519099,0.000000,-1532.190996,-0.000000
1366.519411,-666.185348,-3600.648841,296.082377
1366.519722,-3108.864956,-1838.629195,-2590.720797
1366.520033,-7105.977043,2451.505594,-2738.761985
1366.520345,-10732.986159,4979.620737,-3330.926739
1366.520656,-14952.160028,5669.106685,-2368.659014
1366.520968,-16654.633695,4060.306139,-222.061783
1366.521279,-17024.736666,689.485948,962.267725
1366.521590,-14952.160028,-229.828649,3478.967927
1366.521902,-11769.274478,536.266849,3256.906145
1366.522213,-6587.832884,383.047749,2738.761985
1366.522524,-740.205942,-1915.238745,3923.091493
1366.522836,740.205942,-6128.763984,2516.700203
1366.523147,962.267725,-7584.345430,-666.185348
1366.523458,-1924.535449,-2834.553343,-3997.112087
1366.523770,-7031.956449,3677.258390,-5033.400406
1366.524081,-12139.377449,7737.564530,-4663.297435
1366.524393,-16136.489536,7431.126331,-1998.556043
1366.524704,-19023.292709,3524.039291,962.267725
1366.525015,-19245.354492,459.657299,4441.235652
1366.525327,-16136.489536,-306.438199,5773.606348
1366.525638,-12361.439231,1302.362347,3849.070898
1366.525949,-5329.482782,766.095498,2664.741391
1366.526261,2220.617826,-459.657299,1554.432478
1366.526572,2220.617826,-3524.039291,740.205942
1366.526883,1924.535449,-6358.592633,-1036.288319
1366.527195,-1332.370696,306.438199,-3775.050304
1366.527506,-7328.038826,4213.525239,-3182.885551
1366.527818,-13841.851115,6358.592633,-1924.535449
1366.528129,-19245.354492,4443.353888,-74.020594
1366.528440,-20207.622217,995.924147,1332.370696
1366.528752,-18875.251521,153.219100,3627.009116
1366.529063,-14359.995275,459.657299,3997.112087
1366.529374,-11399.171507,1762.019645,2516.700203
1366.529686,-6291.750507,-536.266849,2294.638420
1366.529997,1036.288319,-3830.477490,2738.761985
1366.530308,888.247130,-7660.954980,2220.617826
1366.530620,1628.453072,-8120.612279,370.102971
1366.530931,0.000000,-2298.286494,-3034.844362
1366.531243,-5847.626942,1455.581446,-3108.864956
1366.531554,-11695.253884,2834.553343,-2738.761985
1366.531865,-18061.024985,1838.629195,814.226536
1366.532177,-21169.889941,-842.705048,2886.803174
1366.532488,-21391.951724,-1532.190996,5551.544565
1366.532799,-16802.674883,-612.876398,5329.482782
1366.533111,-10955.047942,229.828649,2886.803174
1366.533422,-4219.173869,-1838.629195,2294.638420
1366.533733,2442.679609,-5362.668486,1480.411884
1366.534045,2294.638420,-7814.174080,592.164754
1366.534356,2294.638420,-4519.963438,-1554.432478
1366.534668,-2146.597232,2145.067394,-3775.050304
1366.534979,-8660.409521,4903.011187,-3997.112087
1366.535290,-12879.583391,4979.620737,-3330.926739
1366.535602,-16432.571912,3064.381992,-814.226536
1366.535913,-18135.045579,76.609550,1184.329507
1366.536224,-17690.922014,536.266849,3330.926739
1366.536536,-15174.221811,1302.362347,3108.864956
1366.536847,-11547.212695,229.828649,2368.659014
1366.537158,-5995.668130,-4136.915689,2294.638420
1366.537470,444.123565,-5132.839837,1776.494261
1366.537781,0.000000,-6358.592633,-0.000000
1366.538093,-370.102971,-4673.182538,-2664.741391
1366.538404,-2220.617826,1532.190996,-4811.338623
1366.538715,-8216.285956,4596.572988,-5329.482782
1366.539027,-12953.603985,4673.182538,-2738.761985
1366.539338,-19763.498651,1915.238745,222.061783
1366.539649,-21762.054695,612.876398,2294.638420
1366.539961,-19393.395680,2451.505594,4811.338623
1366.540272,-13841.851115,2987.772442,3108.864956
1366.540583,-8290.306550,766.095498,2368.659014
1366.540895,-814.226536,-3370.820191,444.123565
1366.541206,2812.782580,-5515.887586,-740.205942
1366.541518,-148.041188,-4903.011187,-370.102971
1366.541829,-1776.494261,-766.095498,-4145.153275
1366.542140,-7105.977043,4979.620737,-4367.215058
1366.542452,-12213.398043,4979.620737,-2738.761985
1366.542763,-15322.262999,4596.572988,-1036.288319
1366.543074,-17394.839637,3217.601092,1776.494261
1366.543386,-17468.860231,1915.238745,2294.638420
1366.543697,-14878.139434,3064.381992,4293.194464
1366.544008,-9770.718434,2681.334243,2590.720797
1366.544320,-4737.318029,919.314598,3627.009116
1366.544631,-2516.700203,-4366.744339,3182.885551
1366.544943,370.102971,-7967.393179,2368.659014
1366.545254,888.247130,-5132.839837,-666.185348
1366.545565,-3108.864956,-229.828649,-2664.741391
1366.545877,-8438.347739,3140.991542,-2886.803174
1366.546188,-12953.603985,3677.258390,-1998.556043
1366.546499,-15766.386565,2834.553343,-0.000000
1366.546811,-17542.880825,689.485948,2368.659014
1366.547122,-17024.736666,153.219100,4145.153275
1366.547433,-13693.809927,2757.943793,2590.720797
1366.547745,-8956.491898,3140.991542,2072.576638
1366.548056,-3997.112087,-2757.943793,3330.926739
1366.548368,1628.453072,-7354.516781,3256.906145
1366.548679,1036.288319,-7048.078582,1628.453072
1366.548990,-1924.535449,-5515.887586,-740.205942
1366.549302,-6809.894666,-459.657299,-1628.453072
1366.549613,-10510.924376,3217.601092,-2072.576638
1366.549924,-13767.830521,4213.525239,-1036.288319
1366.550236,-16062.468941,1225.752797,370.102971
1366.550547,-17542.880825,0.000000,1702.473667
1366.550858,-15544.324782,3064.381992,3182.885551
1366.551170,-11103.089130,3370.820191,2072.576638
1366.551481,-7624.121203,1149.143247,2812.782580
1366.551793,-4145.153275,-3983.696590,3849.070898
1366.552104,0.000000,-7584.345430,2368.659014
1366.552415,296.082377,-7354.516781,148.041188
1366.552727,-1702.473667,-3294.210641,-1702.473667
1366.553038,-6365.771101,1608.800546,-3034.844362
1366.553349,-10955.047942,3064.381992,-3330.926739
1366.553661,-14730.098246,2451.505594,-1258.350101
1366.553972,-18061.024985,1762.019645,814.226536
1366.554283,-18357.107362,1532.190996,2294.638420
1366.554595,-15470.304188,1838.629195,2812.782580
1366.554906,-10436.903782,1915.238745,1406.391290
1366.555217,-4959.379811,76.609550,1628.453072
1366.555529,-1036.288319,-3677.258390,1554.432478
1366.555840,-148.041188,-7737.564530,518.144159
1366.556152,-1184.329507,-6818.249932,-814.226536
1366.556463,-4219.173869,-995.924147,-2294.638420
1366.556774,-9252.574275,1991.848295,-3552.988522
1366.557086,-13397.727550,3370.820191,-2368.659014
1366.557397,-16802.674883,2528.115143,-444.123565
1366.557708,-17616.901420,1149.143247,592.164754
1366.558020,-16728.654289,2068.457845,1998.556043
1366.558331,-14137.933492,4136.915689,962.267725
1366.558642,-9474.636058,5592.497135,666.185348
1366.558954,-2368.659014,306.438199,1036.288319
1366.559265,814.226536,-4443.353888,592.164754
1366.559577,-1406.391290,-7584.345430,1036.288319
1366.559888,-1998.556043,-5362.668486,-1628.453072
1366.560199,-5625.565159,1915.238745,-3552.988522
1366.560511,-10658.965565,3677.258390,-3330.926739
1366.560822,-14730.098246,2987.772442,-1924.535449
1366.561133,-18135.045579,689.485948,666.185348
1366.561445,-16876.695478,306.438199,1776.494261
1366.561756,-15766.386565,2068.457845,2886.803174
1366.562067,-12287.418637,3370.820191,1480.411884
1366.562379,-7624.121203,2374.896044,1184.329507
1366.562690,-2886.803174,-1149.143247,2146.597232
1366.563002,-518.144159,-5286.058936,1850.514855
1366.563313,-1480.411884,-6052.154434,1406.391290
1366.563624,-2516.700203,-1455.581446,-1036.288319
1366.563936,-7920.203579,1608.800546,-1924.535449
1366.564247,-11325.150913,3370.820191,-1480.411884
1366.564558,-14211.954086,3677.258390,-444.123565
1366.564870,-15914.427753,2451.505594,814.226536
1366.565181,-15988.448347,2374.896044,2516.700203
1366.565492,-14063.912898,3830.477490,2960.823768
1366.565804,-10140.821405,4673.182538,1850.514855
1366.566115,-5551.544565,1225.752797,3256.906145
1366.566427,-1110.308913,-3753.867940,2812.782580
1366.566738,1776.494261,-6128.763984,2590.720797
1366.567049,592.164754,-5439.278036,-592.164754
1366.567361,-3997.112087,-2451.505594,-1998.556043
1366.567672,-8512.368333,1685.410096,-1554.432478
1366.567983,-12065.356855,2834.553343,-1184.329507
1366.568295,-15914.427753,842.705048,1480.411884
1366.568606,-18801.230927,-1915.238745,2886.803174
1366.568917,-18283.086767,-536.266849,3997.112087
1366.569229,-14211.954086,2451.505594,3330.926739
1366.569540,-9400.615463,2987.772442,2072.576638
1366.569852,-3849.070898,229.828649,1554.432478
1366.570163,-1776.494261,-3064.381992,444.123565
1366.570474,666.185348,-5209.449386,-0.000000
1366.570786,-592.164754,-3217.601092,-740.205942
1366.571097,-5847.626942,766.095498,-888.247130
1366.571408,-9844.739029,3140.991542,-1702.473667
1366.571720,-13101.645173,2834.553343,-1184.329507
1366.572031,-16062.468941,1302.362347,370.102971
1366.572342,-17542.880825,612.876398,2072.576638
1366.572654,-16210.510130,1455.581446,1628.453072
1366.572965,-12731.542202,2451.505594,1332.370696
1366.573277,-9474.636058,1149.143247,1258.350101
1366.573588,-2886.803174,-2681.334243,740.205942
1366.573899,-1776.494261,-5822.325785,518.144159
1366.574211,-740.205942,-7890.783629,592.164754
1366.574522,-296.082377,-4979.620737,-2664.741391
1366.574833,-5033.400406,229.828649,-2072.576638
1366.575145,-10066.800811,1608.800546,-2368.659014
1366.575456,-14730.098246,919.314598,-740.205942
1366.575767,-17987.004391,0.000000,2146.597232
1366.576079,-18505.148550,0.000000,2516.700203
1366.576390,-16728.654289,2528.115143,2812.782580
1366.576702,-12657.521608,4673.182538,444.123565
1366.577013,-7846.182985,3217.601092,444.123565
1366.577324,-444.123565,-766.095498,-74.020594
1366.577636,962.267725,-3677.258390,-444.123565
1366.577947,-1480.411884,-3447.429741,-0.000000
1366.578258,-3478.967927,-306.438199,-3256.906145
1366.578570,-8068.244768,4903.011187,-2590.720797
1366.578881,-11695.253884,5132.839837,-2590.720797
1366.579192,-14952.160028,3600.648841,-814.226536
1366.579504,-17616.901420,459.657299,1480.411884
1366.579815,-17246.798449,1378.971896,2442.679609
1366.580127,-15026.180623,2834.553343,3330.926739
1366.580438,-10214.842000,2757.943793,2368.659014
1366.580749,-5329.482782,536.266849,2368.659014
1366.581061,-2738.761985,-3907.087040,1702.473667
1366.581372,444.123565,-6205.373534,962.267725
1366.581683,1036.288319,-2911.162892,-2664.741391
1366.581995,-3256.906145,1685.410096,-3034.844362
1366.582306,-8660.409521,3140.991542,-2368.659014
1366.582617,-12879.583391,2681.334243,-296.082377
1366.582929,-15396.283594,919.314598,2146.597232
1366.583240,-17912.983796,-766.095498,3627.009116
1366.583552,-17690.922014,-153.219100,4737.318029
1366.583863,-12805.562797,3753.867940,2516.700203
1366.584174,-8290.306550,3983.696590,2072.576638
1366.584486,-2738.761985,-1149.143247,2886.803174
1366.584797,1554.432478,-4443.353888,1332.370696
1366.585108,2368.659014,-3447.429741,-296.082377
1366.585420,-1036.288319,-1915.238745,-3108.864956
1366.585731,-5921.647536,1685.410096,-2812.782580
1366.586042,-10510.924376,4519.963438,-2516.700203
1366.586354,-13767.830521,3677.258390,-148.041188
1366.586665,-16876.695478,-612.876398,2146.597232
1366.586977,-18653.189738,-1302.362347,4071.132681
1366.587288,-16580.613101,919.314598,3701.029710
1366.587599,-11399.171507,1915.238745,3330.926739
1366.587911,-7328.038826,-383.047749,2960.823768
1366.588222,-3034.844362,-3600.648841,2664.741391
1366.588533,1258.350101,-4979.620737,-0.000000
1366.588845,222.061783,-5669.106685,-1406.391290
1366.589156,-3478.967927,-2068.457845,-1406.391290
1366.589467,-7920.203579,2451.505594,-2072.576638
1366.589779,-11843.295072,2068.457845,-1554.432478
1366.590090,-15470.304188,-919.314598,814.226536
1366.590402,-18209.066173,-1685.410096,2590.720797
1366.590713,-17912.983796,0.000000,3478.967927
1366.591024,-14952.160028,1838.629195,2368.659014
1366.591336,-10214.842000,1532.190996,1628.453072
1366.591647,-5107.421000,0.000000,2442.679609
1366.591958,-2516.700203,-4366.744339,2146.597232
1366.592270,0.000000,-6894.859482,-0.000000
1366.592581,-666.185348,-3600.648841,-1480.411884
1366.592892,-3478.967927,1455.581446,-3256.906145
1366.593204,-7624.121203,3600.648841,-4293.194464
1366.593515,-11843.295072,2834.553343,-3108.864956
1366.593827,-15174.221811,1455.581446,-518.144159
1366.594138,-17246.798449,612.876398,1924.535449
1366.594449,-17616.901420,689.485948,3330.926739
1366.594761,-15618.345376,2145.067394,3034.844362
1366.595072,-10140.821405,2451.505594,2738.761985
1366.595383,-3034.844362,-459.657299,1850.514855
1366.595695,-518.144159,-3907.087040,296.082377
1366.596006,148.041188,-5439.278036,-1184.329507
1366.596317,-888.247130,-689.485948,-3478.967927
1366.596629,-4811.338623,3064.381992,-3627.009116
1366.596940,-9622.677246,4290.134789,-3701.029710
1366.597252,-15618.345376,2911.162892,-962.267725
1366.597563,-17764.942608,612.876398,962.267725
1366.597874,-18505.148550,229.828649,2886.803174
1366.598186,-16506.592507,1455.581446,3775.050304
1366.598497,-12213.398043,3600.648841,2442.679609
1366.598808,-6217.729913,2451.505594,2072.576638
1366.599120,-1924.535449,-1991.848295,1702.473667
1366.599431,592.164754,-4979.620737,1184.329507
1366.599742,1184.329507,-2987.772442,-1924.535449
1366.600054,-3330.926739,612.876398,-3256.906145
1366.600365,-7624.121203,2604.724693,-3330.926739
1366.600677,-10807.006753,2987.772442,-2516.700203
1366.600988,-14137.933492,1149.143247,370.102971
1366.601299,-16654.633695,-1915.238745,2072.576638
1366.601611,-17468.860231,-2451.505594,4293.194464
1366.601922,-15248.242405,1378.971896,3404.947333
1366.602233,-11547.212695,2528.115143,3256.906145
1366.602545,-5107.421000,-1149.143247,3330.926739
1366.602856,-814.226536,-3983.696590,2812.782580
1366.603167,1332.370696,-5592.497135,592.164754
1366.603479,592.164754,-3907.087040,-1406.391290
1366.603790,-4293.194464,612.876398,-1480.411884
1366.604102,-9104.533087,3830.477490,-2072.576638
1366.604413,-13249.686362,3294.210641,-370.102971
1366.604724,-16506.592507,612.876398,962.267725
1366.605036,-18061.024985,-1149.143247,3034.844362
1366.605347,-15914.427753,229.828649,3330.926739
1366.605658,-12361.439231,1378.971896,2590.720797
1366.605970,-9104.533087,229.828649,2738.761985
1366.606281,-4737.318029,-2528.115143,2960.823768
1366.606592,-962.267725,-5822.325785,1924.535449
1366.606904,-296.082377,-6435.202183,962.267725
1366.607215,-3404.947333,-3524.039291,-962.267725
1366.607527,-6587.832884,842.705048,-1850.514855
1366.607838,-9326.594869,3294.210641,-2738.761985
1366.608149,-12583.501014,1915.238745,-1332.370696
1366.608461,-15470.304188,-306.438199,888.247130
1366.608772,-17024.736666,-1149.143247,2294.638420
1366.609083,-15988.448347,0.000000,3034.844362
1366.609395,-11843.295072,1302.362347,2812.782580
1366.609706,-7994.224174,-76.609550,2368.659014
1366.610017,-3997.112087,-3447.429741,2590.720797
1366.610329,-222.061783,-5592.497135,962.267725
1366.610640,592.164754,-3983.696590,-1184.329507
1366.610951,-2368.659014,536.266849,-2812.782580
1366.611263,-7031.956449,3983.696590,-4145.153275
1366.611574,-11029.068536,3983.696590,-3256.906145
1366.611886,-15026.180623,2451.505594,-1776.494261
1366.612197,-17098.757260,1302.362347,888.247130
1366.612508,-17394.839637,1532.190996,1850.514855
1366.612820,-15766.386565,3064.381992,1998.556043
1366.613131,-11473.192101,3294.210641,1776.494261
1366.613442,-4589.276840,383.047749,740.205942
1366.613754,-1110.308913,-2068.457845,1184.329507
1366.614065,-888.247130,-5209.449386,-0.000000
1366.614377,-296.082377,-3217.601092,-2516.700203
1366.614688,-3627.009116,2681.334243,-3849.070898
1366.615000,-8882.471304,4596.572988,-4071.132681
1366.615311,-13101.645173,3907.087040,-2368.659014
1366.615622,-17172.777854,1149.143247,518.144159
1366.615934,-18801.230927,-995.924147,2294.638420
1366.616245,-17912.983796,-153.219100,4071.132681
1366.616557,-14063.912898,612.876398,3478.967927
1366.616868,-8512.368333,995.924147,2812.782580
1366.617180,-2960.823768,-2298.286494,1924.535449
1366.617491,-666.185348,-5669.106685,296.082377
1366.617803,-444.123565,-6358.592633,518.144159
1366.618114,-1258.350101,-1149.143247,-2220.617826
1366.618425,-6587.832884,2681.334243,-1924.535449
1366.618737,-10955.047942,2451.505594,-1406.391290
1366.619048,-13989.892304,1378.971896,296.082377
1366.619360,-15396.283594,0.000000,2368.659014
1366.619671,-16728.654289,-766.095498,2960.823768
1366.619983,-15100.201217,1302.362347,3404.947333
1366.620294,-11325.150913,3064.381992,1406.391290
1366.620606,-7179.997637,1225.752797,1998.556043
1366.620917,-2738.761985,-2911.162892,1998.556043
1366.621228,74.020594,-5056.230287,1406.391290
1366.621540,0.000000,-3753.867940,-0.000000
1366.621851,-3997.112087,-2145.067394,-1554.432478
1366.622163,-7846.182985,1532.190996,-1406.391290
1366.622474,-11251.130318,3600.648841,-1406.391290
1366.622786,-13989.892304,2145.067394,666.185348
1366.623097,-17098.757260,-612.876398,1924.535449
1366.623408,-17690.922014,-459.657299,3627.009116
1366.623720,-13841.851115,2145.067394,3627.009116
1366.624031,-9770.718434,766.095498,2516.700203
1366.624343,-5625.565159,-2451.505594,3701.029710
1366.624654,-222.061783,-4519.963438,3182.885551
1366.624966,1406.391290,-5975.544884,592.164754
1366.625277,-1480.411884,-4979.620737,-1554.432478
1366.625589,-5995.668130,306.438199,-2368.659014
1366.625900,-10140.821405,5362.668486,-2960.823768
1366.626211,-12953.603985,4290.134789,-1776.494261
1366.626523,-15100.201217,612.876398,666.185348
1366.626834,-16284.530724,-842.705048,2442.679609
1366.627146,-15100.201217,76.609550,2960.823768
1366.627457,-11621.233289,1608.800546,2368.659014
1366.627769,-8734.430116,1225.752797,1924.535449
1366.628080,-4737.318029,-1149.143247,2146.597232
1366.628392,-1258.350101,-3907.087040,-0.000000
1366.628703,-518.144159,-4213.525239,-1184.329507
1366.629014,-2812.782580,-1225.752797,-2812.782580
1366.629326,-7254.018232,2757.943793,-3478.967927
1366.629637,-11251.130318,3907.087040,-3034.844362
1366.629949,-15248.242405,3140.991542,-1184.329507
1366.630260,-17468.860231,1838.629195,1258.350101
1366.630572,-17542.880825,842.705048,2442.679609
1366.630883,-15692.365970,2221.676944,2146.597232
1366.631195,-11769.274478,3447.429741,1184.329507
1366.631506,-5181.441594,2451.505594,-444.123565
1366.631817,-518.144159,0.000000,444.123565
1366.632129,-1184.329507,-4443.353888,370.102971
1366.632440,-370.102971,-5362.668486,-1480.411884
1366.632752,-2812.782580,153.219100,-2590.720797
1366.633063,-8142.265362,2604.724693,-3108.864956
1366.633375,-12361.439231,4060.306139,-2368.659014
1366.633686,-17098.757260,2911.162892,-0.000000
1366.633998,-17987.004391,-153.219100,1480.411884
1366.634309,-17098.757260,-612.876398,4071.132681
1366.634620,-14434.015869,306.438199,2886.803174
1366.634932,-9622.677246,2145.067394,1702.473667
1366.635243,-4663.297435,0.000000,1702.473667
1366.635555,-1776.494261,-4136.915689,1110.308913
1366.635866,518.144159,-5745.716235,592.164754
1366.636178,-666.185348,-2145.067394,-1332.370696
1366.636489,-6365.771101,1302.362347,-2368.659014
1366.636801,-9844.739029,3524.039291,-1036.288319
1366.637112,-12879.583391,3370.820191,-0.000000
1366.637423,-15174.221811,919.314598,1702.473667
1366.637735,-16728.654289,-1072.533697,3701.029710
1366.638046,-14730.098246,0.000000,3775.050304
1366.638358,-11029.068536,2681.334243,1332.370696
1366.638669,-7772.162391,2298.286494,1480.411884
1366.638981,-3256.906145,-1762.019645,1480.411884
1366.639292,74.020594,-4596.572988,1332.370696
1366.639604,740.205942,-5286.058936,-0.000000
1366.639915,-2294.638420,-4290.134789,-74.020594
1366.640226,-7550.100608,-153.219100,-740.205942
1366.640538,-11177.109724,2374.896044,-1332.370696
1366.640849,-13841.851115,1072.533697,518.144159
1366.641161,-16580.613101,-383.047749,2368.659014
1366.641472,-17172.777854,-153.219100,3182.885551
1366.641784,-15470.304188,689.485948,2960.823768
1366.642095,-12065.356855,306.438199,2664.741391
1366.642407,-7698.141797,-229.828649,2664.741391
1366.642718,-2812.782580,-1149.143247,1628.453072
1366.643029,444.123565,-4443.353888,518.144159
1366.643341,-296.082377,-5209.449386,-1036.288319
1366.643652,-3034.844362,-766.095498,-2146.597232
1366.643964,-7994.224174,3217.601092,-2960.823768
1366.644275,-12361.439231,3830.477490,-1998.556043
1366.644587,-15396.283594,2681.334243,296.082377
1366.644898,-17542.880825,1225.752797,1850.514855
1366.645210,-16654.633695,229.828649,3108.864956
1366.645521,-13767.830521,995.924147,1998.556043
1366.645832,-9474.636058,1225.752797,1776.494261
1366.646144,-4663.297435,229.828649,1406.391290
1366.646455,-666.185348,-3524.039291,-0.000000
1366.646767,148.041188,-4673.182538,-1332.370696
1366.647078,-1036.288319,-3140.991542,-1850.514855
1366.647390,-4737.318029,153.219100,-2664.741391
1366.647701,-9104.533087,3064.381992,-2368.659014
1366.648013,-13989.892304,4060.306139,-1406.391290
1366.648324,-17616.901420,2221.676944,740.205942
1366.648635,-18061.024985,612.876398,2294.638420
1366.648947,-17246.798449,1455.581446,3182.885551
1366.649258,-13249.686362,3370.820191,1258.350101
1366.649570,-8512.368333,2834.553343,518.144159
1366.649881,-4293.194464,0.000000,296.082377
1366.650193,-370.102971,-2604.724693,-444.123565
1366.650504,444.123565,-2757.943793,-1924.535449
1366.650815,-2442.679609,-1072.533697,-2516.700203
1366.651127,-6957.935855,1532.190996,-2442.679609
1366.651438,-11547.212695,3907.087040,-1776.494261
1366.651750,-14434.015869,4136.915689,-592.164754
1366.652061,-16580.613101,1762.019645,1258.350101
1366.652373,-16654.633695,-383.047749,2812.782580
1366.652684,-14508.036463,0.000000,2516.700203
1366.652996,-11473.192101,1149.143247,1406.391290
1366.653307,-7031.956449,0.000000,1332.370696
1366.653618,-3923.091493,-2834.553343,1406.391290
1366.653930,-148.041188,-3830.477490,740.205942
1366.654241,-296.082377,-3907.087040,-148.041188
1366.654553,-3849.070898,-1838.629195,-1406.391290
1366.654864,-7624.121203,2681.334243,-1776.494261
1366.655176,-11325.150913,4060.306139,-1332.370696
1366.655487,-14730.098246,2145.067394,444.123565
1366.655799,-16136.489536,536.266849,2516.700203
1366.656110,-16062.468941,153.219100,3478.967927
1366.656421,-14063.912898,459.657299,3404.947333
1366.656733,-10732.986159,0.000000,3034.844362
1366.657044,-6143.709319,-689.485948,2368.659014
1366.657356,-1628.453072,-2374.896044,1776.494261
1366.657667,962.267725,-4443.353888,518.144159
1366.657979,0.000000,-3983.696590,-962.267725
1366.658290,-4071.132681,-766.095498,-1332.370696
1366.658602,-8512.368333,2145.067394,-962.267725
1366.658913,-12213.398043,2681.334243,-74.020594
1366.659224,-15396.283594,1915.238745,1406.391290
1366.659536,-17098.757260,612.876398,2738.761985
1366.659847,-16062.468941,-612.876398,3552.988522
1366.660159,-12953.603985,-612.876398,2368.659014
1366.660470,-9474.636058,76.609550,2368.659014
1366.660782,-4663.297435,-1532.190996,2146.597232
1366.661093,-888.247130,-4596.572988,2368.659014
1366.661405,0.000000,-6894.859482,888.247130
1366.661716,-1110.308913,-4749.792088,-0.000000
1366.662027,-4885.359217,0.000000,-1702.473667
1366.662339,-9548.656652,3830.477490,-2146.597232
1366.662650,-12731.542202,3753.867940,-1998.556043
1366.662962,-15914.427753,1762.019645,-370.102971
1366.663273,-17468.860231,306.438199,1924.535449
1366.663585,-16580.613101,1072.533697,2960.823768
1366.663896,-13915.871710,1455.581446,2072.576638
1366.664208,-9548.656652,612.876398,1036.288319
1366.664519,-4145.153275,-995.924147,296.082377
1366.664830,-740.205942,-2911.162892,-888.247130
1366.665142,0.000000,-3064.381992,-2368.659014
1366.665453,-2220.617826,-536.266849,-3330.926739
1366.665765,-6513.812290,2145.067394,-3404.947333
1366.666076,-11251.130318,3294.210641,-2738.761985
1366.666388,-15026.180623,2451.505594,-1036.288319
1366.666699,-17172.777854,766.095498,296.082377
1366.667011,-18135.045579,-229.828649,1998.556043
1366.667322,-15914.427753,459.657299,1924.535449
1366.667633,-11769.274478,1991.848295,666.185348
1366.667945,-6957.935855,1149.143247,370.102971
1366.668256,-2072.576638,-1991.848295,518.144159
1366.668568,296.082377,-3907.087040,-814.226536
1366.668879,-370.102971,-3753.867940,-1850.514855
1366.669191,-3108.864956,229.828649,-2146.597232
1366.669502,-6883.915261,3447.429741,-2516.700203
1366.669814,-10362.883188,3907.087040,-1110.308913
1366.670125,-15248.242405,1685.410096,-148.041188
1366.670436,-16950.716072,-383.047749,2220.617826
1366.670748,-17024.736666,0.000000,2960.823768
1366.671059,-14952.160028,1378.971896,2664.741391
1366.671371,-10658.965565,1608.800546,1924.535449
1366.671682,-5699.585753,-536.266849,1258.350101
1366.671994,-1850.514855,-2604.724693,1110.308913
1366.672305,0.000000,-4673.182538,-0.000000
1366.672617,-1036.288319,-1991.848295,-518.144159
1366.672928,-4811.338623,842.705048,-148.041188
1366.673239,-8808.450710,2834.553343,-74.020594
1366.673551,-11991.336260,2757.943793,888.247130
1366.673862,-15322.262999,919.314598,1776.494261
1366.674174,-16802.674883,153.219100,2738.761985
1366.674485,-16136.489536,689.485948,2738.761985
1366.674797,-13249.686362,536.266849,2664.741391
1366.675108,-8808.450710,919.314598,3256.906145
1366.675419,-4219.173869,-2451.505594,3034.844362
1366.675731,-814.226536,-5745.716235,2368.659014
1366.676042,-518.144159,-6128.763984,1776.494261
1366.676354,-740.205942,-2451.505594,592.164754
1366.676665,-4441.235652,1915.238745,-666.185348
1366.676977,-9622.677246,2987.772442,-1776.494261
1366.677288,-14211.954086,2604.724693,-740.205942
1366.677600,-16358.551318,1455.581446,592.164754
1366.677911,-16506.592507,612.876398,2368.659014
1366.678222,-16062.468941,612.876398,2664.741391
1366.678534,-12953.603985,-153.219100,2516.700203
1366.678845,-7772.162391,-1608.800546,2220.617826
1366.679157,-3404.947333,-3677.258390,1998.556043
1366.679468,-666.185348,-5209.449386,592.164754
1366.679780,-592.164754,-3753.867940,-888.247130
1366.680091,-3404.947333,536.266849,-2146.597232
1366.680403,-7105.977043,2757.943793,-2442.679609
1366.680714,-10362.883188,3830.477490,-1776.494261
1366.681025,-13471.748144,2834.553343,-592.164754
1366.681337,-16136.489536,612.876398,444.123565
1366.681648,-15692.365970,-306.438199,1258.350101
1366.681960,-13841.851115,766.095498,1258.350101
1366.682271,-10436.903782,689.485948,962.267725
1366.682583,-5773.606348,-2374.896044,1406.391290
1366.682894,-2442.679609,-5362.668486,1258.350101
1366.683206,-666.185348,-6281.983084,-0.000000
1366.683517,-1702.473667,-3753.867940,-1850.514855
1366.683828,-4145.153275,766.095498,-2590.720797
1366.684140,-7698.141797,3370.820191,-2664.741391
1366.684451,-11621.233289,1991.848295,-1702.473667
1366.684763,-14656.077652,383.047749,-370.102971
1366.685074,-18135.045579,-383.047749,370.102971
1366.685386,-18653.189738,1302.362347,1628.453072
1366.685697,-15248.242405,2451.505594,1258.350101
1366.686009,-10436.903782,919.314598,370.102971
1366.686320,-4663.297435,-1608.800546,1110.308913
1366.686631,-2368.659014,-4749.792088,370.102971
1366.686943,-1258.350101,-4903.011187,-0.000000
1366.687254,-3034.844362,-306.438199,-2220.617826
1366.687566,-7402.059420,4519.963438,-2368.659014
1366.687877,-10881.027347,4979.620737,-2072.576638
1366.688189,-14285.974681,3830.477490,-888.247130
1366.688500,-16654.633695,1915.238745,-0.000000
1366.688812,-16580.613101,1838.629195,1480.411884
1366.689123,-14730.098246,1838.629195,2146.597232
1366.689434,-10288.862594,1685.410096,1998.556043
1366.689746,-7920.203579,383.047749,2220.617826
1366.690057,-4515.256246,-4290.134789,3478.967927
1366.690369,-814.226536,-6435.202183,2146.597232
1366.690680,-592.164754,-4060.306139,962.267725
1366.690992,-2886.803174,-383.047749,-962.267725
1366.691303,-6143.709319,2681.334243,-1924.535449
1366.691615,-9992.780217,3907.087040,-1110.308913
1366.691926,-13397.727550,1838.629195,814.226536
1366.692237,-15026.180623,536.266849,2590.720797
1366.692549,-15766.386565,1072.533697,3256.906145
1366.692860,-14730.098246,1608.800546,3775.050304
1366.693172,-9918.759623,0.000000,3552.988522
1366.693483,-4293.194464,-2604.724693,3034.844362
1366.693795,-370.102971,-5056.230287,2368.659014
1366.694106,0.000000,-5362.668486,222.061783
1366.694418,-1554.432478,-2681.334243,-222.061783
1366.694729,-4885.359217,2451.505594,-1332.370696
1366.695040,-9474.636058,4443.353888,-888.247130
1366.695352,-12435.459826,3064.381992,-296.082377
1366.695663,-15544.324782,1838.629195,148.041188
1366.695975,-16432.571912,1685.410096,1776.494261
1366.696286,-14359.995275,995.924147,2072.576638
1366.696598,-11399.171507,612.876398,1850.514855
1366.696909,-8068.244768,-1378.971896,2146.597232
1366.697221,-4219.173869,-5056.230287,3330.926739
1366.697532,-1332.370696,-8273.831378,1998.556043
1366.697843,-1554.432478,-7354.516781,888.247130
1366.698155,-3701.029710,-2911.162892,-370.102971
1366.698466,-6365.771101,612.876398,-1924.535449
1366.698778,-10362.883188,2757.943793,-2294.638420
1366.699089,-13545.768739,3140.991542,-1184.329507
1366.699401,-17172.777854,1532.190996,-148.041188
1366.699712,-18209.066173,1072.533697,1628.453072
1366.700023,-16580.613101,1838.629195,2072.576638
1366.700335,-12213.398043,1762.019645,1480.411884
1366.700646,-6957.935855,76.609550,1036.288319
1366.700958,-3256.906145,-3140.991542,296.082377
1366.701269,-370.102971,-4673.182538,-518.144159
1366.701581,-666.185348,-2911.162892,-1924.535449
1366.701892,-3404.947333,0.000000,-2072.576638
1366.702204,-8068.244768,2374.896044,-2072.576638
1366.702515,-13397.727550,2681.334243,-2146.597232
1366.702826,-15840.407159,2834.553343,-592.164754
1366.703138,-17098.757260,2451.505594,-148.041188
1366.703449,-16876.695478,2451.505594,1554.432478
1366.703761,-14434.015869,2451.505594,1258.350101
1366.704072,-9696.697840,2374.896044,296.082377
1366.704384,-5403.503377,-153.219100,1184.329507
1366.704695,-2146.597232,-4443.353888,1702.473667
1366.705007,-370.102971,-6128.763984,-518.144159
1366.705318,-1332.370696,-2145.067394,-1554.432478
1366.705629,-4219.173869,2068.457845,-2738.761985
1366.705941,-8660.409521,4366.744339,-2368.659014
1366.706252,-13915.871710,4903.011187,-592.164754
1366.706564,-17542.880825,2451.505594,888.247130
1366.706875,-18061.024985,612.876398,2738.761985
1366.707187,-15914.427753,1532.190996,2590.720797
1366.707498,-12361.439231,3447.429741,1924.535449
1366.707810,-7254.018232,1608.800546,1184.329507
1366.708121,-2146.597232,-1608.800546,962.267725
1366.708432,2442.679609,-3447.429741,1628.453072
1366.708744,1036.288319,-4136.915689,-370.102971
1366.709055,-3627.009116,-1685.410096,-444.123565
1366.709367,-8068.244768,1838.629195,-592.164754
1366.709678,-11547.212695,3524.039291,-592.164754
1366.709990,-14137.933492,2987.772442,962.267725
1366.710301,-16210.510130,842.705048,1702.473667
1366.710613,-16506.592507,76.609550,2294.638420
1366.710924,-14730.098246,689.485948,2220.617826
1366.711235,-10584.944971,919.314598,2516.700203
1366.711547,-6661.853478,-766.095498,3330.926739
1366.711858,-2294.638420,-4596.572988,2960.823768
1366.712170,0.000000,-8197.221829,1554.432478
1366.712481,-666.185348,-7048.078582,518.144159
1366.712793,-3108.864956,-1455.581446,-0.000000
1366.713104,-7624.121203,3370.820191,-1110.308913
1366.713416,-12657.521608,2451.505594,-444.123565
1366.713727,-15692.365970,1915.238745,1332.370696
1366.714038,-17912.983796,919.314598,2368.659014
1366.714350,-16580.613101,1149.143247,2886.803174
1366.714661,-13841.851115,1455.581446,2368.659014
1366.714973,-9622.677246,1225.752797,1036.288319
1366.715284,-4663.297435,-689.485948,1184.329507
1366.715596,-1332.370696,-3524.039291,296.082377
1366.715907,0.000000,-5286.058936,814.226536
1366.716219,-2368.659014,-4060.306139,-0.000000
1366.716530,-6069.688724,0.000000,-888.247130
1366.716841,-10066.800811,3294.210641,-1702.473667
1366.717153,-13471.748144,4290.134789,-1332.370696
1366.717464,-16062.468941,2911.162892,-518.144159
1366.717775,-16432.571912,1302.362347,370.102971
1366.718087,-15248.242405,1149.143247,1406.391290
1366.718398,-12287.418637,1225.752797,1184.329507
1366.718709,-7920.203579,-153.219100,1628.453072
1366.719021,-3923.091493,-3370.820191,1702.473667
1366.719332,-962.267725,-6052.154434,592.164754
1366.719644,74.020594,-6358.592633,-962.267725
1366.719955,-1850.514855,-2451.505594,-2368.659014
1366.720266,-6143.709319,2757.943793,-3478.967927
1366.720578,-10066.800811,4979.620737,-2738.761985
1366.720889,-14508.036463,3753.867940,-1332.370696
1366.721200,-17764.942608,1762.019645,1480.411884
1366.721512,-18357.107362,1302.362347,3034.844362
1366.721823,-15692.365970,1838.629195,2368.659014
1366.722134,-11177.109724,2451.505594,1258.350101
1366.722446,-5699.585753,1149.143247,222.061783
1366.722757,-888.247130,-1455.581446,-1036.288319
1366.723069,1628.453072,-3524.039291,-1776.494261
1366.723380,-740.205942,-2757.943793,-2516.700203
1366.723691,-5033.400406,919.314598,-2516.700203
1366.724003,-9252.574275,4060.306139,-1924.535449
1366.724314,-14211.954086,3907.087040,-666.185348
1366.724625,-17690.922014,2145.067394,962.267725
1366.724937,-17912.983796,689.485948,1924.535449
1366.725248,-16136.489536,842.705048,2294.638420
1366.725559,-12805.562797,1991.848295,1776.494261
1366.725871,-8808.450710,1378.971896,888.247130
1366.726182,-4441.235652,-1532.190996,1332.370696
1366.726493,-1258.350101,-4136.915689,1110.308913
1366.726805,-370.102971,-5898.935335,666.185348
1366.727116,-2664.741391,-4213.525239,-0.000000
1366.727428,-6883.915261,153.219100,-148.041188
1366.727739,-10510.924376,2987.772442,-592.164754
1366.728050,-13693.809927,3064.381992,296.082377
1366.728362,-16358.551318,1991.848295,1998.556043
1366.728673,-16580.613101,1608.800546,2516.700203
1366.728984,-14211.954086,1608.800546,2516.700203
1366.729296,-10807.006753,1455.581446,2146.597232
1366.729607,-7031.956449,76.609550,2072.576638
1366.729918,-2590.720797,-2451.505594,2220.617826
1366.730230,-222.061783,-5745.716235,1628.453072
1366.730541,-888.247130,-6052.154434,1480.411884
1366.730852,-2886.803174,-3294.210641,222.061783
1366.731164,-6365.771101,995.924147,-148.041188
1366.731475,-10658.965565,2604.724693,-592.164754
1366.731787,-14137.933492,2298.286494,-0.000000
1366.732098,-15692.365970,1455.581446,1480.411884
1366.732409,-15174.221811,919.314598,2738.761985
1366.732721,-14211.954086,383.047749,2516.700203
1366.733032,-10955.047942,306.438199,2664.741391
1366.733343,-7254.018232,-1149.143247,2516.700203
1366.733655,-2220.617826,-3064.381992,1554.432478
1366.733966,-222.061783,-4673.182538,370.102971
1366.734277,-1184.329507,-4213.525239,-888.247130
1366.734589,-3034.844362,-842.705048,-2072.576638
1366.734900,-7402.059420,1225.752797,-2590.720797
1366.735212,-11177.109724,2834.553343,-1332.370696
1366.735523,-14582.057057,612.876398,518.144159
1366.735834,-17098.757260,-229.828649,1480.411884
1366.736146,-17394.839637,-842.705048,2738.761985
1366.736457,-14582.057057,0.000000,1850.514855
1366.736768,-10066.800811,459.657299,962.267725
1366.737080,-5551.544565,-1302.362347,592.164754
1366.737391,-1258.350101,-3677.258390,222.061783
1366.737702,74.020594,-5286.058936,-1480.411884
1366.738014,-1332.370696,-2604.724693,-1924.535449
1366.738325,-5181.441594,1991.848295,-2442.679609
1366.738636,-10140.821405,4596.572988,-2516.700203
1366.738948,-13693.809927,4366.744339,-962.267725
1366.739259,-17616.901420,2834.553343,-0.000000
1366.739571,-18801.230927,2145.067394,1480.411884
1366.739882,-17320.819043,3600.648841,1554.432478
1366.740193,-14804.118840,2068.457845,888.247130
1366.740505,-8586.388927,1378.971896,370.102971
1366.740816,-3034.844362,-229.828649,-0.000000
1366.741127,-1406.391290,-4136.915689,-0.000000
1366.741439,-148.041188,-5286.058936,-666.185348
1366.741750,-1702.473667,-1225.752797,-1776.494261
1366.742061,-6513.812290,2221.676944,-1480.411884
1366.742373,-11325.150913,3753.867940,-1258.350101
1366.742684,-14952.160028,2834.553343,222.061783
1366.742995,-17024.736666,612.876398,1110.308913
1366.743307,-17172.777854,153.219100,2516.700203
1366.743618,-13841.851115,766.095498,1554.432478
1366.743930,-10140.821405,1991.848295,592.164754
1366.744241,-6587.832884,766.095498,1554.432478
1366.744552,-2516.700203,-4060.306139,1480.411884
1366.744864,0.000000,-5439.278036,1480.411884
1366.745175,-1110.308913,-4366.744339,1258.350101
1366.745486,-4663.297435,-1455.581446,-296.082377
1366.745798,-8290.306550,2681.334243,-740.205942
1366.746109,-10955.047942,4749.792088,-592.164754
1366.746420,-13249.686362,3370.820191,740.205942
1366.746732,-14063.912898,919.314598,1998.556043
1366.747043,-14508.036463,766.095498,1924.535449
1366.747354,-12213.398043,1838.629195,2886.803174
1366.747666,-9252.574275,383.047749,2294.638420
1366.747977,-5329.482782,-2221.676944,2220.617826
1366.748289,-2220.617826,-4136.915689,2516.700203
1366.748600,-1332.370696,-6281.983084,518.144159
1366.748911,-2072.576638,-4519.963438,370.102971
1366.749223,-4811.338623,-229.828649,-592.164754
1366.749534,-9178.553681,1685.410096,-814.226536
1366.749845,-12213.398043,1915.238745,-518.144159
1366.750157,-16062.468941,459.657299,666.185348
1366.750468,-17320.819043,76.609550,2294.638420
1366.750779,-16136.489536,-153.219100,2516.700203
1366.751091,-13693.809927,-1149.143247,2072.576638
1366.751402,-9178.553681,-995.924147,1702.473667
1366.751714,-4959.379811,-3064.381992,1850.514855
1366.752025,-1850.514855,-5669.106685,1702.473667
1366.752336,-962.267725,-6281.983084,1036.288319
1366.752648,-3108.864956,-3447.429741,-222.061783
1366.752959,-5625.565159,153.219100,-1258.350101
1366.753270,-10362.883188,2528.115143,-2442.679609
1366.753582,-13101.645173,3753.867940,-1184.329507
1366.753893,-15766.386565,1991.848295,-296.082377
1366.754204,-16580.613101,306.438199,962.267725
1366.754516,-15026.180623,1608.800546,1628.453072
1366.754827,-13249.686362,1991.848295,888.247130
1366.755138,-8882.471304,76.609550,1184.329507
1366.755450,-3849.070898,-3064.381992,666.185348
1366.755761,-740.205942,-4673.182538,-0.000000
1366.756073,74.020594,-3600.648841,-962.267725
1366.756384,-2368.659014,-766.095498,-2220.617826
1366.756695,-6883.915261,2834.553343,-2294.638420
1366.757007,-10807.006753,3830.477490,-1702.473667
1366.757318,-14730.098246,3294.210641,-444.123565
1366.757629,-17246.798449,1991.848295,518.144159
1366.757941,-17987.004391,1455.581446,1554.432478
1366.758252,-15470.304188,1685.410096,1332.370696
1366.758563,-10658.965565,1991.848295,666.185348
1366.758875,-5847.626942,306.438199,296.082377
1366.759186,-1776.494261,-2604.724693,518.144159
1366.759497,222.061783,-4213.525239,-74.020594
1366.759809,-1924.535449,-2145.067394,-814.226536
1366.760120,-5033.400406,1838.629195,-1406.391290
1366.760432,-8586.388927,4673.182538,-2072.576638
1366.760743,-12139.377449,5362.668486,-1850.514855
1366.761054,-14952.160028,3907.087040,-592.164754
1366.761366,-16136.489536,1915.238745,592.164754
1366.761677,-14508.036463,1225.752797,1628.453072
1366.761988,-12213.398043,1762.019645,1406.391290
1366.762300,-8438.347739,536.266849,2442.679609
1366.762611,-4885.359217,-2681.334243,2146.597232
1366.762922,-1406.391290,-5592.497135,2368.659014
1366.763234,-740.205942,-6818.249932,814.226536
1366.763545,-2738.761985,-3907.087040,296.082377
1366.763857,-5995.668130,612.876398,-1036.288319
1366.764168,-10807.006753,2068.457845,-1628.453072
1366.764479,-13471.748144,2757.943793,148.041188
1366.764791,-16358.551318,1149.143247,1110.308913
1366.765102,-16506.592507,919.314598,2664.741391
1366.765413,-14952.160028,536.266849,2590.720797
1366.765725,-12287.418637,842.705048,2590.720797
1366.766036,-7402.059420,306.438199,2294.638420
1366.766347,-3552.988522,-1608.800546,1628.453072
1366.766659,-1184.329507,-4213.525239,1702.473667
1366.766970,-1702.473667,-3983.696590,1110.308913
1366.767281,-3775.050304,-1378.971896,592.164754
1366.767593,-6291.750507,2451.505594,-666.185348
1366.767904,-9622.677246,3370.820191,-1184.329507
1366.768216,-13101.645173,2451.505594,-592.164754
1366.768527,-15618.345376,612.876398,296.082377
1366.768838,-16580.613101,536.266849,888.247130
1366.769150,-14508.036463,459.657299,2294.638420
1366.769461,-11991.336260,229.828649,2368.659014
1366.769772,-7402.059420,-3140.991542,2812.782580
1366.770084,-2738.761985,-6741.640382,3034.844362
1366.770395,-370.102971,-8427.050478,2220.617826
1366.770706,-1184.329507,-6588.421283,370.102971
1366.771018,-3552.988522,-995.924147,-1036.288319
1366.771329,-7254.018232,2451.505594,-2072.576638
1366.771640,-11177.109724,2528.115143,-1406.391290
1366.771952,-15100.201217,1915.238745,-0.000000
1366.772263,-17098.757260,1685.410096,666.185348
1366.772575,-16432.571912,2451.505594,1332.370696
1366.772886,-13841.851115,3140.991542,888.247130
1366.773197,-9844.739029,2604.724693,592.164754
1366.773509,-4885.359217,0.000000,222.061783
1366.773820,-962.267725,-3064.381992,-74.020594
1366.774131,-222.061783,-4596.572988,-814.226536
1366.774443,-2368.659014,-2298.286494,-1628.453072
1366.774754,-6143.709319,1762.019645,-2516.700203
1366.775065,-9918.759623,3907.087040,-2590.720797
1366.775377,-13249.686362,3370.820191,-1406.391290
1366.775688,-15988.448347,1762.019645,-370.102971
1366.776000,-17098.757260,306.438199,1036.288319
1366.776311,-16210.510130,766.095498,1480.411884
1366.776622,-13841.851115,1915.238745,1554.432478
1366.776934,-9178.553681,995.924147,1850.514855
1366.777245,-4071.132681,-2068.457845,1702.473667
1366.777556,-444.123565,-4903.011187,1184.329507
1366.777868,-444.123565,-4519.963438,-148.041188
1366.778179,-3182.885551,-766.095498,-1184.329507
1366.778490,-7624.121203,3524.039291,-2516.700203
1366.778802,-11325.150913,4596.572988,-1480.411884
1366.779113,-14730.098246,3524.039291,-518.144159
1366.779424,-16580.613101,2221.676944,962.267725
1366.779736,-16654.633695,1991.848295,1702.473667
1366.780047,-14582.057057,1991.848295,2072.576638
1366.780359,-10140.821405,1302.362347,2368.659014
1366.780670,-5477.523971,-689.485948,2368.659014
1366.780981,-1776.494261,-3677.258390,2590.720797
1366.781293,-296.082377,-5898.935335,1850.514855
1366.781604,-1702.473667,-4443.353888,222.061783
1366.781915,-4293.194464,306.438199,-518.144159
1366.782227,-7550.100608,3753.867940,-1258.350101
1366.782538,-11325.150913,3524.039291,-1702.473667
1366.782849,-13619.789333,2145.067394,-0.000000
1366.783161,-16136.489536,1072.533697,1258.350101
1366.783472,-16284.530724,0.000000,2590.720797
1366.783783,-13249.686362,229.828649,2590.720797
1366.784095,-9770.718434,459.657299,2516.700203
1366.784406,-5181.441594,-2068.457845,2960.823768
1366.784718,-1110.308913,-4903.011187,2812.782580
1366.785029,-222.061783,-5975.544884,1702.473667
1366.785340,-1998.556043,-3677.258390,740.205942
1366.785652,-4589.276840,612.876398,-0.000000
1366.785963,-8068.244768,3064.381992,-1036.288319
1366.786274,-11547.212695,3064.381992,-888.247130
1366.786586,-14878.139434,1455.581446,-0.000000
1366.786897,-15914.427753,153.219100,1110.308913
1366.787208,-15470.304188,842.705048,2072.576638
1366.787520,-13545.768739,1378.971896,1850.514855
1366.787831,-9696.697840,-153.219100,2072.576638
1366.788142,-5329.482782,-4060.306139,2368.659014
1366.788454,-962.267725,-6128.763984,2368.659014
1366.788765,-962.267725,-6281.983084,222.061783
1366.789077,-3256.906145,-2528.115143,-1110.308913
1366.789388,-6439.791695,2068.457845,-2368.659014
1366.789699,-9844.739029,3907.087040,-3034.844362
1366.790011,-13767.830521,3217.601092,-1480.411884
1366.790322,-16950.716072,1072.533697,-0.000000
1366.790633,-17616.901420,0.000000,1184.329507
1366.790945,-15100.201217,1991.848295,1924.535449
1366.791256,-11547.212695,2451.505594,1184.329507
1366.791567,-6957.935855,306.438199,1110.308913
1366.791879,-2220.617826,-2604.724693,1184.329507
1366.792190,370.102971,-4596.572988,518.144159
1366.792502,-370.102971,-3294.210641,-1184.329507
1366.792813,-3552.988522,995.924147,-2146.597232
1366.793124,-8808.450710,3753.867940,-2738.761985
1366.793436,-12805.562797,4443.353888,-1776.494261
1366.793747,-15470.304188,2528.115143,-814.226536
1366.794058,-17690.922014,1149.143247,-0.000000
1366.794370,-16654.633695,995.924147,1850.514855
1366.794681,-14656.077652,1302.362347,1850.514855
1366.794992,-10658.965565,919.314598,1850.514855
1366.795304,-5033.400406,-766.095498,1924.535449
1366.795615,-814.226536,-3524.039291,1776.494261
1366.795926,-222.061783,-5132.839837,-296.082377
1366.796238,-2072.576638,-2834.553343,-1258.350101
1366.796549,-5921.647536,1762.019645,-2590.720797
1366.796861,-9844.739029,4826.401637,-2590.720797
1366.797172,-13323.706956,4366.744339,-1036.288319
1366.797483,-16580.613101,1608.800546,666.185348
1366.797795,-17098.757260,153.219100,2516.700203
1366.798106,-15026.180623,766.095498,2516.700203
1366.798417,-11473.192101,1762.019645,2738.761985
1366.798729,-6661.853478,995.924147,2368.659014
1366.799040,-2516.700203,-1455.581446,2220.617826
1366.799351,74.020594,-4673.182538,1776.494261
1366.799663,-370.102971,-5056.230287,148.041188
1366.799974,-3182.885551,-1991.848295,-592.164754
1366.800285,-6957.935855,2451.505594,-1776.494261
1366.800597,-10881.027347,3907.087040,-1628.453072
1366.800908,-13175.665768,3064.381992,-592.164754
1366.801220,-16210.510130,612.876398,962.267725
1366.801531,-17246.798449,-306.438199,3108.864956
1366.801842,-15396.283594,306.438199,3849.070898
1366.802154,-11399.171507,919.314598,3182.885551
1366.802465,-5921.647536,-612.876398,2812.782580
1366.802776,-2516.700203,-4213.525239,2220.617826
1366.803088,0.000000,-6281.983084,814.226536
1366.803399,-814.226536,-5515.887586,-0.000000
1366.803710,-4293.194464,-1302.362347,-1258.350101
1366.804022,-8956.491898,2451.505594,-1628.453072
1366.804333,-12953.603985,3370.820191,-1110.308913
1366.804645,-16136.489536,1762.019645,-0.000000
1366.804956,-17838.963202,536.266849,1998.556043
1366.805267,-16506.592507,229.828649,3256.906145
1366.805579,-13545.768739,2068.457845,2664.741391
1366.805890,-9252.574275,229.828649,2516.700203
1366.806201,-4145.153275,-2757.943793,2886.803174
1366.806513,-148.041188,-5515.887586,1998.556043
1366.806824,814.226536,-5975.544884,-0.000000
1366.807135,-1850.514855,-3217.601092,-1184.329507
1366.807447,-6217.729913,1225.752797,-2072.576638
1366.807758,-9770.718434,4903.011187,-1998.556043
1366.808069,-13767.830521,4290.134789,-1258.350101
1366.808381,-15692.365970,1455.581446,370.102971
1366.808692,-17024.736666,0.000000,2146.597232
1366.809004,-15396.283594,0.000000,2442.679609
1366.809315,-11621.233289,1149.143247,1850.514855
1366.809626,-7105.977043,842.705048,1110.308913
1366.809938,-2368.659014,-1762.019645,814.226536
1366.810249,296.082377,-4443.353888,-74.020594
1366.810560,666.185348,-5056.230287,-888.247130
1366.810872,-2960.823768,-1915.238745,-2368.659014
1366.811183,-8216.285956,2374.896044,-2442.679609
1366.811494,-11843.295072,4596.572988,-2516.700203
1366.811806,-14878.139434,3753.867940,-814.226536
1366.812117,-17838.963202,1149.143247,814.226536
1366.812428,-18061.024985,-229.828649,1776.494261
1366.812740,-15692.365970,1302.362347,2146.597232
1366.813051,-11473.192101,2068.457845,1332.370696
1366.813363,-6439.791695,153.219100,444.123565
1366.813674,-1480.411884,-3140.991542,-0.000000
1366.813985,370.102971,-5822.325785,-888.247130
1366.814297,-370.102971,-4979.620737,-1184.329507
1366.814608,-4589.276840,-842.705048,-2442.679609
1366.814919,-9326.594869,3217.601092,-2368.659014
1366.815231,-13471.748144,3370.820191,-1036.288319
1366.815542,-16728.654289,1608.800546,592.164754
1366.815853,-18061.024985,229.828649,2294.638420
1366.816165,-17098.757260,1149.143247,2812.782580
1366.816476,-13397.727550,1838.629195,2812.782580
1366.816788,-8956.491898,1455.581446,1998.556043
1366.817099,-3775.050304,-919.314598,2072.576638
1366.817411,-814.226536,-3217.601092,444.123565
1366.817722,0.000000,-4366.744339,-74.020594
1366.818034,-2146.597232,-1072.533697,-1332.370696
1366.818346,-6439.791695,3294.210641,-1924.535449
1366.818657,-10436.903782,5209.449386,-1924.535449
1366.818969,-13323.706956,4826.401637,-666.185348
1366.819280,-15322.262999,2451.505594,1850.514855
1366.819592,-16358.551318,76.609550,3404.947333
1366.819903,-15470.304188,-459.657299,3627.009116
1366.820215,-11029.068536,1072.533697,3923.091493
1366.820526,-6217.729913,0.000000,2960.823768
1366.820838,-1258.350101,-3217.601092,2664.741391
1366.821149,1036.288319,-6281.983084,1332.370696
1366.821461,370.102971,-6128.763984,-74.020594
1366.821772,-2664.741391,-2681.334243,-1184.329507
1366.822084,-7328.038826,1991.848295,-1628.453072
1366.822396,-11621.233289,3064.381992,-888.247130
1366.822707,-15322.262999,2528.115143,666.185348
1366.823019,-17024.736666,-459.657299,2442.679609
1366.823330,-16802.674883,-612.876398,4145.153275
1366.823642,-14582.057057,383.047749,4367.215058
1366.823953,-10807.006753,1072.533697,2664.741391
1366.824265,-5847.626942,-919.314598,2072.576638
1366.824576,-1628.453072,-3294.210641,1110.308913
1366.824888,1924.535449,-4213.525239,-0.000000
1366.825199,592.164754,-3217.601092,-1480.411884
1366.825511,-3330.926739,-459.657299,-2220.617826
1366.825822,-8142.265362,2298.286494,-2368.659014
1366.826134,-12065.356855,3524.039291,-1258.350101
1366.826446,-15618.345376,1915.238745,-0.000000
1366.826757,-17690.922014,-689.485948,1258.350101
1366.827069,-16950.716072,-1608.800546,2368.659014
1366.827380,-13693.809927,-612.876398,1998.556043
1366.827692,-9696.697840,612.876398,1110.308913
1366.828003,-4737.318029,-2298.286494,1332.370696
1366.828315,-1776.494261,-5669.106685,148.041188
1366.828626,-518.144159,-7048.078582,-666.185348
1366.828938,-1998.556043,-4136.915689,-1924.535449
1366.829249,-5921.647536,766.095498,-3330.926739
1366.829561,-9770.718434,4366.744339,-3256.906145
1366.829872,-14582.057057,4673.182538,-2516.700203
1366.830184,-17912.983796,2298.286494,-222.061783
1366.830496,-19467.416275,766.095498,1776.494261
1366.830807,-18135.045579,1608.800546,2516.700203
1366.831119,-13619.789333,2987.772442,1776.494261
1366.831430,-9400.615463,1838.629195,888.247130
1366.831742,-3627.009116,-689.485948,296.082377
1366.832053,148.041188,-3294.210641,-1110.308913
1366.832365,518.144159,-3064.381992,-2368.659014
1366.832676,-2664.741391,612.876398,-2442.679609
1366.832988,-6735.874072,4519.963438,-2516.700203
1366.833299,-10955.047942,4903.011187,-2294.638420
1366.833611,-14656.077652,2987.772442,-0.000000
1366.833922,-16950.716072,842.705048,1258.350101
1366.834234,-17024.736666,766.095498,2220.617826
1366.834545,-14582.057057,2068.457845,2960.823768
1366.834857,-11399.171507,1762.019645,2368.659014
1366.835169,-5847.626942,-153.219100,2516.700203
1366.835480,-1480.411884,-2987.772442,2294.638420
1366.835792,518.144159,-5362.668486,1332.370696
1366.836103,-444.123565,-4903.011187,-0.000000
1366.836415,-2886.803174,229.828649,-962.267725
1366.836726,-7179.997637,3753.867940,-1776.494261
1366.837038,-10436.903782,4136.915689,-740.205942
1366.837349,-13619.789333,2068.457845,962.267725
1366.837661,-15988.448347,383.047749,2590.720797
1366.837972,-16358.551318,153.219100,3775.050304
1366.838284,-13989.892304,919.314598,4589.276840
1366.838595,-9918.759623,612.876398,3478.967927
1366.838907,-5033.400406,-1991.848295,2886.803174
1366.839219,-296.082377,-3753.867940,2146.597232
1366.839530,592.164754,-5592.497135,444.123565
1366.839842,-740.205942,-3830.477490,-1184.329507
1366.840153,-4885.359217,229.828649,-1184.329507
1366.840465,-10066.800811,2374.896044,-1184.329507
1366.840776,-13693.809927,1915.238745,296.082377
1366.841088,-16062.468941,229.828649,2146.597232
1366.841399,-16728.654289,-995.924147,2812.782580
1366.841711,-16580.613101,-766.095498,3849.070898
1366.842022,-13175.665768,0.000000,2738.761985
1366.842334,-8734.430116,-153.219100,1924.535449
1366.842645,-4589.276840,-1838.629195,1850.514855
1366.842957,-1628.453072,-4060.306139,962.267725
1366.843269,-1480.411884,-4979.620737,-740.205942
1366.843580,-2590.720797,-2221.676944,-1850.514855
1366.843892,-5477.523971,2145.067394,-2516.700203
1366.844203,-8808.450710,4443.353888,-2442.679609
1366.844515,-13545.768739,2681.334243,-1110.308913
1366.844826,-17172.777854,76.609550,592.164754
1366.845138,-18135.045579,0.000000,1776.494261
1366.845449,-16580.613101,1991.848295,2368.659014
1366.845761,-12213.398043,2604.724693,1702.473667
1366.846072,-7920.203579,0.000000,962.267725
1366.846384,-4293.194464,-3677.258390,814.226536
1366.846695,-666.185348,-4826.401637,-296.082377
1366.847007,518.144159,-2834.553343,-1554.432478
1366.847319,-2812.782580,153.219100,-2664.741391
1366.847630,-7550.100608,3524.039291,-3775.050304
1366.847942,-11695.253884,4213.525239,-2664.741391
1366.848253,-14656.077652,2911.162892,-888.247130
1366.848565,-17098.757260,842.705048,740.205942
1366.848876,-17172.777854,689.485948,1850.514855
1366.849188,-15322.262999,1915.238745,1998.556043
1366.849499,-10658.965565,2221.676944,1480.411884
1366.849811,-5847.626942,-536.266849,1184.329507
1366.850122,-1406.391290,-2681.334243,888.247130
1366.850434,1036.288319,-3830.477490,-814.226536
1366.850745,-518.144159,-2451.505594,-2146.597232
1366.851057,-3849.070898,2298.286494,-2812.782580
1366.851369,-7772.162391,4903.011187,-2886.803174
1366.851680,-12435.459826,4366.744339,-1406.391290
1366.851992,-15988.448347,2451.505594,592.164754
1366.852303,-17764.942608,766.095498,2072.576638
1366.852615,-17838.963202,1378.971896,2590.720797
1366.852926,-15396.283594,2451.505594,2368.659014
1366.853238,-9548.656652,1838.629195,2220.617826
1366.853549,-4071.132681,-1532.190996,2146.597232
1366.853861,-222.061783,-5362.668486,1702.473667
1366.854172,222.061783,-5898.935335,148.041188
1366.854484,-2146.597232,-2987.772442,-0.000000
1366.854795,-6291.750507,1302.362347,-592.164754
1366.855107,-9918.759623,2834.553343,-666.185348
1366.855419,-13767.830521,1915.238745,148.041188
1366.855730,-15840.407159,-153.219100,2072.576638
1366.856042,-17394.839637,-1149.143247,3182.885551
1366.856353,-15544.324782,-536.266849,3923.091493
1366.856665,-11843.295072,1838.629195,3627.009116
1366.856976,-7402.059420,306.438199,3330.926739
1366.857288,-2886.803174,-2834.553343,3330.926739
1366.857599,0.000000,-5056.230287,2516.700203
1366.857911,666.185348,-4366.744339,518.144159
1366.858222,-1850.514855,-459.657299,-444.123565
1366.858534,-5773.606348,3447.429741,-1628.453072
1366.858845,-9844.739029,4443.353888,-1480.411884
1366.859157,-13323.706956,2298.286494,-0.000000
1366.859468,-16284.530724,-612.876398,1702.473667
1366.859780,-16728.654289,-1149.143247,3701.029710
1366.860092,-15396.283594,0.000000,3256.906145
1366.860403,-12287.418637,842.705048,2738.761985
1366.860715,-6957.935855,-1072.533697,2960.823768
1366.861026,-1776.494261,-4136.915689,1998.556043
1366.861338,-148.041188,-4826.401637,518.144159
1366.861649,-222.061783,-2911.162892,-296.082377
1366.861961,-3034.844362,1225.752797,-2294.638420
1366.862272,-7105.977043,4366.744339,-2442.679609
1366.862584,-10732.986159,4596.572988,-1924.535449
1366.862895,-14878.139434,1991.848295,-666.185348
1366.863207,-17616.901420,153.219100,592.164754
1366.863518,-17394.839637,1149.143247,1332.370696
1366.863830,-14508.036463,2145.067394,1702.473667
1366.864142,-10658.965565,229.828649,1258.350101
1366.864453,-5625.565159,-2681.334243,1480.411884
1366.864765,-1184.329507,-5898.935335,962.267725
1366.865076,1258.350101,-6894.859482,-518.144159
1366.865388,-148.041188,-3370.820191,-1850.514855
1366.865699,-3849.070898,1225.752797,-4145.153275
1366.866011,-9104.533087,3677.258390,-4145.153275
1366.866322,-13323.706956,2911.162892,-1850.514855
1366.866634,-17172.777854,1532.190996,-0.000000
1366.866945,-20059.581028,0.000000,1702.473667
1366.867257,-19393.395680,919.314598,2294.638420
1366.867568,-15100.201217,2834.553343,1480.411884
1366.867880,-9696.697840,2221.676944,444.123565
1366.868192,-3552.988522,-1838.629195,592.164754
1366.868503,296.082377,-4826.401637,-888.247130
1366.868815,-296.082377,-4749.792088,-1702.473667
1366.869126,-3256.906145,-229.828649,-2146.597232
1366.869438,-7179.997637,4903.011187,-2590.720797
1366.869749,-11991.336260,5745.716235,-2146.597232
1366.870061,-15396.283594,3064.381992,-518.144159
1366.870372,-17024.736666,1072.533697,296.082377
1366.870684,-16876.695478,536.266849,1850.514855
1366.870995,-14434.015869,2757.943793,2960.823768
1366.871307,-11103.089130,1762.019645,1924.535449
1366.871618,-6809.894666,-1378.971896,2738.761985
1366.871930,-1998.556043,-4673.182538,2886.803174
1366.872242,370.102971,-7431.126331,1850.514855
1366.872553,-740.205942,-4979.620737,592.164754
1366.872865,-3701.029710,76.609550,-1258.350101
1366.873176,-7105.977043,3907.087040,-1776.494261
1366.873488,-10881.027347,3524.039291,-1110.308913
1366.873799,-15026.180623,1378.971896,1554.432478
1366.874111,-17764.942608,-383.047749,3627.009116
1366.874422,-17024.736666,229.828649,4367.215058
1366.874734,-13175.665768,1455.581446,4071.132681
1366.875045,-8068.244768,1991.848295,3108.864956
1366.875357,-2812.782580,-1149.143247,2590.720797
1366.875668,1332.370696,-5132.839837,1998.556043
1366.875980,1998.556043,-5132.839837,962.267725
1366.876292,-1036.288319,-1762.019645,-222.061783
1366.876603,-5551.544565,3370.820191,-1036.288319
1366.876915,-10436.903782,5362.668486,-1332.370696
1366.877226,-13397.727550,4060.306139,-222.061783
1366.877538,-15026.180623,1225.752797,1702.473667
1366.877849,-16284.530724,-919.314598,2072.576638
1366.878161,-15174.221811,0.000000,2590.720797
1366.878472,-13397.727550,919.314598,2072.576638
1366.878784,-8808.450710,-536.266849,2812.782580
1366.879095,-3923.091493,-3983.696590,2442.679609
1366.879407,-814.226536,-7124.688131,1480.411884
1366.879718,370.102971,-7048.078582,814.226536
1366.880030,-962.267725,-2451.505594,-1110.308913
1366.880342,-5255.462188,1225.752797,-2442.679609
1366.880653,-9548.656652,3983.696590,-3182.885551
1366.880965,-14211.954086,2451.505594,-888.247130
1366.881276,-17912.983796,0.000000,740.205942
1366.881588,-19541.436869,229.828649,2146.597232
1366.881899,-16950.716072,1532.190996,2368.659014
1366.882211,-12213.398043,1302.362347,1998.556043
1366.882522,-6957.935855,-612.876398,1480.411884
1366.882834,-1924.535449,-3294.210641,-0.000000
1366.883145,148.041188,-5439.278036,-1184.329507
1366.883457,-740.205942,-3983.696590,-2664.741391
1366.883768,-4737.318029,459.657299,-3404.947333
1366.884080,-9030.512492,4749.792088,-3404.947333
1366.884391,-12805.562797,4826.401637,-2368.659014
1366.884703,-16358.551318,1915.238745,-148.041188
1366.885015,-18135.045579,0.000000,1110.308913
1366.885326,-17987.004391,1608.800546,1702.473667
1366.885638,-14582.057057,2987.772442,1850.514855
1366.885949,-10288.862594,2298.286494,592.164754
1366.886261,-5477.523971,-1685.410096,814.226536
1366.886572,-1110.308913,-4826.401637,-74.020594
1366.886884,814.226536,-5515.887586,-1332.370696
1366.887195,-666.185348,-2987.772442,-2368.659014
1366.887507,-4885.359217,1225.752797,-2886.803174
1366.887818,-9918.759623,3370.820191,-2886.803174
1366.888130,-14434.015869,3907.087040,-814.226536
1366.888441,-17987.004391,1532.190996,1776.494261
1366.888753,-19097.313304,689.485948,3182.885551
1366.889065,-16728.654289,2221.676944,3552.988522
1366.889376,-11769.274478,2681.334243,2368.659014
1366.889688,-6143.709319,1072.533697,1702.473667
1366.889999,-888.247130,-2374.896044,1406.391290
1366.890311,1924.535449,-5209.449386,-0.000000
1366.890622,814.226536,-4903.011187,-370.102971
1366.890934,-3330.926739,-1838.629195,-1036.288319
1366.891245,-8290.306550,1991.848295,-1480.411884
1366.891557,-12435.459826,3370.820191,-666.185348
1366.891868,-15396.283594,2987.772442,962.267725
1366.892180,-17098.757260,1838.629195,2368.659014
1366.892491,-16728.654289,1225.752797,3108.864956
1366.892803,-14359.995275,2604.724693,3256.906145
1366.893115,-9844.739029,3447.429741,2220.617826
1366.893426,-4737.318029,229.828649,1998.556043
1366.893738,-592.164754,-3447.429741,1702.473667
1366.894049,1628.453072,-6281.983084,518.144159
1366.894361,962.267725,-4903.011187,-370.102971
1366.894672,-3404.947333,-1225.752797,-1036.288319
1366.894984,-8808.450710,1072.533697,-1480.411884
1366.895295,-13323.706956,2451.505594,-0.000000
1366.895607,-17024.736666,153.219100,2590.720797
1366.895918,-18875.251521,-1302.362347,4145.153275
1366.896230,-17838.963202,0.000000,4737.318029
1366.896541,-13841.851115,1149.143247,3256.906145
1366.896853,-8586.388927,919.314598,2072.576638
1366.897165,-2886.803174,-1225.752797,1480.411884
1366.897476,962.267725,-2911.162892,962.267725
1366.897788,1924.535449,-5286.058936,-370.102971
1366.898099,-962.267725,-2757.943793,-1258.350101
1366.898411,-5329.482782,1378.971896,-1702.473667
1366.898722,-9474.636058,4060.306139,-1998.556043
1366.899034,-13989.892304,3064.381992,-1036.288319
1366.899345,-18283.086767,383.047749,370.102971
1366.899657,-18505.148550,306.438199,2516.700203
1366.899968,-16728.654289,1149.143247,2368.659014
1366.900280,-12583.501014,1762.019645,2072.576638
1366.900591,-7994.224174,-1302.362347,2146.597232
1366.900903,-3108.864956,-5132.839837,1184.329507
1366.901215,518.144159,-7048.078582,-148.041188
1366.901526,1480.411884,-5515.887586,-2368.659014
1366.901838,-1480.411884,-1225.752797,-3552.988522
1366.902149,-5995.668130,3064.381992,-3701.029710
1366.902461,-11917.315666,4060.306139,-2368.659014
1366.902772,-15766.386565,3294.210641,148.041188
1366.903084,-19541.436869,1532.190996,1776.494261
1366.903395,-20799.786970,2068.457845,3108.864956
1366.903707,-17320.819043,3600.648841,2146.597232
1366.904018,-11843.295072,4136.915689,-222.061783
1366.904330,-4367.215058,2068.457845,-666.185348
1366.904641,-148.041188,-842.705048,-1702.473667
1366.904953,2146.597232,-3524.039291,-2368.659014
1366.905264,814.226536,-2911.162892,-2220.617826
1366.905576,-3478.967927,0.000000,-2072.576638
1366.905888,-8882.471304,1838.629195,-1924.535449
1366.906199,-14211.954086,2604.724693,-740.205942
1366.906511,-17246.798449,2834.553343,666.185348
1366.906822,-18209.066173,1072.533697,2220.617826
1366.907134,-17024.736666,1685.410096,3330.926739
1366.907445,-14359.995275,1455.581446,1850.514855
1366.907757,-10066.800811,689.485948,2146.597232
1366.908068,-3849.070898,-1455.581446,1406.391290
1366.908380,-148.041188,-4443.353888,962.267725
1366.908691,1628.453072,-4903.011187,-592.164754
1366.909003,-1110.308913,-2834.553343,-1702.473667
1366.909314,-5477.523971,919.314598,-1998.556043
1366.909626,-9844.739029,3983.696590,-1110.308913
1366.909938,-14285.974681,3907.087040,888.247130
1366.910249,-17912.983796,1685.410096,3108.864956
1366.910561,-19171.333898,0.000000,4293.194464
1366.910872,-16210.510130,76.609550,3997.112087
1366.911184,-10510.924376,2374.896044,2590.720797
1366.911495,-5181.441594,1608.800546,888.247130
1366.911807,-518.144159,-1915.238745,1184.329507
1366.912118,1924.535449,-5669.106685,592.164754
1366.912430,1628.453072,-5898.935335,-0.000000
1366.912741,-2368.659014,-2068.457845,-666.185348
1366.913053,-7994.224174,1608.800546,-592.164754
1366.913364,-12139.377449,2987.772442,-0.000000
1366.913676,-16284.530724,2451.505594,962.267725
1366.913988,-17616.901420,919.314598,2294.638420
1366.914299,-17542.880825,766.095498,3552.988522
1366.914611,-15544.324782,1302.362347,3478.967927
1366.914922,-11029.068536,306.438199,3478.967927
1366.915234,-5847.626942,-1302.362347,2590.720797
1366.915545,-814.226536,-4443.353888,1554.432478
1366.915857,1702.473667,-6205.373534,-0.000000
1366.916168,1184.329507,-4826.401637,-1258.350101
1366.916480,-2960.823768,-766.095498,-2738.761985
1366.916791,-7328.038826,2604.724693,-2590.720797
1366.917103,-11843.295072,2834.553343,-592.164754
1366.917414,-16876.695478,1149.143247,1924.535449
1366.917726,-19097.313304,0.000000,2886.803174
1366.918038,-18357.107362,0.000000,2886.803174
1366.918349,-14434.015869,1608.800546,2146.597232
1366.918661,-9474.636058,1762.019645,962.267725
1366.918972,-3997.112087,-689.485948,-0.000000
1366.919284,888.247130,-3524.039291,-222.061783
1366.919595,592.164754,-5669.106685,-1850.514855
1366.919907,-1332.370696,-2987.772442,-1850.514855
1366.920218,-5551.544565,1915.238745,-2960.823768
1366.920530,-10510.924376,4290.134789,-3182.885551
1366.920842,-13693.809927,3907.087040,-888.247130
1366.921153,-17172.777854,2451.505594,-222.061783
1366.921465,-18801.230927,1991.848295,1184.329507
1366.921776,-17024.736666,3217.601092,2294.638420
1366.922088,-13915.871710,3064.381992,1480.411884
1366.922399,-8364.327145,1762.019645,1702.473667
1366.922711,-3627.009116,-1225.752797,666.185348
1366.923022,296.082377,-4903.011187,-740.205942
1366.923334,1406.391290,-4979.620737,-2516.700203
1366.923646,-814.226536,-1072.533697,-3330.926739
1366.923957,-6365.771101,1915.238745,-3108.864956
1366.924269,-11695.253884,3217.601092,-2368.659014
1366.924580,-17024.736666,1915.238745,518.144159
1366.924892,-19985.560434,0.000000,2664.741391
1366.925203,-19763.498651,-383.047749,3923.091493
1366.925515,-16432.571912,1302.362347,3256.906145
1366.925826,-11029.068536,1685.410096,1776.494261
1366.926138,-4663.297435,-153.219100,666.185348
1366.926450,0.000000,-3370.820191,666.185348
1366.926761,1628.453072,-4826.401637,-0.000000
1366.927073,0.000000,-4673.182538,-74.020594
1366.927384,-4071.132681,0.000000,-370.102971
1366.927696,-8586.388927,2987.772442,-888.247130
1366.928007,-12879.583391,4290.134789,-592.164754
1366.928319,-15988.448347,2987.772442,1036.288319
1366.928631,-17024.736666,1915.238745,1924.535449
1366.928942,-16728.654289,1838.629195,3478.967927
1366.929254,-13397.727550,1838.629195,2738.761985
1366.929565,-9474.636058,1149.143247,2812.782580
1366.929877,-3997.112087,-1991.848295,2516.700203
1366.930188,222.061783,-5515.887586,1776.494261
1366.930500,1628.453072,-6818.249932,296.082377
1366.930811,0.000000,-3830.477490,-814.226536
1366.931123,-3775.050304,766.095498,-1480.411884
1366.931435,-8808.450710,3064.381992,-1110.308913
1366.931746,-13027.624579,2681.334243,962.267725
1366.932058,-16950.716072,0.000000,2960.823768
1366.932369,-18949.272115,-1455.581446,3849.070898
1366.932681,-17468.860231,-306.438199,3997.112087
1366.932992,-12805.562797,1685.410096,2294.638420
1366.933304,-7698.141797,1378.971896,1702.473667
1366.933616,-2516.700203,-1378.971896,888.247130
1366.933927,518.144159,-4749.792088,222.061783
1366.934239,444.123565,-5132.839837,-296.082377
1366.934550,-2960.823768,-1685.410096,-1110.308913
1366.934862,-6809.894666,1991.848295,-1998.556043
1366.935173,-10658.965565,3600.648841,-2146.597232
1366.935485,-13693.809927,3370.820191,-962.267725
1366.935796,-16358.551318,1915.238745,592.164754
1366.936108,-17394.839637,1455.581446,1850.514855
1366.936420,-15988.448347,2374.896044,1998.556043
1366.936731,-12879.583391,2374.896044,1406.391290
1366.937043,-8216.285956,-689.485948,1332.370696
1366.937354,-3034.844362,-3830.477490,518.144159
1366.937666,444.123565,-5898.935335,-518.144159
1366.937977,1332.370696,-5362.668486,-2072.576638
1366.938289,-1702.473667,-1838.629195,-3404.947333
1366.938600,-5995.668130,1378.971896,-2590.720797
1366.938912,-11843.295072,2298.286494,-1554.432478
1366.939224,-16876.695478,1225.752797,1036.288319
1366.939535,-19171.333898,0.000000,2368.659014
1366.939847,-20059.581028,612.876398,3330.926739
1366.940158,-16062.468941,2298.286494,2146.597232
1366.940470,-10881.027347,2528.115143,518.144159
1366.940781,-4737.318029,383.047749,148.041188
1366.941093,-592.164754,-2834.553343,-0.000000
1366.941405,1036.288319,-3753.867940,-1554.432478
1366.941716,-370.102971,-1149.143247,-1702.473667
1366.942028,-4367.215058,3217.601092,-2220.617826
1366.942339,-8808.450710,5056.230287,-2294.638420
1366.942651,-13249.686362,4826.401637,-1184.329507
1366.942962,-16136.489536,2757.943793,666.185348
1366.943274,-18061.024985,536.266849,1480.411884
1366.943585,-17616.901420,1762.019645,2960.823768
1366.943897,-14211.954086,919.314598,3034.844362
1366.944209,-9474.636058,-612.876398,2442.679609
1366.944520,-3997.112087,-3064.381992,1998.556043
1366.944832,0.000000,-5515.887586,1480.411884
1366.945143,1554.432478,-5056.230287,148.041188
1366.945455,-962.267725,-1762.019645,-1554.432478
1366.945766,-5107.421000,1991.848295,-1850.514855
1366.946078,-9622.677246,4290.134789,-1702.473667
1366.946390,-14508.036463,3370.820191,-0.000000
1366.946701,-17172.777854,1915.238745,2072.576638
1366.947013,-18357.107362,536.266849,3182.885551
1366.947324,-15914.427753,1455.581446,3627.009116
1366.947636,-10584.944971,1762.019645,3404.947333
1366.947947,-5847.626942,-766.095498,2368.659014
1366.948259,-2072.576638,-3447.429741,1776.494261
1366.948570,888.247130,-4673.182538,-0.000000
1366.948882,1406.391290,-2681.334243,-814.226536
1366.949194,-2516.700203,459.657299,-1332.370696
1366.949505,-6587.832884,2681.334243,-1702.473667
1366.949817,-11547.212695,2987.772442,-1184.329507
1366.950128,-14804.118840,1991.848295,666.185348
1366.950440,-16728.654289,1072.533697,2960.823768
1366.950751,-17912.983796,-229.828649,2442.679609
1366.951063,-15100.201217,-229.828649,2664.741391
1366.951375,-10732.986159,-919.314598,2442.679609
1366.951686,-5551.544565,-2987.772442,1776.494261
1366.951998,-1776.494261,-5056.230287,814.226536
1366.952309,-148.041188,-5592.497135,518.144159
1366.952621,-1480.411884,-4443.353888,-444.123565
1366.952932,-4959.379811,0.000000,-1406.391290
1366.953244,-8290.306550,1225.752797,-1554.432478
1366.953555,-12435.459826,2451.505594,-666.185348
1366.953867,-15988.448347,919.314598,592.164754
1366.954179,-17764.942608,76.609550,1036.288319
1366.954490,-17172.777854,1072.533697,1850.514855
1366.954802,-14137.933492,2145.067394,1332.370696
1366.955113,-9918.759623,0.000000,1332.370696
1366.955425,-5625.565159,-2911.162892,1406.391290
1366.955736,-1628.453072,-4979.620737,1110.308913
1366.956048,-74.020594,-4826.401637,-444.123565
1366.956359,-1332.370696,-2528.115143,-1776.494261
1366.956671,-4737.318029,1378.971896,-2590.720797
1366.956983,-8808.450710,3140.991542,-3108.864956
1366.957294,-12731.542202,3983.696590,-1998.556043
1366.957606,-16506.592507,2451.505594,-0.000000
1366.957917,-18579.169144,1608.800546,1406.391290
1366.958229,-17468.860231,1225.752797,2516.700203
1366.958540,-13989.892304,1455.581446,1702.473667
1366.958852,-8956.491898,229.828649,1554.432478
1366.959164,-3108.864956,-1991.848295,962.267725
1366.959475,666.185348,-3983.696590,296.082377
1366.959787,222.061783,-4213.525239,-1406.391290
1366.960098,-1776.494261,229.828649,-2294.638420
1366.960410,-6883.915261,4749.792088,-3330.926739
1366.960721,-10807.006753,6052.154434,-2442.679609
1366.961033,-15100.201217,3983.696590,-370.102971
1366.961344,-18209.066173,1455.581446,1110.308913
1366.961656,-18505.148550,1072.533697,2590.720797
1366.961968,-15470.304188,1838.629195,2812.782580
1366.962279,-10732.986159,1532.190996,2664.741391
1366.962591,-5773.606348,-612.876398,2368.659014
1366.962902,-1480.411884,-3830.477490,1480.411884
1366.963214,1332.370696,-4519.963438,148.041188
1366.963525,0.000000,-2604.724693,-1332.370696
1366.963837,-3552.988522,1532.190996,-1998.556043
1366.964149,-7476.080014,3677.258390,-2294.638420
1366.964460,-11399.171507,3753.867940,-962.267725
1366.964772,-15396.283594,1532.190996,1406.391290
1366.965083,-17764.942608,612.876398,2886.803174
1366.965395,-17394.839637,0.000000,3404.947333
1366.965706,-13693.809927,229.828649,3404.947333
1366.966018,-8438.347739,-1225.752797,2442.679609
1366.966329,-3701.029710,-3064.381992,1554.432478
1366.966641,-296.082377,-4749.792088,888.247130
1366.966953,740.205942,-4749.792088,148.041188
1366.967264,-1258.350101,-3064.381992,-592.164754
1366.967576,-5403.503377,1455.581446,-444.123565
1366.967887,-10584.944971,3524.039291,-296.082377
1366.968199,-14508.036463,2374.896044,962.267725
1366.968510,-17172.777854,153.219100,1998.556043
1366.968822,-17616.901420,-536.266849,2886.803174
1366.969133,-15544.324782,0.000000,2294.638420
1366.969445,-12065.356855,0.000000,1998.556043
1366.969757,-8142.265362,-2221.676944,1406.391290
1366.970068,-3627.009116,-4213.525239,1480.411884
1366.970380,-888.247130,-6052.154434,1332.370696
1366.970691,-1850.514855,-5209.449386,370.102971
1366.971003,-3701.029710,-1915.238745,-148.041188
1366.971314,-6735.874072,1378.971896,-1332.370696
1366.971626,-9400.615463,3294.210641,-1036.288319
1366.971938,-12065.356855,2451.505594,-592.164754
1366.972249,-15988.448347,995.924147,444.123565
1366.972561,-17098.757260,306.438199,2220.617826
1366.972872,-14878.139434,1225.752797,2220.617826
1366.973184,-11325.150913,536.266849,1628.453072
1366.973495,-7105.977043,-1838.629195,1480.411884
1366.973807,-2886.803174,-4366.744339,1184.329507
1366.974118,-444.123565,-5592.497135,-0.000000
1366.974430,-888.247130,-3677.258390,-666.185348
1366.974742,-3849.070898,1838.629195,-2220.617826
1366.975053,-8364.327145,4596.572988,-3256.906145
1366.975365,-12139.377449,4903.011187,-1998.556043
1366.975676,-14730.098246,2757.943793,-444.123565
1366.975988,-17024.736666,1455.581446,666.185348
1366.976299,-16506.592507,2298.286494,1850.514855
1366.976611,-13471.748144,3217.601092,1702.473667
1366.976923,-10436.903782,1532.190996,1184.329507
1366.977234,-5255.462188,0.000000,1998.556043
1366.977546,-1480.411884,-2451.505594,-222.061783
1366.977857,-666.185348,-3140.991542,-1998.556043
1366.978169,-2590.720797,-612.876398,-3182.885551
1366.978480,-5699.585753,3217.601092,-3478.967927
1366.978792,-9178.553681,4673.182538,-2516.700203
1366.979103,-13545.768739,3753.867940,-666.185348
1366.979415,-17616.901420,689.485948,1258.350101
1366.979727,-18801.230927,0.000000,3627.009116
1366.980038,-15914.427753,919.314598,3404.947333
1366.980350,-11473.192101,842.705048,2590.720797
1366.980661,-6883.915261,-383.047749,1850.514855
1366.980973,-2146.597232,-2987.772442,1258.350101
1366.981284,1036.288319,-4749.792088,222.061783
1366.981596,888.247130,-3907.087040,-666.185348
1366.981907,-2960.823768,612.876398,-888.247130
1366.982219,-7550.100608,2757.943793,-1184.329507
1366.982531,-11843.295072,3677.258390,-74.020594
1366.982842,-14656.077652,2374.896044,1850.514855
1366.983154,-16876.695478,-229.828649,2738.761985
1366.983465,-16432.571912,-995.924147,3775.050304
1366.983777,-14063.912898,-153.219100,2886.803174
1366.984088,-9326.594869,459.657299,2146.597232
1366.984400,-4885.359217,-1608.800546,1110.308913
1366.984712,-1406.391290,-3677.258390,1110.308913
1366.985023,296.082377,-6358.592633,1554.432478
1366.985335,-1480.411884,-4903.011187,148.041188
1366.985646,-4737.318029,76.609550,-148.041188
1366.985958,-9474.636058,2987.772442,-814.226536
1366.986269,-13249.686362,2911.162892,74.020594
1366.986581,-16432.571912,1685.410096,888.247130
1366.986892,-17542.880825,-459.657299,1480.411884
1366.987204,-15544.324782,689.485948,2220.617826
1366.987516,-12805.562797,919.314598,1480.411884
1366.987827,-9252.574275,-612.876398,1924.535449
1366.988139,-4293.194464,-3447.429741,1702.473667
1366.988450,-1036.288319,-5898.935335,1924.535449
1366.988762,-518.144159,-5898.935335,1110.308913
1366.989073,-3330.926739,-3064.381992,-0.000000
1366.989385,-7031.956449,1455.581446,-1850.514855
1366.989697,-9326.594869,3983.696590,-1850.514855
1366.990008,-11325.150913,3677.258390,-1110.308913
1366.990320,-14804.118840,1302.362347,-370.102971
1366.990631,-16580.613101,689.485948,1110.308913
1366.990943,-15914.427753,842.705048,2072.576638
1366.991254,-12065.356855,842.705048,1924.535449
1366.991566,-8142.265362,-229.828649,1332.370696
1366.991877,-4293.194464,-2987.772442,814.226536
1366.992189,-1628.453072,-4903.011187,-0.000000
1366.992501,-814.226536,-3830.477490,-1776.494261
1366.992812,-2812.782580,919.314598,-2220.617826
1366.993124,-6883.915261,4903.011187,-3256.906145
1366.993435,-11177.109724,5362.668486,-2146.597232
1366.993747,-14730.098246,4060.306139,-296.082377
1366.994058,-16876.695478,2298.286494,592.164754
1366.994370,-17172.777854,1225.752797,2442.679609
1366.994682,-14878.139434,1685.410096,1554.432478
1366.994993,-10584.944971,2451.505594,740.205942
1366.995305,-5847.626942,229.828649,666.185348
1366.995616,-1554.432478,-3370.820191,222.061783
1366.995928,-518.144159,-4749.792088,-444.123565
1366.996239,-2442.679609,-3524.039291,-1406.391290
1366.996551,-5255.462188,1532.190996,-1480.411884
1366.996862,-9474.636058,4060.306139,-1850.514855
1366.997174,-12213.398043,3753.867940,-0.000000
1366.997486,-16580.613101,919.314598,888.247130
1366.997797,-17616.901420,-306.438199,2738.761985
1366.998109,-16136.489536,459.657299,3034.844362
1366.998420,-12435.459826,1532.190996,2146.597232
1366.998732,-8438.347739,612.876398,1628.453072
1366.999043,-4145.153275,-2145.067394,666.185348
1366.999355,-222.061783,-4443.353888,666.185348
1366.999666,0.000000,-4979.620737,-0.000000
1366.999978,-3256.906145,-1685.410096,-222.061783
1367.000290,-7328.038826,2604.724693,-814.226536
1367.000601,-11399.171507,3983.696590,-592.164754
1367.000913,-13619.789333,3447.429741,1110.308913
1367.001224,-15396.283594,1532.190996,2072.576638
1367.001536,-16210.510130,-383.047749,2738.761985
1367.001847,-13545.768739,153.219100,2516.700203
1367.002159,-9918.759623,536.266849,2294.638420
1367.002471,-5921.647536,-995.924147,1776.494261
1367.002782,-2442.679609,-3677.258390,1776.494261
1367.003094,-888.247130,-6128.763984,1258.350101
1367.003405,-1184.329507,-5362.668486,1184.329507
1367.003717,-3775.050304,-2068.457845,-148.041188
1367.004028,-7772.162391,1608.800546,-814.226536
1367.004340,-11399.171507,2834.553343,-592.164754
1367.004651,-14211.954086,1915.238745,592.164754
1367.004963,-16432.571912,0.000000,1776.494261
1367.005275,-16358.551318,0.000000,2812.782580
1367.005586,-14137.933492,306.438199,2516.700203
1367.005898,-10140.821405,306.438199,1554.432478
1367.006209,-5699.585753,-2757.943793,2220.617826
1367.006521,-1776.494261,-4443.353888,1628.453072
1367.006832,-444.123565,-5362.668486,-0.000000
1367.007144,-2368.659014,-2834.553343,-1036.288319
1367.007456,-5477.523971,1915.238745,-1702.473667
1367.007767,-9548.656652,4903.011187,-2220.617826
1367.008079,-12213.398043,4903.011187,-1702.473667
1367.008390,-13619.789333,2451.505594,-222.061783
1367.008702,-15692.365970,-153.219100,1184.329507
1367.009013,-15766.386565,-1149.143247,2368.659014
1367.009325,-13545.768739,76.609550,1110.308913
1367.009636,-9622.677246,-383.047749,370.102971
1367.009948,-4811.338623,-2221.676944,740.205942
1367.010260,-1850.514855,-4826.401637,296.082377
1367.010571,-1036.288319,-5056.230287,-666.185348
1367.010883,-2072.576638,-2374.896044,-888.247130
1367.011194,-5329.482782,1302.362347,-1628.453072
1367.011506,-10140.821405,4290.134789,-1776.494261
1367.011817,-14211.954086,3753.867940,-888.247130
1367.012129,-17542.880825,1991.848295,-0.000000
1367.012440,-17764.942608,1608.800546,1480.411884
1367.012752,-16136.489536,2221.676944,1258.350101
1367.013064,-13027.624579,2298.286494,592.164754
1367.013375,-7920.203579,842.705048,148.041188
1367.013687,-3552.988522,-2068.457845,370.102971
1367.013998,-1110.308913,-3677.258390,-0.000000
1367.014310,-1628.453072,-2681.334243,-740.205942
1367.014621,-4441.235652,842.705048,-1924.535449
1367.014933,-7772.162391,4060.306139,-2368.659014
1367.015245,-10584.944971,5209.449386,-1480.411884
1367.015556,-11843.295072,3064.381992,518.144159
1367.015868,-14878.139434,-1378.971896,1480.411884
1367.016179,-16284.530724,-3447.429741,2960.823768
1367.016491,-14063.912898,-2298.286494,2738.761985
1367.016802,-10066.800811,-1302.362347,1258.350101
1367.017114,-6217.729913,-2451.505594,1184.329507
1367.017426,-2664.741391,-6358.592633,1258.350101
1367.017737,-518.144159,-8656.879127,740.205942
1367.018049,-1110.308913,-6665.030833,148.041188
1367.018360,-4737.318029,-2451.505594,222.061783
1367.018672,-7772.162391,1225.752797,-370.102971
1367.018983,-11769.274478,1915.238745,296.082377
1367.019295,-13915.871710,-153.219100,1850.514855
1367.019607,-14434.015869,-2221.676944,2664.741391
1367.019918,-14211.954086,-2221.676944,3034.844362
1367.020230,-12065.356855,-1455.581446,2886.803174
1367.020541,-9696.697840,-2681.334243,1850.514855
1367.020853,-6439.791695,-4290.134789,1480.411884
1367.021164,-3923.091493,-5056.230287,1406.391290
1367.021476,-2368.659014,-5132.839837,-148.041188
1367.021788,-2738.761985,-3447.429741,-1036.288319
1367.022099,-4959.379811,-612.876398,-1258.350101
1367.022411,-7772.162391,536.266849,-2146.597232
1367.022722,-10807.006753,-153.219100,-666.185348
1367.023034,-13545.768739,-1915.238745,1110.308913
1367.023345,-15396.283594,-3294.210641,2590.720797
1367.023657,-14730.098246,-4213.525239,3627.009116
1367.023969,-13249.686362,-5669.106685,3627.009116
1367.024280,-11103.089130,-8273.831378,3478.967927
1367.024592,-7105.977043,-8580.269578,2442.679609
1367.024903,-4737.318029,-7967.393179,1258.350101
1367.025215,-3256.906145,-5745.716235,-148.041188
1367.025526,-3849.070898,-3140.991542,-1036.288319
1367.025838,-5181.441594,-2451.505594,-2368.659014
1367.026150,-5921.647536,-459.657299,-2220.617826
1367.026461,-8734.430116,-153.219100,-1924.535449
1367.026773,-11695.253884,-995.924147,-518.144159
1367.027084,-14878.139434,-995.924147,-0.000000
1367.027396,-15914.427753,-612.876398,1554.432478
1367.027707,-14656.077652,-1685.410096,2368.659014
1367.028019,-12287.418637,-3447.429741,2960.823768
1367.028331,-9030.512492,-5362.668486,2738.761985
1367.028642,-4737.318029,-6971.469032,1998.556043
1367.028954,-1554.432478,-6971.469032,-74.020594
1367.029265,-1110.308913,-5209.449386,-2664.741391
1367.029577,-2146.597232,-2604.724693,-4441.235652
1367.029888,-4811.338623,-383.047749,-5255.462188
1367.030200,-8586.388927,-306.438199,-4071.132681
1367.030512,-12583.501014,-383.047749,-1554.432478
1367.030823,-16210.510130,-1455.581446,740.205942
1367.031135,-17172.777854,-2757.943793,2738.761985
1367.031446,-15100.201217,-3983.696590,3404.947333
1367.031758,-12065.356855,-5209.449386,2886.803174
1367.032069,-8438.347739,-4979.620737,2294.638420
1367.032381,-6217.729913,-4290.134789,814.226536
1367.032693,-4737.318029,-1915.238745,-0.000000
1367.033004,-4219.173869,76.609550,-444.123565
1367.033316,-5107.421000,536.266849,-1406.391290
1367.033627,-6365.771101,536.266849,-1554.432478
1367.033939,-7105.977043,0.000000,-1850.514855
1367.034250,-8290.306550,-1302.362347,-1554.432478
1367.034562,-9474.636058,-2757.943793,-518.144159
1367.034874,-11695.253884,-3983.696590,518.144159
1367.035185,-12731.542202,-5439.278036,2072.576638
1367.035497,-12879.583391,-6971.469032,3923.091493
1367.035808,-11991.336260,-7124.688131,4589.276840
1367.036120,-10658.965565,-6435.202183,3701.029710
1367.036431,-8660.409521,-4673.182538,2368.659014
1367.036743,-6883.915261,-2298.286494,1036.288319
1367.037055,-5033.400406,-306.438199,-888.247130
1367.037366,-4219.173869,1072.533697,-1924.535449
1367.037678,-4515.256246,1072.533697,-2072.576638
1367.037989,-5551.544565,-459.657299,-1776.494261
1367.038301,-8586.388927,-842.705048,-962.267725
1367.038612,-10807.006753,-2757.943793,1406.391290
1367.038924,-12213.398043,-5286.058936,3478.967927
1367.039236,-13027.624579,-6741.640382,4737.318029
1367.039547,-12583.501014,-6358.592633,4885.359217
1367.039859,-10955.047942,-5056.230287,3627.009116
1367.040170,-9474.636058,-2681.334243,1850.514855
1367.040482,-6809.894666,-766.095498,814.226536
1367.040793,-4293.194464,0.000000,-370.102971
1367.041105,-3775.050304,842.705048,-2146.597232
1367.041417,-3997.112087,383.047749,-1406.391290
1367.041728,-5329.482782,-1149.143247,-1036.288319
1367.042040,-7846.182985,-3370.820191,-0.000000
1367.042351,-10288.862594,-4596.572988,962.267725
1367.042663,-11917.315666,-6128.763984,1702.473667
1367.042974,-13027.624579,-5898.935335,2368.659014
1367.043286,-12805.562797,-5822.325785,2368.659014
1367.043598,-11843.295072,-5822.325785,2738.761985
1367.043909,-10510.924376,-4749.792088,1850.514855
1367.044221,-8586.388927,-3370.820191,1628.453072
1367.044532,-6217.729913,-2604.724693,444.123565
1367.044844,-4737.318029,-1455.581446,-888.247130
1367.045155,-4663.297435,-766.095498,-1850.514855
1367.045467,-5329.482782,-536.266849,-2368.659014
1367.045779,-7402.059420,-1149.143247,-2738.761985
1367.046090,-9030.512492,-1225.752797,-1554.432478
1367.046402,-11177.109724,-2451.505594,-222.061783
1367.046713,-12657.521608,-4213.525239,1110.308913
1367.047025,-12953.603985,-5132.839837,2146.597232
1367.047336,-12657.521608,-4673.182538,2294.638420
1367.047648,-10658.965565,-4060.306139,1480.411884
1367.047960,-7254.018232,-3140.991542,814.226536
1367.048271,-8438.347739,-2987.772442,-1406.391290
1367.048583,-6217.729913,-1608.800546,-1110.308913
1367.048894,-5847.626942,-1072.533697,-2960.823768
1367.049206,-7105.977043,-2451.505594,-1258.350101
1367.049517,-10510.924376,-3983.696590,-1036.288319
1367.049829,-12583.501014,-4596.572988,740.205942
1367.050141,-12287.418637,-3140.991542,1554.432478
1367.050452,-12139.377449,-2911.162892,3108.864956
1367.050764,-11325.150913,-4749.792088,3849.070898
1367.051075,-9844.739029,-4903.011187,3256.906145
1367.051387,-7994.224174,-3677.258390,3182.885551
1367.051698,-6735.874072,-1378.971896,2220.617826
1367.052010,-8068.244768,0.000000,1406.391290
1367.052322,-9474.636058,995.924147,444.123565
1367.052633,-8438.347739,1608.800546,666.185348
1367.052945,-8068.244768,-536.266849,370.102971
1367.053256,-6439.791695,0.000000,1628.453072
1367.053568,-7846.182985,-689.485948,1406.391290
1367.053880,-8586.388927,-3447.429741,3404.947333
1367.054191,-9326.594869,-4903.011187,4811.338623
1367.054503,-9326.594869,-4290.134789,5773.606348
1367.054814,-9696.697840,-1149.143247,7179.997637
1367.055126,-12213.398043,-1762.019645,6365.771101
1367.055437,-9696.697840,-1072.533697,6661.853478
1367.055749,-6809.894666,919.314598,4071.132681
1367.056061,-5625.565159,2298.286494,3552.988522
1367.056372,-5107.421000,2145.067394,1850.514855
1367.056684,-6069.688724,536.266849,888.247130
1367.056995,-7402.059420,1072.533697,1924.535449
1367.057307,-6513.812290,2145.067394,2516.700203
1367.057618,-10881.027347,229.828649,3256.906145
1367.057930,-11621.233289,0.000000,7105.977043
1367.058242,-11769.274478,-1455.581446,7254.018232
1367.058553,-9104.533087,-2221.676944,7772.162391
1367.058865,-7994.224174,-1072.533697,7254.018232
1367.059176,-9178.553681,919.314598,6217.729913
1367.059488,-7402.059420,1072.533697,4885.359217
1367.059799,-6069.688724,919.314598,2886.803174
1367.060111,-5181.441594,1455.581446,2664.741391
1367.060423,-7476.080014,2221.676944,1628.453072
1367.060734,-8956.491898,1149.143247,2960.823768
1367.061046,-9104.533087,-612.876398,3923.091493
1367.061357,-8660.409521,-1838.629195,5181.441594
1367.061669,-8956.491898,-2834.553343,6365.771101
1367.061980,-9252.574275,-3294.210641,6883.915261
1367.062292,-9400.615463,-3064.381992,5921.647536
1367.062604,-8660.409521,-612.876398,6069.688724
1367.062915,-8734.430116,1532.190996,4367.215058
1367.063227,-9696.697840,2298.286494,3997.112087
1367.063538,-9992.780217,2221.676944,2812.782580
1367.063850,-7698.141797,3217.601092,2516.700203
1367.064161,-6735.874072,2451.505594,1480.411884
1367.064473,-6217.729913,1225.752797,1850.514855
1367.064785,-6809.894666,459.657299,1406.391290
1367.065096,-6291.750507,-919.314598,2442.679609
1367.065408,-6069.688724,-995.924147,3256.906145
1367.065719,-7402.059420,-2221.676944,3701.029710
1367.066031,-9918.759623,-1762.019645,4663.297435
1367.066342,-11325.150913,-919.314598,4515.256246
1367.066654,-11769.274478,-459.657299,3627.009116
1367.066966,-11251.130318,229.828649,3108.864956
1367.067277,-11177.109724,229.828649,1850.514855
1367.067589,-10214.842000,459.657299,444.123565
1367.067900,-8956.491898,689.485948,-74.020594
1367.068212,-7994.224174,1302.362347,148.041188
1367.068523,-9178.553681,153.219100,1110.308913
1367.068835,-10658.965565,-1532.190996,2960.823768
1367.069147,-10066.800811,-2451.505594,4071.132681
1367.069458,-10140.821405,-1991.848295,4885.359217
1367.069770,-8512.368333,-1762.019645,5033.400406
1367.070081,-8808.450710,-1608.800546,3923.091493
1367.070393,-7994.224174,-612.876398,2368.659014
1367.070704,-7105.977043,612.876398,1480.411884
1367.071016,-7698.141797,1838.629195,-222.061783
1367.071328,-8882.471304,2604.724693,-518.144159
1367.071639,-10362.883188,2528.115143,370.102971
1367.071951,-11103.089130,842.705048,1776.494261
1367.072262,-11251.130318,536.266849,3849.070898
1367.072574,-11473.192101,-766.095498,5107.421000
1367.072885,-11473.192101,-1991.848295,6439.791695
1367.073197,-9474.636058,-2681.334243,6217.729913
1367.073509,-5551.544565,-2528.115143,5033.400406
1367.073820,-3478.967927,-2221.676944,3182.885551
1367.074132,-3627.009116,-2604.724693,2072.576638
1367.074443,-5403.503377,-1378.971896,1554.432478
1367.074755,-8808.450710,306.438199,2220.617826
1367.075066,-11473.192101,2451.505594,3775.050304
1367.075378,-13619.789333,2374.896044,5255.462188
1367.075690,-13915.871710,1149.143247,6069.688724
1367.076001,-10955.047942,0.000000,5921.647536
1367.076313,-6365.771101,153.219100,4885.359217
1367.076624,-3627.009116,536.266849,3775.050304
1367.076936,-2886.803174,536.266849,1924.535449
1367.077247,-2812.782580,689.485948,1110.308913
1367.077559,-5403.503377,766.095498,1554.432478
1367.077871,-9252.574275,1302.362347,2738.761985
1367.078182,-13175.665768,1762.019645,3849.070898
1367.078494,-15766.386565,1915.238745,5033.400406
1367.078805,-14582.057057,1302.362347,5625.565159
1367.079117,-10362.883188,-612.876398,5403.503377
1367.079428,-7772.162391,-1608.800546,3701.029710
1367.079740,-4737.318029,-1225.752797,3256.906145
1367.080052,-3404.947333,-766.095498,3182.885551
1367.080363,-4959.379811,-536.266849,4515.256246
1367.080675,-9474.636058,153.219100,5921.647536
1367.080986,-13101.645173,229.828649,7328.038826
1367.081298,-13545.768739,-229.828649,7698.141797
1367.081609,-12287.418637,842.705048,5625.565159
1367.081921,-8142.265362,2221.676944,3182.885551
1367.082233,-4737.318029,2528.115143,370.102971
1367.082544,-3552.988522,1991.848295,-1110.308913
1367.082856,-4589.276840,1149.143247,-592.164754
1367.083167,-7994.224174,1378.971896,1332.370696
1367.083479,-11103.089130,842.705048,4441.235652
1367.083790,-14063.912898,-1378.971896,6883.915261
1367.084102,-14582.057057,-2528.115143,9030.512492
1367.084414,-13323.706956,-3983.696590,9178.553681
1367.084725,-10288.862594,-3140.991542,8882.471304
1367.085037,-7254.018232,-2145.067394,6587.832884
1367.085348,-5403.503377,-995.924147,4219.173869
1367.085660,-4293.194464,1225.752797,1332.370696
1367.085971,-2812.782580,2604.724693,-296.082377
1367.086283,-3404.947333,3524.039291,-1332.370696
1367.086595,-5403.503377,4443.353888,-0.000000
1367.086906,-6883.915261,3294.210641,888.247130
1367.087218,-7994.224174,919.314598,2072.576638
1367.087529,-9400.615463,-842.705048,2960.823768
1367.087841,-11399.171507,-1225.752797,3552.988522
1367.088152,-12435.459826,-229.828649,3404.947333
1367.088464,-12879.583391,995.924147,2294.638420
1367.088776,-12583.501014,1455.581446,2516.700203
1367.089087,-10066.800811,459.657299,2220.617826
1367.089399,-8068.244768,-306.438199,2294.638420
1367.089710,-5773.606348,-612.876398,1110.308913
1367.090022,-3849.070898,0.000000,-296.082377
1367.090333,-2146.597232,153.219100,-1998.556043
1367.090645,-2072.576638,229.828649,-3478.967927
1367.090957,-3849.070898,0.000000,-4071.132681
1367.091268,-8216.285956,-1762.019645,-3330.926739
1367.091580,-14063.912898,0.000000,-666.185348
1367.091891,-19615.457463,0.000000,2220.617826
1367.092203,-23686.590144,-306.438199,4515.256246
1367.092514,-23168.445985,-153.219100,5921.647536
1367.092826,-18949.272115,-766.095498,5255.462188
1367.093138,-11473.192101,-1302.362347,2960.823768
1367.093449,-3330.926739,-306.438199,-1110.308913
1367.093761,3923.091493,612.876398,-5329.482782
1367.094072,6809.894666,1072.533697,-8586.388927
1367.094384,3923.091493,1302.362347,-6809.894666
1367.094695,-4071.132681,0.000000,-4589.276840
1367.095007,-11917.315666,-1685.410096,-1258.350101
1367.095319,-18135.045579,-2451.505594,2812.782580
1367.095630,-21984.116477,-2068.457845,5847.626942
1367.095942,-21762.054695,-2604.724693,6513.812290
1367.096253,-18357.107362,-1915.238745,4441.235652
1367.096565,-13693.809927,-1608.800546,3330.926739
1367.096876,-7772.162391,0.000000,1628.453072
1367.097188,-2220.617826,1608.800546,-814.226536
1367.097500,2294.638420,2451.505594,-3404.947333
1367.097811,4219.173869,2681.334243,-4589.276840
1367.098123,3034.844362,2987.772442,-5551.544565
1367.098434,0.000000,2528.115143,-4885.359217
1367.098746,-6291.750507,919.314598,-2516.700203
1367.099057,-13323.706956,-306.438199,-0.000000
1367.099369,-20281.642811,-995.924147,3552.988522
1367.099681,-23834.631332,-1225.752797,5995.668130
1367.099992,-22946.384202,-995.924147,7105.977043
1367.100304,-17394.839637,-689.485948,6957.935855
1367.100615,-9104.533087,229.828649,4071.132681
1367.100927,-370.102971,306.438199,888.247130
1367.101238,6217.729913,689.485948,-2294.638420
1367.101550,8438.347739,919.314598,-4589.276840
1367.101862,4959.379811,2068.457845,-5255.462188
1367.102173,-1776.494261,2451.505594,-4293.194464
1367.102485,-10436.903782,612.876398,-3108.864956
1367.102796,-18653.189738,612.876398,-0.000000
1367.103108,-23612.569550,612.876398,3849.070898
1367.103420,-25241.022622,-689.485948,6513.812290
1367.103731,-21910.095883,-2604.724693,8216.285956
1367.104043,-16580.613101,-3907.087040,7105.977043
1367.104354,-8734.430116,-3140.991542,5847.626942
1367.104666,0.000000,-1225.752797,2146.597232
1367.104977,4811.338623,0.000000,-1258.350101
1367.105289,7105.977043,1991.848295,-4737.318029
1367.105601,4811.338623,2451.505594,-6217.729913
1367.105912,-1036.288319,3294.210641,-6809.894666
1367.106224,-9030.512492,2681.334243,-4293.194464
1367.106535,-17394.839637,1532.190996,-814.226536
1367.106847,-24278.754898,-459.657299,3034.844362
1367.107158,-27239.578666,-2451.505594,7179.997637
1367.107470,-25685.146187,-3830.477490,7772.162391
1367.107782,-19245.354492,-1915.238745,8216.285956
1367.108093,-10436.903782,-1838.629195,6069.688724
1367.108405,-444.123565,-1838.629195,2220.617826
1367.108716,6957.935855,-306.438199,-1480.411884
1367.109028,10658.965565,1302.362347,-5477.523971
1367.109339,8660.409521,2451.505594,-7031.956449
1367.109651,2072.576638,1991.848295,-6809.894666
1367.109963,-6809.894666,1532.190996,-4515.256246
1367.110274,-15766.386565,766.095498,-444.123565
1367.110586,-23168.445985,0.000000,3997.112087
1367.110897,-26425.352129,-2145.067394,8068.244768
1367.111209,-24574.837274,-3447.429741,9474.636058
1367.111520,-17542.880825,-3907.087040,8216.285956
1367.111832,-8364.327145,-3064.381992,5921.647536
1367.112144,1184.329507,-1378.971896,1258.350101
1367.112455,7772.162391,919.314598,-3627.009116
1367.112767,10362.883188,2451.505594,-7031.956449
1367.113078,6587.832884,3907.087040,-8438.347739
1367.113390,-444.123565,2528.115143,-8290.306550
1367.113701,-9400.615463,2757.943793,-5329.482782
1367.114013,-18653.189738,2068.457845,-1850.514855
1367.114325,-25463.084405,76.609550,2738.761985
1367.114636,-27535.661042,-2451.505594,5995.668130
1367.114948,-24352.775492,-4749.792088,7698.141797
1367.115259,-17172.777854,-3983.696590,6587.832884
1367.115571,-8068.244768,-2604.724693,4219.173869
1367.115882,222.061783,-1685.410096,-222.061783
1367.116194,6587.832884,229.828649,-5107.421000
1367.116506,8586.388927,2374.896044,-8808.450710
1367.116817,5033.400406,3907.087040,-9696.697840
1367.117129,-2516.700203,4519.963438,-9252.574275
1367.117440,-12509.480420,3294.210641,-5921.647536
1367.117752,-21465.972318,2757.943793,-666.185348
1367.118063,-26795.455100,76.609550,3552.988522
1367.118375,-27757.722825,-2221.676944,6513.812290
1367.118686,-22650.301825,-4213.525239,7328.038826
1367.118998,-14656.077652,-4903.011187,6513.812290
1367.119309,-3478.967927,-4290.134789,3923.091493
1367.119621,3923.091493,-2145.067394,-1480.411884
1367.119932,8438.347739,-536.266849,-5181.441594
1367.120244,6365.771101,2528.115143,-5551.544565
1367.120555,666.185348,3983.696590,-6069.688724
1367.120867,-7402.059420,3064.381992,-6513.812290
1367.121178,-14211.954086,2987.772442,-3997.112087
1367.121490,-19023.292709,2757.943793,-370.102971
1367.121801,-20651.745782,-229.828649,1924.535449
1367.122113,-20355.663405,-4290.134789,4293.194464
1367.122424,-16506.592507,-5822.325785,6291.750507
1367.122736,-13027.624579,-5056.230287,7105.977043
1367.123047,-6291.750507,-3983.696590,7105.977043
1367.123358,-1924.535449,-2451.505594,2886.803174
1367.123670,2220.617826,-1378.971896,-148.041188
1367.123981,3701.029710,1838.629195,-4589.276840
1367.124293,2442.679609,4903.011187,-7476.080014
1367.124604,-2294.638420,6281.983084,-8956.491898
1367.124916,-8956.491898,5745.716235,-6143.709319
1367.125227,-16580.613101,3217.601092,-1406.391290
1367.125539,-21539.992912,0.000000,3478.967927
1367.125850,-23464.528361,-3447.429741,7994.224174
1367.126162,-20503.704593,-4903.011187,9844.739029
1367.126473,-13915.871710,-4519.963438,9474.636058
1367.126785,-5329.482782,-4136.915689,5625.565159
1367.127096,2072.576638,-2298.286494,740.205942
1367.127408,5255.462188,306.438199,-2072.576638
1367.127719,3997.112087,2528.115143,-6143.709319
1367.128031,-666.185348,5056.230287,-6217.729913
1367.128342,-6735.874072,5515.887586,-7031.956449
1367.128653,-12435.459826,4673.182538,-3997.112087
1367.128965,-18357.107362,2221.676944,-518.144159
1367.129276,-20429.683999,-1455.581446,3997.112087
1367.129588,-19467.416275,-4903.011187,7550.100608
1367.129899,-15470.304188,-6205.373534,8290.306550
1367.130211,-11029.068536,-4443.353888,7550.100608
1367.130522,-6661.853478,-4673.182538,5847.626942
1367.130834,962.267725,-2681.334243,2146.597232
1367.131145,3775.050304,459.657299,-3182.885551
1367.131457,1998.556043,3140.991542,-7105.977043
1367.131768,-2146.597232,6052.154434,-6735.874072
1367.132080,-7179.997637,6128.763984,-7994.224174
1367.132391,-14730.098246,4826.401637,-4219.173869
1367.132703,-20429.683999,1915.238745,740.205942
1367.133014,-21762.054695,-1532.190996,4811.338623
1367.133325,-19689.478057,-4366.744339,7105.977043
1367.133637,-14063.912898,-6281.983084,7698.141797
1367.133948,-4811.338623,-6511.811733,6587.832884
1367.134260,-370.102971,-4903.011187,3701.029710
1367.134571,1776.494261,-1915.238745,148.041188
1367.134883,3552.988522,842.705048,-1628.453072
1367.135194,-1036.288319,1608.800546,-5033.400406
1367.135506,-6883.915261,3600.648841,-4737.318029
1367.135817,-11695.253884,5975.544884,-5551.544565
1367.136129,-15544.324782,5209.449386,-3330.926739
1367.136440,-18579.169144,2604.724693,-148.041188
1367.136752,-18061.024985,-842.705048,2738.761985
1367.137063,-14359.995275,-4290.134789,4737.318029
1367.137375,-10066.800811,-4136.915689,6883.915261
1367.137686,-6143.709319,-4596.572988,6439.791695
1367.137997,-1776.494261,-3370.820191,4515.256246
1367.138309,-592.164754,-2221.676944,-148.041188
1367.138620,-370.102971,536.266849,-1924.535449
1367.138932,-2294.638420,2681.334243,-5255.462188
1367.139243,-6143.709319,5132.839837,-5477.523971
1367.139555,-12583.501014,6052.154434,-5847.626942
1367.139866,-16136.489536,4443.353888,-3256.906145
1367.140178,-18875.251521,766.095498,-222.061783
1367.140489,-18579.169144,-2068.457845,4219.173869
1367.140801,-14952.160028,-3677.258390,6069.688724
1367.141112,-9992.780217,-5286.058936,7179.997637
1367.141424,-4293.194464,-5362.668486,5477.523971
1367.141735,0.000000,-2987.772442,2886.803174
1367.142047,148.041188,-1225.752797,-444.123565
1367.142358,-1924.535449,1685.410096,-2812.782580
1367.142670,-4959.379811,4060.306139,-4737.318029
1367.142981,-10288.862594,5745.716235,-4219.173869
1367.143292,-17246.798449,6818.249932,-3256.906145
1367.143604,-19689.478057,4596.572988,222.061783
1367.143915,-19319.375086,0.000000,3627.009116
1367.144227,-15322.262999,-3753.867940,6735.874072
1367.144538,-8512.368333,-5975.544884,6143.709319
1367.144850,-2072.576638,-6052.154434,5255.462188
1367.145161,3849.070898,-4826.401637,3627.009116
1367.145473,1924.535449,-3217.601092,2294.638420
1367.145784,-2812.782580,-1225.752797,2368.659014
1367.146096,-7698.141797,1302.362347,740.205942
1367.146407,-11547.212695,2298.286494,-888.247130
1367.146719,-14063.912898,4060.306139,-592.164754
1367.147030,-14508.036463,4596.572988,-1998.556043
1367.147342,-12213.398043,2068.457845,-2146.597232
1367.147653,-11473.192101,-1455.581446,148.041188
1367.147964,-9770.718434,-3217.601092,3627.009116
1367.148276,-8068.244768,-3983.696590,5847.626942
1367.148587,-7624.121203,-3983.696590,7105.977043
1367.148899,-6439.791695,-2987.772442,7254.018232
1367.149210,-3923.091493,-1838.629195,3256.906145
1367.149522,-1036.288319,229.828649,1036.288319
1367.149833,-3404.947333,2604.724693,-2960.823768
1367.150145,-5847.626942,4596.572988,-5255.462188
1367.150456,-9622.677246,6435.202183,-5995.668130
1367.150768,-14063.912898,6052.154434,-4737.318029
1367.151079,-17024.736666,2528.115143,-1702.473667
1367.151391,-16950.716072,229.828649,2664.741391
1367.151702,-14137.933492,-2604.724693,5255.462188
1367.152014,-9548.656652,-3524.039291,6069.688724
1367.152325,-5403.503377,-4213.525239,6069.688724
1367.152637,-3701.029710,-2528.115143,3627.009116
1367.152948,-1628.453072,-766.095498,-74.020594
1367.153259,-666.185348,383.047749,-2220.617826
1367.153571,-5921.647536,2987.772442,-4811.338623
1367.153882,-10510.924376,3370.820191,-5625.565159
1367.154194,-13915.871710,5209.449386,-4367.215058
1367.154505,-15470.304188,3447.429741,-2072.576638
1367.154817,-17394.839637,-306.438199,666.185348
1367.155128,-16210.510130,-4060.306139,4219.173869
1367.155440,-11843.295072,-5056.230287,5699.585753
1367.155751,-7920.203579,-4519.963438,5847.626942
1367.156063,-3923.091493,-3140.991542,4441.235652
1367.156374,74.020594,-1608.800546,1480.411884
1367.156686,-148.041188,-1915.238745,-2442.679609
1367.156997,-2664.741391,1838.629195,-4071.132681
1367.157309,-6513.812290,3677.258390,-5329.482782
1367.157620,-11843.295072,4290.134789,-4663.297435
1367.157931,-18875.251521,4749.792088,-2738.761985
1367.158243,-21391.951724,2451.505594,740.205942
1367.158554,-20577.725188,0.000000,3034.844362
1367.158866,-15248.242405,-1991.848295,4737.318029
1367.159177,-9104.533087,-2451.505594,3849.070898
1367.159489,-2146.597232,-2911.162892,3034.844362
1367.159800,3330.926739,-1608.800546,962.267725
1367.160112,3182.885551,-306.438199,-962.267725
1367.160423,444.123565,0.000000,-444.123565
1367.160735,-6439.791695,1302.362347,-1110.308913
1367.161046,-11325.150913,2911.162892,-1702.473667
1367.161358,-15766.386565,4213.525239,-518.144159
1367.161669,-17320.819043,3753.867940,-592.164754
1367.161981,-15988.448347,842.705048,-74.020594
1367.162292,-13545.768739,-1915.238745,1480.411884
1367.162604,-9252.574275,-3600.648841,3552.988522
1367.162915,-6291.750507,-3830.477490,4663.297435
1367.163226,-3108.864956,-3217.601092,5477.523971
1367.163538,-2146.597232,-3064.381992,4737.318029
1367.163849,-2664.741391,-2451.505594,2368.659014
1367.164161,-3775.050304,76.609550,1332.370696
1367.164472,-6957.935855,2068.457845,-740.205942
1367.164784,-10436.903782,3294.210641,-2442.679609
1367.165095,-14063.912898,4290.134789,-3182.885551
1367.165407,-15396.283594,3753.867940,-1998.556043
1367.165718,-15322.262999,1149.143247,-296.082377
1367.166030,-13767.830521,-1072.533697,2960.823768
1367.166341,-11029.068536,-2374.896044,5107.421000
1367.166653,-7179.997637,-2834.553343,5921.647536
1367.166964,-2886.803174,-2604.724693,5773.606348
1367.167276,-1480.411884,-1378.971896,3849.070898
1367.167587,-1554.432478,153.219100,666.185348
1367.167898,-3034.844362,2681.334243,-3330.926739
1367.168210,-5477.523971,4519.963438,-5181.441594
1367.168521,-9696.697840,6281.983084,-4959.379811
1367.168833,-14804.118840,5745.716235,-3182.885551
1367.169144,-18061.024985,2834.553343,740.205942
1367.169456,-19319.375086,-1915.238745,4515.256246
1367.169767,-15692.365970,-5132.839837,6661.853478
1367.170079,-9548.656652,-5592.497135,6143.709319
1367.170390,-3701.029710,-3294.210641,5551.544565
1367.170702,-444.123565,-2451.505594,3701.029710
1367.171013,1776.494261,-1762.019645,-518.144159
1367.171325,444.123565,-1838.629195,-1998.556043
1367.171636,-4959.379811,1072.533697,-2590.720797
1367.171948,-9548.656652,1608.800546,-2812.782580
1367.172259,-12731.542202,3677.258390,-2960.823768
1367.172571,-15988.448347,2987.772442,-1702.473667
1367.172882,-16580.613101,0.000000,-0.000000
1367.173193,-14952.160028,-3370.820191,2146.597232
1367.173505,-11843.295072,-2451.505594,3552.988522
1367.173816,-8512.368333,-2221.676944,3701.029710
1367.174128,-4515.256246,-2145.067394,3330.926739
1367.174439,-2072.576638,-1915.238745,1258.350101
1367.174751,-148.041188,-153.219100,-1184.329507
1367.175062,-666.185348,1838.629195,-3849.070898
1367.175374,-4145.153275,2604.724693,-5477.523971
1367.175685,-9178.553681,3753.867940,-4811.338623
1367.175997,-16210.510130,4213.525239,-4737.318029
1367.176308,-19393.395680,2681.334243,-1406.391290
1367.176620,-20429.683999,0.000000,370.102971
1367.176931,-17616.901420,-1838.629195,2220.617826
1367.177243,-12583.501014,-2681.334243,2442.679609
1367.177554,-7846.182985,-2451.505594,2664.741391
1367.177865,-3330.926739,-1915.238745,2812.782580
1367.178177,0.000000,-1225.752797,-444.123565
1367.178488,814.226536,-1302.362347,-1406.391290
1367.178800,-3404.947333,-229.828649,-3701.029710
1367.179111,-7328.038826,1455.581446,-4959.379811
1367.179423,-11769.274478,4060.306139,-5477.523971
1367.179734,-16358.551318,4290.134789,-3627.009116
1367.180046,-18875.251521,1685.410096,-962.267725
1367.180357,-19319.375086,-3064.381992,2368.659014
1367.180669,-15988.448347,-4826.401637,4811.338623
1367.180980,-10955.047942,-4979.620737,5255.462188
1367.181292,-3849.070898,-4519.963438,4219.173869
1367.181603,962.267725,-2834.553343,1924.535449
1367.181915,2960.823768,-1072.533697,-1702.473667
1367.182226,1184.329507,536.266849,-2738.761985
1367.182538,-4219.173869,1915.238745,-3552.988522
1367.182849,-11177.109724,3907.087040,-3330.926739
1367.183160,-16506.592507,5439.278036,-2738.761985
1367.183472,-19245.354492,4443.353888,-370.102971
1367.183783,-18283.086767,1378.971896,370.102971
1367.184095,-14952.160028,-1915.238745,2590.720797
1367.184406,-10288.862594,-3600.648841,3627.009116
1367.184718,-6291.750507,-3677.258390,4737.318029
1367.185029,-2886.803174,-2528.115143,3849.070898
1367.185341,296.082377,-1302.362347,2960.823768
1367.185652,1258.350101,-1455.581446,814.226536
1367.185964,-1924.535449,76.609550,-666.185348
1367.186275,-4885.359217,2068.457845,-2294.638420
1367.186587,-8586.388927,3447.429741,-2960.823768
1367.186898,-12805.562797,3830.477490,-3034.844362
1367.187210,-16580.613101,2451.505594,-1036.288319
1367.187521,-17098.757260,-306.438199,1702.473667
1367.187832,-15914.427753,-3447.429741,3627.009116
1367.188144,-11769.274478,-3983.696590,5033.400406
1367.188455,-8142.265362,-3294.210641,5551.544565
1367.188767,-3256.906145,-1991.848295,4367.215058
1367.189078,-370.102971,-1455.581446,1332.370696
1367.189390,444.123565,-459.657299,740.205942
1367.189701,-2516.700203,689.485948,-1776.494261
1367.190013,-6069.688724,3294.210641,-3552.988522
1367.190324,-10881.027347,4060.306139,-4071.132681
1367.190636,-14359.995275,5056.230287,-3775.050304
1367.190947,-16728.654289,2911.162892,-1480.411884
1367.191259,-18653.189738,-612.876398,1258.350101
1367.191570,-16062.468941,-3217.601092,4219.173869
1367.191882,-12213.398043,-4136.915689,5181.441594
1367.192193,-7402.059420,-3524.039291,5551.544565
1367.192504,-3330.926739,-2757.943793,3997.112087
1367.192816,-666.185348,-1838.629195,518.144159
1367.193127,0.000000,-306.438199,-1850.514855
1367.193439,-2442.679609,2068.457845,-4737.318029
1367.193750,-6439.791695,3600.648841,-5625.565159
1367.194062,-12509.480420,4903.011187,-5107.421000
1367.194373,-17172.777854,3753.867940,-2368.659014
1367.194685,-19541.436869,229.828649,1258.350101
1367.194996,-19097.313304,-4136.915689,4441.235652
1367.195308,-16284.530724,-4366.744339,6439.791695
1367.195619,-10807.006753,-4060.306139,6513.812290
1367.195931,-3552.988522,-3447.429741,4367.215058
1367.196242,2146.597232,-2451.505594,1776.494261
1367.196554,5477.523971,-1532.190996,-1776.494261
1367.196865,2664.741391,0.000000,-4293.194464
1367.197177,-2812.782580,1991.848295,-5181.441594
1367.197488,-10140.821405,4903.011187,-3404.947333
