#time,accel_x,accel_y,accel_z
1445.297316,-8734.430116,153.219100,444.123565
1445.297628,-9252.574275,0.000000,370.102971
1445.297939,-9030.512492,0.000000,592.164754
1445.298250,-9030.512492,0.000000,444.123565
1445.298562,-8882.471304,0.000000,370.102971
1445.298873,-8734.430116,0.000000,592.164754
1445.299184,-9252.574275,0.000000,296.082377
1445.299495,-8734.430116,-689.485948,370.102971
1445.299807,-8660.409521,76.609550,592.164754
1445.300118,-8956.491898,-229.828649,370.102971
1445.300429,-8956.491898,-383.047749,518.144159
1445.300740,-8956.491898,0.000000,592.164754
1445.301052,-8956.491898,0.000000,370.102971
1445.301363,-8956.491898,0.000000,370.102971
1445.301674,-8956.491898,153.219100,444.123565
1445.301986,-8808.450710,0.000000,962.267725
1445.302297,-8882.471304,153.219100,296.082377
1445.302608,-8956.491898,0.000000,444.123565
1445.302919,-9030.512492,0.000000,592.164754
1445.303231,-8956.491898,153.219100,518.144159
1445.303542,-8882.471304,0.000000,518.144159
1445.303853,-8808.450710,306.438199,962.267725
1445.304164,-8734.430116,-229.828649,370.102971
1445.304476,-8438.347739,-766.095498,592.164754
1445.304787,-8808.450710,0.000000,444.123565
1445.305098,-9178.553681,0.000000,518.144159
1445.305410,-8808.450710,0.000000,444.123565
1445.305721,-8734.430116,-153.219100,592.164754
1445.306032,-8660.409521,0.000000,666.185348
1445.306343,-8882.471304,0.000000,148.041188
1445.306655,-8882.471304,229.828649,222.061783
1445.306966,-8882.471304,383.047749,518.144159
1445.307277,-9252.574275,0.000000,148.041188
1445.307588,-8734.430116,0.000000,592.164754
1445.307900,-8734.430116,0.000000,518.144159
1445.308211,-8956.491898,-229.828649,740.205942
1445.308522,-8808.450710,0.000000,518.144159
1445.308834,-9030.512492,0.000000,370.102971
1445.309145,-8734.430116,612.876398,1258.350101
1445.309456,-8956.491898,-459.657299,592.164754
1445.309767,-8734.430116,0.000000,740.205942
1445.310079,-8882.471304,0.000000,592.164754
1445.310390,-8882.471304,-306.438199,518.144159
1445.310701,-9030.512492,76.609550,518.144159
1445.311013,-8882.471304,0.000000,370.102971
1445.311324,-8438.347739,0.000000,296.082377
1445.311635,-9252.574275,229.828649,74.020594
1445.311946,-8808.450710,0.000000,666.185348
1445.312258,-9104.533087,76.609550,370.102971
1445.312569,-9030.512492,-153.219100,666.185348
1445.312880,-8956.491898,0.000000,444.123565
1445.313191,-9104.533087,0.000000,592.164754
1445.313503,-8512.368333,0.000000,518.144159
1445.313814,-8882.471304,0.000000,148.041188
1445.314125,-9030.512492,153.219100,222.061783
1445.314437,-8956.491898,76.609550,518.144159
1445.314748,-8956.491898,0.000000,518.144159
1445.315059,-8956.491898,0.000000,518.144159
1445.315370,-8882.471304,-306.438199,444.123565
1445.315682,-8734.430116,0.000000,444.123565
1445.315993,-8882.471304,0.000000,740.205942
1445.316304,-8808.450710,306.438199,148.041188
1445.316615,-8956.491898,0.000000,740.205942
1445.316927,-8734.430116,-306.438199,370.102971
1445.317238,-9104.533087,0.000000,518.144159
1445.317549,-8882.471304,76.609550,444.123565
1445.317861,-8882.471304,0.000000,592.164754
1445.318172,-8438.347739,-229.828649,518.144159
1445.318483,-8956.491898,0.000000,740.205942
1445.318794,-8956.491898,76.609550,370.102971
1445.319106,-8956.491898,0.000000,370.102971
1445.319417,-8808.450710,-383.047749,518.144159
1445.319728,-8956.491898,0.000000,370.102971
1445.320039,-8882.471304,-153.219100,518.144159
1445.320351,-8808.450710,-229.828649,444.123565
1445.320662,-8882.471304,-306.438199,444.123565
1445.320973,-8586.388927,0.000000,296.082377
1445.321285,-9104.533087,0.000000,148.041188
1445.321596,-8956.491898,536.266849,444.123565
1445.321907,-9104.533087,-229.828649,370.102971
1445.322218,-8882.471304,0.000000,592.164754
1445.322530,-8956.491898,-153.219100,518.144159
1445.322841,-8956.491898,0.000000,518.144159
1445.323152,-8660.409521,306.438199,370.102971
1445.323464,-9104.533087,0.000000,222.061783
1445.323775,-8586.388927,-459.657299,592.164754
1445.324086,-8956.491898,0.000000,222.061783
1445.324397,-8956.491898,0.000000,592.164754
1445.324709,-8882.471304,0.000000,518.144159
1445.325020,-8956.491898,0.000000,518.144159
1445.325331,-8956.491898,-229.828649,592.164754
1445.325642,-9030.512492,153.219100,370.102971
1445.325954,-8808.450710,76.609550,370.102971
1445.326265,-9030.512492,306.438199,296.082377
1445.326576,-9030.512492,76.609550,592.164754
1445.326888,-8882.471304,0.000000,518.144159
1445.327199,-9030.512492,0.000000,518.144159
1445.327510,-8956.491898,0.000000,518.144159
1445.327821,-8734.430116,0.000000,444.123565
1445.328133,-8956.491898,0.000000,592.164754
1445.328444,-9104.533087,0.000000,148.041188
1445.328755,-8734.430116,153.219100,296.082377
1445.329066,-8734.430116,0.000000,370.102971
1445.329378,-8956.491898,0.000000,518.144159
1445.329689,-8882.471304,0.000000,444.123565
1445.330000,-8808.450710,-229.828649,666.185348
1445.330312,-8734.430116,0.000000,592.164754
1445.330623,-9326.594869,-306.438199,148.041188
1445.330934,-8734.430116,306.438199,1036.288319
1445.331245,-8808.450710,-536.266849,370.102971
1445.331557,-8808.450710,-689.485948,666.185348
1445.331868,-8734.430116,-229.828649,444.123565
1445.332179,-9030.512492,0.000000,592.164754
1445.332490,-10288.862594,229.828649,296.082377
1445.332802,-11621.233289,1302.362347,-0.000000
1445.333113,-9252.574275,4443.353888,518.144159
1445.333424,-7846.182985,4749.792088,370.102971
1445.333736,-6735.874072,2374.896044,1406.391290
1445.334047,-6439.791695,-689.485948,740.205942
1445.334358,-7476.080014,-1455.581446,-74.020594
1445.334669,-7179.997637,-612.876398,-0.000000
1445.334981,-9918.759623,-689.485948,-962.267725
1445.335292,-12879.583391,-919.314598,-1184.329507
1445.335603,-11103.089130,612.876398,148.041188
1445.335915,-9326.594869,383.047749,740.205942
1445.336226,-8808.450710,-536.266849,2368.659014
1445.336537,-11103.089130,-536.266849,1998.556043
1445.336848,-10510.924376,2911.162892,1998.556043
1445.337160,-5403.503377,5515.887586,2442.679609
1445.337471,-6735.874072,3907.087040,1258.350101
1445.337782,-7920.203579,2834.553343,-0.000000
1445.338093,-7179.997637,2298.286494,-1628.453072
1445.338405,-8216.285956,3294.210641,-1776.494261
1445.338716,-8808.450710,3907.087040,-370.102971
1445.339027,-10288.862594,3217.601092,-1184.329507
1445.339339,-14804.118840,0.000000,-370.102971
1445.339650,-10066.800811,-1225.752797,2664.741391
1445.339961,-8660.409521,0.000000,1184.329507
1445.340272,-9844.739029,3217.601092,1850.514855
1445.340584,-7550.100608,5822.325785,2294.638420
1445.340895,-8216.285956,3830.477490,1480.411884
1445.341206,-6143.709319,3370.820191,2886.803174
1445.341517,-6587.832884,5975.544884,1184.329507
1445.341829,-8660.409521,6971.469032,-740.205942
1445.342140,-8660.409521,5898.935335,-1628.453072
1445.342451,-9030.512492,4519.963438,-1184.329507
1445.342763,-9844.739029,5286.058936,-1776.494261
1445.343074,-12139.377449,5286.058936,-592.164754
1445.343385,-12435.459826,5975.544884,518.144159
1445.343696,-10732.986159,3907.087040,2220.617826
1445.344008,-9474.636058,4749.792088,2368.659014
1445.344319,-7846.182985,5745.716235,2146.597232
1445.344630,-5625.565159,5745.716235,-0.000000
1445.344941,-5403.503377,6052.154434,370.102971
1445.345253,-4885.359217,5592.497135,-74.020594
1445.345564,-5921.647536,4519.963438,-1332.370696
1445.345875,-7476.080014,4443.353888,-1036.288319
1445.346187,-9030.512492,3370.820191,-962.267725
1445.346498,-10214.842000,2298.286494,592.164754
1445.346809,-10955.047942,536.266849,962.267725
1445.347120,-11029.068536,76.609550,2072.576638
1445.347432,-10807.006753,229.828649,1776.494261
1445.347743,-10288.862594,1915.238745,2072.576638
1445.348054,-8290.306550,3140.991542,1702.473667
1445.348365,-7179.997637,4673.182538,-0.000000
1445.348677,-5995.668130,4060.306139,370.102971
1445.348988,-6735.874072,3677.258390,-444.123565
1445.349299,-6661.853478,3600.648841,-370.102971
1445.349611,-7772.162391,2451.505594,-1406.391290
1445.349922,-8438.347739,536.266849,-518.144159
1445.350233,-9548.656652,-1302.362347,-814.226536
1445.350544,-11251.130318,-1608.800546,740.205942
1445.350856,-12953.603985,-2374.896044,1332.370696
1445.351167,-13027.624579,-1991.848295,1628.453072
1445.351478,-12953.603985,-383.047749,1628.453072
1445.351790,-12065.356855,2145.067394,592.164754
1445.352101,-9326.594869,4443.353888,-0.000000
1445.352412,-7105.977043,4903.011187,-0.000000
1445.352723,-6291.750507,4366.744339,148.041188
1445.353035,-5847.626942,4979.620737,222.061783
1445.353346,-7179.997637,3140.991542,666.185348
1445.353657,-9548.656652,2145.067394,-148.041188
1445.353968,-11695.253884,1532.190996,-296.082377
1445.354280,-13027.624579,306.438199,-444.123565
1445.354591,-13841.851115,0.000000,-370.102971
1445.354902,-13841.851115,-383.047749,222.061783
1445.355214,-11991.336260,1225.752797,740.205942
1445.355525,-10362.883188,2911.162892,1110.308913
1445.355836,-8438.347739,4136.915689,1776.494261
1445.356147,-5403.503377,5056.230287,2146.597232
1445.356459,-3256.906145,5745.716235,1110.308913
1445.356770,-1998.556043,6358.592633,148.041188
1445.357081,-1554.432478,4903.011187,-1924.535449
1445.357392,-4811.338623,4136.915689,-2368.659014
1445.357704,-9252.574275,3064.381992,-1554.432478
1445.358015,-12583.501014,3217.601092,-74.020594
1445.358326,-15470.304188,3140.991542,1554.432478
1445.358638,-15988.448347,2604.724693,3404.947333
1445.358949,-13471.748144,2681.334243,3923.091493
1445.359260,-9104.533087,3217.601092,3034.844362
1445.359571,-4737.318029,4213.525239,2220.617826
1445.359883,-1924.535449,4903.011187,592.164754
1445.360194,-2664.741391,6818.249932,-1258.350101
1445.360505,-2812.782580,7354.516781,-2294.638420
1445.360816,-5625.565159,6358.592633,-2368.659014
1445.361128,-7179.997637,3447.429741,-518.144159
1445.361439,-9918.759623,919.314598,222.061783
1445.361750,-10807.006753,-1991.848295,1036.288319
1445.362062,-11251.130318,-2681.334243,1406.391290
1445.362373,-13397.727550,-2604.724693,1332.370696
1445.362684,-12509.480420,0.000000,1406.391290
1445.362995,-12435.459826,1838.629195,1184.329507
1445.363307,-11769.274478,3294.210641,2146.597232
1445.363618,-9622.677246,5439.278036,2368.659014
1445.363929,-7624.121203,6052.154434,1924.535449
1445.364241,-6513.812290,5515.887586,888.247130
1445.364552,-6069.688724,4060.306139,-0.000000
1445.364863,-6661.853478,2451.505594,-1998.556043
1445.365174,-8438.347739,3447.429741,-3182.885551
1445.365486,-9918.759623,4213.525239,-2886.803174
1445.365797,-11621.233289,3217.601092,-1628.453072
1445.366108,-12731.542202,1608.800546,-148.041188
1445.366419,-12583.501014,612.876398,2072.576638
1445.366731,-12509.480420,919.314598,2590.720797
1445.367042,-12435.459826,2604.724693,2368.659014
1445.367353,-10732.986159,5745.716235,2368.659014
1445.367665,-7846.182985,7048.078582,-0.000000
1445.367976,-6439.791695,6435.202183,-518.144159
1445.368287,-5329.482782,4826.401637,-1480.411884
1445.368598,-5477.523971,3830.477490,-1258.350101
1445.368910,-8216.285956,2681.334243,-888.247130
1445.369221,-8734.430116,2145.067394,444.123565
1445.369532,-9252.574275,995.924147,370.102971
1445.369843,-8734.430116,-1608.800546,1702.473667
1445.370155,-7031.956449,-3217.601092,2664.741391
1445.370466,-7846.182985,-2451.505594,1258.350101
1445.370777,-9104.533087,2374.896044,666.185348
1445.371089,-10214.842000,7354.516781,-0.000000
1445.371400,-10510.924376,9806.022374,-0.000000
1445.371711,-10436.903782,9346.365076,666.185348
1445.372022,-9400.615463,6818.249932,814.226536
1445.372334,-8290.306550,3753.867940,962.267725
1445.372645,-7698.141797,2987.772442,962.267725
1445.372956,-7402.059420,4136.915689,666.185348
1445.373267,-5921.647536,3677.258390,-0.000000
1445.373579,-4441.235652,842.705048,740.205942
1445.373890,-5255.462188,-1991.848295,1036.288319
1445.374201,-7772.162391,-1685.410096,-296.082377
1445.374513,-9770.718434,3983.696590,-1480.411884
1445.374824,-11695.253884,8120.612279,-962.267725
1445.375135,-13101.645173,8197.221829,814.226536
1445.375446,-13175.665768,4519.963438,2664.741391
1445.375758,-13397.727550,1149.143247,3182.885551
1445.376069,-11251.130318,1378.971896,3701.029710
1445.376380,-7698.141797,3600.648841,2368.659014
1445.376693,-5847.626942,2987.772442,1258.350101
1445.377004,-3849.070898,-1149.143247,666.185348
1445.377316,-4367.215058,-6281.983084,-0.000000
1445.377627,-6069.688724,-5975.544884,-518.144159
1445.377938,-6883.915261,842.705048,-1036.288319
1445.378250,-9992.780217,5975.544884,-962.267725
1445.378561,-13471.748144,4519.963438,-0.000000
1445.378872,-16876.695478,1608.800546,1850.514855
1445.379184,-16802.674883,2681.334243,2664.741391
1445.379495,-13101.645173,7048.078582,2590.720797
1445.379806,-9252.574275,7737.564530,1924.535449
1445.380118,-4885.359217,4213.525239,370.102971
1445.380429,-2442.679609,-383.047749,-592.164754
1445.380740,-888.247130,-1149.143247,-518.144159
1445.381052,-592.164754,2451.505594,-370.102971
1445.381363,-5921.647536,3677.258390,-148.041188
1445.381674,-12435.459826,2757.943793,-296.082377
1445.381986,-15766.386565,2451.505594,-296.082377
1445.382297,-16284.530724,3753.867940,-296.082377
1445.382608,-13175.665768,5975.544884,444.123565
1445.382920,-11917.315666,4673.182538,-1036.288319
1445.383231,-10658.965565,1455.581446,-1110.308913
1445.383542,-7624.121203,1302.362347,-962.267725
1445.383854,-4589.276840,3064.381992,-222.061783
1445.384165,-4367.215058,2681.334243,2294.638420
1445.384476,-7772.162391,-612.876398,2368.659014
1445.384788,-9548.656652,-2374.896044,2960.823768
1445.385099,-8586.388927,383.047749,2072.576638
1445.385410,-8068.244768,5592.497135,962.267725
1445.385722,-9844.739029,7890.783629,-1480.411884
1445.386033,-10807.006753,6665.030833,-3997.112087
1445.386344,-8512.368333,5669.106685,-4589.276840
1445.386656,-5847.626942,7354.516781,-2368.659014
1445.386967,-10436.903782,6588.421283,-1628.453072
1445.387278,-14285.974681,5132.839837,814.226536
1445.387590,-13323.706956,1915.238745,2442.679609
1445.387901,-10214.842000,0.000000,4293.194464
1445.388212,-7105.977043,-766.095498,4515.256246
1445.388524,-4515.256246,-383.047749,1110.308913
1445.388835,-2960.823768,-1608.800546,-666.185348
1445.389146,-888.247130,-2145.067394,-148.041188
1445.389458,-3923.091493,229.828649,-0.000000
1445.389769,-11695.253884,1991.848295,-444.123565
1445.390080,-15248.242405,2528.115143,1554.432478
1445.390392,-14434.015869,383.047749,3404.947333
1445.390703,-12139.377449,-306.438199,3182.885551
1445.391014,-9992.780217,-153.219100,1776.494261
1445.391326,-6883.915261,-1991.848295,-888.247130
1445.391637,-2812.782580,-3294.210641,-666.185348
1445.391948,-3627.009116,-3830.477490,1480.411884
1445.392260,-5995.668130,-2681.334243,2220.617826
1445.392571,-9548.656652,-2528.115143,2368.659014
1445.392882,-10807.006753,-3217.601092,3478.967927
1445.393194,-9918.759623,-3600.648841,3552.988522
1445.393505,-9548.656652,-1149.143247,222.061783
1445.393816,-7846.182985,-153.219100,-1776.494261
1445.394128,-6587.832884,-919.314598,-2516.700203
1445.394439,-9178.553681,-1915.238745,-2442.679609
1445.394750,-12287.418637,-1225.752797,-592.164754
1445.395062,-13767.830521,-306.438199,666.185348
1445.395373,-13841.851115,-1455.581446,1554.432478
1445.395684,-12583.501014,-1225.752797,3256.906145
1445.395996,-10362.883188,153.219100,2368.659014
1445.396307,-6957.935855,1302.362347,370.102971
1445.396618,-3701.029710,1225.752797,-518.144159
1445.396930,-5403.503377,1838.629195,-518.144159
1445.397241,-9178.553681,4060.306139,-1702.473667
1445.397552,-11621.233289,5132.839837,-1924.535449
1445.397864,-12213.398043,3217.601092,-1998.556043
1445.398175,-12139.377449,2145.067394,-1406.391290
1445.398486,-12509.480420,3294.210641,-2590.720797
1445.398798,-9474.636058,3753.867940,-2368.659014
1445.399109,-7105.977043,0.000000,-148.041188
1445.399420,-8808.450710,-4136.915689,2516.700203
1445.399732,-9622.677246,-2757.943793,4145.153275
1445.400043,-10140.821405,153.219100,3108.864956
1445.400354,-8512.368333,1455.581446,2886.803174
1445.400666,-6513.812290,1532.190996,888.247130
1445.400977,-4737.318029,2604.724693,-2516.700203
1445.401288,-1850.514855,3370.820191,-2886.803174
1445.401600,-3923.091493,1302.362347,-2368.659014
1445.401911,-8364.327145,-766.095498,-444.123565
1445.402222,-12657.521608,153.219100,1332.370696
1445.402534,-14063.912898,0.000000,3108.864956
1445.402845,-11695.253884,-2528.115143,4145.153275
1445.403156,-10140.821405,-3677.258390,2960.823768
1445.403468,-6365.771101,-536.266849,1554.432478
1445.403779,-3330.926739,1225.752797,296.082377
1445.404090,-2590.720797,-306.438199,518.144159
1445.404402,-4811.338623,-1072.533697,1628.453072
1445.404713,-7846.182985,-842.705048,1776.494261
1445.405024,-8068.244768,-689.485948,1924.535449
1445.405336,-7920.203579,-1685.410096,1702.473667
1445.405647,-7846.182985,-1915.238745,296.082377
1445.405958,-7772.162391,-1072.533697,-962.267725
1445.406270,-8734.430116,-1532.190996,-962.267725
1445.406581,-10955.047942,-2834.553343,740.205942
1445.406892,-13323.706956,-2987.772442,2442.679609
1445.407204,-14656.077652,-1455.581446,3701.029710
1445.407515,-14211.954086,-2451.505594,3478.967927
1445.407826,-10955.047942,-2451.505594,1850.514855
1445.408138,-8142.265362,-1149.143247,814.226536
1445.408449,-5773.606348,2145.067394,-2072.576638
1445.408760,-4885.359217,1838.629195,-2442.679609
1445.409072,-8438.347739,-1149.143247,-2442.679609
1445.409383,-10881.027347,-1302.362347,-592.164754
1445.409694,-13101.645173,0.000000,370.102971
1445.410006,-13767.830521,-76.609550,1702.473667
1445.410317,-13323.706956,-2145.067394,2220.617826
1445.410628,-11991.336260,-1915.238745,1776.494261
1445.410940,-8956.491898,689.485948,888.247130
1445.411251,-7994.224174,3140.991542,-518.144159
1445.411562,-8216.285956,3983.696590,-0.000000
1445.411874,-9252.574275,4290.134789,-0.000000
1445.412185,-10584.944971,3600.648841,-148.041188
1445.412496,-9844.739029,3447.429741,-666.185348
1445.412808,-8956.491898,4060.306139,-1776.494261
1445.413119,-7179.997637,4903.011187,-3034.844362
1445.413430,-3849.070898,3830.477490,-1554.432478
1445.413742,-4737.318029,0.000000,-1332.370696
1445.414053,-6957.935855,-3064.381992,1332.370696
1445.414364,-9326.594869,-1685.410096,3034.844362
1445.414676,-11325.150913,536.266849,3997.112087
1445.414987,-9992.780217,1149.143247,4219.173869
1445.415298,-8660.409521,383.047749,1258.350101
1445.415610,-5625.565159,1072.533697,-0.000000
1445.415921,-2368.659014,1455.581446,-1850.514855
1445.416232,-1850.514855,919.314598,-1628.453072
1445.416544,-4145.153275,-306.438199,-740.205942
1445.416855,-9252.574275,-2451.505594,222.061783
1445.417166,-11103.089130,-3830.477490,1850.514855
1445.417478,-10658.965565,-3524.039291,2368.659014
1445.417789,-10436.903782,-3600.648841,1998.556043
1445.418100,-7846.182985,-3524.039291,1258.350101
1445.418412,-7105.977043,-3294.210641,-148.041188
1445.418723,-7550.100608,-2911.162892,666.185348
1445.419034,-9844.739029,-1991.848295,1850.514855
1445.419346,-11547.212695,-383.047749,2294.638420
1445.419657,-11769.274478,-229.828649,2146.597232
1445.419968,-10732.986159,-612.876398,666.185348
1445.420280,-8216.285956,-689.485948,-148.041188
1445.420591,-6809.894666,995.924147,-2516.700203
1445.420902,-5847.626942,1685.410096,-2886.803174
1445.421214,-8142.265362,0.000000,-1998.556043
1445.421525,-12139.377449,-1685.410096,-0.000000
1445.421836,-14582.057057,-995.924147,1554.432478
1445.422148,-16136.489536,-383.047749,2072.576638
1445.422459,-14804.118840,-612.876398,2368.659014
1445.422770,-12731.542202,-306.438199,814.226536
1445.423082,-9622.677246,995.924147,-666.185348
1445.423393,-7698.141797,1685.410096,-1998.556043
1445.423704,-8660.409521,1302.362347,-1702.473667
1445.424016,-9548.656652,1762.019645,-296.082377
1445.424327,-10436.903782,1225.752797,518.144159
1445.424638,-9992.780217,76.609550,1184.329507
1445.424950,-10584.944971,-919.314598,1628.453072
1445.425261,-8734.430116,766.095498,444.123565
1445.425572,-5551.544565,3064.381992,222.061783
1445.425884,-5773.606348,1685.410096,-0.000000
1445.426195,-8068.244768,0.000000,-222.061783
1445.426506,-10214.842000,0.000000,814.226536
1445.426818,-10140.821405,1915.238745,1924.535449
1445.427129,-7994.224174,1455.581446,2442.679609
1445.427440,-7179.997637,995.924147,1184.329507
1445.427752,-4145.153275,689.485948,148.041188
1445.428063,-2886.803174,1072.533697,-1036.288319
1445.428374,-2886.803174,689.485948,-814.226536
1445.428686,-4515.256246,689.485948,-518.144159
1445.428997,-7402.059420,1072.533697,740.205942
1445.429308,-8882.471304,-919.314598,3256.906145
1445.429620,-9400.615463,-2834.553343,4589.276840
1445.429931,-8882.471304,-3677.258390,3330.926739
1445.430242,-7254.018232,-2145.067394,1184.329507
1445.430554,-4885.359217,-1149.143247,-0.000000
1445.430865,-4367.215058,-306.438199,-1406.391290
1445.431176,-7624.121203,-612.876398,-1258.350101
1445.431488,-9252.574275,-1455.581446,-370.102971
1445.431799,-9844.739029,-2681.334243,222.061783
1445.432110,-10807.006753,-1915.238745,1776.494261
1445.432422,-11029.068536,-1455.581446,962.267725
1445.432733,-11251.130318,-306.438199,-814.226536
1445.433044,-11029.068536,612.876398,-666.185348
1445.433356,-9770.718434,1149.143247,518.144159
1445.433667,-10214.842000,1149.143247,1110.308913
1445.433978,-11843.295072,766.095498,2072.576638
1445.434290,-12139.377449,153.219100,1480.411884
1445.434601,-10881.027347,-612.876398,-74.020594
1445.434912,-9474.636058,153.219100,-666.185348
1445.435224,-9474.636058,1149.143247,-2664.741391
1445.435535,-8808.450710,1225.752797,-3552.988522
1445.435846,-10288.862594,-995.924147,-2072.576638
1445.436158,-13471.748144,-1608.800546,-74.020594
1445.436469,-14582.057057,-1072.533697,2294.638420
1445.436780,-14730.098246,-1149.143247,3256.906145
1445.437092,-13249.686362,-2604.724693,4071.132681
1445.437403,-10955.047942,-1149.143247,1924.535449
1445.437714,-7550.100608,1915.238745,222.061783
1445.438026,-4737.318029,3907.087040,-1406.391290
1445.438337,-4737.318029,2681.334243,-1110.308913
1445.438648,-6587.832884,1378.971896,-0.000000
1445.438960,-7624.121203,1532.190996,2146.597232
1445.439271,-8438.347739,306.438199,2220.617826
1445.439582,-8660.409521,-689.485948,1628.453072
1445.439894,-6883.915261,229.828649,222.061783
1445.440205,-3552.988522,1378.971896,-1110.308913
1445.440516,-2960.823768,1225.752797,-1258.350101
1445.440828,-4737.318029,-1225.752797,444.123565
1445.441139,-8290.306550,-1838.629195,1924.535449
1445.441450,-10214.842000,-1225.752797,4219.173869
1445.441762,-10140.821405,-1838.629195,4071.132681
1445.442073,-9918.759623,-2604.724693,2738.761985
1445.442384,-6735.874072,-1149.143247,518.144159
1445.442696,-3330.926739,-383.047749,-1258.350101
1445.443007,-3775.050304,-766.095498,-1776.494261
1445.443318,-5995.668130,-536.266849,-74.020594
1445.443630,-9030.512492,-306.438199,296.082377
1445.443941,-11621.233289,-383.047749,1702.473667
1445.444252,-10658.965565,-1225.752797,3034.844362
1445.444564,-9844.739029,-383.047749,1554.432478
1445.444875,-9178.553681,766.095498,-222.061783
1445.445186,-7550.100608,1915.238745,-1480.411884
1445.445498,-8290.306550,2298.286494,-1924.535449
1445.445809,-10955.047942,2145.067394,-1036.288319
1445.446120,-13249.686362,3064.381992,-740.205942
1445.446432,-14137.933492,2221.676944,-444.123565
1445.446743,-13323.706956,612.876398,-74.020594
1445.447054,-11399.171507,459.657299,-740.205942
1445.447366,-9474.636058,689.485948,-1332.370696
1445.447677,-8216.285956,536.266849,-740.205942
1445.447988,-8808.450710,-995.924147,-74.020594
1445.448300,-12213.398043,-1455.581446,1258.350101
1445.448611,-14656.077652,0.000000,1850.514855
1445.448922,-14508.036463,842.705048,1924.535449
1445.449234,-12509.480420,919.314598,1924.535449
1445.449545,-9918.759623,76.609550,1036.288319
1445.449856,-7254.018232,612.876398,-1628.453072
1445.450168,-5329.482782,1455.581446,-1480.411884
1445.450479,-5255.462188,766.095498,-222.061783
1445.450790,-7994.224174,153.219100,1110.308913
1445.451102,-10807.006753,689.485948,2072.576638
1445.451413,-10362.883188,229.828649,2368.659014
1445.451724,-7846.182985,0.000000,2294.638420
1445.452036,-5921.647536,-1225.752797,592.164754
1445.452347,-4441.235652,-689.485948,-444.123565
1445.452658,-3404.947333,-1302.362347,-74.020594
1445.452970,-4441.235652,-2528.115143,740.205942
1445.453281,-6957.935855,-3140.991542,2516.700203
1445.453592,-9918.759623,-3677.258390,3849.070898
1445.453904,-9844.739029,-3600.648841,2960.823768
1445.454215,-8660.409521,-2604.724693,2664.741391
1445.454526,-6513.812290,-459.657299,1332.370696
1445.454838,-3997.112087,536.266849,-1184.329507
1445.455149,-4367.215058,766.095498,-1258.350101
1445.455460,-6217.729913,-919.314598,444.123565
1445.455772,-8956.491898,-1225.752797,1110.308913
1445.456083,-11325.150913,536.266849,740.205942
1445.456394,-11769.274478,536.266849,1036.288319
1445.456706,-11621.233289,0.000000,-0.000000
1445.457017,-10436.903782,-536.266849,-1258.350101
1445.457328,-9252.574275,995.924147,-2368.659014
1445.457640,-8586.388927,1838.629195,-2072.576638
1445.457951,-10807.006753,1378.971896,-740.205942
1445.458262,-12435.459826,229.828649,1184.329507
1445.458574,-12879.583391,0.000000,1184.329507
1445.458885,-11991.336260,229.828649,1036.288319
1445.459196,-8364.327145,1378.971896,962.267725
1445.459508,-6809.894666,1225.752797,-1184.329507
1445.459819,-6883.915261,1455.581446,-1702.473667
1445.460130,-8216.285956,919.314598,-1850.514855
1445.460442,-11399.171507,919.314598,-444.123565
1445.460753,-14434.015869,2068.457845,444.123565
1445.461064,-15766.386565,1991.848295,666.185348
1445.461376,-14211.954086,306.438199,1702.473667
1445.461687,-11769.274478,-306.438199,444.123565
1445.461998,-7994.224174,-306.438199,-0.000000
1445.462310,-6217.729913,1072.533697,-888.247130
1445.462621,-5625.565159,766.095498,592.164754
1445.462932,-7105.977043,-995.924147,1924.535449
1445.463244,-9030.512492,-1378.971896,3404.947333
1445.463555,-9548.656652,229.828649,3552.988522
1445.463866,-7476.080014,689.485948,2886.803174
1445.464178,-4737.318029,0.000000,1406.391290
1445.464489,-3552.988522,-229.828649,-296.082377
1445.464800,-2960.823768,-689.485948,-888.247130
1445.465112,-5995.668130,-1532.190996,-518.144159
1445.465423,-9030.512492,-1991.848295,666.185348
1445.465734,-10658.965565,-1608.800546,2368.659014
1445.466046,-10066.800811,-3524.039291,2516.700203
1445.466357,-9844.739029,-4596.572988,2442.679609
1445.466668,-8290.306550,-3907.087040,1332.370696
1445.466980,-6513.812290,-1685.410096,-0.000000
1445.467291,-7105.977043,-842.705048,296.082377
1445.467602,-6439.791695,-306.438199,1406.391290
1445.467914,-8216.285956,-919.314598,1850.514855
1445.468225,-9770.718434,-1455.581446,2516.700203
1445.468536,-8216.285956,-536.266849,1850.514855
1445.468848,-7698.141797,0.000000,444.123565
1445.469159,-7179.997637,1072.533697,-962.267725
1445.469470,-7328.038826,2374.896044,-2590.720797
1445.469782,-7846.182985,2528.115143,-2886.803174
1445.470093,-10436.903782,1302.362347,-1850.514855
1445.470404,-13471.748144,1072.533697,-222.061783
1445.470716,-13397.727550,76.609550,370.102971
1445.471027,-13249.686362,229.828649,666.185348
1445.471338,-12361.439231,0.000000,666.185348
1445.471650,-10362.883188,229.828649,-518.144159
1445.471961,-9992.780217,2068.457845,-1480.411884
1445.472272,-8364.327145,2681.334243,-74.020594
1445.472584,-9252.574275,1685.410096,592.164754
1445.472895,-11991.336260,919.314598,1480.411884
1445.473206,-12361.439231,1302.362347,1702.473667
1445.473518,-10955.047942,1532.190996,1184.329507
1445.473829,-9104.533087,995.924147,666.185348
1445.474140,-7402.059420,2528.115143,-74.020594
1445.474452,-5403.503377,2145.067394,-1480.411884
1445.474763,-5403.503377,536.266849,-1110.308913
1445.475074,-8438.347739,-766.095498,222.061783
1445.475386,-10214.842000,842.705048,1332.370696
1445.475697,-9622.677246,1225.752797,1998.556043
1445.476008,-9696.697840,459.657299,2812.782580
1445.476320,-9178.553681,-2068.457845,1924.535449
1445.476631,-5329.482782,-1072.533697,666.185348
1445.476943,-2812.782580,459.657299,-148.041188
1445.477254,-3849.070898,-689.485948,740.205942
1445.477566,-6661.853478,-2451.505594,2368.659014
1445.477877,-8956.491898,-2987.772442,3182.885551
1445.478189,-9400.615463,-2298.286494,2812.782580
1445.478500,-9030.512492,-3140.991542,2812.782580
1445.478812,-7624.121203,-2757.943793,962.267725
1445.479123,-5921.647536,-1532.190996,222.061783
1445.479434,-5181.441594,-2451.505594,-814.226536
1445.479746,-7179.997637,-3907.087040,-74.020594
1445.480057,-10214.842000,-2911.162892,370.102971
1445.480369,-12213.398043,-1149.143247,1332.370696
1445.480680,-12287.418637,-2528.115143,1406.391290
1445.480992,-11843.295072,-3830.477490,1554.432478
1445.481303,-11177.109724,-1991.848295,-148.041188
1445.481615,-9030.512492,919.314598,-1554.432478
1445.481926,-7772.162391,2604.724693,-1850.514855
1445.482238,-9104.533087,2221.676944,-1628.453072
1445.482549,-10140.821405,1915.238745,296.082377
1445.482861,-11103.089130,842.705048,592.164754
1445.483172,-10881.027347,689.485948,592.164754
1445.483484,-9918.759623,1532.190996,518.144159
1445.483795,-8586.388927,1685.410096,-1850.514855
1445.484107,-7550.100608,1532.190996,-2220.617826
1445.484418,-8660.409521,-459.657299,-1998.556043
1445.484730,-11621.233289,-1608.800546,-814.226536
1445.485041,-13249.686362,306.438199,370.102971
1445.485352,-14804.118840,612.876398,1406.391290
1445.485664,-13175.665768,-459.657299,3182.885551
1445.485975,-10807.006753,-2757.943793,2220.617826
1445.486287,-8068.244768,-1455.581446,814.226536
1445.486598,-4293.194464,1149.143247,-148.041188
1445.486910,-2812.782580,2374.896044,-592.164754
1445.487221,-6143.709319,2757.943793,592.164754
1445.487533,-9030.512492,2298.286494,1776.494261
1445.487844,-9918.759623,2298.286494,1406.391290
1445.488156,-9474.636058,1915.238745,1406.391290
1445.488467,-7328.038826,2834.553343,1110.308913
1445.488779,-5921.647536,2604.724693,222.061783
1445.489090,-4367.215058,0.000000,-296.082377
1445.489402,-3552.988522,-1991.848295,-444.123565
1445.489713,-5921.647536,-1838.629195,1554.432478
1445.490025,-8586.388927,-383.047749,2294.638420
1445.490336,-10288.862594,-306.438199,2812.782580
1445.490648,-11325.150913,-2987.772442,2368.659014
1445.490959,-8586.388927,-3140.991542,2294.638420
1445.491271,-5107.421000,-1149.143247,444.123565
1445.491582,-4663.297435,-306.438199,-1332.370696
1445.491893,-6069.688724,-1455.581446,-0.000000
1445.492205,-9474.636058,-1915.238745,814.226536
1445.492516,-11547.212695,-1532.190996,2220.617826
1445.492828,-11843.295072,-1378.971896,2590.720797
1445.493139,-11251.130318,-2145.067394,2812.782580
1445.493451,-10362.883188,-2145.067394,1554.432478
1445.493762,-8882.471304,-1072.533697,-444.123565
1445.494074,-7328.038826,689.485948,-1924.535449
1445.494385,-9548.656652,1072.533697,-1406.391290
1445.494697,-12287.418637,459.657299,-296.082377
1445.495008,-13101.645173,459.657299,-0.000000
1445.495320,-12953.603985,-536.266849,222.061783
1445.495631,-11473.192101,-153.219100,-370.102971
1445.495943,-9770.718434,995.924147,-1258.350101
1445.496254,-8586.388927,1762.019645,-2664.741391
1445.496566,-8068.244768,1225.752797,-2072.576638
1445.496877,-8586.388927,0.000000,-666.185348
1445.497189,-10140.821405,0.000000,740.205942
1445.497500,-12879.583391,-459.657299,2146.597232
1445.497812,-11991.336260,-536.266849,2812.782580
1445.498123,-10140.821405,-612.876398,1406.391290
1445.498434,-8364.327145,612.876398,592.164754
1445.498746,-6217.729913,1685.410096,-592.164754
1445.499057,-6069.688724,1072.533697,-1406.391290
1445.499369,-7179.997637,689.485948,-296.082377
1445.499680,-9326.594869,689.485948,962.267725
1445.499992,-10214.842000,1225.752797,2072.576638
1445.500303,-9252.574275,-153.219100,2442.679609
1445.500615,-8364.327145,-766.095498,1924.535449
1445.500926,-5329.482782,-1225.752797,740.205942
1445.501238,-2516.700203,306.438199,-1480.411884
1445.501549,-2664.741391,1378.971896,-740.205942
1445.501861,-6291.750507,-842.705048,-0.000000
1445.502172,-9030.512492,-1608.800546,2072.576638
1445.502484,-9844.739029,-459.657299,2960.823768
1445.502795,-10436.903782,-153.219100,3330.926739
1445.503107,-8660.409521,-459.657299,2516.700203
1445.503418,-6069.688724,0.000000,740.205942
1445.503730,-4071.132681,-536.266849,-666.185348
1445.504041,-4811.338623,-1915.238745,-740.205942
1445.504352,-8290.306550,-1762.019645,1110.308913
1445.504664,-11843.295072,-689.485948,962.267725
1445.504975,-13989.892304,0.000000,1480.411884
1445.505287,-13249.686362,-1072.533697,1554.432478
1445.505598,-12657.521608,-1378.971896,444.123565
1445.505910,-10140.821405,0.000000,-1184.329507
1445.506221,-7550.100608,1455.581446,-2146.597232
1445.506533,-8956.491898,2145.067394,-2146.597232
1445.506844,-10362.883188,2604.724693,-370.102971
1445.507156,-11473.192101,1378.971896,1406.391290
1445.507467,-10955.047942,0.000000,2294.638420
1445.507779,-9844.739029,0.000000,2072.576638
1445.508090,-9178.553681,0.000000,518.144159
1445.508402,-7624.121203,1072.533697,-1480.411884
1445.508713,-7698.141797,1455.581446,-2146.597232
1445.509025,-8364.327145,1225.752797,-1258.350101
1445.509336,-11325.150913,153.219100,-1258.350101
1445.509648,-14656.077652,76.609550,-148.041188
1445.509959,-12657.521608,0.000000,1332.370696
1445.510271,-11695.253884,-612.876398,814.226536
1445.510582,-9918.759623,-919.314598,740.205942
1445.510893,-5699.585753,76.609550,518.144159
1445.511205,-4589.276840,-536.266849,-296.082377
1445.511516,-5699.585753,0.000000,2072.576638
1445.511828,-7476.080014,-459.657299,2960.823768
1445.512139,-9178.553681,-1378.971896,3034.844362
1445.512451,-8438.347739,-766.095498,3330.926739
1445.512762,-7624.121203,-229.828649,1998.556043
1445.513074,-5773.606348,0.000000,592.164754
1445.513385,-3997.112087,689.485948,-1258.350101
1445.513697,-3182.885551,766.095498,-1628.453072
1445.514008,-5699.585753,0.000000,-1110.308913
1445.514320,-8660.409521,-383.047749,666.185348
1445.514631,-11029.068536,229.828649,2368.659014
1445.514943,-11843.295072,-2221.676944,2886.803174
1445.515254,-10436.903782,-3064.381992,2146.597232
1445.515566,-7476.080014,-1149.143247,296.082377
1445.515877,-5477.523971,-383.047749,-1628.453072
1445.516189,-4737.318029,-1072.533697,-148.041188
1445.516500,-7994.224174,-2604.724693,814.226536
1445.516812,-10584.944971,-2451.505594,2146.597232
1445.517123,-12287.418637,-1991.848295,1924.535449
1445.517434,-12583.501014,-459.657299,2516.700203
1445.517746,-11325.150913,229.828649,1110.308913
1445.518057,-9178.553681,1149.143247,-1924.535449
1445.518369,-7476.080014,1532.190996,-3330.926739
1445.518680,-8068.244768,3294.210641,-2664.741391
1445.518992,-11103.089130,3524.039291,-1110.308913
1445.519303,-13693.809927,2221.676944,222.061783
1445.519615,-14359.995275,1302.362347,1406.391290
1445.519926,-12361.439231,76.609550,888.247130
1445.520238,-9770.718434,76.609550,370.102971
1445.520549,-8364.327145,1225.752797,-1554.432478
1445.520861,-6439.791695,2374.896044,-2146.597232
1445.521172,-7698.141797,2145.067394,-1110.308913
1445.521484,-9622.677246,153.219100,666.185348
1445.521795,-10436.903782,0.000000,2516.700203
1445.522107,-12065.356855,153.219100,2072.576638
1445.522418,-10140.821405,76.609550,2146.597232
1445.522730,-7772.162391,536.266849,444.123565
1445.523041,-5921.647536,1302.362347,-1036.288319
1445.523352,-5477.523971,1685.410096,-814.226536
1445.523664,-6587.832884,612.876398,-888.247130
1445.523975,-8142.265362,766.095498,2220.617826
1445.524287,-11991.336260,536.266849,3034.844362
1445.524598,-10955.047942,-383.047749,3108.864956
1445.524910,-8808.450710,-1685.410096,2664.741391
1445.525221,-6439.791695,-1532.190996,1776.494261
1445.525533,-3330.926739,0.000000,148.041188
1445.525844,-2960.823768,-306.438199,-1036.288319
1445.526156,-4293.194464,-1532.190996,296.082377
1445.526467,-6957.935855,-2068.457845,1036.288319
1445.526779,-8660.409521,-2451.505594,2220.617826
1445.527090,-9474.636058,-1915.238745,2886.803174
1445.527402,-8956.491898,-2298.286494,2368.659014
1445.527713,-8216.285956,-2604.724693,740.205942
1445.528025,-6957.935855,-1915.238745,-666.185348
1445.528336,-5995.668130,-153.219100,-1110.308913
1445.528648,-8290.306550,-689.485948,-592.164754
1445.528959,-12065.356855,-919.314598,962.267725
1445.529271,-13323.706956,-1225.752797,2368.659014
1445.529582,-13471.748144,-1302.362347,1628.453072
1445.529893,-11843.295072,-229.828649,1554.432478
1445.530205,-9548.656652,766.095498,-1110.308913
1445.530516,-8142.265362,1455.581446,-1850.514855
1445.530828,-6957.935855,766.095498,-1628.453072
1445.531139,-9030.512492,306.438199,-1406.391290
1445.531451,-12731.542202,536.266849,-148.041188
1445.531762,-13323.706956,1532.190996,814.226536
1445.532074,-12435.459826,1762.019645,1036.288319
1445.532385,-10807.006753,1532.190996,-0.000000
1445.532697,-9178.553681,2298.286494,-1332.370696
1445.533008,-6883.915261,2604.724693,-2368.659014
1445.533320,-8808.450710,2298.286494,-2294.638420
1445.533631,-10436.903782,3064.381992,222.061783
1445.533943,-12657.521608,1762.019645,740.205942
1445.534254,-13915.871710,229.828649,1332.370696
1445.534566,-11177.109724,-306.438199,2368.659014
1445.534877,-8068.244768,-1685.410096,962.267725
1445.535189,-5329.482782,-1149.143247,296.082377
1445.535500,-4367.215058,-766.095498,740.205942
1445.535812,-4515.256246,-1608.800546,-0.000000
1445.536123,-7105.977043,0.000000,814.226536
1445.536434,-8808.450710,919.314598,1776.494261
1445.536746,-9474.636058,-153.219100,2294.638420
1445.537057,-8956.491898,-995.924147,2664.741391
1445.537369,-6957.935855,-766.095498,1480.411884
1445.537680,-3923.091493,-153.219100,962.267725
1445.537992,-2368.659014,-459.657299,-518.144159
1445.538303,-4071.132681,-536.266849,222.061783
1445.538615,-7624.121203,-2221.676944,814.226536
1445.538926,-9844.739029,-3064.381992,2146.597232
1445.539238,-9252.574275,-2528.115143,3256.906145
1445.539549,-9474.636058,-2604.724693,2146.597232
1445.539861,-8512.368333,-2681.334243,1406.391290
1445.540172,-6291.750507,-2298.286494,-666.185348
1445.540484,-6143.709319,-2221.676944,-1406.391290
1445.540795,-8364.327145,-2145.067394,-296.082377
1445.541107,-10140.821405,-842.705048,370.102971
1445.541418,-12583.501014,0.000000,888.247130
1445.541730,-12879.583391,-153.219100,1702.473667
1445.542041,-11177.109724,-1072.533697,2146.597232
1445.542353,-9622.677246,76.609550,370.102971
1445.542664,-7920.203579,2298.286494,-296.082377
1445.542975,-6735.874072,2374.896044,-1628.453072
1445.543287,-9548.656652,689.485948,-1554.432478
1445.543598,-12213.398043,1685.410096,-666.185348
1445.543910,-13545.768739,1455.581446,-148.041188
1445.544221,-15322.262999,536.266849,-518.144159
1445.544533,-14211.954086,1149.143247,-518.144159
1445.544844,-11177.109724,2145.067394,-1406.391290
1445.545156,-8734.430116,1072.533697,-2146.597232
1445.545467,-7772.162391,1072.533697,-1332.370696
1445.545779,-8956.491898,306.438199,222.061783
1445.546090,-10584.944971,1302.362347,1850.514855
1445.546402,-11547.212695,1149.143247,2664.741391
1445.546713,-10436.903782,995.924147,2516.700203
1445.547025,-9252.574275,1072.533697,1332.370696
1445.547336,-6365.771101,2374.896044,-0.000000
1445.547648,-3108.864956,3370.820191,-1998.556043
1445.547959,-3478.967927,1991.848295,-2072.576638
1445.548271,-6735.874072,229.828649,-444.123565
1445.548582,-8734.430116,-153.219100,962.267725
1445.548893,-10658.965565,-1455.581446,2368.659014
1445.549205,-10955.047942,-1072.533697,2442.679609
1445.549516,-7254.018232,-689.485948,2146.597232
1445.549828,-5107.421000,-536.266849,296.082377
1445.550139,-3478.967927,-1225.752797,296.082377
1445.550451,-2738.761985,-2451.505594,962.267725
1445.550762,-5329.482782,-2987.772442,2146.597232
1445.551074,-7846.182985,-2298.286494,3182.885551
1445.551385,-8734.430116,-2604.724693,4219.173869
1445.551697,-8808.450710,-3753.867940,3034.844362
1445.552008,-7994.224174,-2681.334243,962.267725
1445.552320,-6809.894666,-1302.362347,-296.082377
1445.552631,-5329.482782,-1302.362347,-2220.617826
1445.552943,-7624.121203,-766.095498,-1184.329507
1445.553254,-11103.089130,-1915.238745,-0.000000
1445.553566,-13693.809927,-2911.162892,740.205942
1445.553877,-13545.768739,-1685.410096,1702.473667
1445.554189,-13175.665768,-842.705048,1702.473667
1445.554500,-12139.377449,-689.485948,518.144159
1445.554812,-10288.862594,153.219100,-1406.391290
1445.555123,-9104.533087,1608.800546,-1554.432478
1445.555434,-8216.285956,1225.752797,-518.144159
1445.555746,-10140.821405,995.924147,222.061783
1445.556057,-12509.480420,612.876398,888.247130
1445.556369,-12435.459826,-306.438199,888.247130
1445.556680,-11177.109724,229.828649,444.123565
1445.556992,-10510.924376,2221.676944,-1258.350101
1445.557303,-8290.306550,3447.429741,-2146.597232
1445.557615,-7846.182985,1455.581446,-2368.659014
1445.557926,-10362.883188,306.438199,-518.144159
1445.558238,-13767.830521,1072.533697,148.041188
1445.558549,-13693.809927,3370.820191,1036.288319
1445.558861,-12435.459826,2987.772442,1554.432478
1445.559172,-9844.739029,919.314598,1850.514855
1445.559484,-5255.462188,0.000000,-0.000000
1445.559795,-5181.441594,1378.971896,-1406.391290
1445.560107,-4811.338623,1455.581446,74.020594
1445.560418,-5255.462188,459.657299,-148.041188
1445.560730,-7254.018232,229.828649,2664.741391
1445.561041,-9400.615463,-2068.457845,3701.029710
1445.561353,-9474.636058,-3217.601092,3923.091493
1445.561664,-6439.791695,-1378.971896,2294.638420
1445.561975,-4071.132681,1072.533697,-666.185348
1445.562287,-1480.411884,1532.190996,-1776.494261
1445.562598,-2664.741391,-689.485948,-2442.679609
1445.562910,-7179.997637,-1455.581446,-370.102971
1445.563221,-9400.615463,-383.047749,1924.535449
1445.563533,-11769.274478,-1149.143247,3034.844362
1445.563844,-12213.398043,-2068.457845,2886.803174
1445.564156,-9696.697840,-2451.505594,2960.823768
1445.564467,-7105.977043,-2757.943793,740.205942
1445.564779,-4367.215058,-1762.019645,-0.000000
1445.565090,-4663.297435,-1915.238745,-888.247130
1445.565402,-8734.430116,-1149.143247,-666.185348
1445.565713,-9992.780217,-229.828649,666.185348
1445.566025,-11843.295072,229.828649,1036.288319
1445.566336,-11621.233289,-1149.143247,1406.391290
1445.566648,-10584.944971,-1378.971896,-0.000000
1445.566959,-8956.491898,459.657299,-814.226536
1445.567271,-8586.388927,2374.896044,-2664.741391
1445.567582,-10140.821405,2298.286494,-2146.597232
1445.567893,-12509.480420,2068.457845,-962.267725
1445.568205,-14582.057057,1302.362347,-0.000000
1445.568516,-14063.912898,842.705048,1850.514855
1445.568828,-13175.665768,76.609550,1110.308913
1445.569139,-12139.377449,612.876398,-0.000000
1445.569451,-9326.594869,995.924147,-1110.308913
1445.569762,-7105.977043,459.657299,-1110.308913
1445.570074,-8438.347739,-153.219100,-814.226536
1445.570385,-11177.109724,-689.485948,-0.000000
1445.570697,-12435.459826,842.705048,1184.329507
1445.571008,-11843.295072,383.047749,2442.679609
1445.571320,-10140.821405,76.609550,2442.679609
1445.571631,-7105.977043,689.485948,666.185348
1445.571943,-4219.173869,1532.190996,-518.144159
1445.572254,-3034.844362,1072.533697,-444.123565
1445.572566,-5699.585753,229.828649,222.061783
1445.572877,-7772.162391,995.924147,1184.329507
1445.573189,-10140.821405,1225.752797,1554.432478
1445.573500,-10362.883188,229.828649,2146.597232
1445.573812,-7550.100608,-153.219100,1850.514855
1445.574123,-5699.585753,76.609550,370.102971
1445.574434,-3627.009116,306.438199,-74.020594
1445.574746,-2442.679609,-1378.971896,592.164754
1445.575057,-4145.153275,-3064.381992,1924.535449
1445.575369,-7254.018232,-3294.210641,2886.803174
1445.575680,-9770.718434,-3217.601092,3330.926739
1445.575992,-9030.512492,-2145.067394,3034.844362
1445.576304,-8734.430116,-1532.190996,2516.700203
1445.576615,-6513.812290,-1532.190996,888.247130
1445.576927,-5033.400406,-2221.676944,-1184.329507
1445.577238,-5699.585753,-2451.505594,-518.144159
1445.577550,-8438.347739,-3064.381992,296.082377
1445.577861,-11621.233289,-1532.190996,444.123565
1445.578173,-13471.748144,306.438199,296.082377
1445.578485,-12879.583391,0.000000,740.205942
1445.578796,-11399.171507,-1378.971896,-148.041188
1445.579108,-10140.821405,153.219100,-1332.370696
1445.579419,-9474.636058,2987.772442,-1332.370696
1445.579731,-9030.512492,1838.629195,-1554.432478
1445.580042,-11325.150913,0.000000,296.082377
1445.580354,-12953.603985,1072.533697,1332.370696
1445.580666,-13175.665768,383.047749,1258.350101
1445.580977,-11325.150913,-383.047749,444.123565
1445.581289,-10214.842000,229.828649,-1184.329507
1445.581600,-8660.409521,2528.115143,-1924.535449
1445.581912,-7402.059420,3753.867940,-2664.741391
1445.582223,-9696.697840,1378.971896,-1628.453072
1445.582535,-12879.583391,1072.533697,148.041188
1445.582847,-13397.727550,2068.457845,1480.411884
1445.583158,-13027.624579,2221.676944,1406.391290
1445.583470,-10732.986159,1455.581446,1184.329507
1445.583781,-9474.636058,842.705048,-296.082377
1445.584093,-5773.606348,2068.457845,-814.226536
1445.584404,-4737.318029,2528.115143,-962.267725
1445.584716,-6587.832884,1225.752797,592.164754
1445.585028,-7402.059420,1225.752797,1776.494261
1445.585339,-9918.759623,459.657299,2812.782580
1445.585651,-9400.615463,0.000000,3627.009116
1445.585962,-6661.853478,-229.828649,2664.741391
1445.586274,-4589.276840,0.000000,1184.329507
1445.586585,-2146.597232,306.438199,-370.102971
1445.586897,-1332.370696,-1915.238745,-0.000000
1445.587209,-4145.153275,-2528.115143,222.061783
1445.587520,-7402.059420,-1072.533697,1480.411884
1445.587832,-10436.903782,-1302.362347,2886.803174
1445.588143,-11399.171507,-2451.505594,2960.823768
1445.588455,-9844.739029,-2145.067394,2442.679609
1445.588766,-7254.018232,-1762.019645,-0.000000
1445.589078,-6069.688724,-1149.143247,-1554.432478
1445.589390,-6217.729913,-842.705048,-888.247130
1445.589701,-7476.080014,0.000000,-0.000000
1445.590013,-10436.903782,-1378.971896,1998.556043
1445.590324,-12509.480420,-1762.019645,2664.741391
1445.590636,-11917.315666,-995.924147,2812.782580
1445.590947,-9992.780217,-536.266849,1554.432478
1445.591259,-7550.100608,0.000000,-0.000000
1445.591570,-5995.668130,459.657299,-1258.350101
1445.591882,-7994.224174,766.095498,-2664.741391
1445.592194,-11251.130318,842.705048,-2220.617826
1445.592505,-13471.748144,842.705048,-444.123565
1445.592817,-14359.995275,383.047749,-0.000000
1445.593128,-14137.933492,-459.657299,518.144159
1445.593440,-13915.871710,-383.047749,-888.247130
1445.593751,-11695.253884,1072.533697,-1332.370696
1445.594063,-9178.553681,1762.019645,-1480.411884
1445.594375,-8586.388927,2221.676944,592.164754
1445.594686,-10584.944971,306.438199,1184.329507
1445.594998,-12657.521608,-766.095498,2516.700203
1445.595309,-11547.212695,0.000000,3108.864956
1445.595621,-10214.842000,995.924147,2220.617826
1445.595932,-7772.162391,459.657299,666.185348
1445.596244,-4589.276840,842.705048,-962.267725
1445.596556,-3034.844362,0.000000,-1776.494261
1445.596867,-5329.482782,153.219100,-518.144159
1445.597179,-8734.430116,0.000000,74.020594
1445.597490,-10658.965565,536.266849,1110.308913
1445.597802,-11029.068536,612.876398,3404.947333
1445.598113,-9326.594869,-1302.362347,3108.864956
1445.598425,-7624.121203,-689.485948,888.247130
1445.598737,-6291.750507,1378.971896,-74.020594
1445.599048,-3182.885551,1838.629195,-0.000000
1445.599360,-2812.782580,153.219100,1480.411884
1445.599671,-4737.318029,-1072.533697,1184.329507
1445.599983,-7920.203579,-1685.410096,2516.700203
1445.600294,-8808.450710,-2451.505594,3775.050304
1445.600606,-7328.038826,-1915.238745,2590.720797
1445.600918,-6439.791695,-383.047749,814.226536
1445.601229,-5255.462188,-1455.581446,-1110.308913
1445.601541,-6069.688724,-2145.067394,-1998.556043
1445.601852,-8068.244768,-2145.067394,148.041188
1445.602164,-10658.965565,-1991.848295,444.123565
1445.602475,-13249.686362,-1302.362347,1258.350101
1445.602787,-12953.603985,-1378.971896,2072.576638
1445.603099,-13397.727550,-1455.581446,518.144159
1445.603410,-10732.986159,-766.095498,-740.205942
1445.603722,-7254.018232,1072.533697,-1406.391290
1445.604033,-6957.935855,1455.581446,-1258.350101
1445.604345,-8956.491898,0.000000,-1258.350101
1445.604656,-12879.583391,612.876398,-296.082377
1445.604968,-13471.748144,1915.238745,-0.000000
1445.605280,-13101.645173,1149.143247,296.082377
1445.605591,-11843.295072,919.314598,222.061783
1445.605903,-11325.150913,1685.410096,-2146.597232
1445.606214,-9844.739029,3064.381992,-3108.864956
1445.606526,-8068.244768,2145.067394,-1184.329507
1445.606837,-10658.965565,76.609550,-296.082377
1445.607149,-12287.418637,919.314598,1554.432478
1445.607461,-12509.480420,229.828649,2146.597232
1445.607772,-10362.883188,-612.876398,1702.473667
1445.608084,-8882.471304,0.000000,1554.432478
1445.608395,-8216.285956,1532.190996,-0.000000
1445.608707,-5181.441594,1608.800546,-1036.288319
1445.609018,-4885.359217,766.095498,-814.226536
1445.609330,-7402.059420,0.000000,740.205942
1445.609642,-10362.883188,0.000000,2738.761985
1445.609953,-11029.068536,-153.219100,3256.906145
1445.610265,-9326.594869,-612.876398,2368.659014
1445.610576,-5773.606348,-459.657299,1850.514855
1445.610888,-2368.659014,689.485948,888.247130
1445.611199,-2590.720797,-306.438199,-444.123565
1445.611511,-3923.091493,-2298.286494,148.041188
1445.611823,-6735.874072,-1072.533697,1332.370696
1445.612134,-8216.285956,-1149.143247,2960.823768
1445.612446,-9400.615463,-1532.190996,2886.803174
1445.612757,-9548.656652,-3907.087040,2738.761985
1445.613069,-9474.636058,-4903.011187,1628.453072
1445.613380,-6587.832884,-2451.505594,296.082377
1445.613692,-5329.482782,0.000000,-814.226536
1445.614004,-7550.100608,-689.485948,-0.000000
1445.614315,-11177.109724,-766.095498,592.164754
1445.614627,-11917.315666,-995.924147,740.205942
1445.614938,-11695.253884,-536.266849,1332.370696
1445.615250,-9992.780217,919.314598,1184.329507
1445.615561,-9474.636058,1225.752797,-444.123565
1445.615873,-8512.368333,1915.238745,-1628.453072
1445.616185,-7254.018232,995.924147,-1776.494261
1445.616496,-9474.636058,229.828649,-1110.308913
1445.616808,-11621.233289,229.828649,962.267725
1445.617119,-12139.377449,995.924147,888.247130
1445.617431,-12287.418637,-306.438199,370.102971
1445.617742,-11325.150913,-1762.019645,-222.061783
1445.618054,-11325.150913,-612.876398,-2146.597232
1445.618366,-9474.636058,2145.067394,-2738.761985
1445.618677,-8364.327145,3370.820191,-1924.535449
1445.618989,-10955.047942,-383.047749,-74.020594
1445.619300,-13101.645173,-1072.533697,1924.535449
1445.619612,-13397.727550,76.609550,1258.350101
1445.619923,-11103.089130,1225.752797,2368.659014
1445.620235,-8438.347739,1378.971896,1924.535449
1445.620547,-7105.977043,766.095498,370.102971
1445.620858,-5181.441594,2451.505594,-1332.370696
1445.621170,-4885.359217,842.705048,-740.205942
1445.621481,-7105.977043,-153.219100,444.123565
1445.621793,-9252.574275,995.924147,1628.453072
1445.622104,-11325.150913,1225.752797,2146.597232
1445.622416,-9548.656652,-1455.581446,2220.617826
1445.622728,-7254.018232,-2451.505594,1332.370696
1445.623039,-4367.215058,-229.828649,-0.000000
1445.623351,-1850.514855,689.485948,-1480.411884
1445.623662,-3997.112087,-919.314598,-1036.288319
1445.623974,-6735.874072,-1072.533697,1184.329507
1445.624285,-8956.491898,-153.219100,2590.720797
1445.624597,-9252.574275,-229.828649,4071.132681
1445.624909,-8512.368333,-2068.457845,4663.297435
1445.625220,-8956.491898,-3600.648841,2664.741391
1445.625532,-5921.647536,-1532.190996,444.123565
1445.625843,-4589.276840,76.609550,-1480.411884
1445.626155,-5625.565159,-383.047749,-1036.288319
1445.626466,-7550.100608,-1149.143247,-0.000000
1445.626778,-11769.274478,-1532.190996,1110.308913
1445.627090,-12657.521608,-2604.724693,1998.556043
1445.627401,-12953.603985,-2834.553343,1480.411884
1445.627713,-11917.315666,-919.314598,-148.041188
1445.628024,-9252.574275,1762.019645,-1406.391290
1445.628336,-8364.327145,919.314598,-3108.864956
1445.628647,-9030.512492,689.485948,-1776.494261
1445.628959,-11991.336260,1149.143247,-148.041188
1445.629271,-11695.253884,2068.457845,1628.453072
1445.629582,-11251.130318,383.047749,2146.597232
1445.629894,-10584.944971,-459.657299,1776.494261
1445.630205,-9474.636058,612.876398,-74.020594
1445.630517,-7254.018232,2298.286494,-2368.659014
1445.630828,-7624.121203,2528.115143,-2738.761985
1445.631140,-10436.903782,1225.752797,-1924.535449
1445.631452,-13471.748144,766.095498,-740.205942
1445.631763,-15026.180623,306.438199,888.247130
1445.632075,-14508.036463,306.438199,1850.514855
1445.632386,-11325.150913,-842.705048,1702.473667
1445.632698,-7846.182985,229.828649,296.082377
1445.633009,-5033.400406,766.095498,-0.000000
1445.633321,-3108.864956,-383.047749,148.041188
1445.633633,-4737.318029,766.095498,592.164754
1445.633944,-7624.121203,1532.190996,2516.700203
1445.634256,-9104.533087,1532.190996,3256.906145
1445.634567,-8808.450710,459.657299,3330.926739
1445.634879,-8660.409521,0.000000,1406.391290
1445.635190,-5329.482782,766.095498,-518.144159
1445.635502,-2590.720797,1608.800546,-2368.659014
1445.635814,-3478.967927,383.047749,-1776.494261
1445.636125,-6809.894666,-2145.067394,-222.061783
1445.636437,-9844.739029,-2451.505594,1998.556043
1445.636748,-11103.089130,-2145.067394,3256.906145
1445.637060,-10436.903782,-2298.286494,3478.967927
1445.637371,-9104.533087,-3983.696590,2294.638420
1445.637683,-6809.894666,-3064.381992,666.185348
1445.637995,-4737.318029,-1685.410096,-518.144159
1445.638306,-5773.606348,-1915.238745,-296.082377
1445.638618,-8438.347739,-1991.848295,962.267725
1445.638929,-11325.150913,-766.095498,2294.638420
1445.639241,-11769.274478,-1378.971896,2738.761985
1445.639552,-11473.192101,-2298.286494,1554.432478
1445.639864,-10510.924376,-919.314598,-0.000000
1445.640176,-8438.347739,2068.457845,-1998.556043
1445.640487,-8364.327145,2221.676944,-3330.926739
1445.640799,-9400.615463,1455.581446,-2368.659014
1445.641110,-12139.377449,689.485948,-962.267725
1445.641422,-14137.933492,76.609550,888.247130
1445.641733,-13989.892304,-536.266849,1554.432478
1445.642045,-12583.501014,-1762.019645,740.205942
1445.642357,-11177.109724,-689.485948,-1110.308913
1445.642668,-7402.059420,2374.896044,-1702.473667
1445.642980,-6291.750507,2451.505594,-3256.906145
1445.643291,-8512.368333,1378.971896,-1036.288319
1445.643603,-10066.800811,536.266849,888.247130
1445.643914,-12213.398043,306.438199,1998.556043
1445.644226,-12065.356855,153.219100,2368.659014
1445.644538,-10658.965565,612.876398,1702.473667
1445.644849,-9252.574275,766.095498,-296.082377
1445.645161,-5921.647536,2068.457845,-1554.432478
1445.645472,-4071.132681,2298.286494,-2220.617826
1445.645784,-7105.977043,459.657299,-888.247130
1445.646095,-10214.842000,76.609550,1702.473667
1445.646407,-11103.089130,0.000000,3256.906145
1445.646719,-10140.821405,-383.047749,4145.153275
1445.647030,-8808.450710,-1455.581446,2812.782580
1445.647342,-4737.318029,76.609550,592.164754
1445.647653,-1924.535449,1762.019645,-222.061783
1445.647965,-1480.411884,0.000000,-0.000000
1445.648276,-3701.029710,-1608.800546,1036.288319
1445.648588,-8660.409521,-1225.752797,1554.432478
1445.648900,-9548.656652,766.095498,3108.864956
1445.649211,-9474.636058,229.828649,3108.864956
1445.649523,-9844.739029,-2068.457845,2072.576638
1445.649834,-7328.038826,-306.438199,592.164754
1445.650146,-5847.626942,-229.828649,-1184.329507
1445.650457,-6217.729913,-1378.971896,-222.061783
1445.650769,-9696.697840,-1991.848295,1258.350101
1445.651081,-12953.603985,-995.924147,2146.597232
1445.651392,-12805.562797,-612.876398,2368.659014
1445.651704,-12435.459826,-1608.800546,2368.659014
1445.652015,-10436.903782,-919.314598,740.205942
1445.652327,-7179.997637,1072.533697,-1110.308913
1445.652638,-5995.668130,612.876398,-2294.638420
1445.652950,-7105.977043,-612.876398,-518.144159
1445.653262,-10288.862594,-612.876398,222.061783
1445.653573,-13101.645173,995.924147,-148.041188
1445.653885,-13249.686362,1225.752797,518.144159
1445.654196,-11917.315666,0.000000,814.226536
1445.654508,-10658.965565,229.828649,-370.102971
1445.654819,-8956.491898,2298.286494,-1480.411884
1445.655131,-7254.018232,1762.019645,-1924.535449
1445.655443,-8216.285956,383.047749,-0.000000
1445.655754,-10807.006753,0.000000,1702.473667
1445.656066,-11843.295072,689.485948,1850.514855
1445.656377,-13027.624579,-383.047749,370.102971
1445.656689,-11325.150913,-153.219100,1406.391290
1445.657000,-8068.244768,1455.581446,-222.061783
1445.657312,-7328.038826,1149.143247,-1554.432478
1445.657624,-4885.359217,0.000000,-1110.308913
1445.657935,-6661.853478,-1225.752797,-518.144159
1445.658247,-8956.491898,-1225.752797,1110.308913
1445.658558,-9104.533087,1378.971896,2368.659014
1445.658870,-8882.471304,689.485948,2294.638420
1445.659181,-9178.553681,-536.266849,1850.514855
1445.659493,-6957.935855,1072.533697,1776.494261
1445.659805,-3330.926739,2451.505594,-740.205942
1445.660116,-3923.091493,1991.848295,-1332.370696
1445.660428,-5477.523971,0.000000,592.164754
1445.660739,-7772.162391,-995.924147,370.102971
1445.661051,-10214.842000,-919.314598,1332.370696
1445.661362,-9252.574275,-842.705048,2368.659014
1445.661674,-10510.924376,-1991.848295,1184.329507
1445.661986,-7920.203579,-1685.410096,592.164754
1445.662297,-5329.482782,-2145.067394,-370.102971
1445.662609,-6217.729913,-4060.306139,-296.082377
1445.662920,-8364.327145,-3294.210641,518.144159
1445.663232,-10436.903782,153.219100,1036.288319
1445.663543,-11621.233289,383.047749,1776.494261
1445.663855,-11917.315666,-766.095498,2664.741391
1445.664167,-10955.047942,-842.705048,1924.535449
1445.664478,-8364.327145,1072.533697,-0.000000
1445.664790,-7031.956449,2145.067394,-1258.350101
1445.665101,-6883.915261,2298.286494,-2146.597232
1445.665413,-8438.347739,2374.896044,-1554.432478
1445.665724,-10881.027347,1378.971896,-518.144159
1445.666036,-12213.398043,-842.705048,666.185348
1445.666348,-13915.871710,-1991.848295,370.102971
1445.666659,-13397.727550,383.047749,-592.164754
1445.666971,-11843.295072,2604.724693,-1406.391290
1445.667282,-9992.780217,919.314598,-1702.473667
1445.667594,-9252.574275,-229.828649,-222.061783
1445.667905,-9696.697840,-766.095498,666.185348
1445.668217,-10140.821405,-306.438199,2072.576638
1445.668529,-10732.986159,76.609550,3256.906145
1445.668840,-9696.697840,0.000000,3330.926739
1445.669152,-7254.018232,842.705048,1406.391290
1445.669463,-5255.462188,1608.800546,-444.123565
1445.669775,-4367.215058,1608.800546,-1924.535449
1445.670086,-6291.750507,1455.581446,-1332.370696
1445.670398,-9326.594869,1838.629195,-444.123565
1445.670710,-11399.171507,1072.533697,1258.350101
1445.671021,-11991.336260,-766.095498,2368.659014
1445.671333,-11103.089130,-1225.752797,3182.885551
1445.671644,-7994.224174,-995.924147,2146.597232
1445.671956,-3997.112087,995.924147,296.082377
1445.672267,-2146.597232,0.000000,-296.082377
1445.672579,-2590.720797,0.000000,592.164754
1445.672891,-4219.173869,-1532.190996,1258.350101
1445.673202,-8586.388927,-3064.381992,2664.741391
1445.673514,-10288.862594,-3447.429741,4219.173869
1445.673825,-10288.862594,-2451.505594,3034.844362
1445.674137,-9548.656652,-919.314598,1406.391290
1445.674448,-6291.750507,842.705048,-666.185348
1445.674760,-5699.585753,0.000000,-2072.576638
1445.675072,-6513.812290,-2145.067394,-666.185348
1445.675383,-8808.450710,-1685.410096,666.185348
1445.675695,-11843.295072,-919.314598,666.185348
1445.676006,-12805.562797,153.219100,1332.370696
1445.676318,-13175.665768,689.485948,1480.411884
1445.676629,-10288.862594,459.657299,296.082377
1445.676941,-7624.121203,612.876398,-1110.308913
1445.677253,-7105.977043,1455.581446,-1184.329507
1445.677564,-8808.450710,459.657299,-1184.329507
1445.677876,-10881.027347,1685.410096,296.082377
1445.678187,-11621.233289,1378.971896,1110.308913
1445.678499,-12805.562797,-306.438199,814.226536
1445.678810,-11103.089130,0.000000,-0.000000
1445.679122,-9844.739029,2068.457845,-1776.494261
1445.679433,-8438.347739,2451.505594,-2220.617826
1445.679745,-7846.182985,0.000000,-1850.514855
1445.680056,-11473.192101,-1608.800546,-592.164754
1445.680367,-13915.871710,-536.266849,1258.350101
1445.680679,-14063.912898,383.047749,1702.473667
1445.680990,-13175.665768,383.047749,1332.370696
1445.681302,-10066.800811,689.485948,444.123565
1445.681613,-6883.915261,919.314598,-888.247130
1445.681924,-4811.338623,842.705048,-0.000000
1445.682236,-4885.359217,842.705048,1036.288319
1445.682547,-6513.812290,76.609550,1628.453072
1445.682859,-8290.306550,0.000000,2664.741391
1445.683170,-9252.574275,-689.485948,2516.700203
1445.683482,-7550.100608,-306.438199,1776.494261
1445.683793,-6439.791695,76.609550,-592.164754
1445.684104,-3478.967927,536.266849,-592.164754
1445.684416,-2516.700203,0.000000,-1480.411884
1445.684727,-5403.503377,-2528.115143,370.102971
1445.685039,-8586.388927,-2298.286494,1924.535449
1445.685350,-10362.883188,-2528.115143,2664.741391
1445.685662,-10955.047942,-2451.505594,3552.988522
1445.685973,-9844.739029,-2451.505594,2738.761985
1445.686284,-8438.347739,-2221.676944,666.185348
1445.686596,-7624.121203,-1225.752797,222.061783
1445.686907,-5403.503377,-766.095498,148.041188
1445.687219,-6291.750507,-1378.971896,222.061783
1445.687530,-10140.821405,-1608.800546,962.267725
1445.687841,-10732.986159,-689.485948,1702.473667
1445.688153,-10584.944971,-536.266849,1332.370696
1445.688464,-10066.800811,153.219100,814.226536
1445.688776,-9178.553681,383.047749,-814.226536
1445.689087,-8364.327145,2145.067394,-2294.638420
1445.689399,-8142.265362,1762.019645,-1850.514855
1445.689710,-10436.903782,1378.971896,-518.144159
1445.690021,-13101.645173,1225.752797,444.123565
1445.690333,-14359.995275,1072.533697,1036.288319
1445.690644,-13767.830521,0.000000,1554.432478
1445.690956,-11325.150913,-612.876398,592.164754
1445.691267,-9622.677246,536.266849,-666.185348
1445.691579,-8290.306550,1455.581446,-1480.411884
1445.691890,-8068.244768,306.438199,-1628.453072
1445.692201,-8808.450710,-459.657299,-148.041188
1445.692513,-11325.150913,-229.828649,962.267725
1445.692824,-13545.768739,-153.219100,2294.638420
1445.693136,-11695.253884,0.000000,1480.411884
1445.693447,-8956.491898,1685.410096,962.267725
1445.693759,-6809.894666,2757.943793,-0.000000
1445.694070,-5699.585753,2757.943793,-1036.288319
1445.694381,-4885.359217,995.924147,-0.000000
1445.694693,-7105.977043,766.095498,592.164754
1445.695004,-8660.409521,1149.143247,1776.494261
1445.695316,-9252.574275,1149.143247,1332.370696
1445.695627,-8808.450710,0.000000,1998.556043
1445.695938,-7402.059420,-1915.238745,1036.288319
1445.696250,-4663.297435,-2298.286494,888.247130
1445.696561,-2738.761985,-1302.362347,-740.205942
1445.696873,-5403.503377,-1915.238745,-296.082377
1445.697184,-8142.265362,-2911.162892,1702.473667
1445.697496,-9178.553681,-3064.381992,2664.741391
1445.697807,-9548.656652,-2987.772442,3849.070898
1445.698118,-8438.347739,-3677.258390,3478.967927
1445.698430,-7105.977043,-2604.724693,1110.308913
1445.698741,-5921.647536,-842.705048,-0.000000
1445.699053,-3627.009116,-1072.533697,-444.123565
1445.699364,-5181.441594,-3677.258390,148.041188
1445.699676,-9622.677246,-5209.449386,592.164754
1445.699987,-12213.398043,-4443.353888,1036.288319
1445.700298,-12583.501014,-3983.696590,518.144159
1445.700610,-13027.624579,-3983.696590,222.061783
1445.700921,-11399.171507,-3370.820191,-592.164754
1445.701233,-10436.903782,-2681.334243,-2220.617826
1445.701544,-8660.409521,-2221.676944,-1184.329507
1445.701856,-9252.574275,-1838.629195,222.061783
1445.702167,-12139.377449,-2834.553343,1036.288319
1445.702478,-12953.603985,-2451.505594,1850.514855
1445.702790,-11695.253884,-1149.143247,1332.370696
1445.703101,-9770.718434,-612.876398,-74.020594
1445.703413,-8882.471304,766.095498,-1036.288319
1445.703724,-8142.265362,0.000000,-3256.906145
1445.704035,-6439.791695,536.266849,-3108.864956
1445.704347,-8734.430116,-1302.362347,-1998.556043
1445.704658,-13841.851115,-1762.019645,-0.000000
1445.704970,-16210.510130,-306.438199,666.185348
1445.705281,-15470.304188,-536.266849,1998.556043
1445.705593,-11177.109724,-2604.724693,3108.864956
1445.705904,-6513.812290,-3600.648841,1258.350101
1445.706215,-4811.338623,-3140.991542,-0.000000
1445.706527,-4145.153275,-4443.353888,-444.123565
1445.706838,-1924.535449,-5439.278036,296.082377
1445.707150,-4145.153275,-3370.820191,1406.391290
1445.707461,-8586.388927,-3753.867940,3034.844362
1445.707773,-11695.253884,-5286.058936,3627.009116
1445.708084,-11103.089130,-5975.544884,4441.235652
1445.708395,-7402.059420,-2987.772442,3478.967927
1445.708707,-5477.523971,-2451.505594,1110.308913
1445.709018,-4441.235652,-3677.258390,-518.144159
1445.709330,-3997.112087,-3830.477490,-888.247130
1445.709641,-3034.844362,-3140.991542,-592.164754
1445.709952,-4663.297435,-2757.943793,518.144159
1445.710264,-9400.615463,-4136.915689,2590.720797
1445.710575,-11399.171507,-6052.154434,2368.659014
1445.710887,-10881.027347,-6588.421283,3701.029710
1445.711198,-8586.388927,-5439.278036,3108.864956
1445.711510,-6957.935855,-5056.230287,370.102971
1445.711821,-8216.285956,-6665.030833,-1406.391290
1445.712132,-8216.285956,-6435.202183,-2220.617826
1445.712444,-7328.038826,-2451.505594,-2368.659014
1445.712755,-8586.388927,612.876398,-1036.288319
1445.713067,-12065.356855,-1762.019645,888.247130
1445.713378,-14804.118840,-4213.525239,3034.844362
1445.713690,-13841.851115,-2757.943793,2664.741391
1445.714001,-11843.295072,842.705048,1258.350101
1445.714312,-10288.862594,2451.505594,-666.185348
1445.714624,-9548.656652,0.000000,-2368.659014
1445.714935,-7105.977043,-2451.505594,-3182.885551
1445.715247,-5995.668130,-3217.601092,-4071.132681
1445.715558,-7328.038826,-1991.848295,-3182.885551
1445.715870,-10807.006753,-1762.019645,-740.205942
1445.716181,-13323.706956,-2757.943793,1406.391290
1445.716492,-13841.851115,-5592.497135,3034.844362
1445.716804,-14878.139434,-6971.469032,3108.864956
1445.717115,-14211.954086,-4903.011187,2516.700203
1445.717427,-10658.965565,-1378.971896,1628.453072
1445.717738,-7031.956449,-766.095498,-222.061783
1445.718049,-4515.256246,-3447.429741,-0.000000
1445.718361,-2886.803174,-4749.792088,-1628.453072
1445.718672,-3182.885551,-3983.696590,-592.164754
1445.718984,-5403.503377,-2528.115143,-0.000000
1445.719295,-8216.285956,-1455.581446,1110.308913
1445.719607,-10881.027347,-229.828649,1332.370696
1445.719918,-11547.212695,0.000000,1480.411884
1445.720229,-11769.274478,-229.828649,1850.514855
1445.720541,-11029.068536,0.000000,1998.556043
1445.720852,-8882.471304,1225.752797,1332.370696
1445.721164,-7105.977043,1915.238745,370.102971
1445.721475,-5033.400406,1608.800546,-518.144159
1445.721787,-1998.556043,229.828649,-148.041188
1445.722098,-740.205942,-2451.505594,-444.123565
1445.722409,-1776.494261,-5592.497135,-296.082377
1445.722721,-4515.256246,-6128.763984,-74.020594
1445.723032,-8364.327145,-3830.477490,-0.000000
1445.723344,-11695.253884,-2911.162892,1036.288319
1445.723655,-13841.851115,-3983.696590,2294.638420
1445.723966,-14804.118840,-5898.935335,3330.926739
1445.724278,-13915.871710,-6894.859482,4219.173869
1445.724589,-12509.480420,-6588.421283,3701.029710
1445.724901,-9622.677246,-5286.058936,2590.720797
1445.725212,-6291.750507,-5362.668486,740.205942
1445.725524,-4219.173869,-6052.154434,-0.000000
1445.725835,-3478.967927,-6358.592633,-666.185348
1445.726146,-4293.194464,-5745.716235,-1628.453072
1445.726458,-4737.318029,-4366.744339,-1480.411884
1445.726769,-6883.915261,-4290.134789,-1110.308913
1445.727081,-10436.903782,-5132.839837,-0.000000
1445.727392,-14211.954086,-4596.572988,1480.411884
1445.727704,-16062.468941,-3217.601092,2220.617826
1445.728015,-17320.819043,-2451.505594,2368.659014
1445.728326,-16876.695478,-842.705048,2368.659014
1445.728638,-13841.851115,-306.438199,1258.350101
1445.728949,-10214.842000,-1762.019645,-0.000000
1445.729261,-5403.503377,-3983.696590,-0.000000
1445.729572,-2516.700203,-5592.497135,-1036.288319
1445.729884,-2220.617826,-5132.839837,-2664.741391
1445.730195,-3478.967927,-3294.210641,-3256.906145
1445.730506,-7105.977043,-2451.505594,-2368.659014
1445.730818,-11103.089130,-2604.724693,-962.267725
1445.731129,-14211.954086,-2528.115143,518.144159
1445.731441,-16358.551318,-2681.334243,2072.576638
1445.731752,-16062.468941,-2221.676944,2442.679609
1445.732063,-13915.871710,-2068.457845,2294.638420
1445.732375,-10288.862594,-1762.019645,296.082377
1445.732686,-5107.421000,-1991.848295,-370.102971
1445.732998,-5255.462188,-1455.581446,-740.205942
1445.733309,-4737.318029,-1915.238745,222.061783
1445.733621,-2738.761985,-995.924147,-1184.329507
1445.733932,-3701.029710,-229.828649,-222.061783
1445.734243,-4663.297435,-2221.676944,222.061783
1445.734555,-5699.585753,-2987.772442,-296.082377
1445.734866,-7698.141797,-3217.601092,-148.041188
1445.735178,-9844.739029,-2528.115143,-74.020594
1445.735489,-11473.192101,-3447.429741,1036.288319
1445.735801,-12139.377449,-2757.943793,1850.514855
1445.736112,-12435.459826,-2451.505594,2886.803174
1445.736423,-10510.924376,-4596.572988,2738.761985
1445.736735,-7920.203579,-4903.011187,2664.741391
1445.737046,-5107.421000,-3217.601092,1406.391290
1445.737358,-4367.215058,-1608.800546,-666.185348
1445.737669,-4219.173869,-2221.676944,-740.205942
1445.737980,-4293.194464,-1225.752797,-1480.411884
1445.738292,-4959.379811,-995.924147,-1406.391290
1445.738603,-7402.059420,-2068.457845,-518.144159
1445.738915,-10658.965565,-2757.943793,518.144159
1445.739226,-12805.562797,-2451.505594,1554.432478
1445.739538,-13767.830521,-4136.915689,2664.741391
1445.739849,-13915.871710,-5592.497135,3478.967927
1445.740160,-13323.706956,-4826.401637,2812.782580
1445.740472,-11695.253884,-3217.601092,1554.432478
1445.740783,-9252.574275,-2221.676944,296.082377
1445.741095,-7179.997637,-1149.143247,-370.102971
1445.741406,-6143.709319,-306.438199,-296.082377
1445.741718,-5699.585753,-1149.143247,-1036.288319
1445.742029,-5477.523971,-2298.286494,-222.061783
1445.742340,-6883.915261,-3370.820191,592.164754
1445.742652,-9178.553681,-4290.134789,1554.432478
1445.742963,-10584.944971,-4826.401637,1480.411884
1445.743275,-12509.480420,-5209.449386,1554.432478
1445.743586,-13545.768739,-5286.058936,2146.597232
1445.743898,-13249.686362,-4903.011187,1776.494261
1445.744209,-12139.377449,-4903.011187,1480.411884
1445.744520,-9992.780217,-3294.210641,1110.308913
1445.744832,-7328.038826,-4443.353888,1184.329507
1445.745143,-5551.544565,-3600.648841,814.226536
1445.745455,-4737.318029,-3064.381992,148.041188
1445.745766,-4515.256246,-2221.676944,-0.000000
1445.746077,-5551.544565,-1915.238745,-518.144159
1445.746389,-7476.080014,-1225.752797,-888.247130
1445.746700,-8808.450710,-536.266849,-592.164754
1445.747012,-10732.986159,-2068.457845,-518.144159
1445.747323,-12065.356855,-1991.848295,592.164754
1445.747635,-11029.068536,-3140.991542,1554.432478
1445.747946,-10807.006753,-3140.991542,666.185348
1445.748257,-8512.368333,-2834.553343,1332.370696
1445.748569,-6513.812290,-2451.505594,296.082377
1445.748880,-7105.977043,-2604.724693,-962.267725
1445.749192,-4811.338623,-1762.019645,-370.102971
1445.749503,-4885.359217,-2068.457845,-2294.638420
1445.749815,-6809.894666,-3064.381992,444.123565
1445.750126,-10658.965565,-4749.792088,222.061783
1445.750437,-12583.501014,-3753.867940,1258.350101
1445.750749,-12361.439231,-2221.676944,1628.453072
1445.751060,-11399.171507,-2298.286494,2886.803174
1445.751372,-10584.944971,-3447.429741,2146.597232
1445.751683,-9178.553681,-4213.525239,1776.494261
1445.751995,-8142.265362,-3294.210641,1184.329507
1445.752306,-6439.791695,-919.314598,962.267725
1445.752617,-8660.409521,229.828649,814.226536
1445.752929,-10214.842000,995.924147,518.144159
1445.753240,-9252.574275,229.828649,1332.370696
1445.753552,-9030.512492,-766.095498,1110.308913
1445.753863,-7105.977043,-612.876398,1924.535449
1445.754174,-9030.512492,-2068.457845,1258.350101
1445.754486,-9992.780217,-3983.696590,3256.906145
1445.754797,-11251.130318,-4749.792088,3997.112087
1445.755109,-10510.924376,-2987.772442,5329.482782
1445.755420,-11769.274478,-1149.143247,5847.626942
1445.755732,-13175.665768,-1455.581446,5773.606348
1445.756043,-9474.636058,-612.876398,5181.441594
1445.756354,-6513.812290,1685.410096,3849.070898
1445.756666,-5255.462188,1762.019645,3256.906145
1445.756977,-4515.256246,612.876398,2886.803174
1445.757289,-6809.894666,-1149.143247,1924.535449
1445.757600,-6883.915261,0.000000,3923.091493
1445.757912,-7624.121203,229.828649,3552.988522
1445.758223,-11843.295072,-306.438199,3997.112087
1445.758534,-11917.315666,0.000000,6957.935855
1445.758846,-11177.109724,-1302.362347,6143.709319
1445.759157,-7920.203579,-1455.581446,7328.038826
1445.759469,-8068.244768,-689.485948,5329.482782
1445.759780,-7328.038826,995.924147,5181.441594
1445.760091,-5551.544565,1225.752797,3997.112087
1445.760403,-4737.318029,1225.752797,3034.844362
1445.760714,-4885.359217,2145.067394,3330.926739
1445.761026,-7920.203579,2374.896044,3034.844362
1445.761337,-9030.512492,1532.190996,4663.297435
1445.761649,-8734.430116,-459.657299,5033.400406
1445.761960,-8586.388927,-1072.533697,5477.523971
1445.762271,-9178.553681,-1455.581446,5699.585753
1445.762583,-9548.656652,-2451.505594,5773.606348
1445.762894,-8586.388927,-1455.581446,5181.441594
1445.763206,-7698.141797,689.485948,5107.421000
1445.763517,-8290.306550,2068.457845,3182.885551
1445.763829,-9252.574275,1915.238745,3552.988522
1445.764140,-9400.615463,2145.067394,3108.864956
1445.764451,-8068.244768,2681.334243,3849.070898
1445.764763,-8068.244768,1532.190996,2738.761985
1445.765074,-7105.977043,-306.438199,3330.926739
1445.765386,-7476.080014,-1302.362347,2812.782580
1445.765697,-6587.832884,-1455.581446,2886.803174
1445.766009,-6439.791695,-2221.676944,3108.864956
1445.766320,-8216.285956,-1762.019645,3330.926739
1445.766631,-10732.986159,-1532.190996,3701.029710
1445.766943,-11325.150913,-229.828649,3923.091493
1445.767254,-11251.130318,76.609550,3552.988522
1445.767566,-11103.089130,1225.752797,3256.906145
1445.767877,-10436.903782,1149.143247,2294.638420
1445.768188,-9178.553681,1302.362347,1332.370696
1445.768500,-7994.224174,536.266849,888.247130
1445.768811,-7476.080014,766.095498,1554.432478
1445.769123,-9918.759623,-919.314598,2072.576638
1445.769434,-10807.006753,-2604.724693,3478.967927
1445.769746,-10510.924376,-2987.772442,4145.153275
1445.770057,-10362.883188,-2604.724693,4515.256246
1445.770368,-9252.574275,-1838.629195,4071.132681
1445.770680,-8956.491898,-1608.800546,2738.761985
1445.770991,-7920.203579,0.000000,2368.659014
1445.771303,-6809.894666,1149.143247,1184.329507
1445.771614,-7698.141797,1302.362347,-222.061783
1445.771926,-8364.327145,1991.848295,370.102971
1445.772237,-10214.842000,2068.457845,740.205942
1445.772548,-11251.130318,1685.410096,2146.597232
1445.772860,-11621.233289,842.705048,3627.009116
1445.773171,-11843.295072,-536.266849,3849.070898
1445.773483,-11769.274478,-1608.800546,4441.235652
1445.773794,-9104.533087,-1685.410096,3997.112087
1445.774105,-6291.750507,-1225.752797,2590.720797
1445.774417,-4515.256246,-689.485948,2146.597232
1445.774728,-4737.318029,-459.657299,1258.350101
1445.775040,-7179.997637,0.000000,1850.514855
1445.775351,-9326.594869,842.705048,3404.947333
1445.775663,-12361.439231,2451.505594,5033.400406
1445.775974,-13397.727550,995.924147,6069.688724
1445.776285,-12065.356855,-153.219100,6587.832884
1445.776597,-9030.512492,-1685.410096,5403.503377
1445.776908,-4885.359217,-1685.410096,3849.070898
1445.777220,-3478.967927,-995.924147,2516.700203
1445.777531,-3923.091493,-306.438199,1924.535449
1445.777843,-5551.544565,-383.047749,2220.617826
1445.778154,-8068.244768,-153.219100,2442.679609
1445.778465,-10584.944971,689.485948,3923.091493
1445.778777,-12879.583391,766.095498,4737.318029
1445.779088,-12805.562797,1532.190996,5107.421000
1445.779400,-10436.903782,995.924147,4219.173869
1445.779711,-7772.162391,-383.047749,3330.926739
1445.780023,-6217.729913,-459.657299,3108.864956
1445.780334,-6143.709319,689.485948,2960.823768
1445.780646,-7920.203579,536.266849,3552.988522
1445.780957,-8512.368333,1302.362347,5551.544565
1445.781269,-10658.965565,919.314598,5921.647536
1445.781580,-11029.068536,766.095498,6809.894666
1445.781892,-10066.800811,229.828649,5477.523971
1445.782203,-7994.224174,1455.581446,3552.988522
1445.782515,-5995.668130,2834.553343,1776.494261
1445.782826,-5403.503377,3447.429741,370.102971
1445.783138,-6883.915261,2757.943793,-0.000000
1445.783449,-9326.594869,842.705048,1332.370696
1445.783761,-10955.047942,76.609550,3627.009116
1445.784072,-12731.542202,-1225.752797,5773.606348
1445.784384,-13767.830521,-3447.429741,7698.141797
1445.784695,-13249.686362,-4366.744339,8364.327145
1445.785007,-11621.233289,-3907.087040,8808.450710
1445.785318,-9548.656652,-2068.457845,7772.162391
1445.785630,-7624.121203,-1149.143247,6735.874072
1445.785941,-6069.688724,536.266849,4145.153275
1445.786253,-3849.070898,1455.581446,2590.720797
1445.786564,-2220.617826,2451.505594,1702.473667
1445.786876,-2738.761985,2987.772442,1110.308913
1445.787187,-5255.462188,1991.848295,1702.473667
1445.787499,-7476.080014,919.314598,2368.659014
1445.787810,-9178.553681,-995.924147,4441.235652
1445.788122,-12435.459826,-536.266849,5551.544565
1445.788433,-14878.139434,-1225.752797,6883.915261
1445.788745,-15322.262999,-1149.143247,6957.935855
1445.789056,-13471.748144,-459.657299,6809.894666
1445.789368,-10214.842000,0.000000,5773.606348
1445.789679,-6291.750507,0.000000,4737.318029
1445.789991,-3330.926739,-459.657299,2960.823768
1445.790302,-518.144159,153.219100,1406.391290
1445.790614,-370.102971,229.828649,-0.000000
1445.790925,-2220.617826,1455.581446,-148.041188
1445.791237,-5625.565159,689.485948,-148.041188
1445.791548,-10510.924376,-229.828649,1258.350101
1445.791860,-15544.324782,-689.485948,3256.906145
1445.792171,-18283.086767,-689.485948,5921.647536
1445.792483,-20281.642811,-612.876398,7105.977043
1445.792794,-18061.024985,-229.828649,7031.956449
1445.793106,-12731.542202,153.219100,5773.606348
1445.793417,-6439.791695,536.266849,3552.988522
1445.793729,-296.082377,612.876398,1184.329507
1445.794040,2220.617826,2068.457845,-1776.494261
1445.794352,2442.679609,1991.848295,-3701.029710
1445.794663,-592.164754,1685.410096,-3034.844362
1445.794975,-6291.750507,689.485948,-1184.329507
1445.795286,-12879.583391,0.000000,1850.514855
1445.795598,-18653.189738,-1149.143247,5107.421000
1445.795909,-21984.116477,-1532.190996,7624.121203
1445.796221,-20725.766376,-1915.238745,8512.368333
1445.796532,-16506.592507,-2681.334243,7698.141797
1445.796844,-10955.047942,-2911.162892,6957.935855
1445.797155,-5625.565159,-2757.943793,3330.926739
1445.797467,-814.226536,-1838.629195,370.102971
1445.797778,1924.535449,919.314598,-2146.597232
1445.798090,962.267725,2681.334243,-2442.679609
1445.798401,-2664.741391,2298.286494,-1554.432478
1445.798713,-9178.553681,1532.190996,296.082377
1445.799024,-14063.912898,1608.800546,2886.803174
1445.799336,-17394.839637,1991.848295,5477.523971
1445.799647,-17912.983796,1532.190996,7328.038826
1445.799959,-14508.036463,-612.876398,7179.997637
1445.800270,-11251.130318,-2451.505594,5847.626942
1445.800582,-5329.482782,-1838.629195,4145.153275
1445.800893,-2146.597232,0.000000,2516.700203
1445.801205,-1184.329507,1378.971896,1332.370696
1445.801516,-2368.659014,1149.143247,1554.432478
1445.801828,-6809.894666,0.000000,2072.576638
1445.802139,-9104.533087,306.438199,2516.700203
1445.802451,-9844.739029,1991.848295,3256.906145
1445.802762,-10584.944971,2757.943793,2738.761985
1445.803074,-11991.336260,536.266849,3478.967927
1445.803385,-13619.789333,-1455.581446,4441.235652
1445.803697,-12435.459826,-1455.581446,6587.832884
1445.804008,-9992.780217,-1608.800546,6957.935855
1445.804320,-7846.182985,-1225.752797,5255.462188
1445.804631,-6957.935855,-995.924147,3701.029710
1445.804943,-6661.853478,1455.581446,4367.215058
1445.805254,-5551.544565,1532.190996,3404.947333
1445.805566,-4885.359217,1532.190996,1332.370696
1445.805877,-5625.565159,1608.800546,-148.041188
1445.806189,-4811.338623,1991.848295,-1258.350101
1445.806500,-4589.276840,1915.238745,-592.164754
1445.806811,-7402.059420,689.485948,962.267725
1445.807123,-12509.480420,-1838.629195,3552.988522
1445.807434,-16950.716072,-3447.429741,6809.894666
1445.807746,-17616.901420,-4060.306139,9474.636058
1445.808057,-15026.180623,-3753.867940,9030.512492
1445.808369,-9844.739029,-3830.477490,5625.565159
1445.808680,-5921.647536,-2987.772442,1332.370696
1445.808992,-888.247130,0.000000,-2664.741391
1445.809303,2368.659014,2298.286494,-4219.173869
1445.809615,1184.329507,4519.963438,-5181.441594
1445.809926,-4293.194464,3524.039291,-5033.400406
1445.810238,-8512.368333,2451.505594,-1702.473667
1445.810549,-12287.418637,-153.219100,740.205942
1445.810861,-15544.324782,0.000000,2590.720797
1445.811172,-16654.633695,-229.828649,2664.741391
1445.811484,-16876.695478,-1072.533697,2368.659014
1445.811795,-14582.057057,-1685.410096,814.226536
1445.812107,-10732.986159,-919.314598,-0.000000
1445.812418,-6809.894666,-459.657299,-1850.514855
1445.812730,-4293.194464,842.705048,-3849.070898
1445.813041,-2812.782580,842.705048,-3997.112087
1445.813353,-2294.638420,-229.828649,-4367.215058
1445.813664,-4589.276840,-306.438199,-3701.029710
1445.813976,-9474.636058,153.219100,-2738.761985
1445.814287,-13915.871710,612.876398,-370.102971
1445.814599,-16950.716072,229.828649,888.247130
1445.814910,-18209.066173,-536.266849,3034.844362
1445.815222,-16728.654289,-2068.457845,2738.761985
1445.815533,-13101.645173,-2757.943793,1258.350101
1445.815845,-7994.224174,-2298.286494,296.082377
1445.816156,-4811.338623,-1685.410096,-1628.453072
1445.816468,-4293.194464,-459.657299,-2146.597232
1445.816779,-5033.400406,1149.143247,-3404.947333
1445.817091,-7328.038826,2451.505594,-2886.803174
1445.817402,-8882.471304,2145.067394,-1184.329507
1445.817714,-9844.739029,1149.143247,-814.226536
1445.818025,-9992.780217,-536.266849,-518.144159
1445.818337,-9178.553681,-1915.238745,-0.000000
1445.818648,-9992.780217,-2987.772442,1258.350101
1445.818960,-9548.656652,-3370.820191,2664.741391
1445.819271,-9770.718434,-2911.162892,3182.885551
1445.819583,-9770.718434,-2757.943793,2812.782580
1445.819894,-10362.883188,-1225.752797,3256.906145
1445.820206,-9622.677246,306.438199,1406.391290
1445.820517,-6735.874072,2145.067394,-1258.350101
1445.820829,-4219.173869,2911.162892,-3775.050304
1445.821140,-3330.926739,3370.820191,-4441.235652
1445.821452,-4441.235652,4136.915689,-4145.153275
1445.821763,-8142.265362,3524.039291,-2812.782580
1445.822075,-11991.336260,1838.629195,1776.494261
1445.822386,-14211.954086,-306.438199,4737.318029
1445.822698,-11695.253884,-3753.867940,5329.482782
1445.823009,-9326.594869,-4136.915689,3997.112087
1445.823321,-7179.997637,-2068.457845,3701.029710
1445.823632,-7031.956449,-689.485948,2220.617826
1445.823944,-8142.265362,536.266849,1184.329507
1445.824255,-8364.327145,1378.971896,666.185348
1445.824567,-7624.121203,1302.362347,-0.000000
1445.824878,-6883.915261,2604.724693,-740.205942
1445.825190,-5847.626942,2528.115143,-1110.308913
1445.825501,-5773.606348,766.095498,-2072.576638
1445.825813,-7031.956449,-1302.362347,-814.226536
1445.826124,-10584.944971,-1991.848295,1628.453072
1445.826436,-13915.871710,-2068.457845,3701.029710
1445.826747,-16580.613101,-2068.457845,5921.647536
1445.827059,-15840.407159,-2834.553343,6069.688724
1445.827370,-11769.274478,-1378.971896,3404.947333
1445.827682,-6587.832884,-1149.143247,1406.391290
1445.827993,-2664.741391,-689.485948,-814.226536
1445.828305,-1480.411884,0.000000,-3330.926739
1445.828616,-2516.700203,1608.800546,-3849.070898
1445.828928,-6809.894666,2681.334243,-2368.659014
1445.829239,-10510.924376,2528.115143,-0.000000
1445.829551,-13027.624579,1608.800546,2220.617826
1445.829862,-12879.583391,0.000000,2812.782580
1445.830174,-11695.253884,-766.095498,2590.720797
1445.830485,-9400.615463,-1378.971896,2812.782580
1445.830797,-7920.203579,-1685.410096,1036.288319
1445.831108,-7105.977043,-1532.190996,-0.000000
1445.831420,-7772.162391,-536.266849,-370.102971
1445.831731,-8882.471304,842.705048,-740.205942
1445.832043,-9104.533087,1225.752797,-370.102971
1445.832354,-8142.265362,1149.143247,-222.061783
1445.832666,-7402.059420,-612.876398,-1406.391290
1445.832977,-5921.647536,-1225.752797,-1110.308913
1445.833289,-6069.688724,-1838.629195,-296.082377
1445.833600,-8586.388927,-2221.676944,888.247130
1445.833912,-9992.780217,-2145.067394,1998.556043
1445.834223,-11103.089130,-842.705048,2146.597232
1445.834535,-11695.253884,383.047749,1628.453072
1445.834846,-10140.821405,612.876398,1554.432478
1445.835158,-8956.491898,919.314598,-1258.350101
1445.835469,-6513.812290,1302.362347,-2886.803174
1445.835780,-5403.503377,1302.362347,-4589.276840
1445.836092,-7624.121203,1608.800546,-5255.462188
1445.836403,-9326.594869,2681.334243,-4367.215058
1445.836715,-11991.336260,2221.676944,-2072.576638
1445.837026,-13989.892304,306.438199,962.267725
1445.837338,-14285.974681,-2374.896044,2738.761985
1445.837649,-12065.356855,-2987.772442,1850.514855
1445.837961,-7846.182985,-2604.724693,592.164754
1445.838272,-5329.482782,-2221.676944,-518.144159
1445.838584,-7105.977043,-919.314598,-888.247130
1445.838895,-10436.903782,306.438199,-222.061783
1445.839207,-10732.986159,1225.752797,222.061783
1445.839518,-10214.842000,1532.190996,-518.144159
1445.839830,-8586.388927,1378.971896,-1776.494261
1445.840141,-5255.462188,1762.019645,-2368.659014
1445.840453,-5773.606348,76.609550,-2960.823768
1445.840764,-7846.182985,-689.485948,-1554.432478
1445.841076,-10955.047942,-842.705048,1184.329507
1445.841387,-13397.727550,-1838.629195,2960.823768
1445.841699,-14952.160028,-1762.019645,4737.318029
1445.842010,-13767.830521,-2757.943793,4737.318029
1445.842322,-8956.491898,-2298.286494,3330.926739
1445.842633,-4663.297435,-919.314598,1258.350101
1445.842945,-2294.638420,-766.095498,-518.144159
1445.843256,-3997.112087,-995.924147,-1406.391290
1445.843568,-6365.771101,689.485948,-1036.288319
1445.843879,-8734.430116,2374.896044,148.041188
1445.844191,-9992.780217,2298.286494,1258.350101
1445.844502,-9622.677246,1225.752797,2072.576638
1445.844814,-8882.471304,306.438199,2072.576638
1445.845125,-7031.956449,-1378.971896,1406.391290
1445.845437,-6661.853478,-1455.581446,2146.597232
1445.845748,-8808.450710,-1149.143247,1850.514855
1445.846060,-12139.377449,919.314598,2812.782580
1445.846371,-13249.686362,689.485948,3627.009116
1445.846683,-11547.212695,1762.019645,3034.844362
1445.846994,-8438.347739,1455.581446,1480.411884
1445.847306,-6069.688724,1915.238745,-0.000000
1445.847617,-3330.926739,1149.143247,-148.041188
1445.847929,-2960.823768,-383.047749,-814.226536
1445.848240,-5403.503377,0.000000,592.164754
1445.848552,-9474.636058,0.000000,1480.411884
1445.848863,-12435.459826,229.828649,3034.844362
1445.849175,-12583.501014,0.000000,4145.153275
1445.849486,-11029.068536,612.876398,3849.070898
1445.849798,-9104.533087,0.000000,1850.514855
1445.850109,-7920.203579,-383.047749,-0.000000
1445.850421,-7476.080014,0.000000,-222.061783
1445.850732,-7772.162391,0.000000,-1258.350101
1445.851044,-9104.533087,1149.143247,-740.205942
1445.851355,-10436.903782,1838.629195,-370.102971
1445.851667,-10510.924376,383.047749,222.061783
1445.851978,-9474.636058,-842.705048,740.205942
1445.852290,-7254.018232,-2757.943793,296.082377
1445.852601,-5033.400406,-3217.601092,370.102971
1445.852913,-5477.523971,-3064.381992,-888.247130
1445.853224,-7772.162391,-2451.505594,-296.082377
1445.853536,-9918.759623,-1378.971896,666.185348
1445.853847,-12805.562797,766.095498,1480.411884
1445.854159,-14211.954086,1915.238745,1998.556043
1445.854470,-13101.645173,2451.505594,1036.288319
1445.854782,-9474.636058,2374.896044,-962.267725
1445.855093,-5403.503377,1608.800546,-3108.864956
1445.855405,-3330.926739,919.314598,-4589.276840
1445.855716,-5255.462188,919.314598,-4071.132681
1445.856028,-9918.759623,229.828649,-1480.411884
1445.856339,-13471.748144,-1685.410096,1628.453072
1445.856651,-15174.221811,-2298.286494,2886.803174
1445.856962,-13915.871710,-2834.553343,3627.009116
1445.857274,-10510.924376,-2911.162892,1998.556043
1445.857585,-7994.224174,-1378.971896,814.226536
1445.857897,-5699.585753,-459.657299,370.102971
1445.858208,-5255.462188,-1838.629195,-814.226536
1445.858520,-6069.688724,-689.485948,-1480.411884
1445.858831,-8142.265362,1455.581446,-1036.288319
1445.859143,-9178.553681,3140.991542,814.226536
1445.859454,-9844.739029,3064.381992,888.247130
1445.859766,-11547.212695,1915.238745,814.226536
1445.860077,-10955.047942,306.438199,1184.329507
1445.860389,-10288.862594,-153.219100,1332.370696
1445.860700,-9474.636058,1455.581446,1480.411884
1445.861012,-9474.636058,1685.410096,1184.329507
1445.861323,-8956.491898,612.876398,1184.329507
1445.861635,-7402.059420,-306.438199,814.226536
1445.861946,-5699.585753,306.438199,592.164754
1445.862258,-4959.379811,459.657299,592.164754
1445.862569,-5625.565159,-153.219100,1628.453072
1445.862881,-8882.471304,-1225.752797,1554.432478
1445.863192,-9918.759623,-689.485948,2220.617826
1445.863504,-10584.944971,153.219100,2738.761985
1445.863815,-9474.636058,1225.752797,2516.700203
1445.864127,-7254.018232,459.657299,2220.617826
1445.864438,-5921.647536,-306.438199,-0.000000
1445.864750,-6439.791695,-995.924147,-0.000000
1445.865061,-7994.224174,153.219100,1110.308913
1445.865372,-9326.594869,1532.190996,1924.535449
1445.865684,-12583.501014,1455.581446,2072.576638
1445.865995,-14359.995275,76.609550,2738.761985
1445.866307,-12287.418637,-766.095498,2442.679609
1445.866618,-8216.285956,0.000000,1924.535449
1445.866930,-5107.421000,-306.438199,444.123565
1445.867241,-4293.194464,-1762.019645,-0.000000
1445.867553,-5329.482782,-3753.867940,370.102971
1445.867864,-8068.244768,-3370.820191,1628.453072
1445.868176,-10288.862594,-1991.848295,3256.906145
1445.868487,-11991.336260,-842.705048,4145.153275
1445.868799,-12435.459826,0.000000,3775.050304
1445.869110,-9992.780217,0.000000,2072.576638
1445.869422,-7105.977043,-536.266849,-296.082377
1445.869733,-5403.503377,689.485948,-2886.803174
1445.870045,-4737.318029,2298.286494,-2812.782580
1445.870356,-8290.306550,2528.115143,-1998.556043
1445.870668,-11917.315666,1915.238745,-0.000000
1445.870979,-14508.036463,689.485948,2146.597232
1445.871291,-13101.645173,995.924147,2220.617826
1445.871602,-9548.656652,766.095498,1998.556043
1445.871914,-6661.853478,-229.828649,370.102971
1445.872225,-4737.318029,-1072.533697,-1110.308913
1445.872537,-4515.256246,-689.485948,-2072.576638
1445.872848,-7105.977043,0.000000,-1702.473667
1445.873160,-8956.491898,1455.581446,-592.164754
1445.873471,-10362.883188,2451.505594,-148.041188
1445.873783,-9844.739029,1838.629195,-1258.350101
1445.874094,-8660.409521,766.095498,-1702.473667
1445.874406,-6883.915261,306.438199,-2072.576638
1445.874717,-6291.750507,459.657299,-2220.617826
1445.875029,-8068.244768,76.609550,-1628.453072
1445.875340,-11251.130318,-919.314598,-740.205942
1445.875652,-13323.706956,-842.705048,1184.329507
1445.875963,-14137.933492,-1532.190996,1924.535449
1445.876275,-11399.171507,-1762.019645,1258.350101
1445.876586,-8438.347739,-1608.800546,-0.000000
1445.876898,-4885.359217,-1762.019645,-592.164754
1445.877209,-5181.441594,-1455.581446,-1554.432478
1445.877521,-7254.018232,-2221.676944,-1184.329507
1445.877832,-9474.636058,-995.924147,-592.164754
1445.878144,-11177.109724,1838.629195,814.226536
1445.878455,-11695.253884,2068.457845,2294.638420
1445.878767,-11325.150913,1378.971896,2368.659014
1445.879078,-8956.491898,-459.657299,592.164754
1445.879389,-5995.668130,-1149.143247,-592.164754
1445.879701,-5699.585753,-766.095498,-962.267725
1445.880012,-8142.265362,229.828649,814.226536
1445.880324,-13249.686362,0.000000,1036.288319
1445.880635,-16136.489536,-306.438199,2960.823768
1445.880947,-15618.345376,-536.266849,4367.215058
1445.881258,-11769.274478,-612.876398,3775.050304
1445.881569,-7031.956449,-689.485948,1850.514855
1445.881881,-2886.803174,-1455.581446,-148.041188
1445.882192,-1628.453072,-2145.067394,-1110.308913
1445.882504,-2738.761985,-1762.019645,-444.123565
1445.882815,-6957.935855,-229.828649,1184.329507
1445.883127,-10955.047942,1378.971896,2812.782580
1445.883438,-13619.789333,766.095498,4737.318029
1445.883749,-13027.624579,612.876398,3997.112087
1445.884061,-9252.574275,1608.800546,888.247130
1445.884372,-5477.523971,2374.896044,-370.102971
1445.884684,-3923.091493,2145.067394,-1628.453072
1445.884995,-4515.256246,2068.457845,-2072.576638
1445.885307,-7476.080014,2451.505594,-1110.308913
1445.885618,-10214.842000,2604.724693,666.185348
1445.885929,-11177.109724,1532.190996,2812.782580
1445.886241,-9474.636058,153.219100,3034.844362
1445.886552,-7179.997637,-1225.752797,518.144159
1445.886864,-6365.771101,-2145.067394,740.205942
1445.887175,-8068.244768,-2834.553343,222.061783
1445.887487,-8808.450710,-2604.724693,592.164754
1445.887798,-9030.512492,-1608.800546,296.082377
1445.888109,-9474.636058,-766.095498,-0.000000
1445.888421,-8882.471304,-612.876398,-0.000000
1445.888732,-8290.306550,-766.095498,-666.185348
1445.889044,-7179.997637,-229.828649,-1184.329507
1445.889355,-7624.121203,-306.438199,-962.267725
1445.889667,-9992.780217,229.828649,-148.041188
1445.889978,-13101.645173,689.485948,814.226536
1445.890289,-14582.057057,-306.438199,1332.370696
1445.890601,-13767.830521,-842.705048,740.205942
1445.890912,-10955.047942,-536.266849,222.061783
1445.891224,-7105.977043,0.000000,-1332.370696
1445.891535,-4589.276840,-995.924147,-2072.576638
1445.891847,-5033.400406,-2834.553343,-2220.617826
1445.892158,-8290.306550,-2911.162892,-1480.411884
1445.892469,-11621.233289,-1532.190996,222.061783
1445.892781,-12805.562797,76.609550,1554.432478
1445.893092,-12287.418637,995.924147,1480.411884
1445.893404,-10288.862594,1149.143247,814.226536
1445.893715,-7920.203579,153.219100,-1036.288319
1445.894026,-6809.894666,459.657299,-1998.556043
1445.894338,-6587.832884,919.314598,-1332.370696
1445.894649,-9030.512492,1915.238745,-148.041188
1445.894961,-11547.212695,536.266849,814.226536
1445.895272,-12509.480420,-536.266849,814.226536
1445.895584,-11177.109724,612.876398,1036.288319
1445.895895,-8068.244768,2298.286494,666.185348
1445.896206,-5551.544565,1225.752797,-0.000000
1445.896518,-4589.276840,-536.266849,-814.226536
1445.896829,-6069.688724,-1532.190996,-1406.391290
1445.897141,-8290.306550,-1072.533697,444.123565
1445.897452,-9770.718434,1685.410096,1702.473667
1445.897764,-11399.171507,2451.505594,2368.659014
1445.898075,-10732.986159,306.438199,3108.864956
1445.898386,-8216.285956,-2451.505594,1628.453072
1445.898698,-4293.194464,-2528.115143,-666.185348
1445.899009,-3256.906145,306.438199,-1554.432478
1445.899321,-6291.750507,689.485948,-296.082377
1445.899632,-11251.130318,-1149.143247,222.061783
1445.899944,-14063.912898,-1455.581446,518.144159
1445.900255,-13767.830521,-306.438199,2368.659014
1445.900566,-11029.068536,0.000000,2960.823768
1445.900878,-8364.327145,0.000000,1702.473667
1445.901189,-5477.523971,-1149.143247,-148.041188
1445.901501,-4441.235652,-2451.505594,-1332.370696
1445.901812,-5329.482782,-2451.505594,-592.164754
1445.902124,-7698.141797,-229.828649,370.102971
1445.902435,-10658.965565,1302.362347,592.164754
1445.902746,-11991.336260,919.314598,1258.350101
1445.903058,-11843.295072,76.609550,814.226536
1445.903369,-9400.615463,1072.533697,-148.041188
1445.903681,-7772.162391,2298.286494,-1184.329507
1445.903992,-8734.430116,1225.752797,-814.226536
1445.904304,-9252.574275,-766.095498,-666.185348
1445.904615,-10288.862594,-229.828649,-888.247130
1445.904926,-10658.965565,766.095498,-222.061783
1445.905238,-10288.862594,459.657299,814.226536
1445.905549,-8956.491898,153.219100,962.267725
1445.905861,-8512.368333,-919.314598,666.185348
1445.906172,-9178.553681,-2221.676944,1628.453072
1445.906484,-9326.594869,-3600.648841,1406.391290
1445.906795,-9474.636058,-2451.505594,1110.308913
1445.907106,-8882.471304,-536.266849,814.226536
1445.907418,-8216.285956,-383.047749,222.061783
1445.907729,-8734.430116,459.657299,518.144159
1445.908041,-8438.347739,2068.457845,444.123565
1445.908352,-7031.956449,1378.971896,-0.000000
1445.908664,-6217.729913,919.314598,370.102971
1445.908975,-6735.874072,1225.752797,222.061783
1445.909286,-8660.409521,1225.752797,-0.000000
1445.909598,-9918.759623,229.828649,888.247130
1445.909909,-10732.986159,383.047749,1702.473667
1445.910221,-9992.780217,766.095498,1554.432478
1445.910532,-8956.491898,306.438199,1184.329507
1445.910844,-8068.244768,-383.047749,1184.329507
1445.911155,-7031.956449,-842.705048,444.123565
1445.911466,-5329.482782,-2068.457845,-0.000000
1445.911778,-6069.688724,-1455.581446,148.041188
1445.912089,-8882.471304,0.000000,-0.000000
1445.912401,-9918.759623,1149.143247,1628.453072
1445.912712,-10510.924376,153.219100,2220.617826
1445.913024,-9548.656652,-612.876398,1628.453072
1445.913335,-8216.285956,-612.876398,-0.000000
1445.913646,-6661.853478,306.438199,-1850.514855
1445.913958,-6217.729913,1225.752797,-1924.535449
1445.914269,-8660.409521,306.438199,-1554.432478
1445.914581,-11103.089130,-229.828649,148.041188
1445.914892,-15396.283594,842.705048,2294.638420
1445.915204,-15322.262999,612.876398,4441.235652
1445.915515,-12213.398043,-1378.971896,2960.823768
1445.915826,-7105.977043,-2145.067394,-222.061783
1445.916138,-2590.720797,-383.047749,-1998.556043
1445.916449,-2812.782580,153.219100,-2072.576638
1445.916761,-6957.935855,-536.266849,-1110.308913
1445.917072,-11621.233289,0.000000,222.061783
1445.917384,-14137.933492,-153.219100,2516.700203
1445.917695,-14285.974681,-229.828649,3552.988522
1445.918006,-11843.295072,0.000000,2368.659014
1445.918318,-7105.977043,-383.047749,-1036.288319
1445.918629,-4293.194464,-1149.143247,-2886.803174
1445.918941,-3775.050304,-612.876398,-2664.741391
1445.919252,-7254.018232,-536.266849,-1184.329507
1445.919564,-11843.295072,1149.143247,444.123565
1445.919875,-15248.242405,1915.238745,2146.597232
1445.920186,-14508.036463,2145.067394,3849.070898
1445.920498,-11917.315666,1149.143247,2072.576638
1445.920809,-8290.306550,1072.533697,962.267725
1445.921121,-4441.235652,0.000000,-1258.350101
1445.921432,-2664.741391,-229.828649,-2590.720797
1445.921744,-3552.988522,842.705048,-1998.556043
1445.922055,-7254.018232,842.705048,-962.267725
1445.922366,-10881.027347,0.000000,592.164754
1445.922678,-10955.047942,76.609550,1480.411884
1445.922989,-9474.636058,842.705048,444.123565
1445.923301,-8808.450710,0.000000,-74.020594
1445.923612,-7624.121203,-1225.752797,1480.411884
1445.923924,-7920.203579,-2374.896044,148.041188
1445.924235,-8142.265362,-1225.752797,-0.000000
1445.924546,-9178.553681,536.266849,1776.494261
1445.924858,-10955.047942,689.485948,2368.659014
1445.925169,-11029.068536,76.609550,2294.638420
1445.925481,-9030.512492,-1302.362347,1258.350101
1445.925792,-6439.791695,-2145.067394,1110.308913
1445.926104,-5033.400406,-1072.533697,888.247130
1445.926415,-7179.997637,-76.609550,148.041188
1445.926726,-9178.553681,0.000000,-444.123565
1445.927038,-10362.883188,76.609550,1406.391290
1445.927349,-11547.212695,1225.752797,2812.782580
1445.927661,-11251.130318,1685.410096,2368.659014
1445.927972,-10288.862594,1302.362347,1702.473667
1445.928283,-7994.224174,459.657299,1850.514855
1445.928595,-6291.750507,-612.876398,1184.329507
1445.928906,-7624.121203,-995.924147,888.247130
1445.929218,-9252.574275,-383.047749,2072.576638
1445.929529,-10881.027347,-536.266849,2886.803174
1445.929841,-11473.192101,-612.876398,3034.844362
1445.930152,-10658.965565,-536.266849,2516.700203
1445.930463,-8882.471304,-1302.362347,1702.473667
1445.930775,-6957.935855,-1072.533697,1776.494261
1445.931086,-5107.421000,-612.876398,1184.329507
1445.931398,-6883.915261,76.609550,962.267725
1445.931709,-10066.800811,1378.971896,2146.597232
1445.932021,-11769.274478,1838.629195,3552.988522
1445.932332,-10584.944971,1378.971896,2960.823768
1445.932643,-7254.018232,842.705048,296.082377
1445.932955,-3997.112087,1915.238745,-814.226536
1445.933266,-4293.194464,1378.971896,-1258.350101
1445.933578,-6809.894666,536.266849,-1036.288319
1445.933889,-10362.883188,0.000000,148.041188
1445.934201,-12731.542202,229.828649,1480.411884
1445.934512,-12657.521608,306.438199,3034.844362
1445.934823,-11029.068536,76.609550,1850.514855
1445.935135,-8142.265362,-306.438199,296.082377
1445.935446,-5033.400406,-2145.067394,-1184.329507
1445.935758,-2886.803174,-1378.971896,-2368.659014
1445.936069,-3552.988522,-229.828649,-2294.638420
1445.936381,-7476.080014,766.095498,-2590.720797
1445.936692,-11325.150913,1072.533697,-370.102971
1445.937003,-14656.077652,459.657299,1110.308913
1445.937315,-15396.283594,842.705048,1110.308913
1445.937626,-12435.459826,2298.286494,-0.000000
1445.937938,-8142.265362,1302.362347,-1776.494261
1445.938249,-5625.565159,-689.485948,-2664.741391
1445.938561,-5699.585753,-2145.067394,-2960.823768
1445.938872,-7846.182985,-1378.971896,-2590.720797
1445.939183,-10732.986159,612.876398,-592.164754
1445.939495,-12805.562797,919.314598,1480.411884
1445.939806,-12731.542202,-612.876398,1628.453072
1445.940118,-11325.150913,-2298.286494,888.247130
1445.940429,-7772.162391,-2145.067394,-74.020594
1445.940741,-6069.688724,-1455.581446,-1406.391290
1445.941052,-6809.894666,-76.609550,-1406.391290
1445.941363,-8734.430116,-153.219100,-1184.329507
1445.941675,-11399.171507,-766.095498,-0.000000
1445.941986,-13323.706956,-995.924147,1776.494261
1445.942298,-13101.645173,536.266849,2442.679609
1445.942609,-10881.027347,919.314598,1184.329507
1445.942921,-8364.327145,-383.047749,296.082377
1445.943232,-6883.915261,-612.876398,-148.041188
1445.943543,-7402.059420,-536.266849,148.041188
1445.943855,-9400.615463,-383.047749,1628.453072
1445.944166,-10140.821405,-153.219100,2072.576638
1445.944478,-9104.533087,689.485948,2294.638420
1445.944789,-7254.018232,1378.971896,2590.720797
1445.945101,-5847.626942,383.047749,1924.535449
1445.945412,-4959.379811,-842.705048,2072.576638
1445.945723,-5625.565159,0.000000,518.144159
1445.946035,-7179.997637,1072.533697,962.267725
1445.946346,-8734.430116,2834.553343,1258.350101
1445.946658,-10584.944971,2528.115143,1776.494261
1445.946969,-10288.862594,1225.752797,1184.329507
1445.947281,-7846.182985,1225.752797,814.226536
1445.947592,-6957.935855,1915.238745,296.082377
1445.947903,-6513.812290,1685.410096,-0.000000
1445.948215,-6883.915261,0.000000,666.185348
1445.948526,-9178.553681,-1685.410096,814.226536
1445.948838,-10658.965565,-689.485948,2368.659014
1445.949149,-11325.150913,76.609550,3034.844362
1445.949461,-10362.883188,-689.485948,4145.153275
1445.949772,-8068.244768,-2834.553343,1850.514855
1445.950083,-4811.338623,-3447.429741,-0.000000
1445.950395,-3997.112087,-1378.971896,370.102971
1445.950706,-6217.729913,229.828649,1110.308913
1445.951018,-11103.089130,536.266849,1406.391290
1445.951329,-14137.933492,0.000000,2220.617826
1445.951641,-15026.180623,383.047749,2590.720797
1445.951952,-11991.336260,1685.410096,2072.576638
1445.952263,-7698.141797,1378.971896,-740.205942
1445.952575,-4219.173869,-229.828649,-2738.761985
1445.952886,-4071.132681,-1378.971896,-4367.215058
1445.953198,-5921.647536,-1991.848295,-3552.988522
1445.953509,-10066.800811,-766.095498,-1184.329507
1445.953821,-14952.160028,612.876398,2664.741391
1445.954132,-18283.086767,-766.095498,4589.276840
1445.954443,-16728.654289,-1455.581446,3775.050304
1445.954755,-10436.903782,-1225.752797,1554.432478
1445.955066,-3997.112087,-536.266849,-962.267725
1445.955378,-1184.329507,995.924147,-3404.947333
1445.955689,-1850.514855,-306.438199,-3849.070898
1445.956001,-5773.606348,0.000000,-3404.947333
1445.956312,-10214.842000,1915.238745,-1036.288319
1445.956623,-13989.892304,3140.991542,1406.391290
1445.956935,-14211.954086,2911.162892,1332.370696
1445.957246,-10510.924376,1532.190996,-518.144159
1445.957558,-8068.244768,153.219100,-2590.720797
1445.957869,-5847.626942,995.924147,-3108.864956
1445.958181,-5107.421000,1608.800546,-3330.926739
1445.958492,-7031.956449,1225.752797,-2368.659014
1445.958803,-10881.027347,-919.314598,296.082377
1445.959115,-13027.624579,-2068.457845,2072.576638
1445.959426,-11399.171507,-689.485948,1850.514855
1445.959738,-8438.347739,-842.705048,370.102971
1445.960049,-6365.771101,-2221.676944,-518.144159
1445.960361,-6069.688724,-2834.553343,-1110.308913
1445.960672,-7994.224174,-2451.505594,-814.226536
1445.960983,-9992.780217,-842.705048,-0.000000
1445.961295,-11103.089130,-689.485948,1184.329507
1445.961606,-10955.047942,0.000000,1110.308913
1445.961918,-9104.533087,919.314598,666.185348
1445.962229,-7179.997637,1225.752797,-222.061783
1445.962540,-8142.265362,-306.438199,-0.000000
1445.962852,-9622.677246,-306.438199,-370.102971
1445.963163,-10658.965565,536.266849,-0.000000
1445.963475,-11695.253884,306.438199,666.185348
1445.963786,-11917.315666,-306.438199,1554.432478
1445.964098,-10362.883188,-842.705048,1554.432478
1445.964409,-7402.059420,-536.266849,222.061783
1445.964720,-5107.421000,-1685.410096,888.247130
1445.965032,-4737.318029,-2451.505594,1258.350101
1445.965343,-7254.018232,-1915.238745,1776.494261
1445.965655,-9770.718434,-995.924147,2368.659014
1445.965966,-11103.089130,0.000000,2442.679609
1445.966278,-11325.150913,1378.971896,2738.761985
1445.966589,-9918.759623,2298.286494,2442.679609
1445.966900,-9918.759623,2145.067394,2146.597232
1445.967212,-7402.059420,-153.219100,1332.370696
1445.967523,-4959.379811,-1685.410096,-0.000000
1445.967835,-3701.029710,-383.047749,-1110.308913
1445.968146,-4959.379811,1532.190996,-0.000000
1445.968458,-8956.491898,1378.971896,1628.453072
1445.968769,-12361.439231,-229.828649,2960.823768
1445.969080,-13989.892304,-1149.143247,3849.070898
1445.969392,-10510.924376,-1072.533697,3627.009116
1445.969703,-5847.626942,-76.609550,2146.597232
1445.970015,-3404.947333,0.000000,-222.061783
1445.970326,-3478.967927,-1455.581446,-2368.659014
1445.970638,-5477.523971,-766.095498,-2664.741391
1445.970949,-6735.874072,1149.143247,-444.123565
1445.971260,-10214.842000,2068.457845,888.247130
1445.971572,-13175.665768,842.705048,1480.411884
1445.971883,-12805.562797,536.266849,370.102971
1445.972195,-10066.800811,-306.438199,-1332.370696
1445.972506,-7179.997637,536.266849,-1406.391290
1445.972818,-8660.409521,1225.752797,-1776.494261
1445.973129,-9992.780217,612.876398,-1702.473667
1445.973440,-10955.047942,0.000000,-1258.350101
1445.973752,-12065.356855,76.609550,-74.020594
1445.974063,-11695.253884,0.000000,592.164754
1445.974375,-8216.285956,-612.876398,-1036.288319
1445.974686,-5921.647536,-1685.410096,-2294.638420
1445.974998,-5625.565159,-1762.019645,-2220.617826
1445.975309,-8068.244768,-1991.848295,-518.144159
1445.975620,-10732.986159,-766.095498,-0.000000
1445.975932,-12657.521608,612.876398,888.247130
1445.976243,-13471.748144,229.828649,1184.329507
1445.976555,-11769.274478,-306.438199,740.205942
1445.976866,-8142.265362,0.000000,-1332.370696
1445.977178,-6069.688724,383.047749,-2368.659014
1445.977489,-7031.956449,-842.705048,-1628.453072
1445.977800,-9770.718434,-1532.190996,148.041188
1445.978112,-11843.295072,-1378.971896,1480.411884
1445.978423,-13323.706956,-1532.190996,2368.659014
1445.978735,-11917.315666,-2145.067394,3701.029710
1445.979046,-8586.388927,-1378.971896,2146.597232
1445.979358,-4737.318029,-459.657299,1110.308913
1445.979669,-2960.823768,-1838.629195,-444.123565
1445.979980,-4071.132681,-1532.190996,-74.020594
1445.980292,-6809.894666,0.000000,962.267725
1445.980603,-8438.347739,1302.362347,1554.432478
1445.980915,-10436.903782,1532.190996,2146.597232
1445.981226,-11695.253884,2451.505594,1998.556043
1445.981537,-9474.636058,3830.477490,1554.432478
1445.981849,-7105.977043,3294.210641,148.041188
1445.982160,-6661.853478,995.924147,-0.000000
1445.982471,-7476.080014,-153.219100,-0.000000
1445.982783,-8956.491898,612.876398,-444.123565
1445.983094,-8660.409521,1685.410096,1406.391290
1445.983406,-9104.533087,459.657299,1332.370696
1445.983717,-10436.903782,-842.705048,1776.494261
1445.984028,-9844.739029,-383.047749,2072.576638
1445.984340,-8734.430116,-919.314598,3256.906145
1445.984651,-8068.244768,-2221.676944,2442.679609
1445.984962,-7846.182985,-2604.724693,2220.617826
1445.985274,-7550.100608,-1455.581446,518.144159
1445.985585,-6291.750507,76.609550,1258.350101
1445.985897,-8290.306550,536.266849,1776.494261
1445.986208,-10288.862594,536.266849,1332.370696
1445.986519,-10955.047942,153.219100,222.061783
1445.986831,-9474.636058,0.000000,1036.288319
1445.987142,-7698.141797,0.000000,666.185348
1445.987453,-8882.471304,229.828649,-222.061783
1445.987765,-10658.965565,0.000000,-444.123565
1445.988076,-10732.986159,-766.095498,-0.000000
1445.988388,-10658.965565,-1072.533697,888.247130
1445.988699,-10066.800811,612.876398,1406.391290
1445.989010,-9104.533087,0.000000,888.247130
1445.989322,-8068.244768,-2451.505594,148.041188
1445.989633,-6513.812290,-3217.601092,-370.102971
1445.989944,-6217.729913,-1455.581446,-370.102971
1445.990256,-7179.997637,766.095498,-0.000000
1445.990567,-8956.491898,919.314598,370.102971
1445.990878,-9918.759623,229.828649,296.082377
1445.991190,-9474.636058,1302.362347,-0.000000
1445.991501,-10510.924376,1915.238745,-740.205942
1445.991813,-9252.574275,2451.505594,-1258.350101
1445.992124,-8290.306550,1225.752797,-1036.288319
1445.992435,-8586.388927,459.657299,-1332.370696
1445.992747,-8956.491898,383.047749,-148.041188
1445.993058,-9696.697840,459.657299,148.041188
1445.993369,-11029.068536,459.657299,962.267725
1445.993681,-10658.965565,459.657299,1184.329507
1445.993992,-8586.388927,0.000000,1110.308913
1445.994304,-7402.059420,-383.047749,518.144159
1445.994615,-7772.162391,-1302.362347,296.082377
1445.994926,-7920.203579,-919.314598,592.164754
1445.995238,-7772.162391,0.000000,518.144159
1445.995549,-7994.224174,306.438199,740.205942
1445.995860,-8882.471304,306.438199,888.247130
1445.996172,-9548.656652,-229.828649,-0.000000
1445.996483,-8438.347739,536.266849,-0.000000
1445.996794,-8364.327145,383.047749,-370.102971
1445.997106,-9844.739029,153.219100,148.041188
1445.997417,-11251.130318,0.000000,962.267725
1445.997729,-11473.192101,0.000000,1554.432478
1445.998040,-10288.862594,-459.657299,2294.638420
1445.998351,-9770.718434,-842.705048,1554.432478
1445.998663,-8142.265362,-306.438199,518.144159
1445.998974,-6439.791695,459.657299,518.144159
1445.999285,-5403.503377,-1072.533697,-148.041188
1445.999597,-5773.606348,-2221.676944,296.082377
1445.999908,-6883.915261,-1532.190996,-962.267725
1446.000220,-7698.141797,766.095498,-296.082377
1446.000531,-9474.636058,2681.334243,592.164754
1446.000842,-12287.418637,2221.676944,1776.494261
1446.001154,-13027.624579,383.047749,1702.473667
1446.001465,-13397.727550,0.000000,518.144159
1446.001776,-10140.821405,1532.190996,1628.453072
1446.002088,-7846.182985,842.705048,740.205942
1446.002399,-6661.853478,-612.876398,-444.123565
1446.002710,-7105.977043,-2298.286494,-814.226536
1446.003022,-8068.244768,-2068.457845,740.205942
1446.003333,-9474.636058,-459.657299,2960.823768
1446.003645,-11399.171507,-766.095498,3478.967927
1446.003956,-11991.336260,-2451.505594,2886.803174
1446.004267,-10658.965565,-3907.087040,2516.700203
1446.004579,-6513.812290,-2298.286494,2220.617826
1446.004890,-4367.215058,229.828649,814.226536
1446.005201,-5773.606348,766.095498,518.144159
1446.005513,-7550.100608,689.485948,-0.000000
1446.005824,-8734.430116,0.000000,-0.000000
1446.006136,-8216.285956,2221.676944,814.226536
1446.006447,-9252.574275,3064.381992,1258.350101
1446.006758,-10658.965565,2145.067394,740.205942
1446.007070,-10288.862594,1455.581446,-0.000000
1446.007381,-8586.388927,1455.581446,222.061783
1446.007692,-7920.203579,1685.410096,1184.329507
1446.008004,-8734.430116,766.095498,296.082377
1446.008315,-6587.832884,229.828649,-444.123565
1446.008626,-5033.400406,612.876398,-1184.329507
1446.008938,-7105.977043,-536.266849,-1036.288319
1446.009249,-8142.265362,-1225.752797,444.123565
1446.009561,-9326.594869,-766.095498,-148.041188
1446.009872,-10066.800811,153.219100,444.123565
1446.010183,-10881.027347,612.876398,1036.288319
1446.010495,-11177.109724,-306.438199,-0.000000
1446.010806,-9548.656652,76.609550,-888.247130
1446.011117,-7402.059420,459.657299,-1850.514855
1446.011429,-7402.059420,612.876398,-2220.617826
1446.011740,-9030.512492,766.095498,-592.164754
1446.012052,-11325.150913,919.314598,444.123565
1446.012363,-13027.624579,0.000000,1702.473667
1446.012674,-13323.706956,-1378.971896,2664.741391
1446.012986,-11325.150913,-766.095498,2072.576638
1446.013297,-8438.347739,-1378.971896,888.247130
1446.013608,-5477.523971,-1915.238745,-666.185348
1446.013920,-4367.215058,-2834.553343,-1850.514855
1446.014231,-5699.585753,-1838.629195,-1184.329507
1446.014543,-7402.059420,-229.828649,592.164754
1446.014854,-9918.759623,229.828649,2072.576638
1446.015165,-11843.295072,-229.828649,2960.823768
1446.015477,-13027.624579,0.000000,3034.844362
1446.015788,-11177.109724,-1225.752797,1258.350101
1446.016099,-8068.244768,76.609550,518.144159
1446.016411,-7105.977043,689.485948,-740.205942
1446.016722,-7994.224174,612.876398,-1036.288319
1446.017033,-9400.615463,229.828649,-592.164754
1446.017345,-10066.800811,0.000000,296.082377
1446.017656,-9918.759623,1149.143247,1776.494261
1446.017968,-9918.759623,766.095498,1776.494261
1446.018279,-8438.347739,76.609550,1406.391290
1446.018590,-7476.080014,153.219100,-0.000000
1446.018902,-7031.956449,459.657299,1110.308913
1446.019213,-7179.997637,306.438199,962.267725
1446.019524,-5921.647536,229.828649,-666.185348
1446.019836,-5699.585753,536.266849,-1110.308913
1446.020147,-6143.709319,919.314598,-74.020594
1446.020459,-7920.203579,1838.629195,1184.329507
1446.020770,-11029.068536,76.609550,814.226536
1446.021081,-11695.253884,-536.266849,740.205942
1446.021393,-10807.006753,-1225.752797,1480.411884
1446.021704,-9252.574275,-842.705048,1184.329507
1446.022015,-7772.162391,229.828649,-0.000000
1446.022327,-8216.285956,-612.876398,-592.164754
1446.022638,-7476.080014,-1608.800546,-444.123565
1446.022949,-7402.059420,-1072.533697,-888.247130
1446.023261,-7105.977043,229.828649,-0.000000
1446.023572,-9400.615463,-1149.143247,444.123565
1446.023884,-11843.295072,-2604.724693,1332.370696
1446.024195,-10881.027347,-2221.676944,592.164754
1446.024506,-8882.471304,-306.438199,-666.185348
1446.024818,-7698.141797,1225.752797,-1332.370696
1446.025129,-7994.224174,1302.362347,-1702.473667
1446.025440,-9326.594869,383.047749,-2220.617826
1446.025752,-10140.821405,459.657299,-1036.288319
1446.026063,-12509.480420,1072.533697,-148.041188
1446.026375,-13101.645173,1225.752797,666.185348
1446.026686,-11473.192101,766.095498,148.041188
1446.026997,-10510.924376,-306.438199,-148.041188
1446.027309,-9844.739029,-1072.533697,740.205942
1446.027620,-9918.759623,-1302.362347,-0.000000
1446.027931,-8586.388927,-842.705048,814.226536
1446.028243,-8586.388927,-1685.410096,740.205942
1446.028554,-8512.368333,-2834.553343,1628.453072
1446.028865,-9030.512492,-1838.629195,1998.556043
1446.029177,-8586.388927,536.266849,1924.535449
1446.029488,-7846.182985,1072.533697,1998.556043
1446.029800,-6883.915261,229.828649,1110.308913
1446.030111,-6735.874072,0.000000,1406.391290
1446.030422,-6883.915261,689.485948,-444.123565
1446.030734,-6365.771101,1378.971896,-0.000000
1446.031045,-6809.894666,1685.410096,-0.000000
1446.031356,-8216.285956,1685.410096,592.164754
1446.031668,-9474.636058,1378.971896,1924.535449
1446.031979,-9918.759623,76.609550,2664.741391
1446.032291,-9770.718434,0.000000,3552.988522
1446.032602,-9400.615463,-306.438199,3034.844362
1446.032913,-7624.121203,-1072.533697,1332.370696
1446.033225,-5477.523971,-1838.629195,-0.000000
1446.033536,-4515.256246,-1149.143247,-666.185348
1446.033847,-6217.729913,612.876398,-888.247130
1446.034159,-8068.244768,1455.581446,148.041188
1446.034470,-10732.986159,919.314598,962.267725
1446.034781,-11843.295072,689.485948,2220.617826
1446.035093,-11917.315666,1149.143247,2368.659014
1446.035404,-10214.842000,459.657299,666.185348
1446.035716,-8364.327145,919.314598,740.205942
1446.036027,-8364.327145,-153.219100,-74.020594
1446.036338,-7402.059420,-1838.629195,-1554.432478
1446.036650,-6957.935855,-766.095498,-1110.308913
1446.036961,-8216.285956,995.924147,-0.000000
1446.037272,-10955.047942,1072.533697,2146.597232
1446.037584,-12657.521608,-1532.190996,2146.597232
1446.037895,-12953.603985,-2068.457845,2146.597232
1446.038207,-11547.212695,-1915.238745,2146.597232
1446.038518,-8734.430116,-1991.848295,1184.329507
1446.038829,-6883.915261,-919.314598,-74.020594
1446.039141,-6365.771101,0.000000,-2072.576638
1446.039452,-6883.915261,229.828649,-1406.391290
1446.039763,-8956.491898,-383.047749,-666.185348
1446.040075,-10584.944971,-995.924147,148.041188
1446.040386,-11843.295072,76.609550,148.041188
1446.040698,-11843.295072,-995.924147,-74.020594
1446.041009,-11177.109724,-1149.143247,370.102971
1446.041320,-9844.739029,-153.219100,-592.164754
1446.041632,-8142.265362,459.657299,-814.226536
1446.041943,-6143.709319,0.000000,-1036.288319
1446.042254,-5403.503377,-229.828649,-1850.514855
1446.042566,-6069.688724,153.219100,-1332.370696
1446.042877,-8364.327145,0.000000,-740.205942
1446.043188,-10288.862594,536.266849,-0.000000
1446.043500,-11991.336260,919.314598,1110.308913
1446.043811,-11843.295072,1225.752797,370.102971
1446.044123,-10140.821405,1532.190996,-148.041188
1446.044434,-7105.977043,1762.019645,-962.267725
1446.044745,-4737.318029,1149.143247,-2960.823768
1446.045057,-4293.194464,1072.533697,-3478.967927
1446.045368,-5773.606348,306.438199,-3182.885551
1446.045679,-9030.512492,-153.219100,-518.144159
1446.045991,-11843.295072,-153.219100,1998.556043
1446.046302,-14508.036463,-306.438199,3256.906145
1446.046614,-14211.954086,-919.314598,4219.173869
1446.046925,-12657.521608,-2298.286494,3108.864956
1446.047236,-8660.409521,-2451.505594,2072.576638
1446.047548,-3330.926739,-2068.457845,-888.247130
1446.047859,-2442.679609,-2451.505594,-1258.350101
1446.048170,-5477.523971,-3217.601092,-444.123565
1446.048482,-8956.491898,-2068.457845,1480.411884
1446.048793,-11251.130318,76.609550,3256.906145
1446.049104,-12583.501014,689.485948,3923.091493
1446.049416,-12731.542202,306.438199,4589.276840
1446.049727,-10955.047942,-536.266849,2516.700203
1446.050039,-8290.306550,0.000000,444.123565
1446.050350,-5329.482782,153.219100,-148.041188
1446.050661,-5107.421000,0.000000,-592.164754
1446.050973,-7402.059420,612.876398,-0.000000
1446.051284,-10140.821405,766.095498,2146.597232
1446.051595,-11769.274478,0.000000,4071.132681
1446.051907,-11843.295072,0.000000,4589.276840
1446.052218,-10955.047942,0.000000,3478.967927
1446.052530,-6735.874072,306.438199,1480.411884
1446.052841,-3330.926739,153.219100,-0.000000
1446.053152,-3997.112087,842.705048,-0.000000
1446.053464,-6513.812290,1838.629195,444.123565
1446.053775,-7846.182985,2068.457845,1110.308913
1446.054086,-8882.471304,1991.848295,1184.329507
1446.054398,-8142.265362,1532.190996,1628.453072
1446.054709,-8068.244768,1225.752797,1480.411884
1446.055020,-9178.553681,995.924147,666.185348
1446.055332,-10658.965565,689.485948,962.267725
1446.055643,-11251.130318,-459.657299,1480.411884
1446.055955,-11177.109724,-842.705048,1480.411884
1446.056266,-9548.656652,306.438199,740.205942
1446.056577,-9252.574275,383.047749,148.041188
1446.056889,-8142.265362,-1302.362347,-148.041188
1446.057200,-6587.832884,-2221.676944,-296.082377
1446.057511,-5921.647536,-1762.019645,-1110.308913
1446.057823,-7328.038826,-2145.067394,-296.082377
1446.058134,-11103.089130,-1838.629195,1110.308913
1446.058446,-12657.521608,-919.314598,1406.391290
1446.058757,-11917.315666,153.219100,814.226536
1446.059068,-10214.842000,-689.485948,-666.185348
1446.059380,-7254.018232,153.219100,-2146.597232
1446.059691,-5699.585753,1455.581446,-3330.926739
