#time,accel_x,accel_y,accel_z
1260.930875,-8808.450710,153.219100,370.102971
1260.931187,-8660.409521,0.000000,666.185348
1260.931498,-8808.450710,0.000000,666.185348
1260.931809,-8956.491898,-153.219100,666.185348
1260.932121,-9030.512492,0.000000,518.144159
1260.932432,-9326.594869,-229.828649,444.123565
1260.932743,-8808.450710,536.266849,666.185348
1260.933054,-8882.471304,-689.485948,296.082377
1260.933366,-8512.368333,383.047749,518.144159
1260.933677,-8660.409521,76.609550,666.185348
1260.933988,-9252.574275,153.219100,592.164754
1260.934300,-8808.450710,0.000000,740.205942
1260.934611,-9030.512492,153.219100,518.144159
1260.934922,-8734.430116,-689.485948,592.164754
1260.935234,-8734.430116,0.000000,518.144159
1260.935545,-8882.471304,76.609550,666.185348
1260.935856,-8586.388927,-153.219100,592.164754
1260.936168,-8808.450710,-229.828649,592.164754
1260.936479,-8956.491898,-229.828649,666.185348
1260.936790,-9030.512492,76.609550,592.164754
1260.937102,-8956.491898,0.000000,740.205942
1260.937413,-8734.430116,0.000000,518.144159
1260.937724,-8586.388927,0.000000,370.102971
1260.938035,-9030.512492,0.000000,-0.000000
1260.938347,-9030.512492,306.438199,518.144159
1260.938658,-9030.512492,0.000000,296.082377
1260.938969,-9030.512492,0.000000,370.102971
1260.939281,-9030.512492,0.000000,592.164754
1260.939592,-8882.471304,0.000000,666.185348
1260.939903,-9030.512492,0.000000,370.102971
1260.940215,-8734.430116,0.000000,444.123565
1260.940526,-8660.409521,-306.438199,370.102971
1260.940837,-8808.450710,0.000000,518.144159
1260.941149,-8882.471304,-153.219100,592.164754
1260.941460,-9104.533087,-306.438199,518.144159
1260.941771,-8956.491898,0.000000,592.164754
1260.942083,-8882.471304,0.000000,666.185348
1260.942394,-8660.409521,229.828649,962.267725
1260.942705,-8734.430116,0.000000,518.144159
1260.943016,-8882.471304,383.047749,444.123565
1260.943328,-9178.553681,0.000000,-0.000000
1260.943639,-9030.512492,0.000000,444.123565
1260.943950,-8956.491898,0.000000,666.185348
1260.944262,-8956.491898,0.000000,444.123565
1260.944573,-9326.594869,0.000000,370.102971
1260.944884,-8660.409521,0.000000,888.247130
1260.945196,-8808.450710,153.219100,444.123565
1260.945507,-8438.347739,306.438199,518.144159
1260.945818,-8956.491898,76.609550,518.144159
1260.946130,-8808.450710,-153.219100,370.102971
1260.946441,-8956.491898,-76.609550,592.164754
1260.946752,-9030.512492,-153.219100,518.144159
1260.947064,-8660.409521,-459.657299,814.226536
1260.947375,-8734.430116,-229.828649,148.041188
1260.947686,-9104.533087,0.000000,148.041188
1260.947998,-9030.512492,383.047749,296.082377
1260.948309,-8882.471304,0.000000,518.144159
1260.948620,-9104.533087,0.000000,666.185348
1260.948931,-9030.512492,0.000000,592.164754
1260.949243,-9030.512492,0.000000,666.185348
1260.949554,-8956.491898,153.219100,296.082377
1260.949865,-8808.450710,0.000000,296.082377
1260.950177,-8512.368333,0.000000,740.205942
1260.950488,-8734.430116,-612.876398,296.082377
1260.950799,-8956.491898,-153.219100,444.123565
1260.951111,-9030.512492,-153.219100,592.164754
1260.951422,-9178.553681,-153.219100,444.123565
1260.951733,-8882.471304,-306.438199,592.164754
1260.952045,-8882.471304,-229.828649,370.102971
1260.952356,-8438.347739,153.219100,592.164754
1260.952667,-9474.636058,-153.219100,222.061783
1260.952979,-8956.491898,-153.219100,814.226536
1260.953290,-9178.553681,306.438199,666.185348
1260.953601,-9104.533087,153.219100,592.164754
1260.953912,-9030.512492,0.000000,518.144159
1260.954224,-9104.533087,76.609550,518.144159
1260.954535,-8734.430116,-153.219100,518.144159
1260.954846,-8512.368333,-383.047749,666.185348
1260.955158,-8586.388927,0.000000,592.164754
1260.955469,-8808.450710,0.000000,444.123565
1260.955780,-8956.491898,-153.219100,740.205942
1260.956092,-8956.491898,0.000000,518.144159
1260.956403,-8882.471304,-153.219100,444.123565
1260.956714,-8438.347739,0.000000,592.164754
1260.957026,-8586.388927,0.000000,370.102971
1260.957337,-8734.430116,76.609550,814.226536
1260.957648,-8734.430116,-689.485948,370.102971
1260.957960,-9030.512492,0.000000,518.144159
1260.958271,-9178.553681,76.609550,518.144159
1260.958582,-8956.491898,153.219100,592.164754
1260.958893,-9030.512492,0.000000,444.123565
1260.959205,-9030.512492,0.000000,296.082377
1260.959516,-9030.512492,0.000000,592.164754
1260.959827,-8438.347739,-383.047749,592.164754
1260.960139,-8660.409521,153.219100,296.082377
1260.960450,-9030.512492,-306.438199,518.144159
1260.960761,-8882.471304,-229.828649,518.144159
1260.961073,-9326.594869,0.000000,444.123565
1260.961384,-11251.130318,383.047749,148.041188
1260.961695,-10955.047942,3140.991542,148.041188
1260.962007,-8808.450710,4903.011187,444.123565
1260.962318,-7476.080014,3140.991542,1184.329507
1260.962629,-6513.812290,919.314598,1776.494261
1260.962941,-7031.956449,-1149.143247,-0.000000
1260.963252,-7550.100608,-995.924147,-0.000000
1260.963563,-7846.182985,-229.828649,-370.102971
1260.963874,-11843.295072,-689.485948,-1332.370696
1260.964186,-12583.501014,0.000000,-666.185348
1260.964497,-10140.821405,766.095498,444.123565
1260.964808,-8512.368333,0.000000,1702.473667
1260.965120,-9178.553681,-536.266849,2960.823768
1260.965431,-11695.253884,612.876398,1258.350101
1260.965742,-7402.059420,4826.401637,2442.679609
1260.966054,-5107.421000,5132.839837,1924.535449
1260.966365,-7994.224174,2987.772442,888.247130
1260.966676,-7846.182985,3064.381992,-74.020594
1260.966988,-7328.038826,2834.553343,-1850.514855
1260.967299,-9030.512492,2987.772442,-1110.308913
1260.967610,-8956.491898,3677.258390,-518.144159
1260.967922,-12879.583391,2068.457845,-1628.453072
1260.968233,-13175.665768,-1072.533697,1036.288319
1260.968544,-8586.388927,-1149.143247,2516.700203
1260.968855,-11251.130318,995.924147,444.123565
1260.969167,-7772.162391,6358.592633,2960.823768
1260.969478,-8068.244768,6358.592633,592.164754
1260.969789,-7179.997637,4213.525239,2516.700203
1260.970101,-5625.565159,4979.620737,1998.556043
1260.970412,-7402.059420,6971.469032,-0.000000
1260.970723,-8660.409521,6741.640382,-1110.308913
1260.971035,-10288.862594,5362.668486,-740.205942
1260.971346,-9474.636058,5132.839837,-2072.576638
1260.971657,-10066.800811,5362.668486,-814.226536
1260.971969,-10955.047942,4366.744339,-74.020594
1260.972280,-11029.068536,4060.306139,888.247130
1260.972591,-11103.089130,4213.525239,1924.535449
1260.972903,-8808.450710,4979.620737,2590.720797
1260.973214,-6735.874072,4903.011187,1776.494261
1260.973525,-5773.606348,5439.278036,444.123565
1260.973837,-5773.606348,5132.839837,370.102971
1260.974148,-4959.379811,5898.935335,-1036.288319
1260.974459,-6365.771101,4903.011187,-1110.308913
1260.974770,-8438.347739,4366.744339,-148.041188
1260.975082,-10140.821405,2221.676944,-370.102971
1260.975393,-11399.171507,766.095498,666.185348
1260.975704,-11029.068536,306.438199,1480.411884
1260.976016,-10881.027347,-383.047749,1850.514855
1260.976327,-10732.986159,0.000000,1406.391290
1260.976638,-8660.409521,2451.505594,2146.597232
1260.976950,-7476.080014,4136.915689,1110.308913
1260.977261,-6883.915261,3370.820191,296.082377
1260.977572,-7105.977043,3524.039291,-0.000000
1260.977884,-7328.038826,3830.477490,-592.164754
1260.978195,-6365.771101,3677.258390,-1110.308913
1260.978506,-7402.059420,1532.190996,-1924.535449
1260.978818,-9104.533087,-842.705048,-666.185348
1260.979129,-11029.068536,-2451.505594,-74.020594
1260.979440,-12065.356855,-2145.067394,666.185348
1260.979751,-12953.603985,-2145.067394,1850.514855
1260.980063,-13471.748144,-2298.286494,1850.514855
1260.980374,-12435.459826,-995.924147,1332.370696
1260.980685,-10436.903782,995.924147,666.185348
1260.980997,-7476.080014,2451.505594,-518.144159
1260.981308,-6143.709319,2451.505594,-74.020594
1260.981619,-6439.791695,2681.334243,148.041188
1260.981931,-7031.956449,2528.115143,1110.308913
1260.982242,-8068.244768,306.438199,1110.308913
1260.982553,-10140.821405,-1149.143247,1184.329507
1260.982865,-11695.253884,-1302.362347,296.082377
1260.983176,-12361.439231,-1225.752797,-148.041188
1260.983487,-11917.315666,-1532.190996,-0.000000
1260.983799,-12213.398043,-1225.752797,-0.000000
1260.984110,-11695.253884,842.705048,518.144159
1260.984421,-10510.924376,2757.943793,592.164754
1260.984732,-8216.285956,3907.087040,1036.288319
1260.985044,-5773.606348,4060.306139,1258.350101
1260.985355,-3256.906145,3983.696590,740.205942
1260.985666,-1776.494261,2911.162892,-444.123565
1260.985978,-1702.473667,2451.505594,-666.185348
1260.986289,-4219.173869,383.047749,-518.144159
1260.986600,-8586.388927,-995.924147,-888.247130
1260.986912,-12139.377449,-2911.162892,444.123565
1260.987223,-15100.201217,-3370.820191,2146.597232
1260.987534,-15544.324782,-2987.772442,3034.844362
1260.987846,-14137.933492,-1072.533697,2738.761985
1260.988157,-10881.027347,766.095498,1480.411884
1260.988468,-7328.038826,2221.676944,962.267725
1260.988780,-4071.132681,3983.696590,296.082377
1260.989091,-2146.597232,5592.497135,-0.000000
1260.989402,-1554.432478,4596.572988,-0.000000
1260.989713,-3404.947333,1838.629195,-0.000000
1260.990025,-6217.729913,-383.047749,-222.061783
1260.990336,-9474.636058,-1991.848295,-370.102971
1260.990647,-12139.377449,-2145.067394,-444.123565
1260.990959,-14508.036463,-2604.724693,592.164754
1260.991270,-15396.283594,-3064.381992,1258.350101
1260.991581,-14656.077652,-1991.848295,1406.391290
1260.991893,-12287.418637,-383.047749,1332.370696
1260.992204,-9178.553681,1149.143247,740.205942
1260.992515,-5773.606348,2451.505594,-74.020594
1260.992827,-3034.844362,2757.943793,-666.185348
1260.993138,-2368.659014,766.095498,-814.226536
1260.993449,-3182.885551,-1149.143247,-1184.329507
1260.993761,-5551.544565,-2911.162892,-592.164754
1260.994072,-11547.212695,-3677.258390,-518.144159
1260.994383,-15174.221811,-3294.210641,740.205942
1260.994694,-17172.777854,-2528.115143,1036.288319
1260.995006,-18283.086767,-1685.410096,1776.494261
1260.995317,-16062.468941,-766.095498,2590.720797
1260.995628,-12139.377449,-536.266849,2368.659014
1260.995940,-6735.874072,995.924147,1258.350101
1260.996251,-3627.009116,2221.676944,-0.000000
1260.996562,-1702.473667,3907.087040,-1110.308913
1260.996874,-2220.617826,3447.429741,-666.185348
1260.997185,-4145.153275,1915.238745,-1628.453072
1260.997496,-7105.977043,0.000000,-2220.617826
1260.997808,-10510.924376,-459.657299,-1702.473667
1260.998119,-13027.624579,153.219100,-1036.288319
1260.998430,-14211.954086,-153.219100,222.061783
1260.998742,-14211.954086,-1378.971896,2442.679609
1260.999053,-13323.706956,-2298.286494,4145.153275
1260.999364,-9770.718434,-1608.800546,4293.194464
1260.999675,-6587.832884,1455.581446,3552.988522
1260.999987,-4663.297435,2451.505594,2590.720797
1261.000298,-1924.535449,2604.724693,-148.041188
1261.000609,-1554.432478,2528.115143,-1924.535449
1261.000921,-3997.112087,1762.019645,-3923.091493
1261.001232,-7698.141797,1225.752797,-3552.988522
1261.001543,-11621.233289,1608.800546,-1850.514855
1261.001855,-13397.727550,919.314598,222.061783
1261.002166,-14804.118840,-612.876398,3108.864956
1261.002477,-13397.727550,-2911.162892,5181.441594
1261.002789,-10658.965565,-3064.381992,5995.668130
1261.003100,-7031.956449,-459.657299,5329.482782
1261.003411,-5033.400406,919.314598,3627.009116
1261.003723,-3182.885551,2911.162892,-666.185348
1261.004034,-3775.050304,3140.991542,-2590.720797
1261.004345,-5699.585753,2757.943793,-4589.276840
1261.004657,-7476.080014,1378.971896,-3552.988522
1261.004968,-10288.862594,229.828649,-2368.659014
1261.005279,-11917.315666,-1762.019645,-0.000000
1261.005590,-13175.665768,-3217.601092,1332.370696
1261.005901,-13101.645173,-4673.182538,3627.009116
1261.006212,-11473.192101,-4673.182538,5477.523971
1261.006524,-9622.677246,-4136.915689,4737.318029
1261.006835,-7402.059420,-1762.019645,3478.967927
1261.007147,-6439.791695,0.000000,1554.432478
1261.007458,-5847.626942,1762.019645,-814.226536
1261.007770,-6439.791695,1455.581446,-2516.700203
1261.008081,-8216.285956,1608.800546,-3849.070898
1261.008393,-9104.533087,1149.143247,-3552.988522
1261.008704,-11325.150913,919.314598,-3034.844362
1261.009016,-12435.459826,536.266849,-1332.370696
1261.009328,-12213.398043,-383.047749,1258.350101
1261.009639,-10955.047942,-2451.505594,3478.967927
1261.009951,-9918.759623,-3600.648841,4589.276840
1261.010262,-8438.347739,-3217.601092,4737.318029
1261.010574,-6809.894666,-1455.581446,3108.864956
1261.010885,-7031.956449,-612.876398,1554.432478
1261.011197,-8068.244768,-459.657299,-1036.288319
1261.011508,-9178.553681,306.438199,-3478.967927
1261.011820,-10066.800811,2068.457845,-4071.132681
1261.012131,-10658.965565,2451.505594,-3627.009116
1261.012443,-10881.027347,1455.581446,-2294.638420
1261.012754,-10658.965565,-459.657299,148.041188
1261.013066,-9844.739029,-1915.238745,2368.659014
1261.013377,-7550.100608,-1991.848295,4589.276840
1261.013689,-7105.977043,-919.314598,4885.359217
1261.014000,-7179.997637,-612.876398,5033.400406
1261.014312,-6069.688724,-153.219100,2368.659014
1261.014623,-6587.832884,2451.505594,-1184.329507
1261.014935,-8586.388927,2757.943793,-3775.050304
1261.015246,-10140.821405,4290.134789,-5255.462188
1261.015558,-10807.006753,4826.401637,-3775.050304
1261.015869,-10584.944971,3753.867940,-2590.720797
1261.016181,-9918.759623,689.485948,370.102971
1261.016493,-8734.430116,-2374.896044,2516.700203
1261.016804,-7772.162391,-2528.115143,4367.215058
1261.017116,-7105.977043,-919.314598,6291.750507
1261.017427,-6661.853478,-2068.457845,4737.318029
1261.017739,-6587.832884,-2834.553343,2886.803174
1261.018050,-7105.977043,383.047749,296.082377
1261.018362,-8438.347739,842.705048,-1998.556043
1261.018673,-10066.800811,2145.067394,-3108.864956
1261.018985,-11029.068536,2757.943793,-2368.659014
1261.019296,-11325.150913,1225.752797,-1998.556043
1261.019608,-10881.027347,-1225.752797,-296.082377
1261.019919,-9178.553681,-2221.676944,740.205942
1261.020231,-6661.853478,-1762.019645,1702.473667
1261.020542,-5773.606348,-2528.115143,3034.844362
1261.020854,-5329.482782,-3983.696590,2886.803174
1261.021165,-6513.812290,-3983.696590,3404.947333
1261.021477,-7846.182985,-2528.115143,2294.638420
1261.021788,-9548.656652,-1915.238745,1850.514855
1261.022100,-12953.603985,-766.095498,-0.000000
1261.022411,-13397.727550,1302.362347,-592.164754
1261.022723,-12731.542202,2604.724693,-2220.617826
1261.023035,-11843.295072,1915.238745,-1924.535449
1261.023346,-9474.636058,1302.362347,-814.226536
1261.023658,-7846.182985,0.000000,-74.020594
1261.023969,-6365.771101,-1532.190996,962.267725
1261.024281,-5773.606348,-2604.724693,1924.535449
1261.024592,-7031.956449,-2834.553343,2738.761985
1261.024904,-7402.059420,-2451.505594,1850.514855
1261.025215,-9844.739029,-2374.896044,1258.350101
1261.025527,-11991.336260,-2221.676944,-74.020594
1261.025838,-13175.665768,229.828649,-888.247130
1261.026150,-12953.603985,2451.505594,-1480.411884
1261.026461,-12139.377449,2451.505594,-1554.432478
1261.026773,-10140.821405,1915.238745,-814.226536
1261.027084,-7105.977043,306.438199,-296.082377
1261.027396,-5329.482782,0.000000,296.082377
1261.027707,-3182.885551,-229.828649,1480.411884
1261.028019,-3849.070898,-459.657299,1998.556043
1261.028330,-7105.977043,-1532.190996,1480.411884
1261.028642,-9252.574275,-766.095498,-0.000000
1261.028953,-11769.274478,1072.533697,-814.226536
1261.029265,-12953.603985,2374.896044,-1332.370696
1261.029577,-12953.603985,2681.334243,-518.144159
1261.029888,-12287.418637,2451.505594,-222.061783
1261.030200,-9992.780217,229.828649,962.267725
1261.030511,-7624.121203,0.000000,2516.700203
1261.030823,-4515.256246,-383.047749,2738.761985
1261.031134,-3775.050304,-306.438199,1998.556043
1261.031446,-4441.235652,-995.924147,1258.350101
1261.031757,-5773.606348,-1685.410096,-962.267725
1261.032069,-7031.956449,-306.438199,-1036.288319
1261.032380,-9030.512492,1302.362347,-1406.391290
1261.032692,-11843.295072,536.266849,-814.226536
1261.033003,-12731.542202,0.000000,962.267725
1261.033315,-12657.521608,0.000000,1924.535449
1261.033626,-10881.027347,-306.438199,2220.617826
1261.033938,-8216.285956,-612.876398,2442.679609
1261.034249,-6291.750507,-459.657299,1924.535449
1261.034561,-4441.235652,-612.876398,814.226536
1261.034872,-5107.421000,-1225.752797,148.041188
1261.035184,-6439.791695,-995.924147,-370.102971
1261.035495,-8512.368333,-536.266849,-518.144159
1261.035807,-10955.047942,-306.438199,-296.082377
1261.036119,-12731.542202,-229.828649,370.102971
1261.036430,-13471.748144,689.485948,1258.350101
1261.036742,-13249.686362,766.095498,1406.391290
1261.037053,-11103.089130,459.657299,2220.617826
1261.037365,-8512.368333,0.000000,1554.432478
1261.037676,-6143.709319,536.266849,1998.556043
1261.037988,-4737.318029,306.438199,666.185348
1261.038299,-5255.462188,-612.876398,-0.000000
1261.038611,-7105.977043,-1149.143247,-444.123565
1261.038922,-9474.636058,-919.314598,-296.082377
1261.039234,-10807.006753,-689.485948,-296.082377
1261.039545,-12509.480420,-153.219100,-740.205942
1261.039857,-13323.706956,536.266849,-370.102971
1261.040168,-12657.521608,689.485948,740.205942
1261.040480,-10955.047942,536.266849,962.267725
1261.040791,-8882.471304,459.657299,1702.473667
1261.041103,-6661.853478,842.705048,1702.473667
1261.041414,-4145.153275,1302.362347,1628.453072
1261.041726,-3997.112087,766.095498,1110.308913
1261.042037,-5403.503377,-766.095498,-814.226536
1261.042349,-7105.977043,-536.266849,-1702.473667
1261.042660,-9252.574275,689.485948,-2072.576638
1261.042972,-11325.150913,1225.752797,-1776.494261
1261.043284,-12953.603985,1685.410096,-666.185348
1261.043595,-13027.624579,1225.752797,740.205942
1261.043907,-11325.150913,459.657299,2146.597232
1261.044218,-9400.615463,0.000000,2812.782580
1261.044530,-6143.709319,383.047749,3478.967927
1261.044841,-4737.318029,459.657299,2294.638420
1261.045153,-4959.379811,-536.266849,1628.453072
1261.045464,-4885.359217,-1072.533697,-444.123565
1261.045776,-6143.709319,-766.095498,-1924.535449
1261.046087,-7105.977043,459.657299,-2516.700203
1261.046399,-10584.944971,536.266849,-2442.679609
1261.046710,-11695.253884,383.047749,-1332.370696
1261.047022,-12657.521608,-229.828649,-148.041188
1261.047333,-11917.315666,-1149.143247,1924.535449
1261.047645,-10066.800811,-2221.676944,3330.926739
1261.047956,-8512.368333,-1608.800546,3701.029710
1261.048268,-6143.709319,-1455.581446,3108.864956
1261.048579,-5477.523971,-2145.067394,1776.494261
1261.048891,-5403.503377,-1915.238745,-0.000000
1261.049202,-6735.874072,-1072.533697,-1406.391290
1261.049514,-9474.636058,0.000000,-2368.659014
1261.049826,-12139.377449,76.609550,-1850.514855
1261.050137,-13471.748144,995.924147,-962.267725
1261.050449,-13693.809927,1378.971896,148.041188
1261.050760,-12361.439231,612.876398,1628.453072
1261.051072,-10066.800811,-766.095498,2516.700203
1261.051383,-8142.265362,383.047749,3330.926739
1261.051695,-6069.688724,-459.657299,2664.741391
1261.052006,-6217.729913,-612.876398,1628.453072
1261.052318,-5625.565159,-1072.533697,814.226536
1261.052629,-6661.853478,-306.438199,-592.164754
1261.052941,-9400.615463,-153.219100,-1998.556043
1261.053252,-11843.295072,229.828649,-1850.514855
1261.053564,-13693.809927,919.314598,-1480.411884
1261.053875,-12805.562797,1991.848295,-0.000000
1261.054187,-11621.233289,689.485948,518.144159
1261.054498,-9696.697840,0.000000,1554.432478
1261.054810,-7476.080014,612.876398,2368.659014
1261.055121,-5403.503377,1149.143247,2220.617826
1261.055433,-4367.215058,766.095498,2294.638420
1261.055744,-4515.256246,-306.438199,888.247130
1261.056056,-5773.606348,76.609550,148.041188
1261.056368,-9104.533087,689.485948,-1924.535449
1261.056679,-10658.965565,1378.971896,-2220.617826
1261.056991,-11917.315666,2298.286494,-1554.432478
1261.057302,-11917.315666,2221.676944,-148.041188
1261.057614,-11177.109724,536.266849,518.144159
1261.057925,-9326.594869,-459.657299,2146.597232
1261.058237,-6587.832884,383.047749,3775.050304
1261.058548,-5773.606348,0.000000,3182.885551
1261.058860,-4737.318029,-766.095498,2516.700203
1261.059171,-5033.400406,-383.047749,1110.308913
1261.059483,-6217.729913,-459.657299,-592.164754
1261.059794,-8216.285956,-153.219100,-2368.659014
1261.060106,-9844.739029,153.219100,-2294.638420
1261.060417,-11177.109724,306.438199,-1332.370696
1261.060729,-11991.336260,-229.828649,-1036.288319
1261.061040,-12287.418637,-612.876398,518.144159
1261.061352,-10658.965565,-1072.533697,2072.576638
1261.061663,-8882.471304,-1378.971896,2146.597232
1261.061975,-6735.874072,-1685.410096,2590.720797
1261.062286,-5551.544565,-1608.800546,1776.494261
1261.062598,-6069.688724,-1455.581446,962.267725
1261.062909,-7179.997637,-153.219100,370.102971
1261.063221,-9474.636058,229.828649,-814.226536
1261.063533,-11325.150913,-383.047749,-1110.308913
1261.063844,-12657.521608,76.609550,-1332.370696
1261.064156,-13175.665768,1378.971896,-1036.288319
1261.064467,-12361.439231,842.705048,-74.020594
1261.064779,-11177.109724,-459.657299,1184.329507
1261.065090,-9252.574275,-919.314598,1998.556043
1261.065402,-7402.059420,-766.095498,2812.782580
1261.065713,-6291.750507,-1072.533697,2442.679609
1261.066025,-6587.832884,-1378.971896,1480.411884
1261.066336,-7328.038826,76.609550,148.041188
1261.066648,-8586.388927,306.438199,-1110.308913
1261.066959,-9770.718434,1072.533697,-1554.432478
1261.067271,-11695.253884,1302.362347,-1480.411884
1261.067582,-12731.542202,1838.629195,-1036.288319
1261.067894,-11325.150913,2221.676944,296.082377
1261.068205,-9770.718434,689.485948,1258.350101
1261.068517,-7179.997637,153.219100,2368.659014
1261.068828,-5995.668130,153.219100,1924.535449
1261.069140,-5033.400406,153.219100,2294.638420
1261.069451,-4441.235652,0.000000,1480.411884
1261.069763,-5995.668130,153.219100,-74.020594
1261.070075,-8364.327145,766.095498,-1036.288319
1261.070386,-9770.718434,1302.362347,-1850.514855
1261.070698,-11325.150913,1532.190996,-1628.453072
1261.071009,-11843.295072,1608.800546,-0.000000
1261.071321,-11917.315666,995.924147,888.247130
1261.071632,-10955.047942,-306.438199,2368.659014
1261.071944,-8290.306550,-919.314598,3034.844362
1261.072255,-6069.688724,0.000000,3404.947333
1261.072567,-4071.132681,-536.266849,2442.679609
1261.072878,-4071.132681,-842.705048,1036.288319
1261.073190,-5625.565159,-689.485948,-666.185348
1261.073501,-7328.038826,229.828649,-1776.494261
1261.073813,-9622.677246,842.705048,-1850.514855
1261.074124,-11695.253884,536.266849,-888.247130
1261.074436,-12583.501014,0.000000,-74.020594
1261.074747,-12657.521608,-919.314598,666.185348
1261.075059,-10807.006753,-995.924147,1554.432478
1261.075370,-8882.471304,-536.266849,1924.535449
1261.075682,-7328.038826,-1225.752797,2368.659014
1261.075993,-5921.647536,-1915.238745,1850.514855
1261.076305,-5699.585753,-1762.019645,1258.350101
1261.076617,-6365.771101,-919.314598,518.144159
1261.076928,-8512.368333,-153.219100,-74.020594
1261.077240,-10584.944971,0.000000,-518.144159
1261.077551,-11547.212695,536.266849,-666.185348
1261.077863,-13249.686362,689.485948,-444.123565
1261.078174,-12509.480420,459.657299,-0.000000
1261.078486,-11473.192101,-459.657299,888.247130
1261.078797,-9622.677246,-1149.143247,1998.556043
1261.079109,-8068.244768,-1149.143247,2590.720797
1261.079420,-7031.956449,-1608.800546,2368.659014
1261.079732,-6513.812290,-1608.800546,1776.494261
1261.080043,-7402.059420,-1225.752797,-0.000000
1261.080355,-8290.306550,-383.047749,-962.267725
1261.080666,-9770.718434,842.705048,-1702.473667
1261.080978,-11621.233289,919.314598,-1850.514855
1261.081289,-12361.439231,1455.581446,-888.247130
1261.081601,-12287.418637,1532.190996,148.041188
1261.081912,-10584.944971,689.485948,1332.370696
1261.082224,-8512.368333,0.000000,2368.659014
1261.082535,-6587.832884,0.000000,2442.679609
1261.082847,-4959.379811,229.828649,1924.535449
1261.083159,-4367.215058,0.000000,962.267725
1261.083470,-4811.338623,-383.047749,-518.144159
1261.083782,-7031.956449,153.219100,-1480.411884
1261.084093,-9770.718434,689.485948,-1702.473667
1261.084405,-11473.192101,1302.362347,-1184.329507
1261.084716,-11917.315666,1378.971896,-222.061783
1261.085028,-12065.356855,1608.800546,962.267725
1261.085339,-10807.006753,153.219100,2368.659014
1261.085651,-8660.409521,-1072.533697,2664.741391
1261.085962,-7254.018232,-306.438199,3330.926739
1261.086274,-5255.462188,0.000000,3034.844362
1261.086585,-3997.112087,-536.266849,1776.494261
1261.086897,-4811.338623,-1455.581446,-296.082377
1261.087208,-6217.729913,-766.095498,-1776.494261
1261.087520,-8512.368333,-612.876398,-1480.411884
1261.087831,-10732.986159,536.266849,-1554.432478
1261.088143,-12435.459826,612.876398,-296.082377
1261.088454,-13545.768739,-459.657299,592.164754
1261.088766,-11917.315666,-1532.190996,1924.535449
1261.089077,-9770.718434,-1991.848295,2368.659014
1261.089389,-7772.162391,-995.924147,2886.803174
1261.089700,-5477.523971,-919.314598,2368.659014
1261.090012,-5403.503377,-1072.533697,592.164754
1261.090324,-5107.421000,-919.314598,-0.000000
1261.090635,-6957.935855,-1072.533697,-1036.288319
1261.090947,-9696.697840,306.438199,-1036.288319
1261.091258,-11769.274478,612.876398,-1258.350101
1261.091570,-13397.727550,689.485948,-740.205942
1261.091881,-13767.830521,842.705048,148.041188
1261.092193,-12509.480420,0.000000,814.226536
1261.092504,-10362.883188,-1072.533697,2146.597232
1261.092816,-8068.244768,-995.924147,2960.823768
1261.093127,-7105.977043,-1455.581446,2590.720797
1261.093439,-6365.771101,-1532.190996,1924.535449
1261.093750,-6291.750507,-1532.190996,296.082377
1261.094062,-7698.141797,-766.095498,-592.164754
1261.094373,-9252.574275,383.047749,-1702.473667
1261.094685,-10658.965565,536.266849,-2220.617826
1261.094996,-11991.336260,1838.629195,-1036.288319
1261.095308,-12287.418637,1915.238745,-74.020594
1261.095619,-11399.171507,612.876398,592.164754
1261.095931,-9696.697840,-689.485948,2072.576638
1261.096242,-7402.059420,-766.095498,2516.700203
1261.096554,-5255.462188,-689.485948,2368.659014
1261.096866,-3627.009116,-306.438199,1332.370696
1261.097177,-4145.153275,-995.924147,-222.061783
1261.097489,-6587.832884,-766.095498,-1406.391290
1261.097800,-9474.636058,612.876398,-1554.432478
1261.098112,-11547.212695,1072.533697,-1850.514855
1261.098423,-12731.542202,1991.848295,-1036.288319
1261.098735,-12583.501014,2068.457845,-0.000000
1261.099046,-11621.233289,689.485948,592.164754
1261.099358,-9104.533087,-459.657299,1850.514855
1261.099669,-7179.997637,153.219100,2516.700203
1261.099981,-5625.565159,153.219100,2590.720797
1261.100292,-4737.318029,0.000000,2146.597232
1261.100604,-5181.441594,-1072.533697,814.226536
1261.100915,-6661.853478,-919.314598,-592.164754
1261.101227,-8586.388927,306.438199,-1998.556043
1261.101538,-10288.862594,1072.533697,-2072.576638
1261.101850,-11843.295072,1302.362347,-1554.432478
1261.102161,-12657.521608,919.314598,-666.185348
1261.102473,-12361.439231,-383.047749,888.247130
1261.102784,-10510.924376,-842.705048,2294.638420
1261.103096,-8512.368333,-1378.971896,2960.823768
1261.103408,-6365.771101,-919.314598,2886.803174
1261.103719,-5625.565159,-995.924147,1628.453072
1261.104031,-5699.585753,-919.314598,1036.288319
1261.104342,-7254.018232,-1378.971896,296.082377
1261.104654,-9400.615463,-689.485948,-296.082377
1261.104965,-10732.986159,383.047749,-740.205942
1261.105277,-11991.336260,995.924147,-444.123565
1261.105588,-12435.459826,612.876398,-74.020594
1261.105899,-11547.212695,306.438199,814.226536
1261.106211,-9844.739029,-842.705048,1998.556043
1261.106522,-8216.285956,-1608.800546,2664.741391
1261.106833,-6883.915261,-995.924147,2812.782580
1261.107145,-6513.812290,-1608.800546,2072.576638
1261.107456,-5477.523971,-1685.410096,1850.514855
1261.107767,-6587.832884,-1225.752797,444.123565
1261.108079,-8956.491898,-459.657299,-666.185348
1261.108390,-10881.027347,842.705048,-1628.453072
1261.108701,-12213.398043,1532.190996,-1480.411884
1261.109013,-12583.501014,2374.896044,-518.144159
1261.109324,-11399.171507,1838.629195,444.123565
1261.109635,-9474.636058,536.266849,1332.370696
1261.109947,-7328.038826,-459.657299,2368.659014
1261.110258,-5625.565159,-153.219100,2516.700203
1261.110570,-4589.276840,-153.219100,1628.453072
1261.110881,-4737.318029,-536.266849,296.082377
1261.111192,-6661.853478,-229.828649,-1036.288319
1261.111504,-9104.533087,76.609550,-1850.514855
1261.111815,-11103.089130,1685.410096,-2146.597232
1261.112126,-12731.542202,2145.067394,-1628.453072
1261.112438,-13619.789333,2298.286494,-592.164754
1261.112749,-13101.645173,1685.410096,740.205942
1261.113060,-10140.821405,689.485948,1924.535449
1261.113372,-7402.059420,229.828649,2590.720797
1261.113683,-5255.462188,-306.438199,2960.823768
1261.113994,-3775.050304,-842.705048,1702.473667
1261.114306,-4145.153275,-459.657299,-222.061783
1261.114617,-6217.729913,0.000000,-1036.288319
1261.114928,-9030.512492,383.047749,-2590.720797
1261.115240,-11177.109724,842.705048,-1776.494261
1261.115551,-13249.686362,306.438199,-1332.370696
1261.115862,-13915.871710,153.219100,-0.000000
1261.116174,-13397.727550,76.609550,296.082377
1261.116485,-10436.903782,-229.828649,1702.473667
1261.116796,-7624.121203,-1378.971896,1998.556043
1261.117108,-5255.462188,-1915.238745,2294.638420
1261.117419,-3627.009116,-842.705048,1924.535449
1261.117730,-4219.173869,-1378.971896,962.267725
1261.118042,-5773.606348,-1378.971896,444.123565
1261.118353,-9326.594869,-919.314598,-518.144159
1261.118664,-11177.109724,-306.438199,-296.082377
1261.118976,-12583.501014,0.000000,-740.205942
1261.119287,-13545.768739,76.609550,-222.061783
1261.119599,-12731.542202,76.609550,-0.000000
1261.119910,-10807.006753,-383.047749,1406.391290
1261.120221,-8808.450710,-1455.581446,2220.617826
1261.120533,-7179.997637,-1225.752797,2886.803174
1261.120844,-6217.729913,-1225.752797,2516.700203
1261.121155,-4959.379811,-1685.410096,2146.597232
1261.121467,-5255.462188,-1072.533697,518.144159
1261.121778,-7846.182985,-995.924147,-740.205942
1261.122089,-10362.883188,689.485948,-1406.391290
1261.122401,-11843.295072,1455.581446,-1110.308913
1261.122712,-13101.645173,1455.581446,-518.144159
1261.123023,-13323.706956,1225.752797,518.144159
1261.123335,-11399.171507,0.000000,1480.411884
1261.123646,-9030.512492,-689.485948,2516.700203
1261.123957,-6439.791695,-536.266849,2590.720797
1261.124269,-3849.070898,-612.876398,2442.679609
1261.124580,-3701.029710,-1378.971896,1036.288319
1261.124891,-5403.503377,-383.047749,-370.102971
1261.125203,-8512.368333,766.095498,-1332.370696
1261.125514,-11029.068536,1915.238745,-1258.350101
1261.125825,-12731.542202,2374.896044,-1110.308913
1261.126137,-12879.583391,2298.286494,-370.102971
1261.126448,-11769.274478,1608.800546,666.185348
1261.126759,-10362.883188,536.266849,1184.329507
1261.127071,-7624.121203,306.438199,3034.844362
1261.127382,-5699.585753,-229.828649,3330.926739
1261.127693,-4515.256246,-689.485948,2368.659014
1261.128005,-4367.215058,-842.705048,962.267725
1261.128316,-5181.441594,-76.609550,-1258.350101
1261.128628,-6587.832884,0.000000,-2294.638420
1261.128939,-9252.574275,612.876398,-2590.720797
1261.129250,-12287.418637,689.485948,-2220.617826
1261.129562,-13323.706956,1072.533697,-1036.288319
1261.129873,-13767.830521,306.438199,666.185348
1261.130184,-11843.295072,-689.485948,2146.597232
1261.130496,-9326.594869,-1685.410096,2590.720797
1261.130807,-6883.915261,-1149.143247,2294.638420
1261.131118,-3849.070898,-1072.533697,2146.597232
1261.131430,-3701.029710,-1455.581446,740.205942
1261.131741,-4811.338623,-2145.067394,-74.020594
1261.132052,-8290.306550,-1455.581446,-888.247130
1261.132364,-10955.047942,-76.609550,-1332.370696
1261.132675,-12805.562797,612.876398,-1628.453072
1261.132986,-14211.954086,1378.971896,-740.205942
1261.133298,-13619.789333,1149.143247,-296.082377
1261.133609,-11251.130318,0.000000,444.123565
1261.133920,-9104.533087,-1455.581446,1924.535449
1261.134232,-7402.059420,-1302.362347,2812.782580
1261.134543,-7031.956449,-842.705048,2294.638420
1261.134854,-6809.894666,-1072.533697,2146.597232
1261.135166,-6513.812290,-1225.752797,592.164754
1261.135477,-7920.203579,-842.705048,-666.185348
1261.135788,-10140.821405,383.047749,-2072.576638
1261.136100,-11621.233289,1762.019645,-1998.556043
1261.136411,-12065.356855,1915.238745,-1184.329507
1261.136723,-12583.501014,1838.629195,-0.000000
1261.137034,-11695.253884,689.485948,814.226536
1261.137345,-9474.636058,-383.047749,2146.597232
1261.137657,-6883.915261,-383.047749,3182.885551
1261.137968,-4737.318029,-76.609550,3108.864956
1261.138279,-4589.276840,0.000000,1628.453072
1261.138591,-4663.297435,0.000000,148.041188
1261.138902,-6735.874072,536.266849,-222.061783
1261.139213,-9622.677246,1532.190996,-1776.494261
1261.139525,-11177.109724,2681.334243,-1776.494261
1261.139836,-12509.480420,3370.820191,-1406.391290
1261.140147,-12287.418637,2681.334243,148.041188
1261.140459,-10881.027347,1608.800546,1924.535449
1261.140770,-8586.388927,-612.876398,3108.864956
1261.141081,-6365.771101,-383.047749,3849.070898
1261.141393,-4589.276840,-766.095498,3108.864956
1261.141704,-3849.070898,-919.314598,1998.556043
1261.142015,-4515.256246,-1072.533697,148.041188
1261.142327,-6143.709319,-459.657299,-1036.288319
1261.142638,-9178.553681,0.000000,-2146.597232
1261.142949,-11177.109724,229.828649,-1554.432478
1261.143261,-12953.603985,1378.971896,-814.226536
1261.143572,-13175.665768,995.924147,-222.061783
1261.143883,-11695.253884,-383.047749,1480.411884
1261.144195,-9104.533087,-1072.533697,2146.597232
1261.144506,-6957.935855,-1225.752797,2960.823768
1261.144817,-4737.318029,-1302.362347,2664.741391
1261.145129,-4441.235652,-1685.410096,1036.288319
1261.145440,-5477.523971,-1072.533697,296.082377
1261.145752,-7402.059420,-842.705048,-888.247130
1261.146063,-9622.677246,0.000000,-2146.597232
1261.146374,-11621.233289,-229.828649,-2368.659014
1261.146686,-12879.583391,0.000000,-1332.370696
1261.146997,-13323.706956,306.438199,-296.082377
1261.147308,-13027.624579,-459.657299,518.144159
1261.147620,-11547.212695,-1225.752797,1480.411884
1261.147931,-9400.615463,-1378.971896,2442.679609
1261.148242,-7328.038826,-1455.581446,2886.803174
1261.148554,-5625.565159,-1225.752797,2146.597232
1261.148865,-6291.750507,-2451.505594,814.226536
1261.149176,-7105.977043,-1455.581446,-296.082377
1261.149488,-9474.636058,-536.266849,-1702.473667
1261.149799,-11325.150913,536.266849,-1998.556043
1261.150110,-13175.665768,1608.800546,-1776.494261
1261.150422,-13471.748144,1532.190996,-740.205942
1261.150733,-12213.398043,536.266849,296.082377
1261.151044,-9548.656652,-229.828649,1554.432478
1261.151356,-7402.059420,-536.266849,1998.556043
1261.151667,-5551.544565,-153.219100,2886.803174
1261.151978,-4071.132681,-536.266849,2220.617826
1261.152290,-4811.338623,-1302.362347,1184.329507
1261.152601,-6957.935855,-536.266849,-148.041188
1261.152912,-9178.553681,919.314598,-1406.391290
1261.153224,-10362.883188,2451.505594,-2072.576638
1261.153535,-11769.274478,2911.162892,-1332.370696
1261.153846,-12287.418637,2374.896044,148.041188
1261.154158,-10881.027347,1149.143247,1702.473667
1261.154469,-8956.491898,-229.828649,3256.906145
1261.154781,-6587.832884,-842.705048,4071.132681
1261.155092,-5477.523971,-536.266849,3330.926739
1261.155403,-4145.153275,-229.828649,2146.597232
1261.155715,-4515.256246,-229.828649,592.164754
1261.156026,-5995.668130,689.485948,-1406.391290
1261.156337,-7994.224174,919.314598,-1924.535449
1261.156649,-10584.944971,995.924147,-2072.576638
1261.156960,-12361.439231,229.828649,-888.247130
1261.157271,-12731.542202,612.876398,148.041188
1261.157583,-11769.274478,0.000000,1258.350101
1261.157894,-9178.553681,-459.657299,2220.617826
1261.158205,-7179.997637,-995.924147,2146.597232
1261.158517,-5551.544565,-1302.362347,3256.906145
1261.158828,-4515.256246,-1378.971896,2146.597232
1261.159139,-4959.379811,-1915.238745,814.226536
1261.159451,-7031.956449,-1225.752797,-444.123565
1261.159762,-10140.821405,-689.485948,-1406.391290
1261.160073,-11843.295072,-536.266849,-1480.411884
1261.160385,-13397.727550,0.000000,-1110.308913
1261.160696,-14359.995275,383.047749,-370.102971
1261.161007,-13027.624579,0.000000,592.164754
1261.161319,-11399.171507,-1378.971896,2072.576638
1261.161630,-9104.533087,-2374.896044,2368.659014
1261.161941,-7624.121203,-1532.190996,3330.926739
1261.162253,-5847.626942,-1302.362347,2442.679609
1261.162564,-5181.441594,-3140.991542,1554.432478
1261.162875,-6217.729913,-1072.533697,-518.144159
1261.163187,-8364.327145,-536.266849,-2146.597232
1261.163498,-10362.883188,229.828649,-2590.720797
1261.163810,-12213.398043,1225.752797,-1924.535449
1261.164121,-13767.830521,2221.676944,-1110.308913
1261.164432,-13619.789333,842.705048,222.061783
1261.164744,-11103.089130,-842.705048,1258.350101
1261.165055,-7994.224174,-919.314598,1628.453072
1261.165366,-5403.503377,76.609550,2294.638420
1261.165678,-3849.070898,-536.266849,1924.535449
1261.165989,-3775.050304,-1762.019645,888.247130
1261.166300,-6069.688724,-1149.143247,-1036.288319
1261.166612,-8956.491898,459.657299,-1628.453072
1261.166923,-11251.130318,2068.457845,-2146.597232
1261.167234,-12583.501014,2604.724693,-1480.411884
1261.167546,-12879.583391,2528.115143,-444.123565
1261.167857,-11769.274478,1302.362347,370.102971
1261.168168,-9104.533087,0.000000,1628.453072
1261.168480,-7105.977043,-689.485948,2886.803174
1261.168791,-5329.482782,-689.485948,3552.988522
1261.169102,-4737.318029,-1302.362347,2368.659014
1261.169414,-5551.544565,-1072.533697,1110.308913
1261.169725,-6513.812290,-229.828649,-1406.391290
1261.170036,-7994.224174,229.828649,-1850.514855
1261.170348,-10066.800811,919.314598,-2590.720797
1261.170659,-11843.295072,689.485948,-1850.514855
1261.170970,-12509.480420,1685.410096,-592.164754
1261.171282,-13249.686362,536.266849,962.267725
1261.171593,-11103.089130,459.657299,2294.638420
1261.171905,-8364.327145,229.828649,2664.741391
1261.172216,-5329.482782,-689.485948,2738.761985
1261.172527,-3627.009116,-1225.752797,1776.494261
1261.172839,-4293.194464,-1532.190996,222.061783
1261.173150,-5847.626942,-766.095498,-444.123565
1261.173461,-8808.450710,-459.657299,-1110.308913
1261.173773,-11769.274478,0.000000,-1184.329507
1261.174084,-13397.727550,689.485948,-592.164754
1261.174395,-13841.851115,1378.971896,-222.061783
1261.174707,-12657.521608,766.095498,888.247130
1261.175018,-10510.924376,-689.485948,1924.535449
1261.175329,-8438.347739,-229.828649,2960.823768
1261.175641,-6365.771101,-995.924147,3627.009116
1261.175952,-5181.441594,-1608.800546,3627.009116
1261.176263,-5551.544565,-2068.457845,2442.679609
1261.176575,-7031.956449,-1149.143247,592.164754
1261.176886,-8956.491898,153.219100,-1184.329507
1261.177197,-10436.903782,919.314598,-2072.576638
1261.177509,-11621.233289,2681.334243,-1776.494261
1261.177820,-13027.624579,2374.896044,-1406.391290
1261.178131,-12731.542202,536.266849,148.041188
1261.178443,-10510.924376,-1225.752797,1702.473667
1261.178754,-8290.306550,-1915.238745,3034.844362
1261.179065,-5625.565159,-919.314598,3923.091493
1261.179377,-3849.070898,-1072.533697,3034.844362
1261.179688,-5255.462188,-1915.238745,1702.473667
1261.179999,-5477.523971,-612.876398,-148.041188
1261.180311,-7920.203579,-383.047749,-1258.350101
1261.180622,-10140.821405,1302.362347,-2368.659014
1261.180934,-12361.439231,1838.629195,-1776.494261
1261.181245,-13101.645173,2221.676944,-1406.391290
1261.181556,-12435.459826,1532.190996,222.061783
1261.181868,-10288.862594,153.219100,1332.370696
1261.182179,-7994.224174,-536.266849,2294.638420
1261.182490,-6217.729913,-1378.971896,3701.029710
1261.182802,-4737.318029,-1991.848295,2442.679609
1261.183113,-4293.194464,-1685.410096,1184.329507
1261.183424,-5329.482782,-1149.143247,-740.205942
1261.183736,-8068.244768,-306.438199,-1628.453072
1261.184047,-10510.924376,995.924147,-2368.659014
1261.184358,-12435.459826,1225.752797,-2146.597232
1261.184670,-13175.665768,2221.676944,-1406.391290
1261.184981,-12805.562797,919.314598,-74.020594
1261.185292,-11325.150913,-612.876398,1184.329507
1261.185604,-8734.430116,-919.314598,1850.514855
1261.185915,-6809.894666,0.000000,2368.659014
1261.186226,-4811.338623,-536.266849,2220.617826
1261.186538,-4885.359217,-536.266849,1036.288319
1261.186849,-5255.462188,-2068.457845,-222.061783
1261.187160,-7772.162391,-229.828649,-1332.370696
1261.187472,-11399.171507,0.000000,-2072.576638
1261.187783,-13175.665768,689.485948,-1332.370696
1261.188094,-14137.933492,1838.629195,-666.185348
1261.188406,-13619.789333,459.657299,666.185348
1261.188717,-11917.315666,-689.485948,1702.473667
1261.189028,-9548.656652,-919.314598,2664.741391
1261.189340,-7254.018232,-1072.533697,3108.864956
1261.189651,-5181.441594,-919.314598,3256.906145
1261.189963,-4515.256246,-1225.752797,2220.617826
1261.190274,-5329.482782,-1149.143247,222.061783
1261.190585,-7328.038826,-153.219100,-1110.308913
1261.190897,-9844.739029,842.705048,-2220.617826
1261.191208,-11547.212695,1608.800546,-1702.473667
1261.191519,-12583.501014,2298.286494,-1480.411884
1261.191831,-12657.521608,1608.800546,370.102971
1261.192142,-10807.006753,-383.047749,1776.494261
1261.192453,-8512.368333,-1149.143247,2664.741391
1261.192765,-5995.668130,-1302.362347,3627.009116
1261.193076,-4293.194464,-1225.752797,3108.864956
1261.193387,-4071.132681,-919.314598,1702.473667
1261.193699,-5181.441594,-842.705048,518.144159
1261.194010,-7550.100608,459.657299,-666.185348
1261.194321,-10955.047942,1225.752797,-1998.556043
1261.194633,-12139.377449,1991.848295,-1702.473667
1261.194944,-13397.727550,2528.115143,-1406.391290
1261.195255,-12583.501014,2451.505594,-0.000000
1261.195567,-10807.006753,612.876398,1554.432478
1261.195878,-8364.327145,-919.314598,3034.844362
1261.196189,-5921.647536,-689.485948,3627.009116
1261.196501,-5033.400406,-1762.019645,3256.906145
1261.196812,-3627.009116,-842.705048,1554.432478
1261.197123,-4959.379811,-1532.190996,222.061783
1261.197435,-7402.059420,-459.657299,-1332.370696
1261.197746,-10658.965565,229.828649,-2590.720797
1261.198057,-12213.398043,1455.581446,-2368.659014
1261.198369,-13175.665768,1991.848295,-1554.432478
1261.198680,-13471.748144,1302.362347,-296.082377
1261.198992,-11769.274478,-995.924147,1184.329507
1261.199303,-9326.594869,-1072.533697,2220.617826
1261.199614,-6217.729913,-995.924147,2886.803174
1261.199926,-5107.421000,-766.095498,2442.679609
1261.200237,-3997.112087,-1532.190996,1702.473667
1261.200548,-4959.379811,-1838.629195,-0.000000
1261.200860,-7328.038826,-1455.581446,-666.185348
1261.201171,-10140.821405,-306.438199,-1850.514855
1261.201482,-12139.377449,1149.143247,-2072.576638
1261.201794,-13841.851115,1532.190996,-1628.453072
1261.202105,-13545.768739,2145.067394,-962.267725
1261.202416,-12657.521608,383.047749,222.061783
1261.202728,-10362.883188,-153.219100,1628.453072
1261.203039,-7994.224174,0.000000,3034.844362
1261.203350,-5773.606348,-766.095498,3404.947333
1261.203662,-3997.112087,-1378.971896,2960.823768
1261.203973,-4071.132681,-1838.629195,1554.432478
1261.204284,-5847.626942,-995.924147,-518.144159
1261.204596,-9696.697840,-383.047749,-2146.597232
1261.204907,-10955.047942,1685.410096,-2886.803174
1261.205218,-12509.480420,2604.724693,-2664.741391
1261.205530,-13841.851115,2221.676944,-1258.350101
1261.205841,-12287.418637,-306.438199,444.123565
1261.206152,-10807.006753,-1915.238745,1850.514855
1261.206464,-8438.347739,-1455.581446,3627.009116
1261.206775,-5033.400406,-612.876398,3997.112087
1261.207086,-3997.112087,-842.705048,2812.782580
1261.207398,-4367.215058,-612.876398,1628.453072
1261.207709,-5773.606348,536.266849,-1110.308913
1261.208021,-8512.368333,1685.410096,-1924.535449
1261.208332,-10214.842000,3370.820191,-2368.659014
1261.208643,-13101.645173,3524.039291,-1628.453072
1261.208955,-13249.686362,2528.115143,-444.123565
1261.209266,-12435.459826,995.924147,1258.350101
1261.209578,-9844.739029,-1455.581446,2738.761985
1261.209889,-7179.997637,-1608.800546,3404.947333
1261.210201,-5477.523971,-1532.190996,3701.029710
1261.210512,-4515.256246,-1455.581446,2590.720797
1261.210824,-4737.318029,-1302.362347,1036.288319
1261.211135,-6661.853478,-306.438199,-1184.329507
1261.211446,-9178.553681,1455.581446,-1776.494261
1261.211758,-11325.150913,1455.581446,-2072.576638
1261.212069,-12953.603985,2145.067394,-1184.329507
1261.212381,-12731.542202,2145.067394,-444.123565
1261.212692,-12361.439231,153.219100,962.267725
1261.213004,-10288.862594,-995.924147,2220.617826
1261.213315,-7476.080014,-766.095498,2442.679609
1261.213627,-4737.318029,-536.266849,3034.844362
1261.213938,-3775.050304,-1991.848295,1850.514855
1261.214250,-5477.523971,-2451.505594,888.247130
1261.214561,-6439.791695,-1762.019645,-888.247130
1261.214872,-8882.471304,-459.657299,-1036.288319
1261.215184,-11843.295072,459.657299,-1406.391290
1261.215495,-13767.830521,1149.143247,-814.226536
1261.215807,-13767.830521,842.705048,-0.000000
1261.216118,-13027.624579,0.000000,592.164754
1261.216430,-10362.883188,0.000000,1628.453072
1261.216741,-9474.636058,-995.924147,1776.494261
1261.217053,-7031.956449,-612.876398,2812.782580
1261.217364,-5033.400406,-1225.752797,2812.782580
1261.217676,-4367.215058,-1991.848295,1924.535449
1261.217987,-5329.482782,-2068.457845,148.041188
1261.218298,-8142.265362,-612.876398,-1702.473667
1261.218610,-10436.903782,919.314598,-2368.659014
1261.218921,-11695.253884,1532.190996,-1924.535449
1261.219233,-13027.624579,2145.067394,-1258.350101
1261.219544,-13101.645173,842.705048,-518.144159
1261.219856,-11251.130318,-766.095498,814.226536
1261.220167,-8808.450710,-1302.362347,1924.535449
1261.220479,-6217.729913,-459.657299,2886.803174
1261.220790,-4367.215058,-995.924147,2590.720797
1261.221101,-4663.297435,-1608.800546,1776.494261
1261.221413,-5181.441594,-1378.971896,592.164754
1261.221724,-8512.368333,-383.047749,-814.226536
1261.222036,-10881.027347,1762.019645,-1998.556043
1261.222347,-12879.583391,2834.553343,-2146.597232
1261.222659,-13175.665768,3524.039291,-1406.391290
1261.222970,-12213.398043,2145.067394,-370.102971
1261.223282,-9622.677246,229.828649,888.247130
1261.223593,-8364.327145,-919.314598,2368.659014
1261.223905,-6291.750507,-2451.505594,3997.112087
1261.224216,-5181.441594,-2374.896044,3108.864956
1261.224527,-5033.400406,-2068.457845,1554.432478
1261.224839,-5699.585753,-1455.581446,-0.000000
1261.225150,-7920.203579,-383.047749,-1480.411884
1261.225462,-9918.759623,612.876398,-2072.576638
1261.225773,-11177.109724,1302.362347,-2072.576638
1261.226085,-11917.315666,1455.581446,-666.185348
1261.226396,-12139.377449,306.438199,-0.000000
1261.226708,-11325.150913,-689.485948,1924.535449
1261.227019,-8808.450710,-1455.581446,3034.844362
1261.227331,-6661.853478,-1072.533697,3404.947333
1261.227642,-4737.318029,-1455.581446,2664.741391
1261.227953,-4737.318029,-2221.676944,1628.453072
1261.228265,-5255.462188,-1149.143247,296.082377
1261.228576,-7476.080014,-1149.143247,-814.226536
1261.228888,-10436.903782,-383.047749,-1110.308913
1261.229199,-12361.439231,689.485948,-1110.308913
1261.229511,-12805.562797,1455.581446,-592.164754
1261.229822,-12657.521608,842.705048,222.061783
1261.230134,-11621.233289,-1072.533697,1036.288319
1261.230445,-8956.491898,-383.047749,2072.576638
1261.230756,-7550.100608,-612.876398,2516.700203
1261.231068,-6069.688724,-1302.362347,2886.803174
1261.231379,-5403.503377,-2374.896044,1998.556043
1261.231691,-5403.503377,-2298.286494,518.144159
1261.232002,-6661.853478,-1608.800546,-740.205942
1261.232314,-9178.553681,-459.657299,-2220.617826
1261.232625,-10955.047942,1149.143247,-2220.617826
1261.232937,-13027.624579,1838.629195,-2220.617826
1261.233248,-13619.789333,1072.533697,-222.061783
1261.233560,-12879.583391,383.047749,444.123565
1261.233871,-10140.821405,-536.266849,1850.514855
1261.234182,-7476.080014,-306.438199,2368.659014
1261.234494,-5181.441594,-995.924147,2368.659014
1261.234805,-4367.215058,-1302.362347,1702.473667
1261.235117,-5107.421000,-1072.533697,592.164754
1261.235428,-7698.141797,0.000000,-814.226536
1261.235740,-10066.800811,1762.019645,-1850.514855
1261.236051,-11399.171507,3294.210641,-1924.535449
1261.236363,-12805.562797,3370.820191,-1332.370696
1261.236674,-12213.398043,2451.505594,-222.061783
1261.236986,-10510.924376,612.876398,518.144159
1261.237297,-8586.388927,-229.828649,1850.514855
1261.237608,-6661.853478,0.000000,2368.659014
1261.237920,-5329.482782,-612.876398,2442.679609
1261.238231,-5033.400406,-1149.143247,1554.432478
1261.238543,-5773.606348,-1149.143247,296.082377
1261.238854,-7846.182985,-383.047749,-814.226536
1261.239166,-10510.924376,229.828649,-1628.453072
1261.239477,-11399.171507,1608.800546,-1776.494261
1261.239789,-11843.295072,2681.334243,-814.226536
1261.240100,-11843.295072,919.314598,-0.000000
1261.240411,-9992.780217,-229.828649,1332.370696
1261.240723,-8734.430116,-689.485948,2146.597232
1261.241034,-6439.791695,-995.924147,2664.741391
1261.241346,-4737.318029,-1149.143247,2812.782580
1261.241657,-4663.297435,-1608.800546,1924.535449
1261.241969,-5477.523971,-1915.238745,592.164754
1261.242280,-7402.059420,-1685.410096,-148.041188
1261.242592,-10066.800811,-1072.533697,-1036.288319
1261.242903,-11029.068536,1608.800546,-1110.308913
1261.243215,-12583.501014,1302.362347,-592.164754
1261.243526,-12731.542202,766.095498,296.082377
1261.243837,-12065.356855,-459.657299,962.267725
1261.244149,-9844.739029,-842.705048,1628.453072
1261.244460,-7846.182985,-383.047749,2368.659014
1261.244772,-6217.729913,-1072.533697,3034.844362
1261.245083,-5625.565159,-1762.019645,2516.700203
1261.245395,-5477.523971,-2374.896044,1998.556043
1261.245706,-6735.874072,-2221.676944,148.041188
1261.246018,-9474.636058,-766.095498,-1554.432478
1261.246329,-11029.068536,842.705048,-2072.576638
1261.246641,-12435.459826,1762.019645,-2072.576638
1261.246952,-13175.665768,2145.067394,-1184.329507
1261.247263,-12435.459826,0.000000,-74.020594
1261.247575,-10436.903782,-612.876398,1258.350101
1261.247886,-7994.224174,-536.266849,1998.556043
1261.248198,-5699.585753,-536.266849,3108.864956
1261.248509,-4515.256246,-1225.752797,2368.659014
1261.248821,-5033.400406,-1762.019645,1480.411884
1261.249132,-7105.977043,-229.828649,-444.123565
1261.249444,-9696.697840,919.314598,-1924.535449
1261.249755,-11029.068536,3140.991542,-2220.617826
1261.250066,-12213.398043,3064.381992,-1554.432478
1261.250378,-12509.480420,2451.505594,-518.144159
1261.250689,-11103.089130,995.924147,1110.308913
1261.251001,-9400.615463,-689.485948,2516.700203
1261.251312,-7105.977043,-842.705048,3330.926739
1261.251624,-5625.565159,-919.314598,2960.823768
1261.251935,-4959.379811,0.000000,1702.473667
1261.252247,-4885.359217,-1608.800546,370.102971
1261.252558,-6291.750507,0.000000,-1258.350101
1261.252870,-8882.471304,689.485948,-2072.576638
1261.253181,-10881.027347,1302.362347,-2072.576638
1261.253492,-12065.356855,1915.238745,-888.247130
1261.253804,-12509.480420,1762.019645,148.041188
1261.254115,-11843.295072,0.000000,1036.288319
1261.254427,-9474.636058,0.000000,1924.535449
1261.254738,-6439.791695,0.000000,2368.659014
1261.255050,-5033.400406,-229.828649,2368.659014
1261.255361,-4367.215058,-995.924147,1036.288319
1261.255673,-5477.523971,-2145.067394,148.041188
1261.255984,-7624.121203,-1915.238745,-296.082377
1261.256296,-9844.739029,-1225.752797,-666.185348
1261.256607,-11695.253884,-229.828649,-666.185348
1261.256918,-13101.645173,76.609550,-592.164754
1261.257230,-13175.665768,536.266849,296.082377
1261.257541,-11917.315666,0.000000,666.185348
1261.257853,-10066.800811,0.000000,2368.659014
1261.258164,-8216.285956,76.609550,2812.782580
1261.258476,-6439.791695,-153.219100,3330.926739
1261.258787,-5255.462188,-1455.581446,2368.659014
1261.259099,-5107.421000,-1608.800546,1110.308913
1261.259410,-6439.791695,-1149.143247,-444.123565
1261.259721,-8290.306550,0.000000,-1776.494261
1261.260033,-10362.883188,612.876398,-1850.514855
1261.260344,-12139.377449,995.924147,-1554.432478
1261.260656,-13101.645173,1149.143247,-0.000000
1261.260967,-12731.542202,-229.828649,592.164754
1261.261279,-10807.006753,-1149.143247,1998.556043
1261.261590,-8290.306550,-919.314598,2590.720797
1261.261902,-5847.626942,-612.876398,3182.885551
1261.262213,-4589.276840,-1072.533697,2294.638420
1261.262525,-3923.091493,-1302.362347,1480.411884
1261.262836,-5847.626942,-536.266849,592.164754
1261.263147,-9104.533087,306.438199,-1406.391290
1261.263459,-11251.130318,1302.362347,-2146.597232
1261.263770,-12213.398043,2528.115143,-2220.617826
1261.264082,-12287.418637,2145.067394,-1036.288319
1261.264393,-11473.192101,1072.533697,296.082377
1261.264705,-10436.903782,-459.657299,1184.329507
1261.265016,-7846.182985,-1302.362347,2738.761985
1261.265328,-6365.771101,-1302.362347,3627.009116
1261.265639,-5033.400406,-995.924147,2812.782580
1261.265950,-5773.606348,-1685.410096,1332.370696
1261.266262,-6365.771101,-1532.190996,-1110.308913
1261.266573,-7772.162391,-919.314598,-1850.514855
1261.266885,-9326.594869,995.924147,-2590.720797
1261.267196,-11769.274478,2374.896044,-1998.556043
1261.267508,-11621.233289,1608.800546,-1110.308913
1261.267819,-12435.459826,-153.219100,814.226536
1261.268131,-11251.130318,-1225.752797,1554.432478
1261.268442,-8808.450710,-1072.533697,2368.659014
1261.268754,-6883.915261,0.000000,2368.659014
1261.269065,-5107.421000,-842.705048,1332.370696
1261.269376,-5255.462188,-995.924147,370.102971
1261.269688,-5921.647536,-689.485948,-666.185348
1261.269999,-8290.306550,-383.047749,-1702.473667
1261.270311,-11103.089130,689.485948,-1332.370696
1261.270622,-12805.562797,1378.971896,-888.247130
1261.270934,-13397.727550,1991.848295,-444.123565
1261.271245,-12953.603985,995.924147,370.102971
1261.271557,-11103.089130,-536.266849,1480.411884
1261.271868,-8290.306550,-459.657299,2368.659014
1261.272180,-7031.956449,0.000000,2738.761985
1261.272491,-6069.688724,-1149.143247,2368.659014
1261.272802,-6365.771101,-1378.971896,1554.432478
1261.273114,-6883.915261,-383.047749,-0.000000
1261.273425,-8512.368333,306.438199,-1110.308913
1261.273737,-10288.862594,1302.362347,-1850.514855
1261.274048,-11177.109724,1762.019645,-1702.473667
1261.274360,-12139.377449,1685.410096,-740.205942
1261.274671,-11917.315666,842.705048,-0.000000
1261.274983,-9770.718434,0.000000,1998.556043
1261.275294,-8364.327145,-995.924147,2664.741391
1261.275605,-6513.812290,-612.876398,3404.947333
1261.275917,-4441.235652,-689.485948,2812.782580
1261.276228,-4737.318029,-459.657299,1998.556043
1261.276540,-5847.626942,0.000000,148.041188
1261.276851,-7476.080014,842.705048,-962.267725
1261.277163,-9474.636058,1762.019645,-1480.411884
1261.277474,-11621.233289,2987.772442,-1480.411884
1261.277786,-12435.459826,3140.991542,-1258.350101
1261.278097,-12139.377449,1762.019645,-148.041188
1261.278409,-10510.924376,0.000000,1036.288319
1261.278720,-8142.265362,-842.705048,2368.659014
1261.279031,-6365.771101,-1532.190996,3478.967927
1261.279343,-5403.503377,-2068.457845,3108.864956
1261.279654,-4959.379811,-2451.505594,2294.638420
1261.279966,-6439.791695,-1991.848295,444.123565
1261.280277,-8290.306550,-1378.971896,-518.144159
1261.280589,-10732.986159,0.000000,-1628.453072
1261.280900,-11991.336260,612.876398,-1036.288319
1261.281212,-12361.439231,1838.629195,-888.247130
1261.281523,-12361.439231,919.314598,-0.000000
1261.281835,-11325.150913,-766.095498,592.164754
1261.282146,-8660.409521,-153.219100,1776.494261
1261.282457,-6809.894666,76.609550,2146.597232
1261.282769,-4737.318029,-766.095498,2294.638420
1261.283080,-4515.256246,-1685.410096,1406.391290
1261.283392,-5403.503377,-1838.629195,592.164754
1261.283703,-7328.038826,-1302.362347,-370.102971
1261.284015,-9992.780217,0.000000,-814.226536
1261.284326,-12139.377449,1455.581446,-888.247130
1261.284638,-13767.830521,2298.286494,-888.247130
1261.284949,-13545.768739,1762.019645,-296.082377
1261.285260,-12065.356855,153.219100,1036.288319
1261.285572,-9548.656652,-383.047749,1998.556043
1261.285883,-7105.977043,229.828649,2812.782580
1261.286195,-5477.523971,-1225.752797,2442.679609
1261.286506,-4515.256246,-1532.190996,2886.803174
1261.286818,-5181.441594,-1378.971896,592.164754
1261.287129,-6809.894666,-919.314598,-148.041188
1261.287441,-9770.718434,0.000000,-1702.473667
1261.287752,-11325.150913,1225.752797,-1628.453072
1261.288064,-12657.521608,2068.457845,-1258.350101
1261.288375,-12953.603985,1149.143247,-0.000000
1261.288686,-11177.109724,0.000000,962.267725
1261.288998,-9474.636058,-536.266849,1258.350101
1261.289309,-6735.874072,-689.485948,2590.720797
1261.289621,-4737.318029,-536.266849,2368.659014
1261.289932,-3923.091493,-536.266849,1184.329507
1261.290244,-4663.297435,-919.314598,-0.000000
1261.290555,-6439.791695,-306.438199,-666.185348
1261.290867,-9326.594869,383.047749,-1850.514855
1261.291178,-11103.089130,1149.143247,-1258.350101
1261.291490,-12731.542202,1685.410096,-444.123565
1261.291801,-12583.501014,1149.143247,296.082377
1261.292112,-11843.295072,0.000000,592.164754
1261.292424,-9992.780217,-842.705048,1406.391290
1261.292735,-8216.285956,-919.314598,2072.576638
1261.293047,-7105.977043,-842.705048,1850.514855
1261.293358,-5107.421000,-612.876398,1258.350101
1261.293670,-5181.441594,-1838.629195,592.164754
1261.293981,-6587.832884,-1608.800546,-0.000000
1261.294293,-8660.409521,-689.485948,-740.205942
1261.294604,-10807.006753,383.047749,-1036.288319
1261.294915,-12213.398043,1378.971896,-1110.308913
1261.295227,-12879.583391,1532.190996,-370.102971
1261.295538,-11769.274478,536.266849,-0.000000
1261.295850,-9474.636058,-689.485948,666.185348
1261.296161,-7254.018232,-1225.752797,1850.514855
1261.296473,-5551.544565,-1991.848295,2294.638420
1261.296784,-5477.523971,-2451.505594,1924.535449
1261.297096,-5921.647536,-3064.381992,1480.411884
1261.297407,-7476.080014,-2221.676944,592.164754
1261.297719,-9400.615463,-1225.752797,-148.041188
1261.298030,-11399.171507,306.438199,-1184.329507
1261.298341,-12435.459826,1225.752797,-518.144159
1261.298653,-12879.583391,1608.800546,-148.041188
1261.298964,-12213.398043,536.266849,444.123565
1261.299276,-10362.883188,229.828649,1850.514855
1261.299587,-7920.203579,-459.657299,2442.679609
1261.299899,-6291.750507,-689.485948,2812.782580
1261.300210,-5181.441594,-1455.581446,1924.535449
1261.300522,-4293.194464,-842.705048,444.123565
1261.300833,-5995.668130,-1072.533697,-518.144159
1261.301145,-8438.347739,153.219100,-1850.514855
1261.301456,-10510.924376,842.705048,-1480.411884
1261.301767,-12509.480420,1302.362347,-1332.370696
1261.302079,-13397.727550,1838.629195,-370.102971
1261.302390,-12139.377449,919.314598,444.123565
1261.302702,-10288.862594,0.000000,1850.514855
1261.303013,-7624.121203,-689.485948,2368.659014
1261.303325,-5921.647536,-383.047749,2294.638420
1261.303636,-4219.173869,-766.095498,1776.494261
1261.303948,-4367.215058,-383.047749,592.164754
1261.304259,-6365.771101,-153.219100,-296.082377
1261.304570,-9104.533087,459.657299,-1776.494261
1261.304882,-10510.924376,1378.971896,-1702.473667
1261.305193,-11917.315666,1685.410096,-1406.391290
1261.305505,-12879.583391,1838.629195,-592.164754
1261.305816,-12361.439231,229.828649,370.102971
1261.306128,-11325.150913,-689.485948,1702.473667
1261.306439,-8364.327145,-1532.190996,2368.659014
1261.306751,-6513.812290,-995.924147,2664.741391
1261.307062,-5033.400406,-1532.190996,1924.535449
1261.307374,-4959.379811,-1991.848295,740.205942
1261.307685,-6291.750507,-1149.143247,-666.185348
1261.307996,-8660.409521,-383.047749,-1406.391290
1261.308308,-10807.006753,1378.971896,-1480.411884
1261.308619,-12361.439231,1378.971896,-1628.453072
1261.308931,-13175.665768,1378.971896,-148.041188
1261.309242,-12879.583391,689.485948,592.164754
1261.309554,-11029.068536,-229.828649,1036.288319
1261.309865,-8512.368333,-766.095498,1554.432478
1261.310176,-6143.709319,-842.705048,2368.659014
1261.310488,-4737.318029,-1532.190996,1776.494261
1261.310799,-4737.318029,-1838.629195,1332.370696
1261.311111,-6735.874072,-1532.190996,296.082377
1261.311422,-9030.512492,-842.705048,-0.000000
1261.311734,-11103.089130,459.657299,-370.102971
1261.312045,-12509.480420,1685.410096,-814.226536
1261.312356,-13027.624579,2145.067394,-222.061783
1261.312668,-12731.542202,1762.019645,-74.020594
1261.312979,-10510.924376,919.314598,962.267725
1261.313291,-7550.100608,0.000000,1554.432478
1261.313602,-5847.626942,689.485948,2516.700203
1261.313914,-5181.441594,-919.314598,2442.679609
1261.314225,-5699.585753,-1762.019645,1924.535449
1261.314536,-6069.688724,-1225.752797,370.102971
1261.314848,-7994.224174,-459.657299,-370.102971
1261.315159,-9696.697840,459.657299,-1480.411884
1261.315471,-11473.192101,1072.533697,-1406.391290
1261.315782,-13619.789333,1685.410096,-1480.411884
1261.316094,-12213.398043,1225.752797,-222.061783
1261.316405,-10436.903782,766.095498,1184.329507
1261.316716,-8512.368333,0.000000,2220.617826
1261.317028,-6513.812290,-306.438199,2812.782580
1261.317339,-4885.359217,-1149.143247,2590.720797
1261.317651,-4219.173869,-459.657299,2146.597232
1261.317962,-5551.544565,-842.705048,-0.000000
1261.318274,-7698.141797,383.047749,-814.226536
1261.318585,-9622.677246,1149.143247,-1110.308913
1261.318896,-11399.171507,1455.581446,-1702.473667
1261.319208,-12213.398043,1915.238745,-814.226536
1261.319519,-12435.459826,1915.238745,-0.000000
1261.319831,-11399.171507,0.000000,1036.288319
1261.320142,-8808.450710,-689.485948,2072.576638
1261.320454,-7179.997637,-842.705048,3034.844362
1261.320765,-5773.606348,-995.924147,2590.720797
1261.321076,-5107.421000,-1378.971896,2146.597232
1261.321388,-5773.606348,-1685.410096,222.061783
1261.321699,-7254.018232,-1302.362347,-888.247130
1261.322011,-9918.759623,76.609550,-1332.370696
1261.322322,-11843.295072,1149.143247,-1406.391290
1261.322634,-12509.480420,1302.362347,-888.247130
1261.322945,-12509.480420,842.705048,-222.061783
1261.323256,-10732.986159,-383.047749,962.267725
1261.323568,-8734.430116,-1225.752797,1258.350101
1261.323879,-7105.977043,-1149.143247,2072.576638
1261.324191,-5625.565159,-1991.848295,2368.659014
1261.324502,-5625.565159,-2145.067394,1406.391290
1261.324814,-6365.771101,-1915.238745,888.247130
1261.325125,-8438.347739,-1838.629195,-0.000000
1261.325436,-10584.944971,-306.438199,-666.185348
1261.325748,-11695.253884,689.485948,-962.267725
1261.326059,-12435.459826,1378.971896,-444.123565
1261.326371,-12361.439231,1455.581446,-0.000000
1261.326682,-11103.089130,612.876398,888.247130
1261.326994,-9252.574275,0.000000,1776.494261
1261.327305,-7031.956449,612.876398,2294.638420
1261.327616,-5699.585753,-153.219100,1998.556043
1261.327928,-5107.421000,-995.924147,1628.453072
1261.328239,-5921.647536,-1149.143247,370.102971
1261.328551,-7920.203579,-842.705048,-888.247130
1261.328862,-10066.800811,383.047749,-1776.494261
1261.329174,-11621.233289,1149.143247,-1554.432478
1261.329485,-12879.583391,1762.019645,-518.144159
1261.329796,-12657.521608,1149.143247,296.082377
1261.330108,-11029.068536,-612.876398,1184.329507
1261.330419,-8808.450710,-229.828649,2368.659014
1261.330731,-6439.791695,-153.219100,2590.720797
1261.331042,-4515.256246,0.000000,2220.617826
1261.331354,-4441.235652,-229.828649,1332.370696
1261.331665,-5181.441594,-612.876398,-222.061783
1261.331976,-7402.059420,153.219100,-814.226536
1261.332288,-10066.800811,1608.800546,-1406.391290
1261.332599,-11769.274478,1838.629195,-1406.391290
1261.332911,-12361.439231,1378.971896,-444.123565
1261.333222,-12731.542202,1378.971896,592.164754
1261.333534,-10881.027347,459.657299,1332.370696
1261.333845,-8956.491898,-459.657299,2146.597232
1261.334156,-6661.853478,0.000000,2812.782580
1261.334468,-4737.318029,-229.828649,2220.617826
1261.334779,-4737.318029,-459.657299,1332.370696
1261.335091,-5625.565159,-766.095498,-74.020594
1261.335402,-6883.915261,-1072.533697,-814.226536
1261.335714,-9696.697840,-459.657299,-1110.308913
1261.336025,-11325.150913,0.000000,-888.247130
1261.336336,-12435.459826,689.485948,-592.164754
1261.336648,-12657.521608,0.000000,296.082377
1261.336959,-11251.130318,-1685.410096,1184.329507
1261.337271,-9474.636058,-1685.410096,1258.350101
1261.337582,-7698.141797,-459.657299,2072.576638
1261.337893,-6513.812290,-995.924147,1924.535449
1261.338205,-5847.626942,-1378.971896,1480.411884
1261.338516,-5921.647536,-1838.629195,1036.288319
1261.338828,-7550.100608,-1685.410096,-74.020594
1261.339139,-9474.636058,-383.047749,-888.247130
1261.339451,-10955.047942,1225.752797,-1258.350101
1261.339762,-13027.624579,2068.457845,-962.267725
1261.340073,-12361.439231,1149.143247,-148.041188
1261.340385,-11843.295072,306.438199,814.226536
1261.340696,-10288.862594,-766.095498,1998.556043
1261.341008,-8364.327145,-306.438199,2516.700203
1261.341319,-6661.853478,-383.047749,2812.782580
1261.341631,-5329.482782,-1225.752797,2146.597232
1261.341942,-4885.359217,-1685.410096,666.185348
1261.342253,-6735.874072,-689.485948,-814.226536
1261.342565,-9178.553681,919.314598,-2146.597232
1261.342876,-10807.006753,1455.581446,-2146.597232
1261.343188,-12509.480420,2221.676944,-1110.308913
1261.343499,-12879.583391,2451.505594,-222.061783
1261.343811,-11547.212695,919.314598,1480.411884
1261.344122,-9104.533087,306.438199,2812.782580
1261.344433,-7179.997637,-229.828649,2664.741391
1261.344745,-4737.318029,383.047749,3034.844362
1261.345056,-3849.070898,689.485948,1110.308913
1261.345368,-4737.318029,76.609550,-222.061783
1261.345679,-6661.853478,766.095498,-1036.288319
1261.345991,-9252.574275,1149.143247,-2072.576638
1261.346302,-10584.944971,2221.676944,-1332.370696
1261.346613,-11917.315666,2068.457845,-592.164754
1261.346925,-12065.356855,1838.629195,518.144159
1261.347236,-11399.171507,0.000000,1554.432478
1261.347548,-9252.574275,-536.266849,2960.823768
1261.347859,-7402.059420,-995.924147,3478.967927
1261.348171,-5921.647536,-766.095498,3182.885551
1261.348482,-5551.544565,-306.438199,1850.514855
1261.348793,-5995.668130,-1072.533697,444.123565
1261.349105,-7105.977043,-995.924147,-444.123565
1261.349416,-9918.759623,153.219100,-1554.432478
1261.349728,-11547.212695,919.314598,-1628.453072
1261.350039,-12139.377449,1072.533697,-1332.370696
1261.350351,-12435.459826,1072.533697,-370.102971
1261.350662,-11177.109724,153.219100,-0.000000
1261.350973,-8660.409521,-919.314598,666.185348
1261.351285,-7328.038826,-1072.533697,1110.308913
1261.351596,-5995.668130,-1225.752797,1998.556043
1261.351908,-4737.318029,-1762.019645,1776.494261
1261.352219,-6365.771101,-2068.457845,1110.308913
1261.352531,-7624.121203,-1838.629195,1554.432478
1261.352842,-9992.780217,-1838.629195,-222.061783
1261.353153,-11695.253884,-536.266849,-592.164754
1261.353465,-12287.418637,842.705048,-444.123565
1261.353776,-12805.562797,1532.190996,-222.061783
1261.354088,-12583.501014,383.047749,-518.144159
1261.354399,-10881.027347,76.609550,666.185348
1261.354711,-8512.368333,-612.876398,1924.535449
1261.355022,-7328.038826,-1532.190996,2738.761985
1261.355333,-6513.812290,-1915.238745,3256.906145
1261.355645,-6217.729913,-2298.286494,2368.659014
1261.355956,-7031.956449,-1762.019645,592.164754
1261.356268,-8068.244768,-306.438199,-814.226536
1261.356579,-9474.636058,1532.190996,-1776.494261
1261.356891,-10584.944971,2221.676944,-1998.556043
1261.357202,-11843.295072,3217.601092,-1628.453072
1261.357513,-11621.233289,1838.629195,-148.041188
1261.357825,-9696.697840,1072.533697,1480.411884
1261.358136,-8290.306550,-383.047749,2664.741391
1261.358448,-6365.771101,-229.828649,3256.906145
1261.358759,-4737.318029,-1072.533697,2368.659014
1261.359071,-4811.338623,-1225.752797,1036.288319
1261.359382,-6587.832884,383.047749,-740.205942
1261.359693,-8956.491898,919.314598,-1776.494261
1261.360005,-10732.986159,1915.238745,-1702.473667
1261.360316,-12139.377449,2298.286494,-1036.288319
1261.360628,-12657.521608,1991.848295,296.082377
1261.360939,-11843.295072,689.485948,1480.411884
1261.361251,-9844.739029,-612.876398,2368.659014
1261.361562,-7105.977043,-1149.143247,3034.844362
1261.361873,-5625.565159,-383.047749,2886.803174
1261.362185,-4663.297435,-459.657299,1480.411884
1261.362496,-4737.318029,-536.266849,592.164754
1261.362808,-6513.812290,-536.266849,-666.185348
1261.363119,-8290.306550,-229.828649,-1406.391290
1261.363431,-10510.924376,766.095498,-1480.411884
1261.363742,-11843.295072,383.047749,-814.226536
1261.364053,-11843.295072,229.828649,-0.000000
1261.364365,-11547.212695,-612.876398,370.102971
1261.364676,-9918.759623,-1149.143247,888.247130
1261.364988,-7550.100608,-1532.190996,1110.308913
1261.365299,-6291.750507,-1149.143247,1924.535449
1261.365611,-5477.523971,-1838.629195,1998.556043
1261.365922,-5699.585753,-2604.724693,1776.494261
1261.366233,-7031.956449,-2681.334243,1036.288319
1261.366545,-9548.656652,-2221.676944,296.082377
1261.366856,-11843.295072,-995.924147,-0.000000
1261.367168,-12731.542202,76.609550,-666.185348
1261.367479,-13249.686362,1378.971896,-370.102971
1261.367791,-12435.459826,612.876398,-444.123565
1261.368102,-10807.006753,766.095498,-148.041188
1261.368413,-9178.553681,-612.876398,592.164754
1261.368725,-7476.080014,229.828649,1480.411884
1261.369036,-5921.647536,-536.266849,1628.453072
1261.369348,-6291.750507,-1532.190996,2294.638420
1261.369659,-6217.729913,-2145.067394,814.226536
1261.369971,-7624.121203,-1762.019645,-222.061783
1261.370282,-9770.718434,-153.219100,-1480.411884
1261.370593,-11695.253884,1685.410096,-1850.514855
1261.370905,-12287.418637,2451.505594,-1480.411884
1261.371216,-12879.583391,1915.238745,-1036.288319
1261.371528,-11325.150913,383.047749,740.205942
1261.371839,-8956.491898,-383.047749,2220.617826
1261.372151,-7402.059420,-612.876398,2886.803174
1261.372462,-5255.462188,-383.047749,2368.659014
1261.372773,-4885.359217,-306.438199,1628.453072
1261.373085,-5255.462188,-612.876398,444.123565
1261.373396,-6735.874072,689.485948,-1110.308913
1261.373708,-9474.636058,1991.848295,-1850.514855
1261.374019,-10510.924376,2528.115143,-2072.576638
1261.374331,-12139.377449,2834.553343,-888.247130
1261.374642,-12213.398043,1915.238745,518.144159
1261.374953,-11029.068536,383.047749,1628.453072
1261.375265,-8660.409521,-383.047749,3330.926739
1261.375576,-6365.771101,0.000000,3034.844362
1261.375888,-4589.276840,-306.438199,2368.659014
1261.376199,-4515.256246,0.000000,1036.288319
1261.376511,-4737.318029,0.000000,-666.185348
1261.376822,-6809.894666,76.609550,-1184.329507
1261.377133,-9474.636058,306.438199,-1480.411884
1261.377445,-11325.150913,842.705048,-1258.350101
1261.377756,-12361.439231,1149.143247,-148.041188
1261.378068,-12731.542202,0.000000,518.144159
1261.378379,-10955.047942,-842.705048,1480.411884
1261.378691,-8290.306550,-1302.362347,2146.597232
1261.379002,-7624.121203,-1455.581446,2368.659014
1261.379313,-5847.626942,-1608.800546,2294.638420
1261.379625,-6143.709319,-1072.533697,1332.370696
1261.379936,-6883.915261,-766.095498,222.061783
1261.380248,-8290.306550,-229.828649,-222.061783
1261.380559,-10288.862594,153.219100,-1036.288319
1261.380871,-12139.377449,995.924147,-666.185348
1261.381182,-12657.521608,995.924147,-666.185348
1261.381493,-12287.418637,842.705048,-0.000000
1261.381805,-11399.171507,153.219100,666.185348
1261.382116,-9474.636058,-689.485948,1258.350101
1261.382428,-7698.141797,-383.047749,1776.494261
1261.382739,-6513.812290,-842.705048,2368.659014
1261.383051,-5551.544565,-1608.800546,2220.617826
1261.383362,-6735.874072,-2374.896044,1332.370696
1261.383673,-8364.327145,-2221.676944,444.123565
1261.383985,-10510.924376,-842.705048,-888.247130
1261.384296,-11325.150913,919.314598,-1480.411884
1261.384608,-12361.439231,1762.019645,-1480.411884
1261.384919,-12879.583391,2145.067394,-888.247130
1261.385231,-11473.192101,766.095498,-592.164754
1261.385542,-8808.450710,0.000000,1480.411884
1261.385853,-7179.997637,-383.047749,2368.659014
1261.386165,-4811.338623,-153.219100,2812.782580
1261.386476,-4515.256246,-995.924147,2220.617826
1261.386788,-4515.256246,-1455.581446,1036.288319
1261.387099,-6439.791695,-229.828649,-296.082377
1261.387411,-9104.533087,1149.143247,-1776.494261
1261.387722,-10140.821405,2068.457845,-2072.576638
1261.388033,-11917.315666,1991.848295,-1554.432478
1261.388345,-11917.315666,2221.676944,-296.082377
1261.388656,-11917.315666,536.266849,740.205942
1261.388968,-9992.780217,-459.657299,2368.659014
1261.389279,-7105.977043,-689.485948,3256.906145
1261.389591,-6069.688724,-1149.143247,2960.823768
1261.389902,-4737.318029,-1455.581446,1850.514855
1261.390213,-4959.379811,-1685.410096,-0.000000
1261.390525,-6587.832884,-689.485948,-666.185348
1261.390836,-8956.491898,612.876398,-1702.473667
1261.391148,-10955.047942,1608.800546,-1998.556043
1261.391459,-12139.377449,459.657299,-592.164754
1261.391771,-12583.501014,-306.438199,-0.000000
1261.392082,-11695.253884,-1302.362347,814.226536
1261.392393,-10214.842000,-1072.533697,1850.514855
1261.392705,-7772.162391,-612.876398,2442.679609
1261.393016,-6735.874072,-995.924147,2368.659014
1261.393328,-5847.626942,-1302.362347,1480.411884
1261.393639,-5551.544565,-1608.800546,888.247130
1261.393951,-7105.977043,-1302.362347,370.102971
1261.394262,-9844.739029,-536.266849,-592.164754
1261.394573,-11325.150913,842.705048,-666.185348
1261.394885,-11991.336260,1762.019645,-666.185348
1261.395196,-12435.459826,1685.410096,-666.185348
1261.395508,-11547.212695,689.485948,-222.061783
1261.395819,-10658.965565,229.828649,888.247130
1261.396131,-8512.368333,-383.047749,1702.473667
1261.396442,-6883.915261,-536.266849,3034.844362
1261.396753,-6069.688724,-1762.019645,2738.761985
1261.397065,-5921.647536,-2911.162892,1924.535449
1261.397376,-7031.956449,-1838.629195,370.102971
1261.397688,-8660.409521,0.000000,-814.226536
1261.397999,-10066.800811,536.266849,-1628.453072
1261.398311,-11547.212695,1685.410096,-1258.350101
1261.398622,-12805.562797,2068.457845,-518.144159
1261.398933,-12213.398043,1072.533697,148.041188
1261.399245,-9992.780217,689.485948,1776.494261
1261.399556,-7550.100608,0.000000,2516.700203
1261.399868,-5329.482782,0.000000,2886.803174
1261.400179,-4145.153275,-995.924147,2146.597232
1261.400491,-4219.173869,-995.924147,592.164754
1261.400802,-6069.688724,-76.609550,-444.123565
1261.401113,-8808.450710,1149.143247,-1628.453072
1261.401425,-10584.944971,1762.019645,-1554.432478
1261.401736,-11991.336260,1455.581446,-1184.329507
1261.402048,-12287.418637,1455.581446,-222.061783
1261.402359,-11103.089130,612.876398,962.267725
1261.402671,-9474.636058,229.828649,1924.535449
1261.402982,-7476.080014,0.000000,2812.782580
1261.403293,-5847.626942,-306.438199,2812.782580
1261.403605,-5107.421000,-612.876398,1850.514855
1261.403916,-4959.379811,-1149.143247,518.144159
1261.404228,-6513.812290,-766.095498,-962.267725
1261.404539,-8438.347739,-536.266849,-1702.473667
1261.404851,-9696.697840,153.219100,-1406.391290
1261.405162,-11621.233289,-459.657299,-1036.288319
1261.405473,-12213.398043,-842.705048,-0.000000
1261.405785,-13027.624579,-1608.800546,444.123565
1261.406096,-10881.027347,-1762.019645,1184.329507
1261.406408,-8882.471304,-1302.362347,1110.308913
1261.406719,-7698.141797,-766.095498,2072.576638
1261.407030,-6439.791695,-1302.362347,1110.308913
1261.407342,-5551.544565,-1455.581446,814.226536
1261.407653,-7105.977043,-459.657299,370.102971
1261.407965,-8808.450710,-459.657299,-0.000000
1261.408276,-10362.883188,0.000000,-518.144159
1261.408588,-11769.274478,1072.533697,-740.205942
1261.408899,-12879.583391,1685.410096,-740.205942
1261.409211,-12287.418637,1608.800546,-518.144159
1261.409522,-10807.006753,995.924147,-0.000000
1261.409834,-9474.636058,76.609550,962.267725
1261.410145,-7624.121203,-459.657299,2368.659014
1261.410457,-6365.771101,-1149.143247,2442.679609
1261.410768,-6291.750507,-2068.457845,2146.597232
1261.411080,-7254.018232,-1915.238745,666.185348
1261.411391,-8956.491898,-1455.581446,-222.061783
1261.411703,-9992.780217,153.219100,-1036.288319
1261.412014,-10881.027347,2068.457845,-1258.350101
1261.412325,-11843.295072,2757.943793,-740.205942
1261.412637,-11769.274478,2221.676944,370.102971
1261.412948,-9696.697840,1149.143247,1554.432478
1261.413260,-7179.997637,459.657299,2590.720797
1261.413571,-5477.523971,689.485948,2960.823768
1261.413883,-4293.194464,229.828649,2220.617826
1261.414194,-5107.421000,766.095498,888.247130
1261.414506,-5995.668130,1072.533697,-740.205942
1261.414817,-7994.224174,1455.581446,-1998.556043
1261.415129,-10214.842000,1838.629195,-1554.432478
1261.415440,-11769.274478,2068.457845,-1258.350101
1261.415752,-12213.398043,1225.752797,296.082377
1261.416063,-11621.233289,689.485948,1406.391290
1261.416375,-9622.677246,153.219100,2664.741391
1261.416686,-6957.935855,-229.828649,3182.885551
1261.416998,-5551.544565,-612.876398,3182.885551
1261.417309,-4219.173869,-536.266849,1776.494261
1261.417621,-4663.297435,-153.219100,518.144159
1261.417932,-5995.668130,-229.828649,-962.267725
1261.418243,-8290.306550,0.000000,-1776.494261
1261.418555,-10807.006753,0.000000,-1332.370696
1261.418866,-11843.295072,0.000000,-740.205942
1261.419178,-12361.439231,76.609550,518.144159
1261.419489,-12435.459826,-1225.752797,592.164754
1261.419801,-10881.027347,-1455.581446,1332.370696
1261.420112,-9400.615463,-1302.362347,962.267725
1261.420424,-7476.080014,-766.095498,1554.432478
1261.420735,-6291.750507,-1225.752797,1702.473667
1261.421047,-5921.647536,-1838.629195,1332.370696
1261.421358,-6883.915261,-1838.629195,888.247130
1261.421670,-8512.368333,-2221.676944,666.185348
1261.421981,-10510.924376,-766.095498,-370.102971
1261.422293,-12287.418637,459.657299,-1036.288319
1261.422604,-12731.542202,1072.533697,-1110.308913
1261.422916,-12435.459826,229.828649,-370.102971
1261.423227,-11399.171507,-459.657299,-0.000000
1261.423539,-10214.842000,-612.876398,814.226536
1261.423850,-9178.553681,-306.438199,1998.556043
1261.424161,-7254.018232,-1378.971896,2368.659014
1261.424473,-6957.935855,-1455.581446,2368.659014
1261.424784,-6661.853478,-1532.190996,814.226536
1261.425096,-7031.956449,-689.485948,-0.000000
1261.425407,-8956.491898,842.705048,-2368.659014
1261.425719,-10066.800811,2068.457845,-2664.741391
1261.426030,-11251.130318,3064.381992,-2368.659014
1261.426342,-11695.253884,2221.676944,-888.247130
1261.426653,-10214.842000,1302.362347,740.205942
1261.426965,-8882.471304,-612.876398,1702.473667
1261.427276,-7328.038826,153.219100,3108.864956
1261.427588,-5477.523971,-1149.143247,2886.803174
1261.427899,-4663.297435,-1149.143247,2072.576638
1261.428211,-5329.482782,-1302.362347,296.082377
1261.428522,-7476.080014,-383.047749,-592.164754
1261.428834,-9770.718434,842.705048,-1998.556043
1261.429145,-10436.903782,2451.505594,-1480.411884
1261.429457,-12065.356855,1762.019645,-444.123565
1261.429768,-11547.212695,612.876398,1184.329507
1261.430079,-11325.150913,-766.095498,2516.700203
1261.430391,-9326.594869,-1378.971896,3923.091493
1261.430702,-7105.977043,-229.828649,3997.112087
1261.431014,-5995.668130,0.000000,2738.761985
1261.431325,-4071.132681,536.266849,1184.329507
1261.431637,-3627.009116,536.266849,-666.185348
1261.431948,-5477.523971,153.219100,-1480.411884
1261.432260,-7846.182985,383.047749,-1480.411884
1261.432571,-10955.047942,689.485948,-1036.288319
1261.432883,-12657.521608,766.095498,-74.020594
1261.433194,-13027.624579,0.000000,1184.329507
1261.433506,-11769.274478,-995.924147,1258.350101
1261.433817,-10288.862594,-1302.362347,1998.556043
1261.434129,-8290.306550,-1149.143247,2072.576638
1261.434440,-6217.729913,-459.657299,2516.700203
1261.434752,-6291.750507,-766.095498,1554.432478
1261.435063,-6513.812290,-1149.143247,1406.391290
1261.435374,-7994.224174,-1302.362347,592.164754
1261.435686,-9770.718434,-1302.362347,-0.000000
1261.435997,-11103.089130,-153.219100,-814.226536
1261.436309,-12065.356855,612.876398,-1184.329507
1261.436620,-11917.315666,1149.143247,-0.000000
1261.436932,-11695.253884,-995.924147,-0.000000
1261.437243,-10066.800811,-1455.581446,1036.288319
1261.437555,-8290.306550,-1991.848295,1924.535449
1261.437866,-7031.956449,-1762.019645,2368.659014
1261.438178,-6143.709319,-1762.019645,2220.617826
1261.438489,-6291.750507,-1685.410096,1036.288319
1261.438801,-6957.935855,-995.924147,-148.041188
1261.439112,-8808.450710,-306.438199,-1480.411884
1261.439424,-10436.903782,383.047749,-1850.514855
1261.439735,-11769.274478,1685.410096,-1702.473667
1261.440047,-12435.459826,2298.286494,-1332.370696
1261.440358,-11695.253884,689.485948,-592.164754
1261.440670,-9844.739029,0.000000,888.247130
1261.440981,-8068.244768,153.219100,740.205942
1261.441292,-6069.688724,-383.047749,1776.494261
1261.441604,-5403.503377,-459.657299,1110.308913
1261.441915,-5551.544565,-1072.533697,592.164754
1261.442227,-7031.956449,0.000000,-296.082377
1261.442538,-8882.471304,459.657299,-1258.350101
1261.442850,-10362.883188,1225.752797,-1702.473667
1261.443161,-11843.295072,2145.067394,-1258.350101
1261.443473,-12065.356855,2374.896044,-370.102971
1261.443784,-11399.171507,1225.752797,222.061783
1261.444096,-9770.718434,0.000000,1702.473667
1261.444407,-7920.203579,-153.219100,2072.576638
1261.444719,-6217.729913,0.000000,2294.638420
1261.445030,-5551.544565,-153.219100,1702.473667
1261.445342,-5773.606348,-689.485948,370.102971
1261.445653,-6809.894666,-153.219100,-444.123565
1261.445965,-8956.491898,0.000000,-1702.473667
1261.446276,-10732.986159,995.924147,-1480.411884
1261.446588,-11547.212695,1149.143247,-814.226536
1261.446899,-12287.418637,383.047749,222.061783
1261.447210,-11621.233289,-229.828649,962.267725
1261.447522,-9770.718434,-689.485948,1998.556043
1261.447833,-7846.182985,-1149.143247,2294.638420
1261.448145,-6587.832884,-919.314598,3034.844362
1261.448456,-5477.523971,-383.047749,1998.556043
1261.448768,-6217.729913,-689.485948,296.082377
1261.449079,-7328.038826,-306.438199,222.061783
1261.449391,-9252.574275,0.000000,-740.205942
1261.449702,-10658.965565,842.705048,-592.164754
1261.450014,-11769.274478,919.314598,-296.082377
1261.450325,-11621.233289,766.095498,518.144159
1261.450637,-10510.924376,-306.438199,962.267725
1261.450948,-9326.594869,-766.095498,1776.494261
1261.451260,-7846.182985,-1149.143247,2146.597232
1261.451571,-6587.832884,-766.095498,2738.761985
1261.451883,-5773.606348,-1378.971896,2294.638420
1261.452194,-6069.688724,-1685.410096,1628.453072
1261.452506,-7476.080014,-1608.800546,592.164754
1261.452817,-9104.533087,-995.924147,-888.247130
1261.453128,-10288.862594,689.485948,-1036.288319
1261.453440,-11473.192101,1991.848295,-1628.453072
1261.453751,-12435.459826,2145.067394,-962.267725
1261.454063,-11621.233289,842.705048,-222.061783
1261.454374,-10510.924376,76.609550,1258.350101
1261.454686,-7846.182985,0.000000,1924.535449
1261.454997,-5921.647536,0.000000,2294.638420
1261.455309,-5107.421000,-306.438199,1776.494261
1261.455620,-5255.462188,-995.924147,666.185348
1261.455932,-6883.915261,-153.219100,-740.205942
1261.456243,-8734.430116,0.000000,-1554.432478
1261.456555,-11103.089130,1532.190996,-1628.453072
1261.456866,-12657.521608,1685.410096,-1184.329507
1261.457178,-13323.706956,1838.629195,-148.041188
1261.457489,-12435.459826,1762.019645,370.102971
1261.457801,-10510.924376,1149.143247,1110.308913
1261.458112,-7550.100608,0.000000,2220.617826
1261.458423,-5181.441594,306.438199,2368.659014
1261.458735,-4145.153275,-689.485948,1628.453072
1261.459046,-4737.318029,-995.924147,444.123565
1261.459358,-6587.832884,-995.924147,-740.205942
1261.459669,-9474.636058,-459.657299,-1702.473667
1261.459981,-11399.171507,229.828649,-1998.556043
1261.460292,-12435.459826,689.485948,-1554.432478
1261.460604,-12879.583391,459.657299,-444.123565
1261.460915,-12065.356855,-842.705048,444.123565
1261.461227,-10288.862594,-1149.143247,1702.473667
1261.461538,-8512.368333,-1685.410096,2368.659014
1261.461850,-6587.832884,-842.705048,2664.741391
1261.462161,-5033.400406,-306.438199,2072.576638
1261.462473,-4737.318029,-459.657299,1184.329507
1261.462784,-5033.400406,-919.314598,444.123565
1261.463096,-7698.141797,-919.314598,-1184.329507
1261.463407,-9548.656652,-153.219100,-962.267725
1261.463719,-11473.192101,1149.143247,-888.247130
1261.464030,-12879.583391,842.705048,-74.020594
1261.464341,-12509.480420,-536.266849,740.205942
1261.464653,-11843.295072,-1685.410096,1406.391290
1261.464964,-9548.656652,-1302.362347,2072.576638
1261.465276,-8142.265362,0.000000,2664.741391
1261.465587,-6809.894666,-766.095498,2738.761985
1261.465899,-5477.523971,-1991.848295,2442.679609
1261.466210,-5403.503377,-1991.848295,1036.288319
1261.466522,-6513.812290,-1455.581446,-74.020594
1261.466833,-8586.388927,0.000000,-1036.288319
1261.467145,-10955.047942,766.095498,-1036.288319
1261.467456,-12657.521608,1915.238745,-1036.288319
1261.467768,-12805.562797,1455.581446,-74.020594
1261.468079,-11843.295072,842.705048,518.144159
1261.468391,-9474.636058,153.219100,2146.597232
1261.468702,-7402.059420,0.000000,2812.782580
1261.469014,-5181.441594,-383.047749,2368.659014
1261.469325,-4663.297435,-919.314598,1480.411884
1261.469637,-5625.565159,-153.219100,148.041188
1261.469948,-7402.059420,383.047749,-592.164754
1261.470259,-10140.821405,1149.143247,-1924.535449
1261.470571,-11325.150913,1762.019645,-1480.411884
1261.470882,-12287.418637,2068.457845,-666.185348
1261.471194,-12065.356855,1455.581446,444.123565
1261.471505,-11029.068536,76.609550,888.247130
1261.471817,-8882.471304,-1302.362347,2516.700203
1261.472128,-6957.935855,-689.485948,2886.803174
1261.472440,-5255.462188,-383.047749,2146.597232
1261.472751,-5033.400406,229.828649,888.247130
1261.473063,-5477.523971,-689.485948,-740.205942
1261.473374,-7624.121203,0.000000,-1776.494261
1261.473686,-9474.636058,919.314598,-1850.514855
1261.473997,-11029.068536,1072.533697,-1998.556043
1261.474309,-12287.418637,1149.143247,-666.185348
1261.474620,-12065.356855,229.828649,222.061783
1261.474932,-10881.027347,-766.095498,740.205942
1261.475243,-8882.471304,-1149.143247,2220.617826
1261.475554,-7476.080014,-1149.143247,2368.659014
1261.475866,-6217.729913,-689.485948,2220.617826
1261.476177,-6587.832884,-842.705048,1184.329507
1261.476489,-6587.832884,-919.314598,-148.041188
1261.476800,-7772.162391,-689.485948,-888.247130
1261.477112,-9474.636058,153.219100,-1332.370696
1261.477423,-10658.965565,76.609550,-1406.391290
1261.477735,-11251.130318,766.095498,-740.205942
1261.478046,-12435.459826,306.438199,148.041188
1261.478358,-12065.356855,-689.485948,962.267725
1261.478669,-10362.883188,-459.657299,1850.514855
1261.478981,-9030.512492,-612.876398,2368.659014
1261.479292,-6809.894666,-1225.752797,2738.761985
1261.479604,-6217.729913,-1608.800546,2294.638420
1261.479915,-6291.750507,-995.924147,962.267725
1261.480227,-7105.977043,-229.828649,-518.144159
1261.480538,-9178.553681,536.266849,-1480.411884
1261.480850,-10510.924376,1455.581446,-1258.350101
1261.481161,-11325.150913,1915.238745,-1036.288319
1261.481472,-11399.171507,1608.800546,-444.123565
1261.481784,-10658.965565,612.876398,592.164754
1261.482095,-9252.574275,-229.828649,1406.391290
1261.482407,-7698.141797,-536.266849,2146.597232
1261.482718,-5773.606348,0.000000,2886.803174
1261.483030,-5551.544565,-842.705048,1924.535449
1261.483341,-5847.626942,-1455.581446,814.226536
1261.483653,-7328.038826,0.000000,-0.000000
1261.483964,-9844.739029,842.705048,-1628.453072
1261.484276,-10584.944971,2221.676944,-1554.432478
1261.484587,-11917.315666,2757.943793,-1110.308913
1261.484899,-11917.315666,2374.896044,-0.000000
1261.485210,-10658.965565,995.924147,1110.308913
1261.485522,-9030.512492,-612.876398,2886.803174
1261.485833,-7179.997637,-766.095498,3182.885551
1261.486145,-6069.688724,-229.828649,2738.761985
1261.486456,-4885.359217,0.000000,1702.473667
1261.486768,-5181.441594,-766.095498,-0.000000
1261.487079,-7031.956449,0.000000,-740.205942
1261.487390,-8808.450710,0.000000,-1702.473667
1261.487702,-10510.924376,995.924147,-1184.329507
1261.488013,-11843.295072,1072.533697,-444.123565
1261.488325,-11991.336260,919.314598,888.247130
1261.488636,-11621.233289,-919.314598,1036.288319
1261.488948,-9548.656652,-1302.362347,1998.556043
1261.489259,-7328.038826,-306.438199,2072.576638
1261.489571,-5921.647536,-153.219100,1776.494261
1261.489882,-4811.338623,-306.438199,1406.391290
1261.490194,-5477.523971,-1378.971896,666.185348
1261.490505,-7254.018232,-1838.629195,444.123565
1261.490817,-10066.800811,-1991.848295,-666.185348
1261.491128,-10732.986159,-459.657299,-518.144159
1261.491440,-11843.295072,229.828649,-888.247130
1261.491751,-12065.356855,0.000000,370.102971
1261.492063,-11695.253884,-612.876398,-0.000000
1261.492374,-10658.965565,-995.924147,1258.350101
1261.492686,-9400.615463,306.438199,1332.370696
1261.492997,-8216.285956,76.609550,2368.659014
1261.493308,-7254.018232,-459.657299,1776.494261
1261.493620,-6661.853478,-1225.752797,1554.432478
1261.493931,-6735.874072,-1149.143247,592.164754
1261.494243,-8068.244768,-229.828649,-888.247130
1261.494554,-9622.677246,153.219100,-1406.391290
1261.494866,-10881.027347,1991.848295,-1776.494261
1261.495177,-11991.336260,1608.800546,-1554.432478
1261.495489,-11769.274478,689.485948,-296.082377
1261.495800,-10214.842000,0.000000,962.267725
1261.496112,-8586.388927,-306.438199,1702.473667
1261.496423,-7254.018232,-842.705048,2590.720797
1261.496735,-5551.544565,-919.314598,2220.617826
1261.497046,-5255.462188,-1225.752797,1628.453072
1261.497358,-7328.038826,-153.219100,-148.041188
1261.497669,-8586.388927,153.219100,-1184.329507
1261.497981,-9844.739029,1225.752797,-1702.473667
1261.498292,-11325.150913,1991.848295,-1184.329507
1261.498603,-11843.295072,2374.896044,-0.000000
1261.498915,-11547.212695,842.705048,888.247130
1261.499226,-9474.636058,-229.828649,2738.761985
1261.499538,-7698.141797,-1378.971896,3256.906145
1261.499849,-6365.771101,-1378.971896,2812.782580
1261.500161,-5255.462188,-536.266849,1998.556043
1261.500472,-5033.400406,-306.438199,148.041188
1261.500784,-6291.750507,-383.047749,-1184.329507
1261.501095,-7994.224174,-612.876398,-1776.494261
1261.501407,-10214.842000,383.047749,-962.267725
1261.501718,-11843.295072,76.609550,-1036.288319
1261.502030,-12287.418637,229.828649,592.164754
1261.502341,-11843.295072,0.000000,740.205942
1261.502653,-10584.944971,-766.095498,1924.535449
1261.502964,-8290.306550,-1149.143247,1480.411884
1261.503276,-6439.791695,-919.314598,1776.494261
1261.503587,-4885.359217,-536.266849,1332.370696
1261.503899,-4219.173869,-1608.800546,518.144159
1261.504210,-6217.729913,-1762.019645,296.082377
1261.504521,-9252.574275,-2451.505594,-74.020594
1261.504833,-10732.986159,-1378.971896,-0.000000
1261.505144,-12139.377449,-383.047749,-296.082377
1261.505456,-12805.562797,153.219100,-0.000000
1261.505767,-12583.501014,0.000000,-0.000000
1261.506079,-11621.233289,-919.314598,1110.308913
1261.506390,-9178.553681,-919.314598,1406.391290
1261.506702,-7254.018232,-153.219100,2812.782580
1261.507013,-6735.874072,-766.095498,2220.617826
1261.507325,-6217.729913,-1149.143247,2220.617826
1261.507636,-6957.935855,-459.657299,592.164754
1261.507948,-8290.306550,306.438199,-962.267725
1261.508259,-9992.780217,1762.019645,-1480.411884
1261.508571,-11251.130318,2528.115143,-1110.308913
1261.508882,-12213.398043,2374.896044,-1036.288319
1261.509194,-11843.295072,1302.362347,-370.102971
1261.509505,-10362.883188,229.828649,592.164754
1261.509817,-8956.491898,-689.485948,1924.535449
1261.510128,-7402.059420,-306.438199,2590.720797
1261.510439,-5477.523971,-1149.143247,2664.741391
1261.510751,-5477.523971,-1225.752797,1850.514855
1261.511062,-6069.688724,-153.219100,-0.000000
1261.511374,-7920.203579,766.095498,-1036.288319
1261.511685,-9252.574275,2145.067394,-2146.597232
1261.511996,-10955.047942,2757.943793,-2294.638420
1261.512308,-11621.233289,2528.115143,-814.226536
1261.512619,-11177.109724,2221.676944,740.205942
1261.512930,-9844.739029,153.219100,1998.556043
1261.513242,-7846.182985,-842.705048,3552.988522
1261.513553,-6365.771101,-1072.533697,3330.926739
1261.513865,-5181.441594,-612.876398,2294.638420
1261.514176,-5477.523971,689.485948,518.144159
1261.514487,-5403.503377,383.047749,-1258.350101
1261.514799,-7550.100608,229.828649,-2146.597232
1261.515110,-9030.512492,612.876398,-2146.597232
1261.515422,-11177.109724,612.876398,-1702.473667
1261.515733,-11843.295072,842.705048,-74.020594
1261.516044,-11917.315666,229.828649,888.247130
1261.516356,-11177.109724,-1072.533697,1332.370696
1261.516667,-9252.574275,-1455.581446,1850.514855
1261.516979,-7254.018232,-919.314598,2368.659014
1261.517290,-6069.688724,-689.485948,1628.453072
1261.517601,-5699.585753,-612.876398,888.247130
1261.517913,-6291.750507,-1532.190996,-0.000000
1261.518224,-8364.327145,-1838.629195,-888.247130
1261.518535,-10214.842000,-306.438199,-222.061783
1261.518847,-11991.336260,383.047749,-666.185348
1261.519158,-13175.665768,689.485948,-740.205942
1261.519470,-12953.603985,153.219100,-0.000000
1261.519781,-11621.233289,-383.047749,592.164754
1261.520092,-9474.636058,-612.876398,1480.411884
1261.520404,-7920.203579,-306.438199,2516.700203
1261.520715,-7105.977043,-842.705048,2294.638420
1261.521027,-6217.729913,-766.095498,2442.679609
1261.521338,-6587.832884,-1072.533697,1110.308913
1261.521649,-8290.306550,-919.314598,-518.144159
1261.521961,-9252.574275,-383.047749,-1406.391290
1261.522272,-10658.965565,995.924147,-2072.576638
1261.522584,-11695.253884,1685.410096,-1480.411884
1261.522895,-11843.295072,1378.971896,-888.247130
1261.523206,-10362.883188,0.000000,444.123565
1261.523518,-9104.533087,-766.095498,1702.473667
1261.523829,-7402.059420,-919.314598,3627.009116
1261.524140,-6217.729913,-1149.143247,3108.864956
1261.524452,-6069.688724,-995.924147,2146.597232
1261.524763,-6143.709319,0.000000,370.102971
1261.525075,-7254.018232,306.438199,-592.164754
1261.525386,-9474.636058,1302.362347,-2146.597232
1261.525697,-10510.924376,2374.896044,-2146.597232
1261.526009,-11695.253884,2911.162892,-1184.329507
1261.526320,-10658.965565,2221.676944,370.102971
1261.526632,-9992.780217,383.047749,1998.556043
1261.526943,-8512.368333,-995.924147,3404.947333
1261.527254,-6957.935855,-995.924147,3552.988522
1261.527566,-5551.544565,-306.438199,2738.761985
1261.527877,-5329.482782,229.828649,814.226536
1261.528188,-5773.606348,689.485948,-1036.288319
1261.528500,-7550.100608,842.705048,-1406.391290
1261.528811,-9844.739029,0.000000,-1628.453072
1261.529123,-11029.068536,306.438199,-814.226536
1261.529434,-11695.253884,229.828649,-148.041188
1261.529745,-11695.253884,-306.438199,1258.350101
1261.530057,-11029.068536,-1608.800546,1702.473667
1261.530368,-8660.409521,-1532.190996,2516.700203
1261.530680,-7105.977043,-153.219100,2072.576638
1261.530991,-5921.647536,-1225.752797,2220.617826
1261.531302,-6217.729913,-1149.143247,740.205942
1261.531614,-6809.894666,-612.876398,148.041188
1261.531925,-7994.224174,-766.095498,-0.000000
1261.532237,-9992.780217,-1072.533697,-518.144159
1261.532548,-11177.109724,0.000000,-444.123565
1261.532859,-11843.295072,306.438199,-666.185348
1261.533171,-11991.336260,383.047749,-370.102971
1261.533482,-11695.253884,76.609550,370.102971
1261.533793,-10140.821405,0.000000,1036.288319
1261.534105,-8882.471304,153.219100,1850.514855
1261.534416,-7550.100608,-689.485948,2664.741391
1261.534728,-6661.853478,-1455.581446,2368.659014
1261.535039,-6587.832884,-1455.581446,1406.391290
1261.535350,-7179.997637,0.000000,296.082377
1261.535662,-9400.615463,153.219100,-1628.453072
1261.535973,-10140.821405,612.876398,-1702.473667
1261.536285,-11473.192101,1378.971896,-1924.535449
1261.536596,-11843.295072,842.705048,-1110.308913
1261.536907,-10955.047942,-536.266849,592.164754
1261.537219,-9844.739029,-1378.971896,1850.514855
1261.537530,-8142.265362,-1072.533697,2442.679609
1261.537842,-6291.750507,-1762.019645,2664.741391
1261.538153,-5329.482782,-919.314598,2072.576638
1261.538464,-5921.647536,-536.266849,222.061783
1261.538776,-7328.038826,766.095498,-666.185348
1261.539087,-9474.636058,1225.752797,-1702.473667
1261.539398,-10288.862594,2145.067394,-1998.556043
1261.539710,-11251.130318,2298.286494,-1184.329507
1261.540021,-11547.212695,2145.067394,-74.020594
1261.540333,-10436.903782,612.876398,1036.288319
1261.540644,-8808.450710,-383.047749,2146.597232
1261.540955,-6587.832884,-919.314598,3256.906145
1261.541267,-5847.626942,-919.314598,2886.803174
1261.541578,-5403.503377,-995.924147,1406.391290
1261.541890,-5625.565159,-1072.533697,-222.061783
1261.542201,-7105.977043,0.000000,-1702.473667
1261.542512,-9622.677246,-306.438199,-2664.741391
1261.542824,-10732.986159,1072.533697,-2368.659014
1261.543135,-11991.336260,1455.581446,-1036.288319
1261.543447,-12509.480420,536.266849,370.102971
1261.543758,-11769.274478,-919.314598,1332.370696
1261.544069,-10140.821405,-919.314598,2442.679609
1261.544381,-8364.327145,-612.876398,2146.597232
1261.544692,-6587.832884,0.000000,2368.659014
1261.545003,-5329.482782,-459.657299,1036.288319
1261.545315,-5403.503377,0.000000,-0.000000
1261.545626,-7624.121203,-536.266849,-814.226536
1261.545938,-10288.862594,-766.095498,-1850.514855
1261.546249,-11769.274478,153.219100,-740.205942
1261.546560,-12731.542202,689.485948,-814.226536
1261.546872,-12583.501014,612.876398,222.061783
1261.547183,-11769.274478,-383.047749,740.205942
1261.547495,-10214.842000,0.000000,1702.473667
1261.547806,-8438.347739,0.000000,2294.638420
1261.548117,-6957.935855,383.047749,2886.803174
1261.548429,-6143.709319,-306.438199,2664.741391
1261.548740,-5995.668130,-842.705048,2146.597232
1261.549051,-6513.812290,-383.047749,592.164754
1261.549363,-8438.347739,-153.219100,-1554.432478
1261.549674,-9844.739029,383.047749,-1998.556043
1261.549986,-10807.006753,2374.896044,-1924.535449
1261.550297,-11251.130318,1915.238745,-1184.329507
1261.550608,-10732.986159,0.000000,296.082377
1261.550920,-9770.718434,-1378.971896,1776.494261
1261.551231,-8290.306550,-1225.752797,2812.782580
1261.551543,-6735.874072,-842.705048,3256.906145
1261.551854,-5773.606348,-459.657299,2516.700203
1261.552165,-5921.647536,-306.438199,1406.391290
1261.552477,-6513.812290,995.924147,-666.185348
1261.552788,-7846.182985,1455.581446,-1628.453072
1261.553100,-9178.553681,1762.019645,-2072.576638
1261.553411,-10955.047942,2145.067394,-1702.473667
1261.553722,-12065.356855,2604.724693,-740.205942
1261.554034,-11843.295072,1302.362347,740.205942
1261.554345,-10584.944971,-383.047749,2072.576638
1261.554656,-8438.347739,-766.095498,3108.864956
1261.554968,-7031.956449,-459.657299,2886.803174
1261.555279,-5255.462188,-766.095498,1332.370696
1261.555591,-5921.647536,-766.095498,-148.041188
1261.555902,-6957.935855,229.828649,-1258.350101
1261.556213,-8586.388927,0.000000,-1850.514855
1261.556525,-10436.903782,0.000000,-1554.432478
1261.556836,-12065.356855,76.609550,-1258.350101
1261.557148,-12287.418637,842.705048,-222.061783
1261.557459,-11991.336260,0.000000,814.226536
1261.557770,-10288.862594,-1455.581446,1702.473667
1261.558082,-9252.574275,-1608.800546,2368.659014
1261.558393,-6735.874072,-1225.752797,2886.803174
1261.558705,-5477.523971,-995.924147,1998.556043
1261.559016,-5921.647536,-459.657299,666.185348
1261.559327,-6513.812290,0.000000,-518.144159
1261.559639,-8586.388927,-842.705048,-1850.514855
1261.559950,-9992.780217,0.000000,-1332.370696
1261.560261,-11769.274478,459.657299,-1184.329507
1261.560573,-12953.603985,995.924147,-296.082377
1261.560884,-12879.583391,229.828649,814.226536
1261.561196,-11177.109724,-459.657299,1850.514855
1261.561507,-8808.450710,-689.485948,2664.741391
1261.561818,-7031.956449,-383.047749,3404.947333
1261.562130,-5181.441594,-1378.971896,2590.720797
1261.562441,-5329.482782,-1302.362347,1628.453072
1261.562753,-6069.688724,-995.924147,-148.041188
1261.563064,-7846.182985,-689.485948,-1332.370696
1261.563375,-9474.636058,306.438199,-2072.576638
1261.563687,-11325.150913,766.095498,-1776.494261
1261.563998,-11843.295072,842.705048,-666.185348
1261.564310,-11769.274478,-76.609550,888.247130
1261.564621,-11547.212695,-1455.581446,1332.370696
1261.564932,-8808.450710,-995.924147,2294.638420
1261.565244,-7105.977043,-459.657299,3552.988522
1261.565555,-5625.565159,-612.876398,2590.720797
1261.565866,-5921.647536,0.000000,1554.432478
1261.566178,-6069.688724,689.485948,-74.020594
1261.566489,-7550.100608,1149.143247,-1406.391290
1261.566801,-9104.533087,1915.238745,-1998.556043
1261.567112,-10732.986159,2145.067394,-1554.432478
1261.567423,-11695.253884,1532.190996,-666.185348
1261.567735,-11325.150913,459.657299,740.205942
1261.568046,-10436.903782,229.828649,1554.432478
1261.568358,-8956.491898,-842.705048,2590.720797
1261.568669,-7402.059420,-689.485948,3256.906145
1261.568980,-5995.668130,-1378.971896,2738.761985
1261.569292,-5403.503377,-1149.143247,1480.411884
1261.569603,-6587.832884,-612.876398,-222.061783
1261.569914,-8216.285956,-1225.752797,-1036.288319
1261.570226,-10288.862594,-229.828649,-2146.597232
1261.570537,-11399.171507,536.266849,-1480.411884
1261.570849,-12213.398043,1302.362347,-814.226536
1261.571160,-11991.336260,383.047749,370.102971
1261.571471,-10881.027347,-383.047749,1332.370696
1261.571783,-8808.450710,-1225.752797,1998.556043
1261.572094,-6439.791695,-229.828649,2664.741391
1261.572406,-5255.462188,-1225.752797,2294.638420
1261.572717,-5477.523971,-919.314598,1184.329507
1261.573028,-6217.729913,-919.314598,-0.000000
1261.573340,-7698.141797,-459.657299,-962.267725
1261.573651,-10066.800811,0.000000,-1776.494261
1261.573963,-11843.295072,995.924147,-2072.576638
1261.574274,-12435.459826,1378.971896,-1110.308913
1261.574585,-12065.356855,689.485948,296.082377
1261.574897,-11251.130318,-766.095498,370.102971
1261.575208,-9844.739029,-1225.752797,2590.720797
1261.575519,-8290.306550,-612.876398,3552.988522
1261.575831,-6735.874072,-1072.533697,3182.885551
1261.576142,-5847.626942,-1608.800546,2516.700203
1261.576454,-5921.647536,-842.705048,444.123565
1261.576765,-6883.915261,-1762.019645,-1036.288319
1261.577076,-9252.574275,612.876398,-2590.720797
1261.577388,-10510.924376,919.314598,-2442.679609
1261.577699,-11843.295072,1532.190996,-2220.617826
1261.578011,-12287.418637,1072.533697,-592.164754
1261.578322,-11621.233289,0.000000,740.205942
1261.578633,-9474.636058,-1072.533697,2146.597232
1261.578945,-7105.977043,-995.924147,2738.761985
1261.579256,-5625.565159,-1378.971896,3182.885551
1261.579568,-5033.400406,-842.705048,1554.432478
1261.579879,-5181.441594,-229.828649,592.164754
1261.580190,-7328.038826,0.000000,-148.041188
1261.580502,-9474.636058,766.095498,-1628.453072
1261.580813,-11251.130318,1072.533697,-1480.411884
1261.581124,-13027.624579,2221.676944,-962.267725
1261.581436,-11991.336260,1608.800546,74.020594
1261.581747,-10436.903782,153.219100,1036.288319
1261.582059,-9918.759623,-689.485948,2072.576638
1261.582370,-7179.997637,-459.657299,2960.823768
1261.582681,-5847.626942,-766.095498,2812.782580
1261.582993,-5033.400406,-536.266849,1850.514855
1261.583304,-5551.544565,-383.047749,296.082377
1261.583616,-7031.956449,229.828649,-740.205942
1261.583927,-9548.656652,689.485948,-1776.494261
1261.584238,-11029.068536,919.314598,-1776.494261
1261.584550,-11621.233289,1455.581446,-1258.350101
1261.584861,-12213.398043,919.314598,-148.041188
1261.585172,-11251.130318,-766.095498,1110.308913
1261.585484,-9252.574275,-919.314598,2294.638420
1261.585795,-7328.038826,-919.314598,2442.679609
1261.586107,-6069.688724,-766.095498,2368.659014
1261.586418,-5625.565159,-1915.238745,1628.453072
1261.586729,-6143.709319,-1302.362347,370.102971
1261.587041,-7698.141797,0.000000,-740.205942
1261.587352,-9992.780217,0.000000,-1480.411884
1261.587664,-11769.274478,536.266849,-1184.329507
1261.587975,-12583.501014,842.705048,-444.123565
1261.588286,-12731.542202,1225.752797,444.123565
1261.588598,-11399.171507,766.095498,1406.391290
1261.588909,-9326.594869,-919.314598,2368.659014
1261.589221,-7402.059420,-612.876398,2738.761985
1261.589532,-5699.585753,0.000000,2516.700203
1261.589843,-5181.441594,-383.047749,1554.432478
1261.590155,-5699.585753,0.000000,-148.041188
1261.590466,-7328.038826,229.828649,-1110.308913
1261.590777,-9252.574275,536.266849,-2368.659014
1261.591089,-9844.739029,766.095498,-1924.535449
1261.591400,-11103.089130,919.314598,-1406.391290
1261.591712,-11769.274478,459.657299,-0.000000
1261.592023,-11177.109724,-1302.362347,888.247130
1261.592334,-10066.800811,-1532.190996,2294.638420
1261.592646,-8290.306550,-842.705048,2664.741391
1261.592957,-6735.874072,-383.047749,2812.782580
1261.593269,-6587.832884,-459.657299,1480.411884
1261.593580,-5847.626942,-229.828649,-0.000000
1261.593891,-6661.853478,689.485948,-666.185348
1261.594203,-9252.574275,1455.581446,-1776.494261
1261.594514,-10288.862594,2145.067394,-1702.473667
1261.594826,-11991.336260,2298.286494,-1628.453072
1261.595137,-12361.439231,2145.067394,-148.041188
1261.595448,-11325.150913,1225.752797,962.267725
1261.595760,-9252.574275,306.438199,2294.638420
1261.596071,-7105.977043,-919.314598,2812.782580
1261.596382,-5699.585753,-1762.019645,3034.844362
1261.596694,-5477.523971,-1838.629195,2072.576638
1261.597005,-6143.709319,-1532.190996,814.226536
1261.597317,-7698.141797,-153.219100,-888.247130
1261.597628,-9326.594869,0.000000,-1776.494261
1261.597939,-10807.006753,689.485948,-1628.453072
1261.598251,-11251.130318,459.657299,-962.267725
1261.598562,-11547.212695,689.485948,222.061783
1261.598874,-11695.253884,-459.657299,1184.329507
1261.599185,-9696.697840,-766.095498,2368.659014
1261.599496,-7846.182985,-1225.752797,2590.720797
1261.599808,-6291.750507,-995.924147,2960.823768
1261.600119,-5181.441594,-1149.143247,2220.617826
1261.600431,-5477.523971,-995.924147,296.082377
1261.600742,-6735.874072,0.000000,-592.164754
1261.601053,-8660.409521,-383.047749,-1628.453072
1261.601365,-9992.780217,-153.219100,-1480.411884
1261.601676,-11769.274478,153.219100,-740.205942
1261.601987,-12805.562797,306.438199,-0.000000
1261.602299,-12657.521608,-306.438199,962.267725
1261.602610,-11251.130318,-459.657299,2146.597232
1261.602922,-8734.430116,0.000000,2960.823768
1261.603233,-7105.977043,-459.657299,3256.906145
1261.603544,-5477.523971,-1149.143247,2294.638420
1261.603856,-5625.565159,-1608.800546,888.247130
1261.604167,-6513.812290,-842.705048,-370.102971
1261.604479,-8512.368333,0.000000,-1924.535449
1261.604790,-9992.780217,1149.143247,-2146.597232
1261.605101,-11325.150913,1302.362347,-1850.514855
1261.605413,-12361.439231,1532.190996,-740.205942
1261.605724,-11695.253884,-459.657299,370.102971
1261.606035,-10510.924376,-229.828649,2220.617826
1261.606347,-8586.388927,-306.438199,3108.864956
1261.606658,-6883.915261,-153.219100,3034.844362
1261.606970,-5329.482782,-306.438199,2294.638420
1261.607281,-4737.318029,229.828649,962.267725
1261.607592,-5847.626942,1072.533697,-740.205942
1261.607904,-7994.224174,1072.533697,-2146.597232
1261.608215,-9770.718434,1608.800546,-1924.535449
1261.608527,-10955.047942,2145.067394,-1776.494261
1261.608838,-12287.418637,1838.629195,-888.247130
1261.609149,-11695.253884,306.438199,592.164754
1261.609461,-10214.842000,-766.095498,1702.473667
1261.609772,-8216.285956,-1455.581446,2886.803174
1261.610084,-7179.997637,-1685.410096,3404.947333
1261.610395,-5329.482782,-2068.457845,2738.761985
1261.610706,-6069.688724,-2221.676944,1702.473667
1261.611018,-7031.956449,-1302.362347,-1110.308913
1261.611329,-8216.285956,-1225.752797,-1406.391290
1261.611640,-9844.739029,-76.609550,-1998.556043
1261.611952,-11251.130318,383.047749,-1406.391290
1261.612263,-11843.295072,919.314598,-296.082377
1261.612574,-11843.295072,-612.876398,370.102971
1261.612886,-11399.171507,-689.485948,1258.350101
1261.613197,-9770.718434,-1302.362347,1702.473667
1261.613509,-7920.203579,0.000000,2146.597232
1261.613820,-5847.626942,0.000000,1776.494261
1261.614131,-5847.626942,-842.705048,518.144159
1261.614443,-6069.688724,-306.438199,-444.123565
1261.614754,-7476.080014,-459.657299,-1332.370696
1261.615065,-10214.842000,153.219100,-1258.350101
1261.615377,-11991.336260,612.876398,-518.144159
1261.615688,-13175.665768,1149.143247,-296.082377
1261.616000,-12805.562797,459.657299,962.267725
1261.616311,-11325.150913,76.609550,1480.411884
1261.616622,-9030.512492,-612.876398,2220.617826
1261.616934,-7179.997637,-306.438199,3256.906145
1261.617245,-5921.647536,-1225.752797,2738.761985
1261.617556,-6069.688724,-842.705048,1480.411884
1261.617868,-6883.915261,383.047749,-0.000000
1261.618179,-8290.306550,919.314598,-1258.350101
1261.618490,-9400.615463,1072.533697,-2220.617826
1261.618802,-10732.986159,1532.190996,-2146.597232
1261.619113,-11251.130318,1915.238745,-888.247130
1261.619425,-11029.068536,1455.581446,148.041188
1261.619736,-10288.862594,0.000000,1850.514855
1261.620047,-8438.347739,-383.047749,2812.782580
1261.620359,-7031.956449,-612.876398,3182.885551
1261.620670,-5033.400406,383.047749,3034.844362
1261.620981,-5181.441594,1302.362347,1850.514855
1261.621293,-5921.647536,1072.533697,-296.082377
1261.621604,-7254.018232,995.924147,-1332.370696
1261.621916,-9252.574275,1302.362347,-2072.576638
1261.622227,-10066.800811,1608.800546,-1258.350101
1261.622538,-11251.130318,2374.896044,-518.144159
1261.622850,-11695.253884,1378.971896,962.267725
1261.623161,-10214.842000,-612.876398,1776.494261
1261.623472,-8586.388927,-1838.629195,2812.782580
1261.623784,-7254.018232,-1302.362347,3478.967927
1261.624095,-5699.585753,-1225.752797,2516.700203
1261.624406,-6143.709319,-1455.581446,962.267725
1261.624718,-6661.853478,-919.314598,-370.102971
1261.625029,-7994.224174,0.000000,-1184.329507
1261.625341,-9326.594869,459.657299,-2368.659014
1261.625652,-11029.068536,383.047749,-1332.370696
1261.625963,-12139.377449,229.828649,-444.123565
1261.626275,-12361.439231,-689.485948,592.164754
1261.626586,-11473.192101,-1072.533697,1184.329507
1261.626897,-9548.656652,-1225.752797,2146.597232
1261.627209,-7920.203579,-1378.971896,2220.617826
1261.627520,-5847.626942,-1991.848295,2294.638420
1261.627832,-5551.544565,-1608.800546,1036.288319
1261.628143,-6069.688724,-1608.800546,-740.205942
1261.628454,-7994.224174,-612.876398,-962.267725
1261.628766,-10584.944971,-612.876398,-1406.391290
1261.629077,-12065.356855,0.000000,-740.205942
1261.629388,-13545.768739,459.657299,-592.164754
1261.629700,-13471.748144,1608.800546,296.082377
1261.630011,-12287.418637,1072.533697,814.226536
1261.630322,-9622.677246,0.000000,2146.597232
1261.630634,-6957.935855,229.828649,2886.803174
1261.630945,-5255.462188,-689.485948,2590.720797
1261.631257,-5033.400406,-689.485948,1850.514855
1261.631568,-5847.626942,-536.266849,148.041188
1261.631879,-7328.038826,383.047749,-1406.391290
1261.632191,-9252.574275,1455.581446,-2072.576638
1261.632502,-10510.924376,1455.581446,-2072.576638
1261.632813,-10955.047942,1762.019645,-888.247130
1261.633125,-11843.295072,842.705048,296.082377
1261.633436,-11251.130318,-306.438199,1628.453072
1261.633748,-9696.697840,-689.485948,3108.864956
1261.634059,-7402.059420,-306.438199,3701.029710
1261.634370,-5625.565159,0.000000,3034.844362
1261.634682,-5107.421000,383.047749,1702.473667
1261.634993,-4959.379811,842.705048,-296.082377
1261.635304,-6735.874072,612.876398,-1332.370696
1261.635616,-8586.388927,1608.800546,-2072.576638
1261.635927,-10510.924376,1838.629195,-1258.350101
1261.636239,-11547.212695,995.924147,-444.123565
1261.636550,-11621.233289,76.609550,1184.329507
1261.636861,-10955.047942,-766.095498,1924.535449
1261.637173,-9400.615463,-1302.362347,2812.782580
1261.637484,-7105.977043,-995.924147,3182.885551
1261.637795,-6143.709319,-995.924147,2664.741391
1261.638107,-5847.626942,-919.314598,1480.411884
1261.638418,-5995.668130,-919.314598,222.061783
1261.638729,-7105.977043,-842.705048,-740.205942
1261.639041,-9400.615463,-536.266849,-1998.556043
1261.639352,-10881.027347,0.000000,-1036.288319
1261.639664,-12731.542202,1149.143247,-1110.308913
1261.639975,-12657.521608,842.705048,-0.000000
1261.640286,-12213.398043,0.000000,1258.350101
1261.640598,-10436.903782,-766.095498,1924.535449
1261.640909,-8438.347739,-842.705048,2146.597232
1261.641220,-5995.668130,-1149.143247,2294.638420
1261.641532,-4959.379811,-1149.143247,1184.329507
1261.641843,-5551.544565,-1532.190996,296.082377
1261.642155,-6735.874072,-306.438199,-0.000000
1261.642466,-9474.636058,-1685.410096,-1406.391290
1261.642777,-10881.027347,-995.924147,-814.226536
1261.643089,-12657.521608,383.047749,-814.226536
1261.643400,-13027.624579,842.705048,-74.020594
1261.643711,-12361.439231,-153.219100,740.205942
1261.644023,-11103.089130,-1685.410096,2294.638420
1261.644334,-8512.368333,-766.095498,2960.823768
1261.644645,-7254.018232,-612.876398,2516.700203
1261.644957,-5033.400406,-459.657299,2072.576638
1261.645268,-4959.379811,-842.705048,370.102971
1261.645580,-6439.791695,-153.219100,-962.267725
1261.645891,-8586.388927,0.000000,-2442.679609
1261.646202,-9844.739029,1608.800546,-2442.679609
1261.646514,-11325.150913,1838.629195,-1480.411884
1261.646825,-12361.439231,1149.143247,-666.185348
1261.647136,-11917.315666,76.609550,814.226536
1261.647448,-10436.903782,-383.047749,2146.597232
1261.647759,-7846.182985,-229.828649,3256.906145
1261.648071,-5847.626942,612.876398,2738.761985
1261.648382,-4589.276840,842.705048,1332.370696
1261.648693,-4811.338623,536.266849,-0.000000
1261.649005,-5625.565159,153.219100,-1184.329507
1261.649316,-7994.224174,1378.971896,-2516.700203
1261.649627,-9918.759623,1838.629195,-1628.453072
1261.649939,-11991.336260,1685.410096,-1480.411884
1261.650250,-12879.583391,842.705048,-74.020594
1261.650561,-12361.439231,-536.266849,1258.350101
1261.650873,-10584.944971,-1149.143247,2812.782580
1261.651184,-8808.450710,-1378.971896,3404.947333
1261.651496,-7254.018232,-1378.971896,3256.906145
1261.651807,-5625.565159,-842.705048,2664.741391
1261.652118,-5625.565159,-2068.457845,740.205942
1261.652430,-6957.935855,0.000000,-740.205942
1261.652741,-8586.388927,-153.219100,-1776.494261
1261.653052,-9770.718434,536.266849,-1850.514855
1261.653364,-11843.295072,1072.533697,-1258.350101
1261.653675,-12361.439231,1532.190996,-740.205942
1261.653987,-12139.377449,766.095498,370.102971
1261.654298,-10584.944971,0.000000,1406.391290
1261.654609,-8216.285956,-1225.752797,2442.679609
1261.654921,-6513.812290,-1225.752797,2886.803174
1261.655232,-5699.585753,-1915.238745,2812.782580
1261.655543,-5921.647536,-1915.238745,1924.535449
1261.655855,-7105.977043,-842.705048,444.123565
1261.656166,-8734.430116,-306.438199,-296.082377
1261.656477,-10881.027347,689.485948,-1480.411884
1261.656789,-11621.233289,1532.190996,-888.247130
1261.657100,-12361.439231,2451.505594,-962.267725
1261.657412,-12509.480420,1762.019645,-0.000000
1261.657723,-10658.965565,1072.533697,1258.350101
1261.658034,-8438.347739,153.219100,2442.679609
1261.658346,-6661.853478,0.000000,3552.988522
1261.658657,-4589.276840,-1225.752797,3034.844362
1261.658968,-4737.318029,-1072.533697,1702.473667
1261.659280,-5921.647536,0.000000,-296.082377
1261.659591,-7920.203579,-612.876398,-1332.370696
1261.659903,-9548.656652,229.828649,-1850.514855
1261.660214,-11399.171507,1072.533697,-1924.535449
1261.660525,-12139.377449,1302.362347,-592.164754
1261.660837,-12509.480420,76.609550,666.185348
1261.661148,-11399.171507,-1685.410096,1480.411884
1261.661459,-9104.533087,-1455.581446,2960.823768
1261.661771,-6513.812290,-766.095498,2960.823768
1261.662082,-4959.379811,-1455.581446,2590.720797
1261.662393,-5551.544565,-153.219100,1184.329507
1261.662705,-6217.729913,-153.219100,-592.164754
1261.663016,-7179.997637,306.438199,-1850.514855
1261.663328,-9252.574275,2068.457845,-2146.597232
1261.663639,-11177.109724,2145.067394,-1480.411884
1261.663950,-12065.356855,1915.238745,-1258.350101
1261.664262,-12065.356855,842.705048,148.041188
1261.664573,-10362.883188,229.828649,1850.514855
1261.664884,-8512.368333,-536.266849,2072.576638
1261.665196,-7179.997637,0.000000,2368.659014
1261.665507,-6291.750507,-153.219100,1776.494261
1261.665819,-5995.668130,0.000000,888.247130
1261.666130,-5921.647536,0.000000,-518.144159
1261.666441,-8216.285956,-842.705048,-1110.308913
1261.666753,-9992.780217,-153.219100,-1480.411884
1261.667064,-11991.336260,-612.876398,-592.164754
1261.667375,-12509.480420,0.000000,-0.000000
1261.667687,-12509.480420,-153.219100,296.082377
1261.667998,-11325.150913,-383.047749,1036.288319
1261.668309,-9030.512492,-1149.143247,1850.514855
1261.668621,-6809.894666,-1378.971896,2146.597232
1261.668932,-5255.462188,-1149.143247,1850.514855
1261.669244,-5921.647536,-1608.800546,1332.370696
1261.669555,-6883.915261,-1455.581446,592.164754
1261.669866,-8290.306550,-842.705048,-370.102971
1261.670178,-9992.780217,-459.657299,-814.226536
1261.670489,-11177.109724,306.438199,-1332.370696
1261.670800,-11473.192101,1532.190996,-518.144159
1261.671112,-11843.295072,1838.629195,-0.000000
1261.671423,-10881.027347,1302.362347,444.123565
1261.671735,-9252.574275,229.828649,2220.617826
1261.672046,-7254.018232,76.609550,3330.926739
1261.672357,-5551.544565,-229.828649,3108.864956
1261.672669,-5033.400406,-689.485948,2368.659014
1261.672980,-5107.421000,-842.705048,370.102971
1261.673291,-6957.935855,-1072.533697,-1332.370696
1261.673603,-8956.491898,229.828649,-1628.453072
1261.673914,-11769.274478,612.876398,-1924.535449
1261.674226,-13027.624579,995.924147,-666.185348
1261.674537,-13249.686362,919.314598,518.144159
1261.674848,-12139.377449,0.000000,1332.370696
1261.675160,-9400.615463,-536.266849,2590.720797
1261.675471,-6439.791695,-306.438199,3034.844362
1261.675782,-3775.050304,229.828649,2368.659014
1261.676094,-3923.091493,0.000000,888.247130
1261.676405,-4293.194464,-153.219100,-0.000000
1261.676716,-6661.853478,383.047749,-1332.370696
1261.677028,-9696.697840,842.705048,-2220.617826
1261.677339,-11843.295072,1072.533697,-1480.411884
1261.677651,-13249.686362,612.876398,-666.185348
1261.677962,-13101.645173,766.095498,666.185348
1261.678273,-11769.274478,-1455.581446,2146.597232
1261.678585,-9104.533087,-1685.410096,2886.803174
1261.678896,-8142.265362,-1302.362347,2886.803174
1261.679207,-5625.565159,-1072.533697,2738.761985
1261.679519,-5477.523971,-612.876398,1406.391290
1261.679830,-5403.503377,-229.828649,-0.000000
1261.680142,-6587.832884,0.000000,-1480.411884
1261.680453,-8808.450710,-383.047749,-2590.720797
1261.680764,-10881.027347,842.705048,-1628.453072
1261.681076,-11917.315666,766.095498,-1184.329507
1261.681387,-12287.418637,76.609550,-0.000000
1261.681698,-11991.336260,-995.924147,1110.308913
1261.682010,-10510.924376,-1378.971896,1924.535449
1261.682321,-8586.388927,-1378.971896,1924.535449
1261.682632,-6365.771101,-1072.533697,1924.535449
1261.682944,-5107.421000,-1302.362347,666.185348
1261.683255,-4959.379811,-1685.410096,-74.020594
1261.683567,-6143.709319,-1685.410096,-296.082377
1261.683878,-8734.430116,-1685.410096,-1406.391290
1261.684189,-11177.109724,-689.485948,-1332.370696
1261.684501,-12657.521608,842.705048,-666.185348
1261.684812,-13323.706956,1149.143247,-148.041188
1261.685123,-12805.562797,459.657299,1332.370696
1261.685435,-11399.171507,-995.924147,2368.659014
1261.685746,-9696.697840,-1225.752797,3256.906145
1261.686058,-6365.771101,-612.876398,3108.864956
1261.686369,-5033.400406,-459.657299,2146.597232
1261.686680,-5107.421000,-995.924147,370.102971
1261.686992,-6143.709319,0.000000,-1406.391290
1261.687303,-8068.244768,842.705048,-2960.823768
1261.687614,-9474.636058,2298.286494,-2590.720797
1261.687926,-11621.233289,2451.505594,-1998.556043
1261.688237,-12509.480420,1915.238745,-0.000000
1261.688548,-11991.336260,919.314598,1258.350101
1261.688860,-10140.821405,0.000000,2812.782580
1261.689171,-7402.059420,0.000000,3627.009116
1261.689483,-5773.606348,306.438199,3108.864956
1261.689794,-4515.256246,612.876398,1554.432478
1261.690105,-4515.256246,153.219100,-0.000000
1261.690417,-6217.729913,1455.581446,-1702.473667
1261.690728,-9030.512492,1762.019645,-2516.700203
1261.691039,-10658.965565,1762.019645,-1776.494261
1261.691351,-12287.418637,1302.362347,-740.205942
1261.691662,-12657.521608,995.924147,444.123565
1261.691974,-12213.398043,459.657299,1480.411884
