#time,accel_x,accel_y,accel_z
1232.712862,-8956.491898,229.828649,814.226536
1232.713173,-9030.512492,0.000000,370.102971
1232.713485,-9104.533087,-153.219100,592.164754
1232.713797,-8956.491898,76.609550,592.164754
1232.714109,-8808.450710,153.219100,592.164754
1232.714420,-8882.471304,229.828649,370.102971
1232.714732,-8660.409521,0.000000,444.123565
1232.715044,-8734.430116,-383.047749,740.205942
1232.715356,-9104.533087,306.438199,444.123565
1232.715667,-8956.491898,76.609550,666.185348
1232.715979,-8808.450710,0.000000,666.185348
1232.716291,-8734.430116,-229.828649,518.144159
1232.716603,-9030.512492,-153.219100,592.164754
1232.716914,-8956.491898,-229.828649,518.144159
1232.717226,-8660.409521,153.219100,518.144159
1232.717538,-8956.491898,229.828649,222.061783
1232.717849,-8808.450710,383.047749,592.164754
1232.718161,-9104.533087,0.000000,592.164754
1232.718473,-8882.471304,0.000000,592.164754
1232.718785,-8734.430116,-153.219100,518.144159
1232.719096,-8660.409521,153.219100,740.205942
1232.719408,-8808.450710,153.219100,370.102971
1232.719720,-9400.615463,0.000000,222.061783
1232.720032,-8808.450710,383.047749,1184.329507
1232.720343,-8956.491898,-459.657299,518.144159
1232.720655,-8734.430116,-306.438199,962.267725
1232.720967,-8956.491898,-153.219100,592.164754
1232.721279,-8808.450710,0.000000,592.164754
1232.721590,-8956.491898,0.000000,518.144159
1232.721902,-8882.471304,-459.657299,444.123565
1232.722214,-8586.388927,0.000000,222.061783
1232.722526,-9252.574275,0.000000,-0.000000
1232.722837,-8882.471304,-383.047749,518.144159
1232.723149,-8956.491898,0.000000,518.144159
1232.723461,-8956.491898,0.000000,444.123565
1232.723773,-8660.409521,-153.219100,518.144159
1232.724084,-8956.491898,0.000000,592.164754
1232.724396,-8956.491898,0.000000,518.144159
1232.724708,-9178.553681,229.828649,518.144159
1232.725020,-8808.450710,-536.266849,740.205942
1232.725331,-8734.430116,-229.828649,666.185348
1232.725643,-8882.471304,0.000000,740.205942
1232.725955,-8808.450710,0.000000,518.144159
1232.726267,-8660.409521,-306.438199,592.164754
1232.726578,-8438.347739,0.000000,518.144159
1232.726890,-8882.471304,-153.219100,814.226536
1232.727202,-8808.450710,-153.219100,370.102971
1232.727514,-8956.491898,-229.828649,740.205942
1232.727825,-9030.512492,-306.438199,518.144159
1232.728137,-9030.512492,0.000000,518.144159
1232.728449,-8882.471304,-76.609550,518.144159
1232.728761,-8882.471304,0.000000,444.123565
1232.729072,-9030.512492,153.219100,518.144159
1232.729384,-8734.430116,-536.266849,370.102971
1232.729696,-8882.471304,76.609550,444.123565
1232.730008,-8882.471304,0.000000,296.082377
1232.730319,-8808.450710,76.609550,518.144159
1232.730631,-8882.471304,0.000000,666.185348
1232.730943,-8882.471304,-153.219100,444.123565
1232.731255,-8956.491898,-153.219100,444.123565
1232.731566,-9030.512492,0.000000,370.102971
1232.731878,-8586.388927,0.000000,518.144159
1232.732190,-9178.553681,229.828649,222.061783
1232.732501,-9030.512492,306.438199,296.082377
1232.732813,-8956.491898,229.828649,370.102971
1232.733125,-8808.450710,0.000000,592.164754
1232.733437,-8956.491898,153.219100,518.144159
1232.733748,-8956.491898,0.000000,518.144159
1232.734060,-9178.553681,0.000000,296.082377
1232.734372,-9178.553681,76.609550,370.102971
1232.734684,-9030.512492,-383.047749,592.164754
1232.734995,-8882.471304,-76.609550,518.144159
1232.735307,-8956.491898,-383.047749,518.144159
1232.735619,-8956.491898,-153.219100,518.144159
1232.735931,-8956.491898,0.000000,518.144159
1232.736242,-8882.471304,76.609550,444.123565
1232.736554,-8512.368333,-306.438199,740.205942
1232.736866,-9030.512492,383.047749,518.144159
1232.737178,-8808.450710,-153.219100,518.144159
1232.737489,-9030.512492,76.609550,592.164754
1232.737801,-8956.491898,0.000000,370.102971
1232.738113,-8808.450710,-153.219100,666.185348
1232.738425,-9918.759623,229.828649,370.102971
1232.738736,-12065.356855,1685.410096,148.041188
1232.739048,-9770.718434,3600.648841,814.226536
1232.739360,-7846.182985,4903.011187,518.144159
1232.739672,-7031.956449,2757.943793,1036.288319
1232.739983,-6365.771101,-229.828649,740.205942
1232.740295,-7254.018232,-1302.362347,-296.082377
1232.740607,-7105.977043,-536.266849,-0.000000
1232.740919,-9474.636058,-689.485948,-814.226536
1232.741230,-13249.686362,-1532.190996,-1258.350101
1232.741542,-11325.150913,459.657299,296.082377
1232.741854,-9992.780217,153.219100,296.082377
1232.742166,-8512.368333,459.657299,2442.679609
1232.742477,-11029.068536,-612.876398,1998.556043
1232.742789,-11029.068536,2451.505594,1702.473667
1232.743101,-5625.565159,5209.449386,2590.720797
1232.743413,-6291.750507,4366.744339,1332.370696
1232.743724,-7846.182985,3217.601092,-0.000000
1232.744036,-7105.977043,2987.772442,-1702.473667
1232.744348,-7846.182985,3064.381992,-2220.617826
1232.744660,-8882.471304,3524.039291,-444.123565
1232.744971,-10362.883188,3294.210641,-1110.308913
1232.745283,-14804.118840,229.828649,-444.123565
1232.745595,-10807.006753,-1455.581446,2812.782580
1232.745907,-9252.574275,-842.705048,1628.453072
1232.746218,-9548.656652,2911.162892,1850.514855
1232.746530,-7328.038826,5515.887586,2368.659014
1232.746842,-8364.327145,4366.744339,1702.473667
1232.747154,-5921.647536,2681.334243,2664.741391
1232.747465,-6883.915261,6052.154434,740.205942
1232.747777,-8068.244768,7354.516781,-666.185348
1232.748089,-9178.553681,6435.202183,-1480.411884
1232.748400,-10881.027347,4749.792088,-444.123565
1232.748712,-9696.697840,5056.230287,-1776.494261
1232.749024,-11325.150913,5898.935335,-370.102971
1232.749336,-11695.253884,4519.963438,148.041188
1232.749647,-10362.883188,4060.306139,1628.453072
1232.749959,-9992.780217,4749.792088,1998.556043
1232.750271,-7698.141797,5822.325785,2146.597232
1232.750583,-6291.750507,5362.668486,962.267725
1232.750894,-5329.482782,5132.839837,592.164754
1232.751206,-4737.318029,6128.763984,-0.000000
1232.751518,-5477.523971,4903.011187,-666.185348
1232.751830,-7105.977043,4366.744339,-518.144159
1232.752141,-9400.615463,2604.724693,-370.102971
1232.752453,-10140.821405,1455.581446,-0.000000
1232.752765,-10584.944971,612.876398,666.185348
1232.753077,-10807.006753,76.609550,1480.411884
1232.753388,-11325.150913,-536.266849,1332.370696
1232.753700,-10066.800811,919.314598,1924.535449
1232.754012,-8216.285956,1991.848295,1850.514855
1232.754324,-6661.853478,2987.772442,666.185348
1232.754635,-6587.832884,1915.238745,296.082377
1232.754947,-7179.997637,2068.457845,-370.102971
1232.755259,-6661.853478,2681.334243,-148.041188
1232.755571,-6217.729913,1378.971896,-888.247130
1232.755882,-7624.121203,-1455.581446,-740.205942
1232.756194,-9696.697840,-3830.477490,-0.000000
1232.756506,-10362.883188,-3447.429741,1258.350101
1232.756818,-11399.171507,-4213.525239,2294.638420
1232.757129,-12583.501014,-4366.744339,1998.556043
1232.757441,-12657.521608,-2834.553343,1406.391290
1232.757753,-11917.315666,-919.314598,370.102971
1232.758065,-9844.739029,766.095498,-222.061783
1232.758376,-7920.203579,1532.190996,-370.102971
1232.758688,-7772.162391,2451.505594,-148.041188
1232.759000,-8216.285956,2451.505594,-370.102971
1232.759312,-8142.265362,1608.800546,-0.000000
1232.759623,-8808.450710,229.828649,-0.000000
1232.759935,-9770.718434,-383.047749,962.267725
1232.760247,-10510.924376,-1991.848295,666.185348
1232.760559,-11177.109724,-2911.162892,370.102971
1232.760870,-11547.212695,-3600.648841,296.082377
1232.761182,-11621.233289,-1991.848295,666.185348
1232.761494,-11473.192101,-995.924147,370.102971
1232.761806,-11029.068536,76.609550,-74.020594
1232.762117,-9770.718434,1762.019645,-0.000000
1232.762429,-8216.285956,2834.553343,-666.185348
1232.762741,-6217.729913,4136.915689,-296.082377
1232.763052,-3775.050304,3294.210641,444.123565
1232.763364,-3404.947333,2068.457845,1332.370696
1232.763676,-5181.441594,-842.705048,1406.391290
1232.763988,-7402.059420,-766.095498,1110.308913
1232.764299,-9844.739029,-536.266849,1036.288319
1232.764611,-10955.047942,0.000000,-0.000000
1232.764923,-11769.274478,-153.219100,222.061783
1232.765235,-11769.274478,-459.657299,-296.082377
1232.765546,-10658.965565,383.047749,-296.082377
1232.765858,-9474.636058,1532.190996,-74.020594
1232.766170,-7328.038826,3677.258390,-0.000000
1232.766482,-7031.956449,4290.134789,370.102971
1232.766793,-6069.688724,3600.648841,1406.391290
1232.767105,-4145.153275,2757.943793,1554.432478
1232.767417,-3627.009116,1302.362347,2368.659014
1232.767729,-5255.462188,-229.828649,1628.453072
1232.768040,-7698.141797,-1838.629195,1628.453072
1232.768352,-9918.759623,-1991.848295,814.226536
1232.768664,-11695.253884,-3064.381992,592.164754
1232.768976,-12731.542202,-3524.039291,888.247130
1232.769287,-12731.542202,-3064.381992,888.247130
1232.769599,-12435.459826,-2528.115143,370.102971
1232.769911,-10955.047942,-1072.533697,-148.041188
1232.770223,-9844.739029,1455.581446,-0.000000
1232.770534,-8512.368333,2528.115143,370.102971
1232.770846,-6957.935855,2987.772442,-296.082377
1232.771158,-5699.585753,1608.800546,1258.350101
1232.771470,-4737.318029,1072.533697,1702.473667
1232.771781,-4441.235652,0.000000,2442.679609
1232.772093,-6661.853478,-2221.676944,1406.391290
1232.772405,-8882.471304,-3217.601092,666.185348
1232.772717,-11251.130318,-3447.429741,-0.000000
1232.773028,-12805.562797,-1991.848295,-814.226536
1232.773340,-14137.933492,-1838.629195,-2146.597232
1232.773652,-14211.954086,-1302.362347,-2146.597232
1232.773964,-13471.748144,-689.485948,-1332.370696
1232.774275,-11917.315666,383.047749,-74.020594
1232.774587,-9918.759623,1378.971896,592.164754
1232.774899,-8290.306550,2374.896044,814.226536
1232.775211,-7105.977043,2374.896044,962.267725
1232.775522,-4515.256246,2757.943793,2442.679609
1232.775834,-3775.050304,1762.019645,2294.638420
1232.776146,-5847.626942,-153.219100,1036.288319
1232.776458,-7920.203579,-919.314598,666.185348
1232.776769,-10807.006753,-383.047749,-888.247130
1232.777081,-12657.521608,76.609550,-1480.411884
1232.777393,-13101.645173,-383.047749,-1480.411884
1232.777704,-12583.501014,-1378.971896,-1406.391290
1232.778016,-10807.006753,-995.924147,-1110.308913
1232.778328,-8660.409521,459.657299,-222.061783
1232.778640,-7328.038826,612.876398,-0.000000
1232.778951,-6661.853478,2451.505594,1554.432478
1232.779263,-6217.729913,3294.210641,3923.091493
1232.779575,-3330.926739,2298.286494,4219.173869
1232.779887,-2442.679609,1378.971896,3478.967927
1232.780198,-3256.906145,0.000000,962.267725
1232.780510,-6439.791695,76.609550,-518.144159
1232.780822,-9844.739029,306.438199,-1554.432478
1232.781134,-11399.171507,842.705048,-2220.617826
1232.781445,-12435.459826,0.000000,-1480.411884
1232.781757,-12065.356855,-1838.629195,-666.185348
1232.782069,-12139.377449,-2068.457845,-74.020594
1232.782381,-11843.295072,-995.924147,740.205942
1232.782692,-9252.574275,995.924147,962.267725
1232.783004,-7772.162391,2451.505594,1258.350101
1232.783316,-7179.997637,2834.553343,1702.473667
1232.783628,-5773.606348,1302.362347,3627.009116
1232.783939,-3775.050304,-459.657299,3552.988522
1232.784251,-5107.421000,-1685.410096,3108.864956
1232.784563,-8808.450710,-1762.019645,1036.288319
1232.784874,-11991.336260,-612.876398,-592.164754
1232.785185,-13249.686362,0.000000,-1184.329507
1232.785497,-12583.501014,-1762.019645,-444.123565
1232.785808,-12953.603985,-3677.258390,-1850.514855
1232.786119,-13027.624579,-3983.696590,-1924.535449
1232.786431,-11843.295072,-1378.971896,-74.020594
1232.786742,-10140.821405,-766.095498,1406.391290
1232.787054,-9104.533087,-995.924147,3108.864956
1232.787365,-7846.182985,-1455.581446,3552.988522
1232.787676,-5699.585753,-383.047749,3552.988522
1232.787988,-5033.400406,0.000000,2368.659014
1232.788299,-2368.659014,229.828649,1184.329507
1232.788610,-4441.235652,153.219100,-888.247130
1232.788922,-7179.997637,-612.876398,-1776.494261
1232.789233,-9992.780217,-842.705048,-1480.411884
1232.789545,-12361.439231,-1072.533697,-1554.432478
1232.789856,-12657.521608,-919.314598,-1184.329507
1232.790167,-12953.603985,-1455.581446,-888.247130
1232.790479,-11621.233289,-612.876398,-666.185348
1232.790790,-9770.718434,306.438199,518.144159
1232.791102,-9326.594869,1072.533697,1554.432478
1232.791413,-7994.224174,2145.067394,1628.453072
1232.791724,-7179.997637,3677.258390,2220.617826
1232.792036,-5403.503377,3064.381992,2738.761985
1232.792347,-4663.297435,1455.581446,2294.638420
1232.792658,-5699.585753,0.000000,814.226536
1232.792970,-7698.141797,229.828649,-666.185348
1232.793281,-10362.883188,153.219100,-1480.411884
1232.793593,-11695.253884,536.266849,-2072.576638
1232.793904,-12287.418637,612.876398,-1924.535449
1232.794215,-12287.418637,-383.047749,-1924.535449
1232.794527,-10955.047942,-536.266849,-222.061783
1232.794838,-9104.533087,0.000000,814.226536
1232.795150,-7994.224174,766.095498,1332.370696
1232.795461,-7994.224174,2298.286494,1554.432478
1232.795772,-7254.018232,2374.896044,3330.926739
1232.796084,-5403.503377,1608.800546,3256.906145
1232.796395,-4071.132681,689.485948,2442.679609
1232.796706,-4885.359217,-689.485948,888.247130
1232.797018,-7994.224174,-1225.752797,-148.041188
1232.797329,-10584.944971,-153.219100,-962.267725
1232.797641,-11695.253884,-536.266849,-1406.391290
1232.797952,-11251.130318,-1532.190996,-962.267725
1232.798263,-11177.109724,-2451.505594,-592.164754
1232.798575,-10881.027347,-2451.505594,-222.061783
1232.798886,-10066.800811,-766.095498,370.102971
1232.799197,-9474.636058,1225.752797,1924.535449
1232.799509,-9400.615463,1838.629195,2220.617826
1232.799820,-9104.533087,1991.848295,1110.308913
1232.800132,-7402.059420,2068.457845,2368.659014
1232.800443,-5551.544565,919.314598,1776.494261
1232.800754,-5033.400406,-229.828649,2146.597232
1232.801066,-7105.977043,-1915.238745,1036.288319
1232.801377,-9474.636058,-2604.724693,148.041188
1232.801689,-11029.068536,-2528.115143,518.144159
1232.802000,-10955.047942,-2911.162892,518.144159
1232.802311,-11177.109724,-2757.943793,-0.000000
1232.802623,-11917.315666,-3600.648841,-962.267725
1232.802934,-11029.068536,-2221.676944,-592.164754
1232.803245,-10140.821405,0.000000,222.061783
1232.803557,-9622.677246,612.876398,1036.288319
1232.803868,-9252.574275,536.266849,1628.453072
1232.804180,-7698.141797,306.438199,1850.514855
1232.804491,-4885.359217,-612.876398,2738.761985
1232.804802,-3775.050304,-459.657299,2368.659014
1232.805114,-4367.215058,-1608.800546,740.205942
1232.805425,-6291.750507,-1685.410096,-296.082377
1232.805736,-8734.430116,-1532.190996,-1036.288319
1232.806048,-10955.047942,-689.485948,-1258.350101
1232.806359,-12509.480420,-459.657299,-1406.391290
1232.806671,-12953.603985,-459.657299,-1480.411884
1232.806982,-11695.253884,-689.485948,-1702.473667
1232.807293,-10584.944971,1149.143247,-1036.288319
1232.807605,-10140.821405,1685.410096,-518.144159
1232.807916,-9400.615463,2528.115143,222.061783
1232.808228,-7846.182985,2451.505594,888.247130
1232.808539,-6661.853478,2451.505594,2368.659014
1232.808850,-5107.421000,1225.752797,2812.782580
1232.809162,-5921.647536,-612.876398,2072.576638
1232.809473,-7328.038826,-1149.143247,888.247130
1232.809784,-8512.368333,-306.438199,296.082377
1232.810096,-11251.130318,76.609550,-1184.329507
1232.810407,-12805.562797,0.000000,-1480.411884
1232.810719,-12879.583391,-383.047749,-1406.391290
1232.811030,-11695.253884,-689.485948,-1554.432478
1232.811341,-10732.986159,0.000000,-370.102971
1232.811653,-9622.677246,306.438199,-0.000000
1232.811964,-8142.265362,612.876398,888.247130
1232.812276,-7105.977043,1302.362347,2294.638420
1232.812587,-6439.791695,689.485948,3849.070898
1232.812898,-4737.318029,153.219100,3775.050304
1232.813210,-4071.132681,306.438199,2590.720797
1232.813521,-5181.441594,-459.657299,1036.288319
1232.813832,-7698.141797,-612.876398,-296.082377
1232.814144,-9992.780217,-459.657299,-1110.308913
1232.814455,-11103.089130,229.828649,-1998.556043
1232.814767,-11399.171507,-536.266849,-962.267725
1232.815078,-10955.047942,-1532.190996,-592.164754
1232.815389,-11547.212695,-1378.971896,-0.000000
1232.815701,-10955.047942,-536.266849,1332.370696
1232.816012,-9622.677246,306.438199,1850.514855
1232.816323,-9474.636058,1532.190996,2368.659014
1232.816635,-7550.100608,2451.505594,2368.659014
1232.816946,-5847.626942,2068.457845,2664.741391
1232.817258,-3775.050304,1072.533697,3330.926739
1232.817569,-4737.318029,-919.314598,2220.617826
1232.817880,-7105.977043,-1608.800546,740.205942
1232.818192,-9844.739029,-766.095498,-370.102971
1232.818503,-11769.274478,-153.219100,-1036.288319
1232.818815,-11325.150913,-383.047749,-888.247130
1232.819126,-12509.480420,-2374.896044,-1406.391290
1232.819437,-11843.295072,-2528.115143,-592.164754
1232.819749,-10658.965565,-1608.800546,518.144159
1232.820060,-10066.800811,-766.095498,1332.370696
1232.820371,-8956.491898,536.266849,1998.556043
1232.820683,-8216.285956,995.924147,1924.535449
1232.820994,-5921.647536,1072.533697,2516.700203
1232.821306,-2960.823768,689.485948,1332.370696
1232.821617,-2664.741391,689.485948,444.123565
1232.821928,-4811.338623,-612.876398,-592.164754
1232.822240,-8438.347739,-766.095498,-1480.411884
1232.822551,-11177.109724,-1149.143247,-1036.288319
1232.822863,-12435.459826,-1225.752797,-1184.329507
1232.823174,-13545.768739,-1915.238745,-814.226536
1232.823485,-12435.459826,-1455.581446,-814.226536
1232.823797,-11917.315666,-689.485948,-444.123565
1232.824108,-10955.047942,459.657299,-0.000000
1232.824419,-9104.533087,1532.190996,1110.308913
1232.824731,-8956.491898,2987.772442,740.205942
1232.825042,-7179.997637,3447.429741,1406.391290
1232.825354,-5625.565159,2604.724693,1480.411884
1232.825665,-5551.544565,1838.629195,1480.411884
1232.825976,-6069.688724,612.876398,1110.308913
1232.826288,-7772.162391,-383.047749,-296.082377
1232.826599,-10288.862594,-536.266849,-222.061783
1232.826910,-11917.315666,-1225.752797,-74.020594
1232.827222,-12657.521608,-1225.752797,-814.226536
1232.827533,-12139.377449,-1685.410096,-1036.288319
1232.827845,-10807.006753,-1225.752797,-444.123565
1232.828156,-10066.800811,0.000000,222.061783
1232.828467,-9770.718434,919.314598,814.226536
1232.828779,-9326.594869,1685.410096,1036.288319
1232.829090,-6809.894666,1991.848295,1702.473667
1232.829402,-4663.297435,2374.896044,2664.741391
1232.829713,-3627.009116,1378.971896,2590.720797
1232.830024,-3701.029710,-306.438199,1776.494261
1232.830336,-6217.729913,-1532.190996,740.205942
1232.830647,-8438.347739,-842.705048,296.082377
1232.830958,-10658.965565,-153.219100,-888.247130
1232.831270,-11843.295072,689.485948,-740.205942
1232.831581,-11621.233289,-842.705048,-518.144159
1232.831893,-11251.130318,-2068.457845,-0.000000
1232.832204,-10658.965565,-1685.410096,1036.288319
1232.832515,-9770.718434,229.828649,1628.453072
1232.832827,-9104.533087,1685.410096,1554.432478
1232.833138,-8438.347739,2145.067394,1702.473667
1232.833449,-6365.771101,2987.772442,1924.535449
1232.833761,-5625.565159,2221.676944,1702.473667
1232.834072,-4885.359217,1072.533697,1776.494261
1232.834384,-6439.791695,-995.924147,1554.432478
1232.834695,-8956.491898,-1149.143247,518.144159
1232.835006,-10732.986159,-1072.533697,444.123565
1232.835318,-11769.274478,-1378.971896,-222.061783
1232.835629,-11695.253884,-1838.629195,-444.123565
1232.835941,-11843.295072,-2068.457845,-1332.370696
1232.836252,-10955.047942,-1455.581446,-814.226536
1232.836563,-10066.800811,-229.828649,74.020594
1232.836875,-10066.800811,76.609550,1110.308913
1232.837186,-9178.553681,459.657299,1850.514855
1232.837497,-7179.997637,689.485948,2072.576638
1232.837809,-5625.565159,229.828649,2442.679609
1232.838120,-4441.235652,-229.828649,2072.576638
1232.838432,-3923.091493,-689.485948,962.267725
1232.838743,-6587.832884,-1532.190996,-222.061783
1232.839054,-8734.430116,-1225.752797,-370.102971
1232.839366,-11029.068536,-612.876398,-740.205942
1232.839677,-12731.542202,-383.047749,-1184.329507
1232.839989,-12805.562797,-842.705048,-1332.370696
1232.840300,-11843.295072,-919.314598,-1480.411884
1232.840611,-10214.842000,459.657299,-222.061783
1232.840923,-9770.718434,1685.410096,-74.020594
1232.841234,-9918.759623,1608.800546,740.205942
1232.841545,-8068.244768,1685.410096,1332.370696
1232.841857,-7031.956449,2068.457845,2072.576638
1232.842168,-5921.647536,1455.581446,1924.535449
1232.842480,-5551.544565,383.047749,1332.370696
1232.842791,-6883.915261,-383.047749,444.123565
1232.843102,-8438.347739,-766.095498,-74.020594
1232.843414,-11029.068536,-1149.143247,-518.144159
1232.843725,-12583.501014,-306.438199,-666.185348
1232.844036,-12583.501014,-1915.238745,-444.123565
1232.844348,-12213.398043,-1991.848295,-888.247130
1232.844659,-10584.944971,-689.485948,-296.082377
1232.844971,-9326.594869,766.095498,-0.000000
1232.845282,-8142.265362,1225.752797,962.267725
1232.845593,-7846.182985,689.485948,1554.432478
1232.845905,-7105.977043,1302.362347,2442.679609
1232.846216,-5773.606348,229.828649,2812.782580
1232.846528,-4885.359217,612.876398,2738.761985
1232.846839,-5107.421000,-459.657299,1998.556043
1232.847150,-6439.791695,-1072.533697,222.061783
1232.847462,-8660.409521,-459.657299,-888.247130
1232.847773,-10288.862594,306.438199,-1258.350101
1232.848084,-10807.006753,0.000000,-1184.329507
1232.848396,-12213.398043,-383.047749,-1110.308913
1232.848707,-11769.274478,-919.314598,-296.082377
1232.849019,-10732.986159,-306.438199,296.082377
1232.849330,-9918.759623,612.876398,1554.432478
1232.849641,-8586.388927,1302.362347,1776.494261
1232.849953,-7624.121203,1302.362347,2072.576638
1232.850264,-6661.853478,1455.581446,2368.659014
1232.850576,-5773.606348,1225.752797,2368.659014
1232.850887,-5847.626942,0.000000,1850.514855
1232.851198,-7328.038826,-1532.190996,962.267725
1232.851510,-9474.636058,-1378.971896,-0.000000
1232.851821,-10658.965565,-766.095498,-444.123565
1232.852132,-11473.192101,-1149.143247,-666.185348
1232.852444,-11843.295072,-1762.019645,-962.267725
1232.852755,-11473.192101,-2068.457845,-1184.329507
1232.853067,-10214.842000,-1378.971896,-592.164754
1232.853378,-9696.697840,383.047749,296.082377
1232.853689,-8808.450710,229.828649,1628.453072
1232.854001,-8142.265362,306.438199,1924.535449
1232.854312,-6735.874072,153.219100,2146.597232
1232.854623,-5329.482782,153.219100,2146.597232
1232.854935,-5181.441594,306.438199,1554.432478
1232.855246,-5625.565159,0.000000,444.123565
1232.855558,-7328.038826,-995.924147,-814.226536
1232.855869,-9326.594869,-1149.143247,-814.226536
1232.856180,-10510.924376,-1225.752797,-1110.308913
1232.856492,-12139.377449,-1149.143247,-1332.370696
1232.856803,-13101.645173,-842.705048,-1110.308913
1232.857115,-12509.480420,-459.657299,-444.123565
1232.857426,-11695.253884,229.828649,444.123565
1232.857737,-9992.780217,1302.362347,1110.308913
1232.858049,-9030.512492,1608.800546,370.102971
1232.858360,-7105.977043,2528.115143,1110.308913
1232.858671,-6069.688724,2451.505594,1480.411884
1232.858983,-5995.668130,1225.752797,2072.576638
1232.859294,-6735.874072,-306.438199,1554.432478
1232.859606,-7920.203579,-1225.752797,222.061783
1232.859917,-9252.574275,-766.095498,-74.020594
1232.860228,-10881.027347,-919.314598,-666.185348
1232.860540,-11621.233289,-689.485948,-666.185348
1232.860851,-11695.253884,-1608.800546,-1258.350101
1232.861163,-11251.130318,-1762.019645,-148.041188
1232.861474,-10214.842000,-383.047749,222.061783
1232.861785,-9400.615463,995.924147,1036.288319
1232.862097,-8142.265362,1532.190996,1554.432478
1232.862408,-6883.915261,1685.410096,2368.659014
1232.862719,-5107.421000,1762.019645,2368.659014
1232.863031,-3997.112087,842.705048,2960.823768
1232.863342,-3775.050304,612.876398,1776.494261
1232.863654,-5699.585753,-995.924147,518.144159
1232.863965,-7994.224174,-842.705048,-296.082377
1232.864276,-9696.697840,-612.876398,-962.267725
1232.864588,-11251.130318,-459.657299,-888.247130
1232.864899,-12361.439231,-919.314598,-666.185348
1232.865210,-12435.459826,-1991.848295,-1036.288319
1232.865522,-11695.253884,-1149.143247,370.102971
1232.865833,-10807.006753,153.219100,962.267725
1232.866145,-9548.656652,689.485948,1628.453072
1232.866456,-8216.285956,1149.143247,1850.514855
1232.866767,-6291.750507,1762.019645,1702.473667
1232.867079,-5551.544565,1225.752797,1776.494261
1232.867390,-4959.379811,842.705048,1924.535449
1232.867702,-6365.771101,-383.047749,2368.659014
1232.868013,-8364.327145,-1225.752797,222.061783
1232.868324,-10881.027347,-995.924147,74.020594
1232.868636,-12065.356855,-919.314598,-444.123565
1232.868947,-12139.377449,-1838.629195,-592.164754
1232.869258,-12361.439231,-2604.724693,-1036.288319
1232.869570,-11843.295072,-1685.410096,-296.082377
1232.869881,-10510.924376,-612.876398,-296.082377
1232.870193,-9178.553681,-306.438199,740.205942
1232.870504,-7698.141797,153.219100,1998.556043
1232.870815,-7402.059420,383.047749,1924.535449
1232.871127,-5329.482782,0.000000,2368.659014
1232.871438,-4367.215058,459.657299,1776.494261
1232.871749,-4663.297435,0.000000,1258.350101
1232.872061,-5995.668130,-689.485948,-444.123565
1232.872372,-8216.285956,-1072.533697,-592.164754
1232.872684,-10214.842000,-842.705048,-592.164754
1232.872995,-12213.398043,-995.924147,-1110.308913
1232.873306,-13027.624579,-919.314598,-814.226536
1232.873618,-13027.624579,-1149.143247,-592.164754
1232.873929,-11769.274478,-306.438199,-0.000000
1232.874241,-10140.821405,536.266849,222.061783
1232.874552,-9400.615463,1455.581446,370.102971
1232.874863,-7402.059420,2528.115143,962.267725
1232.875175,-6661.853478,3064.381992,1332.370696
1232.875486,-6217.729913,2145.067394,1998.556043
1232.875797,-5181.441594,1072.533697,1924.535449
1232.876109,-7105.977043,-383.047749,962.267725
1232.876420,-8438.347739,-612.876398,592.164754
1232.876732,-10288.862594,-766.095498,-296.082377
1232.877043,-11843.295072,0.000000,-1406.391290
1232.877354,-11769.274478,-766.095498,-370.102971
1232.877666,-11325.150913,-1762.019645,-1036.288319
1232.877977,-10732.986159,-995.924147,-148.041188
1232.878289,-10288.862594,459.657299,148.041188
1232.878600,-9030.512492,1532.190996,1258.350101
1232.878911,-7624.121203,1685.410096,1702.473667
1232.879223,-5995.668130,1838.629195,2368.659014
1232.879534,-4885.359217,1072.533697,2812.782580
1232.879845,-4145.153275,383.047749,2294.638420
1232.880157,-4737.318029,-459.657299,1480.411884
1232.880468,-6809.894666,-1378.971896,-0.000000
1232.880780,-9474.636058,-1378.971896,-666.185348
1232.881091,-11029.068536,-1378.971896,-740.205942
1232.881402,-11843.295072,-1149.143247,-666.185348
1232.881714,-11695.253884,-1225.752797,-962.267725
1232.882025,-11843.295072,-1455.581446,-296.082377
1232.882336,-11177.109724,-766.095498,296.082377
1232.882648,-9770.718434,995.924147,814.226536
1232.882959,-8808.450710,1455.581446,1554.432478
1232.883271,-7254.018232,2145.067394,1406.391290
1232.883582,-5921.647536,1838.629195,2146.597232
1232.883893,-5329.482782,766.095498,1924.535449
1232.884191,-5625.565159,0.000000,1702.473667
1232.884503,-7328.038826,-1532.190996,888.247130
1232.884814,-10140.821405,-1532.190996,-0.000000
1232.885126,-11251.130318,-2221.676944,-518.144159
1232.885437,-11843.295072,-1608.800546,-740.205942
1232.885749,-11843.295072,-2221.676944,-1036.288319
1232.886060,-11843.295072,-2451.505594,-1554.432478
1232.886372,-10732.986159,-1685.410096,-518.144159
1232.886683,-9992.780217,-612.876398,370.102971
1232.886995,-9104.533087,842.705048,1998.556043
1232.887306,-8290.306550,306.438199,2146.597232
1232.887618,-6661.853478,995.924147,2886.803174
1232.887929,-4811.338623,76.609550,2886.803174
1232.888240,-4145.153275,-306.438199,1702.473667
1232.888552,-4959.379811,-842.705048,222.061783
1232.888863,-7254.018232,-995.924147,-814.226536
1232.889175,-9918.759623,-995.924147,-1184.329507
1232.889486,-11843.295072,-536.266849,-1406.391290
1232.889798,-12065.356855,-919.314598,-962.267725
1232.890109,-12657.521608,-1302.362347,-1332.370696
1232.890421,-12139.377449,-306.438199,-518.144159
1232.890732,-10955.047942,1072.533697,592.164754
1232.891044,-9474.636058,2145.067394,888.247130
1232.891355,-8512.368333,2681.334243,1184.329507
1232.891666,-7031.956449,2911.162892,1702.473667
1232.891978,-6365.771101,1991.848295,1850.514855
1232.892289,-4293.194464,1455.581446,2072.576638
1232.892601,-5107.421000,229.828649,1110.308913
1232.892912,-7846.182985,-612.876398,-0.000000
1232.893224,-10658.965565,-766.095498,-592.164754
1232.893535,-12509.480420,-153.219100,-1036.288319
1232.893847,-11991.336260,-995.924147,-592.164754
1232.894158,-11769.274478,-1915.238745,-1406.391290
1232.894470,-10807.006753,-1532.190996,-666.185348
1232.894781,-10214.842000,229.828649,-0.000000
1232.895093,-9178.553681,842.705048,740.205942
1232.895404,-8438.347739,1838.629195,1628.453072
1232.895715,-6957.935855,1991.848295,2886.803174
1232.896027,-5699.585753,1455.581446,3330.926739
1232.896338,-4293.194464,612.876398,3034.844362
1232.896650,-3923.091493,-995.924147,1702.473667
1232.896961,-5921.647536,-1455.581446,-444.123565
1232.897273,-9030.512492,-1149.143247,-1850.514855
1232.897584,-10732.986159,-306.438199,-1776.494261
1232.897896,-12287.418637,-919.314598,-1480.411884
1232.898207,-12583.501014,-1532.190996,-1258.350101
1232.898519,-12361.439231,-2451.505594,-666.185348
1232.898830,-11621.233289,-1455.581446,222.061783
1232.899141,-9992.780217,995.924147,1110.308913
1232.899453,-9548.656652,1455.581446,1258.350101
1232.899764,-7920.203579,1915.238745,1998.556043
1232.900076,-5847.626942,2451.505594,2368.659014
1232.900387,-4219.173869,1455.581446,2738.761985
1232.900699,-4663.297435,0.000000,2220.617826
1232.901010,-6365.771101,-536.266849,1628.453072
1232.901322,-8882.471304,-842.705048,296.082377
1232.901633,-11695.253884,-1378.971896,-444.123565
1232.901945,-12361.439231,-612.876398,-1036.288319
1232.902256,-12435.459826,-1532.190996,-1184.329507
1232.902568,-12509.480420,-1532.190996,-1258.350101
1232.902879,-12213.398043,-1455.581446,-444.123565
1232.903190,-10955.047942,76.609550,518.144159
1232.903502,-9844.739029,1378.971896,1406.391290
1232.903813,-8142.265362,1378.971896,1628.453072
1232.904125,-6217.729913,1225.752797,2442.679609
1232.904436,-4293.194464,536.266849,3404.947333
1232.904748,-3478.967927,-306.438199,2294.638420
1232.905059,-4293.194464,-689.485948,1184.329507
1232.905371,-6661.853478,-766.095498,-370.102971
1232.905682,-9548.656652,-612.876398,-1110.308913
1232.905994,-10881.027347,-229.828649,-1184.329507
1232.906305,-11917.315666,-229.828649,-1850.514855
1232.906616,-12435.459826,-612.876398,-1110.308913
1232.906928,-11473.192101,-612.876398,-74.020594
1232.907239,-11473.192101,383.047749,370.102971
1232.907551,-10362.883188,1149.143247,1406.391290
1232.907862,-8956.491898,2145.067394,1554.432478
1232.908174,-7105.977043,2604.724693,2294.638420
1232.908485,-4885.359217,2681.334243,2368.659014
1232.908797,-3552.988522,1608.800546,2146.597232
1232.909108,-4367.215058,306.438199,1258.350101
1232.909420,-6587.832884,-689.485948,592.164754
1232.909731,-9548.656652,-536.266849,-370.102971
1232.910043,-11251.130318,-536.266849,-740.205942
1232.910354,-12361.439231,-919.314598,-1406.391290
1232.910665,-11991.336260,-1532.190996,-1628.453072
1232.910977,-12065.356855,-1455.581446,-1702.473667
1232.911288,-11843.295072,-306.438199,-888.247130
1232.911600,-10510.924376,153.219100,592.164754
1232.911911,-9918.759623,689.485948,1628.453072
1232.912223,-7994.224174,1378.971896,2590.720797
1232.912534,-5995.668130,1149.143247,3256.906145
1232.912846,-3701.029710,0.000000,3478.967927
1232.913157,-3034.844362,-1072.533697,1850.514855
1232.913469,-4737.318029,-1302.362347,1036.288319
1232.913780,-8142.265362,-1149.143247,-1036.288319
1232.914091,-11103.089130,-689.485948,-1924.535449
1232.914403,-12213.398043,0.000000,-1480.411884
1232.914714,-12731.542202,-995.924147,-1628.453072
1232.915026,-12509.480420,-1838.629195,-1406.391290
1232.915337,-12213.398043,-1225.752797,-518.144159
1232.915649,-11695.253884,459.657299,814.226536
1232.915960,-10362.883188,766.095498,1258.350101
1232.916272,-9030.512492,1991.848295,1998.556043
1232.916583,-6587.832884,2374.896044,2220.617826
1232.916895,-4737.318029,2221.676944,2294.638420
1232.917206,-3330.926739,1532.190996,1776.494261
1232.917518,-4515.256246,0.000000,1258.350101
1232.917829,-7254.018232,-689.485948,148.041188
1232.918140,-10066.800811,0.000000,-592.164754
1232.918452,-11843.295072,76.609550,-666.185348
1232.918763,-13101.645173,-766.095498,-962.267725
1232.919075,-12805.562797,-2298.286494,-1036.288319
1232.919386,-12361.439231,-1991.848295,-1110.308913
1232.919698,-11177.109724,-459.657299,-296.082377
1232.920009,-10436.903782,0.000000,1184.329507
1232.920321,-9030.512492,919.314598,1850.514855
1232.920632,-7550.100608,1072.533697,2886.803174
1232.920944,-4737.318029,842.705048,3330.926739
1232.921255,-2812.782580,-306.438199,3108.864956
1232.921566,-3182.885551,-842.705048,1850.514855
1232.921878,-4737.318029,-1302.362347,222.061783
1232.922189,-7105.977043,-1225.752797,-888.247130
1232.922501,-9548.656652,-1149.143247,-1110.308913
1232.922812,-12213.398043,-1302.362347,-1480.411884
1232.923124,-12731.542202,-1225.752797,-1110.308913
1232.923435,-12509.480420,-1762.019645,-222.061783
1232.923747,-12065.356855,-1608.800546,370.102971
1232.924058,-11103.089130,-459.657299,1036.288319
1232.924370,-10140.821405,1072.533697,888.247130
1232.924681,-8290.306550,2068.457845,1554.432478
1232.924993,-5921.647536,2528.115143,1850.514855
1232.925304,-4441.235652,1455.581446,2294.638420
1232.925615,-3775.050304,306.438199,1480.411884
1232.925927,-5255.462188,-766.095498,1332.370696
1232.926238,-7550.100608,-1225.752797,-74.020594
1232.926550,-10881.027347,-919.314598,148.041188
1232.926861,-13249.686362,-995.924147,-814.226536
1232.927173,-13767.830521,-1455.581446,-1480.411884
1232.927484,-13101.645173,-1455.581446,-1110.308913
1232.927796,-12139.377449,-1608.800546,-888.247130
1232.928107,-10732.986159,-383.047749,-74.020594
1232.928419,-9474.636058,995.924147,666.185348
1232.928730,-8586.388927,1455.581446,1702.473667
1232.929041,-7179.997637,1838.629195,3182.885551
1232.929353,-5403.503377,1608.800546,3330.926739
1232.929664,-4071.132681,536.266849,2960.823768
1232.929976,-4811.338623,-383.047749,1554.432478
1232.930287,-5995.668130,-689.485948,-222.061783
1232.930599,-8364.327145,153.219100,-1702.473667
1232.930910,-10066.800811,-383.047749,-1628.453072
1232.931222,-11473.192101,-229.828649,-1554.432478
1232.931533,-12065.356855,-1378.971896,-1184.329507
1232.931845,-12287.418637,-1532.190996,-222.061783
1232.932156,-11843.295072,-766.095498,740.205942
1232.932468,-10807.006753,995.924147,1628.453072
1232.932779,-9030.512492,2298.286494,1628.453072
1232.933090,-6217.729913,3217.601092,2072.576638
1232.933402,-5107.421000,2528.115143,1554.432478
1232.933713,-3775.050304,1915.238745,1924.535449
1232.934025,-4515.256246,612.876398,1554.432478
1232.934336,-6439.791695,-459.657299,962.267725
1232.934648,-8882.471304,-306.438199,222.061783
1232.934959,-11103.089130,-536.266849,-222.061783
1232.935271,-11991.336260,-1838.629195,-962.267725
1232.935582,-12435.459826,-2757.943793,-1184.329507
1232.935894,-11991.336260,-1685.410096,-1332.370696
1232.936205,-11177.109724,-1532.190996,-962.267725
1232.936516,-10510.924376,-153.219100,-0.000000
1232.936828,-9918.759623,459.657299,814.226536
1232.937139,-8364.327145,689.485948,1850.514855
1232.937451,-6143.709319,1302.362347,2368.659014
1232.937762,-4293.194464,153.219100,2886.803174
1232.938074,-2886.803174,-689.485948,2220.617826
1232.938385,-3849.070898,-1532.190996,1258.350101
1232.938697,-6661.853478,-2221.676944,-296.082377
1232.939008,-9770.718434,-1991.848295,-888.247130
1232.939320,-11917.315666,-1149.143247,-1628.453072
1232.939631,-13101.645173,-1225.752797,-1554.432478
1232.939943,-13693.809927,-1608.800546,-1702.473667
1232.940254,-12879.583391,-1762.019645,-962.267725
1232.940565,-12435.459826,-1072.533697,222.061783
1232.940877,-11251.130318,229.828649,1406.391290
1232.941188,-9770.718434,1532.190996,1332.370696
1232.941500,-7550.100608,2374.896044,1924.535449
1232.941811,-5107.421000,2298.286494,2368.659014
1232.942123,-3775.050304,1149.143247,2294.638420
1232.942434,-3627.009116,229.828649,1258.350101
1232.942746,-6143.709319,0.000000,370.102971
1232.943057,-8660.409521,-153.219100,-370.102971
1232.943369,-11843.295072,-459.657299,-740.205942
1232.943680,-13545.768739,-995.924147,-1110.308913
1232.943991,-13249.686362,-1838.629195,-1184.329507
1232.944303,-12287.418637,-1762.019645,-888.247130
1232.944614,-12065.356855,-766.095498,-814.226536
1232.944926,-10436.903782,1225.752797,222.061783
1232.945237,-9622.677246,1608.800546,888.247130
1232.945549,-7402.059420,1608.800546,2738.761985
1232.945860,-4663.297435,1762.019645,3552.988522
1232.946172,-2886.803174,995.924147,3404.947333
1232.946483,-2812.782580,-153.219100,2516.700203
1232.946795,-4589.276840,-536.266849,1258.350101
1232.947106,-6957.935855,153.219100,-814.226536
1232.947418,-9548.656652,536.266849,-1850.514855
1232.947729,-11399.171507,536.266849,-2442.679609
1232.948040,-11843.295072,-536.266849,-2072.576638
1232.948352,-12139.377449,-1072.533697,-1332.370696
1232.948663,-11769.274478,-842.705048,-370.102971
1232.948975,-11029.068536,306.438199,962.267725
1232.949286,-9844.739029,1225.752797,1776.494261
1232.949598,-8660.409521,2145.067394,1924.535449
1232.949909,-6069.688724,1991.848295,2516.700203
1232.950221,-4219.173869,2987.772442,2590.720797
1232.950532,-3256.906145,995.924147,1850.514855
1232.950844,-4885.359217,-306.438199,1184.329507
1232.951155,-7994.224174,-842.705048,370.102971
1232.951467,-10732.986159,-459.657299,-0.000000
1232.951778,-12361.439231,-995.924147,-518.144159
1232.952089,-13101.645173,-2757.943793,-1184.329507
1232.952401,-12583.501014,-2604.724693,-814.226536
1232.952712,-12065.356855,-1991.848295,-1258.350101
1232.953024,-11251.130318,-1455.581446,-296.082377
1232.953335,-10881.027347,-383.047749,592.164754
1232.953647,-9844.739029,1149.143247,1258.350101
1232.953958,-7846.182985,1838.629195,1850.514855
1232.954270,-5403.503377,1685.410096,2368.659014
1232.954581,-3182.885551,306.438199,2368.659014
1232.954893,-2516.700203,-459.657299,2516.700203
1232.955204,-4663.297435,-1991.848295,148.041188
1232.955515,-8142.265362,-1685.410096,-222.061783
1232.955827,-11029.068536,-1455.581446,-888.247130
1232.956138,-12731.542202,-1149.143247,-1332.370696
1232.956450,-13915.871710,-2145.067394,-1554.432478
1232.956761,-13101.645173,-1762.019645,-814.226536
1232.957073,-12583.501014,-1762.019645,-666.185348
1232.957384,-11769.274478,-689.485948,592.164754
1232.957696,-10214.842000,995.924147,1184.329507
1232.958007,-9030.512492,2221.676944,888.247130
1232.958319,-6365.771101,2681.334243,1776.494261
1232.958630,-3849.070898,2221.676944,2442.679609
1232.958942,-3404.947333,919.314598,1480.411884
1232.959253,-4959.379811,-153.219100,1110.308913
1232.959564,-7698.141797,0.000000,370.102971
1232.959876,-11251.130318,-76.609550,-296.082377
1232.960187,-12953.603985,612.876398,-1258.350101
1232.960499,-13841.851115,-536.266849,-1184.329507
1232.960810,-12287.418637,-766.095498,-1628.453072
1232.961122,-11029.068536,-536.266849,-1406.391290
1232.961433,-10362.883188,459.657299,-814.226536
1232.961745,-9474.636058,1991.848295,-0.000000
1232.962056,-7846.182985,1072.533697,1776.494261
1232.962368,-5699.585753,2528.115143,3256.906145
1232.962679,-4293.194464,919.314598,4071.132681
1232.962990,-3404.947333,0.000000,3701.029710
1232.963302,-4293.194464,-1455.581446,2294.638420
1232.963613,-6661.853478,-1685.410096,370.102971
1232.963925,-9252.574275,-153.219100,-1036.288319
1232.964236,-11399.171507,306.438199,-2146.597232
1232.964548,-12583.501014,0.000000,-2368.659014
1232.964859,-12287.418637,-1378.971896,-1702.473667
1232.965171,-11769.274478,-1302.362347,-592.164754
1232.965482,-11251.130318,0.000000,296.082377
1232.965794,-10288.862594,919.314598,1258.350101
1232.966105,-8882.471304,1991.848295,1850.514855
1232.966417,-7105.977043,2451.505594,2368.659014
1232.966728,-4441.235652,2604.724693,2146.597232
1232.967039,-3849.070898,1915.238745,2220.617826
1232.967351,-4663.297435,76.609550,1554.432478
1232.967662,-7105.977043,-995.924147,962.267725
1232.967974,-10214.842000,-842.705048,148.041188
1232.968285,-12731.542202,-689.485948,222.061783
1232.968597,-13397.727550,-1302.362347,-296.082377
1232.968908,-12657.521608,-2604.724693,-1184.329507
1232.969220,-12139.377449,-2911.162892,-1332.370696
1232.969531,-10955.047942,-1915.238745,-1258.350101
1232.969843,-10362.883188,-153.219100,-148.041188
1232.970154,-10140.821405,536.266849,1110.308913
1232.970465,-9252.574275,1072.533697,1702.473667
1232.970777,-7179.997637,995.924147,2960.823768
1232.971088,-4293.194464,612.876398,3627.009116
1232.971400,-2664.741391,-459.657299,2886.803174
1232.971711,-3923.091493,-1378.971896,1258.350101
1232.972023,-6513.812290,-153.219100,-222.061783
1232.972334,-9178.553681,-306.438199,-1036.288319
1232.972646,-11547.212695,0.000000,-1554.432478
1232.972957,-12731.542202,-536.266849,-1998.556043
1232.973269,-12657.521608,-842.705048,-1554.432478
1232.973580,-11991.336260,-1302.362347,-1110.308913
1232.973892,-11325.150913,-689.485948,-0.000000
1232.974203,-10584.944971,612.876398,1110.308913
1232.974514,-9844.739029,1685.410096,1184.329507
1232.974826,-8068.244768,1608.800546,2664.741391
1232.975137,-5107.421000,1378.971896,3404.947333
1232.975449,-3997.112087,459.657299,2664.741391
1232.975760,-4515.256246,0.000000,1110.308913
1232.976072,-6809.894666,-612.876398,148.041188
1232.976383,-9178.553681,-612.876398,-592.164754
1232.976695,-11473.192101,459.657299,-814.226536
1232.977006,-12805.562797,0.000000,-1036.288319
1232.977318,-12139.377449,-1302.362347,-1184.329507
1232.977629,-11325.150913,-1302.362347,-740.205942
1232.977940,-10066.800811,-229.828649,-518.144159
1232.978252,-9326.594869,1608.800546,-148.041188
1232.978563,-8512.368333,1685.410096,1184.329507
1232.978875,-7476.080014,2298.286494,2442.679609
1232.979186,-5995.668130,1915.238745,2886.803174
1232.979498,-4589.276840,995.924147,3256.906145
1232.979809,-4737.318029,-612.876398,2368.659014
1232.980121,-6217.729913,-1762.019645,666.185348
1232.980432,-8142.265362,-1149.143247,-592.164754
1232.980744,-10066.800811,-536.266849,-1776.494261
1232.981055,-11325.150913,-306.438199,-2220.617826
1232.981367,-11399.171507,-2374.896044,-1480.411884
1232.981678,-11325.150913,-1991.848295,-888.247130
1232.981989,-11251.130318,-1838.629195,-0.000000
1232.982301,-11325.150913,-153.219100,888.247130
1232.982612,-10955.047942,766.095498,1184.329507
1232.982924,-9770.718434,1991.848295,1702.473667
1232.983235,-7031.956449,2221.676944,2738.761985
1232.983547,-4441.235652,1762.019645,2590.720797
1232.983858,-4293.194464,995.924147,1628.453072
1232.984170,-5921.647536,-2068.457845,1332.370696
1232.984481,-8438.347739,-1302.362347,-0.000000
1232.984793,-11177.109724,-919.314598,-518.144159
1232.985104,-12731.542202,-383.047749,-962.267725
1232.985415,-12879.583391,-1762.019645,-1258.350101
1232.985727,-12435.459826,-2451.505594,-1036.288319
1232.986038,-11251.130318,-1838.629195,-444.123565
1232.986350,-10955.047942,-536.266849,-370.102971
1232.986661,-10658.965565,689.485948,518.144159
1232.986973,-9844.739029,1991.848295,1036.288319
1232.987284,-7402.059420,2681.334243,2294.638420
1232.987596,-3552.988522,2068.457845,2886.803174
1232.987908,-1628.453072,536.266849,2886.803174
1232.988219,-2960.823768,-1532.190996,1776.494261
1232.988531,-5921.647536,-1302.362347,444.123565
1232.988842,-8364.327145,-536.266849,-444.123565
1232.989154,-11029.068536,0.000000,-1332.370696
1232.989465,-12657.521608,0.000000,-1924.535449
1232.989777,-13101.645173,-842.705048,-1776.494261
1232.990088,-11843.295072,-1762.019645,-666.185348
1232.990400,-11473.192101,-1149.143247,370.102971
1232.990712,-10881.027347,76.609550,962.267725
1232.991023,-10214.842000,1225.752797,1850.514855
1232.991335,-8512.368333,1532.190996,2664.741391
1232.991646,-5033.400406,1991.848295,3478.967927
1232.991958,-2442.679609,1378.971896,3034.844362
1232.992269,-2960.823768,306.438199,1480.411884
1232.992581,-5181.441594,-153.219100,740.205942
1232.992892,-9030.512492,0.000000,-444.123565
1232.993204,-11843.295072,612.876398,-370.102971
1232.993516,-14211.954086,153.219100,-814.226536
1232.993827,-13767.830521,-842.705048,-296.082377
1232.994139,-12287.418637,-1608.800546,-888.247130
1232.994450,-11177.109724,-1149.143247,-962.267725
1232.994762,-10436.903782,383.047749,-370.102971
1232.995073,-9844.739029,1685.410096,518.144159
1232.995385,-8882.471304,3140.991542,1702.473667
1232.995696,-5847.626942,2221.676944,2960.823768
1232.996008,-2738.761985,1532.190996,3627.009116
1232.996320,-2886.803174,0.000000,2368.659014
1232.996631,-3478.967927,-1685.410096,1850.514855
1232.996943,-6661.853478,-1762.019645,-296.082377
1232.997254,-9696.697840,-536.266849,-1110.308913
1232.997566,-12583.501014,-842.705048,-1628.453072
1232.997877,-13545.768739,-2068.457845,-1702.473667
1232.998189,-12139.377449,-2145.067394,-814.226536
1232.998500,-11473.192101,-2451.505594,-148.041188
1232.998812,-11251.130318,-1608.800546,518.144159
1232.999124,-11325.150913,-459.657299,1036.288319
1232.999435,-10140.821405,1685.410096,1480.411884
1232.999747,-7476.080014,2757.943793,2146.597232
1233.000058,-4515.256246,2834.553343,2220.617826
1233.000370,-3034.844362,919.314598,1554.432478
1233.000681,-3108.864956,0.000000,444.123565
1233.000993,-6587.832884,-689.485948,-592.164754
1233.001304,-9918.759623,-536.266849,-814.226536
1233.001616,-13249.686362,-383.047749,-518.144159
1233.001928,-14211.954086,-1532.190996,-296.082377
1233.002239,-13101.645173,-3217.601092,-592.164754
1233.002551,-11473.192101,-3370.820191,-222.061783
1233.002862,-10510.924376,-1991.848295,-1184.329507
1233.003174,-10658.965565,-459.657299,-1110.308913
1233.003485,-10066.800811,1378.971896,-0.000000
1233.003797,-9252.574275,1915.238745,1406.391290
1233.004108,-6439.791695,2451.505594,2368.659014
1233.004420,-3182.885551,306.438199,3108.864956
1233.004732,-3034.844362,-1378.971896,2516.700203
1233.005043,-4293.194464,-1991.848295,1628.453072
1233.005355,-6957.935855,-1608.800546,-74.020594
1233.005666,-9770.718434,-383.047749,-1184.329507
1233.005978,-12287.418637,-842.705048,-1480.411884
1233.006289,-13027.624579,-766.095498,-1258.350101
1233.006601,-12435.459826,-689.485948,-814.226536
1233.006912,-11695.253884,-766.095498,-222.061783
1233.007224,-11473.192101,76.609550,592.164754
1233.007536,-10584.944971,1685.410096,1184.329507
1233.007847,-8142.265362,2298.286494,1702.473667
1233.008159,-6069.688724,2145.067394,2146.597232
1233.008470,-3997.112087,1608.800546,2220.617826
1233.008782,-3256.906145,1072.533697,1850.514855
1233.009093,-4959.379811,0.000000,592.164754
1233.009405,-8068.244768,-842.705048,666.185348
1233.009717,-11103.089130,-1149.143247,518.144159
1233.010028,-13545.768739,-919.314598,518.144159
1233.010340,-13767.830521,-919.314598,-148.041188
1233.010651,-12065.356855,-1838.629195,-592.164754
1233.010963,-10807.006753,-1762.019645,-740.205942
1233.011274,-9474.636058,-689.485948,-0.000000
1233.011586,-8660.409521,842.705048,592.164754
1233.011897,-8512.368333,1378.971896,1776.494261
1233.012209,-7402.059420,1608.800546,2590.720797
1233.012521,-5403.503377,1455.581446,2886.803174
1233.012832,-4663.297435,919.314598,2442.679609
1233.013144,-3775.050304,612.876398,1702.473667
1233.013455,-5551.544565,-766.095498,592.164754
1233.013767,-8290.306550,-1149.143247,-444.123565
1233.014078,-10436.903782,-459.657299,-1332.370696
1233.014390,-11547.212695,-229.828649,-1480.411884
1233.014701,-11547.212695,-689.485948,-2368.659014
1233.015013,-11325.150913,-1072.533697,-1406.391290
1233.015325,-10807.006753,-1378.971896,-592.164754
1233.015636,-10881.027347,229.828649,444.123565
1233.015948,-10436.903782,689.485948,1554.432478
1233.016259,-9992.780217,1302.362347,2146.597232
1233.016571,-7624.121203,1838.629195,2664.741391
1233.016882,-4811.338623,689.485948,2590.720797
1233.017194,-4293.194464,-689.485948,1702.473667
1233.017505,-5625.565159,-1608.800546,444.123565
1233.017817,-8364.327145,-766.095498,-666.185348
1233.018129,-11547.212695,-536.266849,-1036.288319
1233.018440,-12731.542202,-383.047749,-1258.350101
1233.018752,-12509.480420,-1455.581446,-1258.350101
1233.019063,-10881.027347,-2681.334243,-666.185348
1233.019375,-10658.965565,-3600.648841,-814.226536
1233.019686,-10214.842000,-1991.848295,-296.082377
1233.019998,-10066.800811,995.924147,148.041188
1233.020309,-10140.821405,1991.848295,740.205942
1233.020621,-7772.162391,2451.505594,1998.556043
1233.020933,-5551.544565,919.314598,2368.659014
1233.021244,-3849.070898,-689.485948,2886.803174
1233.021556,-3478.967927,-1302.362347,2146.597232
1233.021867,-5699.585753,-1225.752797,148.041188
1233.022179,-8438.347739,-153.219100,-1036.288319
1233.022490,-10214.842000,-306.438199,-1628.453072
1233.022802,-11251.130318,-536.266849,-2146.597232
1233.023113,-12287.418637,-766.095498,-2294.638420
1233.023425,-12361.439231,-1149.143247,-962.267725
1233.023737,-12287.418637,-995.924147,296.082377
1233.024048,-11991.336260,-536.266849,962.267725
1233.024360,-11029.068536,612.876398,2072.576638
1233.024671,-8882.471304,1455.581446,2516.700203
1233.024983,-6439.791695,2068.457845,3552.988522
1233.025294,-4219.173869,766.095498,2738.761985
1233.025606,-3997.112087,766.095498,1258.350101
1233.025917,-5477.523971,612.876398,444.123565
1233.026229,-8364.327145,689.485948,-592.164754
1233.026541,-10584.944971,689.485948,-666.185348
1233.026852,-12435.459826,76.609550,-888.247130
1233.027164,-11917.315666,-1149.143247,-666.185348
1233.027475,-12361.439231,-1455.581446,-1110.308913
1233.027787,-10955.047942,-1149.143247,370.102971
1233.028098,-10436.903782,153.219100,814.226536
1233.028410,-9400.615463,612.876398,1998.556043
1233.028721,-8068.244768,1762.019645,2516.700203
1233.029033,-6365.771101,2145.067394,2960.823768
1233.029345,-4441.235652,2374.896044,3108.864956
1233.029656,-3034.844362,842.705048,1702.473667
1233.029968,-3552.988522,306.438199,888.247130
1233.030279,-6439.791695,-842.705048,-222.061783
1233.030591,-9104.533087,0.000000,-592.164754
1233.030902,-10807.006753,76.609550,-1406.391290
1233.031214,-11695.253884,-612.876398,-1628.453072
1233.031525,-11473.192101,-1302.362347,-888.247130
1233.031837,-10955.047942,-2068.457845,-222.061783
1233.032149,-10881.027347,-459.657299,666.185348
1233.032460,-11177.109724,153.219100,1110.308913
1233.032772,-9622.677246,1991.848295,1702.473667
1233.033083,-8586.388927,2451.505594,2072.576638
1233.033395,-6143.709319,2374.896044,2368.659014
1233.033706,-4737.318029,1072.533697,1628.453072
1233.034018,-5255.462188,229.828649,666.185348
1233.034329,-7328.038826,-842.705048,-444.123565
1233.034641,-9844.739029,-995.924147,-814.226536
1233.034953,-12287.418637,-1608.800546,-740.205942
1233.035264,-12657.521608,-1838.629195,-814.226536
1233.035576,-12361.439231,-2451.505594,-814.226536
1233.035887,-11843.295072,-3140.991542,-370.102971
1233.036199,-11177.109724,-2451.505594,-0.000000
1233.036510,-10362.883188,-1225.752797,518.144159
1233.036822,-9474.636058,2068.457845,1110.308913
1233.037133,-8512.368333,1762.019645,1776.494261
1233.037445,-6365.771101,1608.800546,2146.597232
1233.037757,-3923.091493,689.485948,2294.638420
1233.038068,-3182.885551,76.609550,1258.350101
1233.038380,-4885.359217,-229.828649,222.061783
1233.038691,-7254.018232,-383.047749,-592.164754
1233.039003,-9622.677246,-459.657299,-740.205942
1233.039314,-11251.130318,-1608.800546,-1110.308913
1233.039626,-11991.336260,-1991.848295,-1110.308913
1233.039938,-12731.542202,-2068.457845,-518.144159
1233.040249,-12287.418637,-1455.581446,-0.000000
1233.040561,-12139.377449,-459.657299,666.185348
1233.040872,-11325.150913,995.924147,1184.329507
1233.041184,-9178.553681,2374.896044,1554.432478
1233.041495,-7105.977043,2987.772442,2368.659014
1233.041807,-4663.297435,1838.629195,2590.720797
1233.042118,-3627.009116,0.000000,1850.514855
1233.042430,-4959.379811,-536.266849,1184.329507
1233.042742,-7031.956449,-459.657299,370.102971
1233.043053,-10066.800811,0.000000,-74.020594
1233.043365,-12213.398043,0.000000,-222.061783
1233.043676,-13471.748144,-383.047749,-962.267725
1233.043988,-12213.398043,-536.266849,-592.164754
1233.044299,-11621.233289,-842.705048,-740.205942
1233.044611,-10362.883188,-383.047749,-74.020594
1233.044922,-9844.739029,689.485948,518.144159
1233.045234,-9104.533087,1225.752797,1702.473667
1233.045546,-7105.977043,1532.190996,2368.659014
1233.045857,-4737.318029,1762.019645,3108.864956
1233.046169,-2738.761985,995.924147,3182.885551
1233.046480,-3552.988522,-766.095498,1998.556043
1233.046792,-5255.462188,-1302.362347,518.144159
1233.047103,-8142.265362,-1072.533697,-74.020594
1233.047415,-10955.047942,306.438199,-1184.329507
1233.047726,-11917.315666,0.000000,-1258.350101
1233.048038,-11843.295072,-842.705048,-1480.411884
1233.048350,-11991.336260,-1455.581446,-1036.288319
1233.048661,-11251.130318,-536.266849,-222.061783
1233.048973,-11325.150913,995.924147,148.041188
1233.049284,-10288.862594,1685.410096,1332.370696
1233.049596,-9326.594869,1991.848295,1850.514855
1233.049907,-7031.956449,2451.505594,2368.659014
1233.050219,-4367.215058,1838.629195,2442.679609
1233.050530,-3552.988522,383.047749,1406.391290
1233.050842,-5181.441594,-536.266849,814.226536
1233.051154,-8216.285956,-1072.533697,-0.000000
1233.051465,-10955.047942,-766.095498,-592.164754
1233.051777,-12583.501014,-766.095498,-666.185348
1233.052088,-12509.480420,-1991.848295,-740.205942
1233.052400,-12139.377449,-2834.553343,-592.164754
1233.052711,-11399.171507,-3447.429741,-444.123565
1233.053023,-10881.027347,-1838.629195,-0.000000
1233.053334,-10140.821405,0.000000,888.247130
1233.053646,-9696.697840,1149.143247,1776.494261
1233.053958,-8068.244768,1991.848295,2146.597232
1233.054269,-5477.523971,1378.971896,3404.947333
1233.054581,-4071.132681,306.438199,2442.679609
1233.054892,-4145.153275,-459.657299,1554.432478
1233.055204,-5625.565159,76.609550,-296.082377
1233.055515,-7698.141797,306.438199,-1332.370696
1233.055827,-9474.636058,0.000000,-1702.473667
1233.056138,-11177.109724,-459.657299,-1628.453072
1233.056450,-11917.315666,-1225.752797,-1332.370696
1233.056762,-12065.356855,-1532.190996,-814.226536
1233.057073,-12139.377449,-1302.362347,296.082377
1233.057385,-11547.212695,-766.095498,1258.350101
1233.057696,-10436.903782,459.657299,1258.350101
1233.058008,-9030.512492,1302.362347,1554.432478
1233.058319,-6587.832884,1608.800546,1998.556043
1233.058631,-5033.400406,612.876398,1850.514855
1233.058942,-4293.194464,0.000000,1480.411884
1233.059254,-5551.544565,-459.657299,888.247130
1233.059566,-8142.265362,-1225.752797,518.144159
1233.059877,-10807.006753,-995.924147,-0.000000
1233.060189,-12509.480420,-612.876398,-888.247130
1233.060500,-12805.562797,-1072.533697,-962.267725
1233.060812,-12509.480420,-766.095498,-1036.288319
1233.061123,-11251.130318,-1455.581446,-518.144159
1233.061435,-9992.780217,-459.657299,222.061783
1233.061746,-9178.553681,-153.219100,1036.288319
1233.062058,-8068.244768,459.657299,1850.514855
1233.062370,-6439.791695,1072.533697,2368.659014
1233.062681,-4811.338623,1225.752797,2294.638420
1233.062993,-4071.132681,383.047749,2072.576638
1233.063304,-4737.318029,-612.876398,1110.308913
1233.063616,-6809.894666,-306.438199,-0.000000
1233.063927,-8882.471304,0.000000,-888.247130
1233.064239,-11029.068536,-153.219100,-1406.391290
1233.064550,-11621.233289,-306.438199,-1480.411884
1233.064862,-11547.212695,-919.314598,-1332.370696
1233.065174,-11473.192101,-842.705048,-444.123565
1233.065485,-11621.233289,-612.876398,-0.000000
1233.065797,-11251.130318,1072.533697,1036.288319
1233.066108,-10140.821405,1608.800546,1850.514855
1233.066420,-8660.409521,2221.676944,2146.597232
1233.066731,-5699.585753,1838.629195,2368.659014
1233.067043,-4293.194464,1149.143247,2146.597232
1233.067355,-4959.379811,383.047749,1332.370696
1233.067666,-7105.977043,-306.438199,740.205942
1233.067978,-9326.594869,-229.828649,-444.123565
1233.068289,-11251.130318,-153.219100,-740.205942
1233.068601,-11843.295072,-383.047749,-1110.308913
1233.068912,-11473.192101,-1455.581446,-1110.308913
1233.069224,-10881.027347,-2298.286494,-814.226536
1233.069535,-10732.986159,-2221.676944,-0.000000
1233.069847,-10362.883188,-1072.533697,888.247130
1233.070159,-10288.862594,306.438199,1480.411884
1233.070470,-9104.533087,1302.362347,1998.556043
1233.070782,-6513.812290,1225.752797,2812.782580
1233.071093,-4219.173869,766.095498,2664.741391
1233.071405,-3256.906145,153.219100,1184.329507
1233.071716,-4663.297435,-612.876398,296.082377
1233.072028,-6809.894666,-229.828649,-962.267725
1233.072339,-9326.594869,-153.219100,-1110.308913
1233.072651,-10584.944971,-459.657299,-1110.308913
1233.072963,-11769.274478,-1608.800546,-962.267725
1233.073274,-12065.356855,-2145.067394,-370.102971
1233.073586,-11769.274478,-1991.848295,148.041188
1233.073897,-11769.274478,-459.657299,592.164754
1233.074209,-11399.171507,536.266849,740.205942
1233.074520,-10436.903782,1685.410096,1110.308913
1233.074832,-8438.347739,2221.676944,1702.473667
1233.075143,-5773.606348,2145.067394,2368.659014
1233.075455,-4071.132681,995.924147,1998.556043
1233.075767,-5033.400406,0.000000,1332.370696
1233.076078,-7031.956449,-1072.533697,518.144159
1233.076390,-9696.697840,-766.095498,-0.000000
1233.076701,-12065.356855,-306.438199,-444.123565
1233.077013,-13175.665768,-153.219100,-1036.288319
1233.077324,-12731.542202,-1302.362347,-1110.308913
1233.077636,-11695.253884,-1455.581446,-740.205942
1233.077947,-10658.965565,-1072.533697,-370.102971
1233.078259,-10066.800811,612.876398,-0.000000
1233.078571,-9326.594869,1072.533697,962.267725
1233.078882,-7920.203579,1149.143247,2368.659014
1233.079194,-5477.523971,1532.190996,2590.720797
1233.079505,-3701.029710,689.485948,2368.659014
1233.079817,-3404.947333,-383.047749,1776.494261
1233.080128,-5255.462188,-1455.581446,296.082377
1233.080440,-7179.997637,-383.047749,-296.082377
1233.080751,-9474.636058,306.438199,-1110.308913
1233.081063,-11843.295072,-995.924147,-740.205942
1233.081375,-12139.377449,-1149.143247,-962.267725
1233.081686,-11917.315666,-1608.800546,-666.185348
1233.081998,-11399.171507,-1072.533697,-148.041188
1233.082309,-11251.130318,153.219100,222.061783
1233.082621,-10807.006753,1608.800546,814.226536
1233.082932,-9252.574275,2834.553343,1332.370696
1233.083244,-7179.997637,1915.238745,1776.494261
1233.083555,-4367.215058,1762.019645,2886.803174
1233.083867,-3627.009116,229.828649,1924.535449
1233.084179,-5033.400406,-766.095498,1406.391290
1233.084490,-8142.265362,-1378.971896,370.102971
1233.084802,-11103.089130,-689.485948,-444.123565
1233.085113,-12509.480420,-153.219100,-1036.288319
1233.085425,-12731.542202,-1762.019645,-814.226536
1233.085736,-11695.253884,-2221.676944,-222.061783
1233.086048,-10955.047942,-2451.505594,-74.020594
1233.086359,-10436.903782,-1608.800546,148.041188
1233.086671,-10214.842000,-229.828649,740.205942
1233.086983,-9696.697840,1302.362347,1776.494261
1233.087294,-7846.182985,1762.019645,2812.782580
1233.087606,-4737.318029,1302.362347,3108.864956
1233.087917,-3108.864956,-153.219100,2516.700203
1233.088229,-3182.885551,-306.438199,1406.391290
1233.088540,-5403.503377,-612.876398,-444.123565
1233.088852,-7920.203579,153.219100,-1554.432478
1233.089163,-10362.883188,76.609550,-1184.329507
1233.089475,-12139.377449,0.000000,-1258.350101
1233.089786,-12805.562797,-1532.190996,-666.185348
1233.090098,-12287.418637,-2145.067394,-0.000000
1233.090410,-11695.253884,-995.924147,370.102971
1233.090721,-11029.068536,612.876398,666.185348
1233.091033,-10140.821405,1302.362347,1184.329507
1233.091344,-8808.450710,1762.019645,1480.411884
1233.091656,-6217.729913,1532.190996,1776.494261
1233.091967,-4441.235652,995.924147,2072.576638
1233.092279,-4737.318029,306.438199,1110.308913
1233.092590,-6365.771101,-459.657299,962.267725
1233.092902,-9474.636058,-766.095498,296.082377
1233.093213,-11843.295072,-842.705048,-0.000000
1233.093525,-13027.624579,-229.828649,-370.102971
1233.093836,-12657.521608,-383.047749,-962.267725
1233.094148,-10881.027347,-842.705048,-814.226536
1233.094460,-10140.821405,-919.314598,-518.144159
1233.094771,-9400.615463,-459.657299,296.082377
1233.095083,-8216.285956,229.828649,962.267725
1233.095394,-7550.100608,1915.238745,2072.576638
1233.095706,-6069.688724,1685.410096,3034.844362
1233.096017,-4885.359217,1149.143247,2590.720797
1233.096329,-4515.256246,0.000000,2220.617826
1233.096640,-5255.462188,-842.705048,666.185348
1233.096952,-7254.018232,-306.438199,-296.082377
1233.097263,-9326.594869,0.000000,-592.164754
1233.097575,-10436.903782,-536.266849,-1110.308913
1233.097887,-11251.130318,-1915.238745,-666.185348
1233.098198,-10732.986159,-1685.410096,-518.144159
1233.098510,-10584.944971,-1302.362347,-148.041188
1233.098821,-10436.903782,0.000000,296.082377
1233.099133,-10658.965565,995.924147,1036.288319
1233.099444,-9770.718434,2374.896044,1184.329507
1233.099756,-8660.409521,1915.238745,1332.370696
1233.100067,-6217.729913,2221.676944,2294.638420
1233.100379,-4441.235652,689.485948,1702.473667
1233.100690,-5329.482782,-766.095498,1036.288319
1233.101002,-7550.100608,-2068.457845,518.144159
1233.101313,-10066.800811,-1608.800546,-0.000000
1233.101625,-11843.295072,-1302.362347,-0.000000
1233.101937,-12287.418637,-1532.190996,-740.205942
1233.102248,-11769.274478,-2451.505594,-1110.308913
1233.102560,-10807.006753,-2911.162892,-962.267725
1233.102871,-9992.780217,-2298.286494,-518.144159
1233.103183,-9992.780217,-919.314598,296.082377
1233.103494,-9992.780217,459.657299,1036.288319
1233.103806,-9696.697840,1072.533697,1850.514855
1233.104117,-7328.038826,1149.143247,2368.659014
1233.104429,-5181.441594,306.438199,2664.741391
1233.104740,-4219.173869,-153.219100,1702.473667
1233.105052,-5255.462188,-919.314598,-0.000000
1233.105364,-6661.853478,-766.095498,-518.144159
1233.105675,-8808.450710,0.000000,-1258.350101
1233.105987,-10584.944971,-459.657299,-1184.329507
1233.106298,-11991.336260,-1378.971896,-1480.411884
1233.106610,-12287.418637,-1915.238745,-666.185348
1233.106921,-12213.398043,-306.438199,-148.041188
1233.107233,-12065.356855,612.876398,370.102971
1233.107544,-11621.233289,1762.019645,-0.000000
1233.107856,-9474.636058,2604.724693,962.267725
1233.108167,-6883.915261,2451.505594,1702.473667
1233.108479,-5107.421000,1685.410096,2220.617826
1233.108790,-4293.194464,842.705048,1776.494261
1233.109102,-5551.544565,689.485948,1110.308913
1233.109414,-7846.182985,0.000000,740.205942
1233.109725,-9696.697840,76.609550,592.164754
1233.110037,-11029.068536,-306.438199,-444.123565
1233.110348,-12435.459826,0.000000,-962.267725
1233.110660,-11917.315666,-766.095498,-962.267725
1233.110971,-10658.965565,-995.924147,-222.061783
1233.111283,-9918.759623,-766.095498,592.164754
1233.111594,-9696.697840,229.828649,1554.432478
1233.111906,-8882.471304,0.000000,2590.720797
1233.112217,-6661.853478,1072.533697,3256.906145
1233.112529,-5329.482782,2068.457845,2960.823768
1233.112841,-4293.194464,1762.019645,2442.679609
1233.113152,-4515.256246,766.095498,1184.329507
1233.113464,-5477.523971,459.657299,-148.041188
1233.113775,-6735.874072,995.924147,-370.102971
1233.114087,-8364.327145,689.485948,-1332.370696
1233.114398,-10881.027347,-536.266849,-1332.370696
1233.114710,-11177.109724,-1302.362347,-444.123565
1233.115021,-11769.274478,-1225.752797,-370.102971
1233.115333,-11917.315666,-766.095498,888.247130
1233.115644,-11547.212695,306.438199,1554.432478
1233.115956,-10955.047942,76.609550,1702.473667
1233.116267,-9474.636058,1072.533697,2294.638420
1233.116579,-5995.668130,2374.896044,1850.514855
1233.116891,-4737.318029,1915.238745,1702.473667
1233.117202,-3849.070898,612.876398,1480.411884
1233.117514,-5403.503377,-383.047749,1480.411884
1233.117825,-8216.285956,-995.924147,222.061783
1233.118137,-10955.047942,-842.705048,-74.020594
1233.118448,-12287.418637,-689.485948,-740.205942
1233.118760,-12213.398043,-1685.410096,-1184.329507
1233.119071,-11991.336260,-3064.381992,-1184.329507
1233.119383,-11325.150913,-3217.601092,-0.000000
1233.119694,-11103.089130,-1608.800546,370.102971
1233.120006,-11325.150913,-919.314598,888.247130
1233.120318,-10214.842000,536.266849,1628.453072
1233.120629,-7994.224174,1838.629195,1850.514855
1233.120941,-5403.503377,1608.800546,1924.535449
1233.121252,-3256.906145,153.219100,1332.370696
1233.121564,-3256.906145,0.000000,74.020594
1233.121875,-4367.215058,0.000000,-888.247130
1233.122187,-7105.977043,-229.828649,-1702.473667
1233.122498,-10140.821405,-612.876398,-1776.494261
1233.122810,-12139.377449,-1225.752797,-1184.329507
1233.123121,-13989.892304,-1915.238745,-814.226536
1233.123433,-14211.954086,-1915.238745,-0.000000
1233.123744,-13397.727550,-1455.581446,222.061783
1233.124056,-12435.459826,-229.828649,518.144159
1233.124368,-10881.027347,536.266849,814.226536
1233.124679,-8364.327145,2145.067394,740.205942
1233.124991,-5995.668130,1991.848295,888.247130
1233.125302,-4219.173869,1915.238745,1480.411884
1233.125614,-3849.070898,995.924147,1184.329507
1233.125925,-4959.379811,383.047749,1258.350101
1233.126237,-7105.977043,-306.438199,666.185348
1233.126548,-9696.697840,0.000000,-0.000000
1233.126860,-11843.295072,0.000000,-0.000000
1233.127171,-12657.521608,0.000000,-666.185348
1233.127483,-12287.418637,-459.657299,-1036.288319
1233.127795,-11843.295072,-689.485948,-296.082377
1233.128106,-10807.006753,306.438199,296.082377
1233.128418,-9474.636058,383.047749,888.247130
1233.128729,-8216.285956,1532.190996,1776.494261
1233.129041,-6661.853478,1378.971896,2590.720797
1233.129352,-4219.173869,766.095498,3404.947333
1233.129664,-3404.947333,229.828649,2738.761985
1233.129975,-3775.050304,-612.876398,1998.556043
1233.130287,-5699.585753,-995.924147,518.144159
1233.130598,-7624.121203,-383.047749,-0.000000
1233.130910,-10066.800811,-306.438199,-666.185348
1233.131221,-11473.192101,-459.657299,-666.185348
1233.131533,-12435.459826,-689.485948,-444.123565
1233.131845,-11991.336260,-842.705048,740.205942
1233.132156,-11695.253884,-842.705048,1036.288319
1233.132468,-11029.068536,229.828649,1258.350101
1233.132779,-9400.615463,1378.971896,1628.453072
1233.133091,-7772.162391,1762.019645,1406.391290
1233.133402,-6069.688724,2068.457845,1184.329507
1233.133714,-4663.297435,1532.190996,1702.473667
1233.134025,-4885.359217,229.828649,1332.370696
1233.134337,-6587.832884,-612.876398,1480.411884
1233.134648,-9030.512492,-1149.143247,740.205942
1233.134960,-11547.212695,-1225.752797,296.082377
1233.135272,-12287.418637,-995.924147,-296.082377
1233.135583,-12065.356855,-1762.019645,-888.247130
1233.135895,-11769.274478,-1991.848295,-1110.308913
1233.136206,-11473.192101,-2145.067394,-1110.308913
1233.136518,-11103.089130,-766.095498,-0.000000
1233.136829,-10510.924376,0.000000,666.185348
1233.137141,-8882.471304,766.095498,1332.370696
1233.137452,-7105.977043,1302.362347,2146.597232
1233.137764,-5107.421000,383.047749,2368.659014
1233.138075,-4145.153275,-383.047749,1628.453072
1233.138387,-4441.235652,-306.438199,296.082377
1233.138698,-5699.585753,76.609550,-888.247130
1233.139010,-8142.265362,-842.705048,-1332.370696
1233.139322,-9992.780217,-689.485948,-1480.411884
1233.139633,-12139.377449,-919.314598,-1776.494261
1233.139945,-12805.562797,-1378.971896,-1184.329507
1233.140256,-12731.542202,-1608.800546,-296.082377
1233.140568,-12213.398043,-842.705048,148.041188
1233.140879,-11325.150913,0.000000,296.082377
1233.141191,-9326.594869,1455.581446,370.102971
1233.141502,-8068.244768,1608.800546,1184.329507
1233.141814,-5921.647536,1838.629195,1554.432478
1233.142125,-4663.297435,1225.752797,1628.453072
1233.142437,-4589.276840,153.219100,1258.350101
1233.142749,-6291.750507,-383.047749,666.185348
1233.143060,-8882.471304,-306.438199,-0.000000
1233.143372,-11029.068536,-306.438199,-592.164754
1233.143683,-12657.521608,-306.438199,-962.267725
1233.143995,-13249.686362,-536.266849,-740.205942
1233.144306,-12435.459826,-1455.581446,-518.144159
1233.144618,-11547.212695,-1302.362347,-444.123565
1233.144929,-10732.986159,-459.657299,-0.000000
1233.145241,-9178.553681,383.047749,740.205942
1233.145552,-7550.100608,1455.581446,1184.329507
1233.145864,-6069.688724,229.828649,2590.720797
1233.146175,-4219.173869,919.314598,2886.803174
1233.146487,-4219.173869,-153.219100,2442.679609
1233.146799,-5403.503377,-842.705048,1702.473667
1233.147110,-7105.977043,-612.876398,222.061783
1233.147422,-9104.533087,0.000000,-888.247130
1233.147733,-10584.944971,0.000000,-1184.329507
1233.148045,-10584.944971,-459.657299,-1184.329507
1233.148356,-10955.047942,-1608.800546,-1110.308913
1233.148668,-11251.130318,-1149.143247,-74.020594
1233.148979,-11177.109724,-229.828649,888.247130
1233.149291,-10881.027347,689.485948,1924.535449
1233.149602,-9844.739029,1149.143247,2368.659014
1233.149914,-7476.080014,1225.752797,2368.659014
1233.150226,-5773.606348,1762.019645,1998.556043
1233.150537,-4219.173869,1225.752797,2072.576638
1233.150849,-5181.441594,689.485948,1110.308913
1233.151160,-7476.080014,-766.095498,666.185348
1233.151472,-9474.636058,-1225.752797,740.205942
1233.151783,-11103.089130,-1149.143247,-0.000000
1233.152095,-11991.336260,-1072.533697,-592.164754
1233.152406,-12139.377449,-1532.190996,-888.247130
1233.152718,-11621.233289,-1455.581446,-592.164754
1233.153029,-10955.047942,-689.485948,-370.102971
1233.153341,-10436.903782,766.095498,444.123565
1233.153652,-9400.615463,2145.067394,1480.411884
1233.153964,-8438.347739,1838.629195,1850.514855
1233.154276,-6365.771101,1838.629195,2738.761985
1233.154587,-4219.173869,766.095498,2220.617826
1233.154899,-3552.988522,383.047749,1258.350101
1233.155210,-5033.400406,153.219100,-814.226536
1233.155522,-6809.894666,76.609550,-1184.329507
1233.155833,-9400.615463,-842.705048,-1628.453072
1233.156145,-11399.171507,-459.657299,-1554.432478
1233.156456,-13101.645173,-1378.971896,-1258.350101
1233.156768,-13249.686362,-1838.629195,-74.020594
1233.157079,-12731.542202,-1762.019645,740.205942
1233.157391,-12287.418637,-536.266849,1110.308913
1233.157703,-10436.903782,459.657299,1480.411884
1233.158014,-8956.491898,1991.848295,1110.308913
1233.158326,-6217.729913,2757.943793,1406.391290
1233.158637,-4515.256246,1991.848295,1332.370696
1233.158949,-4367.215058,1149.143247,666.185348
1233.159260,-5551.544565,383.047749,296.082377
1233.159572,-7846.182985,76.609550,-0.000000
1233.159883,-10140.821405,76.609550,-222.061783
1233.160195,-12065.356855,76.609550,-296.082377
1233.160506,-12509.480420,-306.438199,-814.226536
1233.160818,-12213.398043,-1991.848295,-666.185348
1233.161129,-11177.109724,-1378.971896,-148.041188
1233.161441,-10436.903782,-306.438199,-370.102971
1233.161753,-9918.759623,459.657299,296.082377
1233.162064,-9252.574275,689.485948,740.205942
1233.162376,-7254.018232,612.876398,2368.659014
1233.162687,-5477.523971,612.876398,2072.576638
1233.162999,-4145.153275,229.828649,2664.741391
1233.163310,-4441.235652,-1225.752797,2146.597232
1233.163622,-5551.544565,-1685.410096,1110.308913
1233.163933,-7624.121203,-1149.143247,-0.000000
1233.164245,-10288.862594,-766.095498,-962.267725
1233.164556,-11547.212695,-383.047749,-1036.288319
1233.164868,-12287.418637,-612.876398,-1184.329507
1233.165180,-12361.439231,-1302.362347,-0.000000
1233.165491,-11769.274478,-995.924147,518.144159
1233.165803,-10584.944971,-229.828649,1480.411884
1233.166114,-9770.718434,383.047749,1850.514855
1233.166426,-7846.182985,995.924147,1776.494261
1233.166737,-5477.523971,1915.238745,1850.514855
1233.167049,-4219.173869,1838.629195,1332.370696
1233.167360,-4071.132681,689.485948,1184.329507
1233.167672,-6291.750507,0.000000,592.164754
1233.167983,-8808.450710,-153.219100,666.185348
1233.168295,-11325.150913,-459.657299,148.041188
1233.168606,-12583.501014,-536.266849,222.061783
1233.168918,-12287.418637,-1378.971896,-370.102971
1233.169230,-11843.295072,-2298.286494,-814.226536
1233.169541,-10955.047942,-1915.238745,-592.164754
1233.169853,-10955.047942,-306.438199,-74.020594
1233.170164,-10362.883188,842.705048,1036.288319
1233.170476,-9622.677246,1608.800546,1480.411884
1233.170787,-7402.059420,1302.362347,2738.761985
1233.171099,-5033.400406,306.438199,3404.947333
1233.171410,-3923.091493,0.000000,2590.720797
1233.171722,-4145.153275,-536.266849,1406.391290
1233.172033,-5403.503377,-229.828649,-518.144159
1233.172345,-7179.997637,0.000000,-1628.453072
1233.172657,-9696.697840,153.219100,-1924.535449
1233.172968,-11547.212695,-229.828649,-1628.453072
1233.173280,-12805.562797,-1225.752797,-814.226536
1233.173591,-12583.501014,-1378.971896,-0.000000
1233.173903,-12139.377449,-766.095498,888.247130
1233.174214,-11621.233289,76.609550,1184.329507
1233.174526,-10066.800811,919.314598,1480.411884
1233.174837,-7920.203579,1762.019645,1258.350101
1233.175149,-5477.523971,2145.067394,1628.453072
1233.175460,-4367.215058,1225.752797,1184.329507
1233.175772,-5403.503377,766.095498,962.267725
1233.176083,-6661.853478,-76.609550,888.247130
1233.176395,-9104.533087,-766.095498,444.123565
1233.176707,-11399.171507,-1225.752797,296.082377
1233.177018,-12731.542202,-689.485948,-296.082377
1233.177330,-12509.480420,-1225.752797,-444.123565
1233.177641,-11843.295072,-1532.190996,-444.123565
1233.177953,-10510.924376,-919.314598,-0.000000
1233.178264,-10436.903782,-306.438199,-0.000000
1233.178576,-9326.594869,383.047749,592.164754
1233.178887,-7846.182985,1532.190996,1258.350101
1233.179199,-6291.750507,2068.457845,1924.535449
1233.179510,-5255.462188,1225.752797,2368.659014
1233.179822,-4071.132681,0.000000,3256.906145
1233.180134,-4663.297435,-459.657299,1258.350101
1233.180445,-6291.750507,-842.705048,222.061783
1233.180757,-9030.512492,-536.266849,-740.205942
1233.181068,-11029.068536,-306.438199,-1332.370696
1233.181380,-11917.315666,-842.705048,-1258.350101
1233.181691,-11769.274478,-1072.533697,-666.185348
1233.182003,-11621.233289,-919.314598,-518.144159
1233.182314,-10955.047942,-459.657299,592.164754
1233.182626,-11103.089130,-459.657299,814.226536
1233.182937,-9844.739029,306.438199,1850.514855
1233.183249,-7550.100608,1532.190996,2368.659014
1233.183560,-5699.585753,1762.019645,2072.576638
1233.183872,-4737.318029,536.266849,1850.514855
1233.184184,-5255.462188,-612.876398,888.247130
1233.184495,-7105.977043,-1149.143247,222.061783
1233.184807,-9474.636058,-689.485948,-296.082377
1233.185118,-11695.253884,-766.095498,-666.185348
1233.185430,-12139.377449,-689.485948,-666.185348
1233.185741,-11843.295072,-2068.457845,-222.061783
1233.186053,-10955.047942,-2681.334243,-74.020594
1233.186364,-10658.965565,-1838.629195,-148.041188
1233.186676,-10066.800811,612.876398,148.041188
1233.186987,-9474.636058,2068.457845,370.102971
1233.187298,-8364.327145,2528.115143,1110.308913
1233.187610,-5995.668130,689.485948,1924.535449
1233.187921,-4293.194464,-229.828649,2368.659014
1233.188232,-4441.235652,-766.095498,1850.514855
1233.188544,-5625.565159,-995.924147,814.226536
1233.188855,-7550.100608,-689.485948,-888.247130
1233.189167,-10066.800811,-919.314598,-1258.350101
1233.189478,-11843.295072,-1378.971896,-1554.432478
1233.189789,-11621.233289,-1685.410096,-1036.288319
1233.190101,-12213.398043,-1915.238745,-592.164754
1233.190412,-12361.439231,-1608.800546,296.082377
1233.190723,-12287.418637,-459.657299,814.226536
1233.191035,-10807.006753,766.095498,1406.391290
1233.191346,-8956.491898,1838.629195,1258.350101
1233.191658,-6809.894666,2451.505594,1110.308913
1233.191969,-4589.276840,1455.581446,1924.535449
1233.192280,-3997.112087,1149.143247,740.205942
1233.192592,-5847.626942,459.657299,666.185348
1233.192903,-8142.265362,306.438199,148.041188
1233.193214,-10807.006753,76.609550,-74.020594
1233.193526,-12361.439231,153.219100,-296.082377
1233.193837,-12583.501014,-766.095498,-518.144159
1233.194149,-11621.233289,-1455.581446,-740.205942
1233.194460,-10584.944971,-842.705048,-0.000000
1233.194771,-10066.800811,-459.657299,222.061783
1233.195083,-9622.677246,459.657299,518.144159
1233.195394,-8808.450710,1072.533697,1480.411884
1233.195706,-7402.059420,1991.848295,2368.659014
1233.196017,-5699.585753,1991.848295,2590.720797
1233.196328,-4145.153275,1302.362347,2368.659014
1233.196640,-4589.276840,-76.609550,1480.411884
1233.196951,-6069.688724,-612.876398,592.164754
1233.197262,-8216.285956,-229.828649,-0.000000
1233.197574,-10140.821405,0.000000,-962.267725
1233.197885,-11325.150913,0.000000,-1110.308913
1233.198197,-11325.150913,-1302.362347,-740.205942
1233.198508,-10955.047942,-1302.362347,-518.144159
1233.198819,-10436.903782,-612.876398,148.041188
1233.199131,-10584.944971,612.876398,444.123565
1233.199442,-10214.842000,1685.410096,1184.329507
1233.199753,-8882.471304,1455.581446,2072.576638
1233.200065,-6513.812290,1762.019645,2146.597232
1233.200376,-4811.338623,995.924147,2220.617826
1233.200688,-4737.318029,0.000000,1480.411884
1233.200999,-6439.791695,-689.485948,962.267725
1233.201310,-8882.471304,-842.705048,-0.000000
1233.201622,-11325.150913,-995.924147,-74.020594
1233.201933,-12509.480420,-536.266849,-444.123565
1233.202244,-12435.459826,-536.266849,-592.164754
1233.202556,-11251.130318,-1302.362347,-814.226536
1233.202867,-10214.842000,-1685.410096,-888.247130
1233.203179,-9696.697840,-383.047749,-518.144159
1233.203490,-9474.636058,766.095498,-148.041188
1233.203801,-9770.718434,995.924147,370.102971
1233.204113,-8068.244768,842.705048,1554.432478
1233.204424,-5699.585753,919.314598,2590.720797
1233.204735,-3997.112087,-1532.190996,2812.782580
1233.205047,-4589.276840,-2068.457845,1480.411884
1233.205358,-6217.729913,-2374.896044,148.041188
1233.205670,-7920.203579,-1302.362347,-666.185348
1233.205981,-10140.821405,-1149.143247,-1332.370696
1233.206292,-11325.150913,-612.876398,-1480.411884
1233.206604,-12213.398043,-1762.019645,-1036.288319
1233.206915,-12361.439231,-1455.581446,-296.082377
1233.207226,-12213.398043,-1225.752797,370.102971
1233.207538,-12065.356855,153.219100,814.226536
1233.207849,-10510.924376,1455.581446,592.164754
1233.208161,-8956.491898,1838.629195,962.267725
1233.208472,-6735.874072,2145.067394,1480.411884
1233.208783,-4219.173869,995.924147,2146.597232
1233.209095,-4367.215058,0.000000,1332.370696
1233.209406,-6291.750507,-383.047749,1184.329507
1233.209717,-8734.430116,-383.047749,592.164754
1233.210029,-10807.006753,229.828649,74.020594
1233.210340,-12509.480420,76.609550,-444.123565
1233.210652,-11917.315666,-842.705048,-814.226536
1233.210963,-11177.109724,-612.876398,-814.226536
1233.211274,-9918.759623,-229.828649,-518.144159
1233.211586,-10066.800811,-306.438199,148.041188
1233.211897,-9844.739029,383.047749,1110.308913
1233.212208,-9104.533087,1072.533697,2072.576638
1233.212520,-6883.915261,1915.238745,3034.844362
1233.212831,-4663.297435,1378.971896,3182.885551
1233.213143,-3997.112087,0.000000,2516.700203
1233.213454,-4145.153275,-383.047749,1036.288319
1233.213765,-6513.812290,229.828649,-296.082377
1233.214077,-8586.388927,1455.581446,-888.247130
1233.214388,-10881.027347,536.266849,-1480.411884
1233.214699,-11473.192101,76.609550,-1480.411884
1233.215011,-11399.171507,-612.876398,-1036.288319
1233.215322,-10807.006753,-919.314598,-148.041188
1233.215634,-10881.027347,-383.047749,592.164754
1233.215945,-10658.965565,689.485948,1554.432478
1233.216256,-9400.615463,1072.533697,1850.514855
1233.216568,-7698.141797,689.485948,2146.597232
1233.216879,-4959.379811,1302.362347,1998.556043
1233.217191,-4145.153275,536.266849,1850.514855
1233.217502,-5033.400406,-766.095498,888.247130
1233.217813,-7550.100608,-1685.410096,296.082377
1233.218125,-10436.903782,-1302.362347,-0.000000
1233.218436,-12139.377449,-919.314598,-0.000000
1233.218747,-12583.501014,-919.314598,-0.000000
1233.219059,-12213.398043,-2451.505594,-148.041188
1233.219370,-11399.171507,-3217.601092,-74.020594
1233.219682,-10510.924376,-1915.238745,-148.041188
1233.219993,-9844.739029,153.219100,-0.000000
1233.220304,-9400.615463,1149.143247,740.205942
1233.220616,-8216.285956,1378.971896,740.205942
1233.220927,-6439.791695,1532.190996,1628.453072
1233.221238,-4071.132681,76.609550,1998.556043
1233.221550,-3404.947333,-536.266849,1850.514855
1233.221861,-4589.276840,-1762.019645,1110.308913
1233.222173,-7179.997637,-1532.190996,-518.144159
1233.222484,-9622.677246,-1378.971896,-1258.350101
1233.222795,-11547.212695,-689.485948,-1036.288319
1233.223107,-12731.542202,-1225.752797,-1036.288319
1233.223418,-12953.603985,-2374.896044,-962.267725
1233.223729,-13027.624579,-1991.848295,-0.000000
1233.224041,-12805.562797,-1378.971896,222.061783
1233.224352,-11399.171507,76.609550,1184.329507
1233.224664,-9992.780217,1455.581446,592.164754
1233.224975,-7994.224174,2068.457845,1036.288319
1233.225286,-5403.503377,1991.848295,1110.308913
1233.225598,-3330.926739,919.314598,888.247130
1233.225909,-4663.297435,229.828649,1184.329507
1233.226220,-7476.080014,-229.828649,370.102971
1233.226532,-10066.800811,0.000000,148.041188
1233.226843,-12065.356855,383.047749,-0.000000
1233.227155,-12731.542202,306.438199,-518.144159
1233.227466,-12435.459826,-459.657299,-1110.308913
1233.227777,-11103.089130,-612.876398,-592.164754
1233.228089,-9918.759623,-383.047749,-0.000000
1233.228400,-9400.615463,766.095498,148.041188
1233.228711,-8660.409521,1225.752797,666.185348
1233.229023,-7105.977043,1838.629195,1554.432478
1233.229334,-5329.482782,1608.800546,2590.720797
1233.229646,-3775.050304,612.876398,2664.741391
1233.229957,-4219.173869,-612.876398,2146.597232
1233.230268,-6217.729913,-1378.971896,962.267725
1233.230580,-8438.347739,-459.657299,296.082377
1233.230891,-10214.842000,-229.828649,-1184.329507
1233.231202,-10881.027347,-153.219100,-666.185348
1233.231514,-11251.130318,-995.924147,-888.247130
1233.231825,-10584.944971,-1302.362347,-666.185348
1233.232137,-10140.821405,-766.095498,-0.000000
1233.232448,-10140.821405,229.828649,888.247130
1233.232759,-10214.842000,919.314598,1480.411884
1233.233071,-9326.594869,1455.581446,1480.411884
1233.233382,-7254.018232,1762.019645,2146.597232
1233.233693,-5329.482782,1378.971896,1924.535449
1233.234005,-5033.400406,689.485948,1332.370696
1233.234316,-6587.832884,-153.219100,740.205942
1233.234628,-8660.409521,-612.876398,518.144159
1233.234939,-11103.089130,-459.657299,444.123565
1233.235250,-11695.253884,-766.095498,-0.000000
1233.235562,-11843.295072,-1225.752797,-0.000000
1233.235873,-11695.253884,-2604.724693,-592.164754
1233.236184,-10955.047942,-2757.943793,-518.144159
1233.236496,-10140.821405,-842.705048,-0.000000
1233.236807,-9992.780217,306.438199,222.061783
1233.237119,-9918.759623,1378.971896,962.267725
1233.237430,-8586.388927,1608.800546,1406.391290
1233.237741,-5551.544565,1225.752797,2294.638420
1233.238053,-4589.276840,459.657299,1184.329507
1233.238364,-3923.091493,-536.266849,1628.453072
1233.238676,-5033.400406,-383.047749,-222.061783
1233.238987,-7105.977043,-153.219100,-666.185348
1233.239298,-9844.739029,-383.047749,-1258.350101
1233.239610,-11769.274478,-383.047749,-1406.391290
1233.239921,-12583.501014,-919.314598,-1036.288319
1233.240232,-12287.418637,-1225.752797,-148.041188
1233.240544,-12805.562797,-1532.190996,-148.041188
1233.240855,-12139.377449,-919.314598,296.082377
1233.241167,-11177.109724,766.095498,518.144159
1233.241478,-9252.574275,1225.752797,666.185348
1233.241789,-6883.915261,1608.800546,1628.453072
1233.242101,-4737.318029,1302.362347,1924.535449
1233.242412,-4441.235652,306.438199,1184.329507
1233.242723,-5773.606348,-536.266849,962.267725
1233.243035,-8142.265362,-536.266849,666.185348
1233.243346,-10288.862594,459.657299,-74.020594
1233.243658,-11991.336260,689.485948,-962.267725
1233.243969,-12287.418637,76.609550,-1258.350101
1233.244280,-11103.089130,-383.047749,-1184.329507
1233.244592,-9918.759623,-306.438199,-888.247130
1233.244903,-9696.697840,0.000000,-592.164754
1233.245214,-9548.656652,842.705048,370.102971
1233.245526,-8808.450710,1608.800546,1258.350101
1233.245837,-7105.977043,2374.896044,2146.597232
1233.246149,-4811.338623,1149.143247,3108.864956
1233.246460,-4071.132681,-459.657299,2960.823768
1233.246771,-4515.256246,-1532.190996,2220.617826
1233.247083,-5551.544565,-1225.752797,444.123565
1233.247394,-7846.182985,153.219100,-592.164754
1233.247705,-10584.944971,76.609550,-1110.308913
1233.248017,-12287.418637,-306.438199,-1406.391290
1233.248328,-12435.459826,-1149.143247,-740.205942
1233.248640,-11769.274478,-1149.143247,296.082377
1233.248951,-11695.253884,-1225.752797,1110.308913
1233.249262,-11251.130318,-229.828649,1702.473667
1233.249574,-10362.883188,459.657299,1702.473667
1233.249885,-7920.203579,1532.190996,1258.350101
1233.250196,-4885.359217,2681.334243,1628.453072
1233.250508,-3849.070898,2145.067394,2146.597232
1233.250819,-4515.256246,153.219100,1628.453072
1233.251131,-6661.853478,-995.924147,1184.329507
1233.251442,-9252.574275,-842.705048,740.205942
1233.251753,-11473.192101,-536.266849,296.082377
1233.252065,-12361.439231,-306.438199,-222.061783
1233.252376,-11917.315666,-1915.238745,-222.061783
1233.252687,-10658.965565,-2987.772442,-518.144159
1233.252999,-10140.821405,-2604.724693,-296.082377
1233.253310,-10658.965565,-536.266849,-0.000000
1233.253622,-10510.924376,383.047749,1184.329507
1233.253933,-9622.677246,1149.143247,1184.329507
1233.254244,-7994.224174,1302.362347,2072.576638
1233.254556,-5477.523971,1149.143247,2368.659014
1233.254867,-2886.803174,306.438199,2442.679609
1233.255178,-3256.906145,-766.095498,962.267725
1233.255490,-4811.338623,-1378.971896,-444.123565
1233.255801,-7920.203579,-766.095498,-962.267725
1233.256113,-10584.944971,0.000000,-1554.432478
1233.256424,-12509.480420,-153.219100,-1406.391290
1233.256735,-13175.665768,-842.705048,-814.226536
1233.257047,-12879.583391,-383.047749,-370.102971
1233.257358,-12139.377449,-1455.581446,592.164754
1233.257669,-10955.047942,1149.143247,888.247130
1233.257981,-10214.842000,1378.971896,666.185348
1233.258292,-7920.203579,2145.067394,1184.329507
1233.258604,-5255.462188,2298.286494,1480.411884
1233.258915,-4293.194464,1455.581446,1110.308913
1233.259226,-4589.276840,153.219100,592.164754
1233.259538,-7105.977043,0.000000,666.185348
1233.259849,-9696.697840,-229.828649,148.041188
1233.260161,-12065.356855,-229.828649,148.041188
1233.260472,-13249.686362,-766.095498,-0.000000
1233.260783,-12583.501014,-1225.752797,-370.102971
1233.261095,-11251.130318,-995.924147,-222.061783
1233.261406,-9770.718434,-766.095498,-592.164754
1233.261717,-8660.409521,536.266849,-370.102971
1233.262029,-8586.388927,1762.019645,-222.061783
1233.262340,-7402.059420,2681.334243,814.226536
1233.262652,-6291.750507,2298.286494,2368.659014
1233.262963,-4737.318029,995.924147,3404.947333
1233.263274,-4367.215058,-459.657299,3034.844362
1233.263586,-5329.482782,-1302.362347,1776.494261
1233.263897,-7772.162391,-1225.752797,296.082377
1233.264208,-9622.677246,-306.438199,-814.226536
1233.264520,-10658.965565,-383.047749,-1258.350101
1233.264831,-11917.315666,-1072.533697,-1258.350101
1233.265143,-11769.274478,-1915.238745,-592.164754
1233.265454,-11251.130318,-1685.410096,296.082377
1233.265765,-11177.109724,-995.924147,666.185348
1233.266077,-10584.944971,76.609550,1554.432478
1233.266388,-9400.615463,842.705048,1406.391290
1233.266699,-7550.100608,842.705048,1628.453072
1233.267011,-5773.606348,1685.410096,2146.597232
1233.267322,-3775.050304,153.219100,2590.720797
1233.267634,-4959.379811,-383.047749,1184.329507
1233.267945,-7476.080014,-1532.190996,814.226536
1233.268256,-10140.821405,-1149.143247,-0.000000
1233.268568,-11843.295072,-306.438199,-0.000000
1233.268879,-12287.418637,-536.266849,-148.041188
1233.269190,-12139.377449,-2987.772442,-592.164754
1233.269502,-11473.192101,-3217.601092,-666.185348
1233.269813,-10066.800811,-1072.533697,-370.102971
1233.270125,-9474.636058,0.000000,-0.000000
1233.270436,-9104.533087,919.314598,666.185348
1233.270747,-8216.285956,1072.533697,1184.329507
1233.271059,-6217.729913,842.705048,1924.535449
1233.271370,-4367.215058,-766.095498,2516.700203
1233.271681,-3552.988522,-995.924147,1776.494261
1233.271993,-5477.523971,-1532.190996,370.102971
1233.272304,-7476.080014,-919.314598,-1184.329507
1233.272616,-9992.780217,-383.047749,-1480.411884
1233.272927,-11843.295072,0.000000,-1480.411884
1233.273238,-12509.480420,-689.485948,-1184.329507
1233.273550,-12509.480420,-1072.533697,-962.267725
1233.273861,-11843.295072,-1072.533697,-0.000000
1233.274172,-12435.459826,153.219100,-74.020594
1233.274484,-10807.006753,1072.533697,1332.370696
1233.274795,-9326.594869,2298.286494,1110.308913
1233.275107,-7031.956449,1915.238745,1850.514855
1233.275418,-5107.421000,1378.971896,1998.556043
1233.275729,-4737.318029,842.705048,1184.329507
1233.276041,-5403.503377,0.000000,962.267725
1233.276352,-7994.224174,-306.438199,-0.000000
1233.276663,-10732.986159,76.609550,-74.020594
1233.276975,-11991.336260,536.266849,-296.082377
1233.277286,-12435.459826,0.000000,-888.247130
1233.277598,-11399.171507,-842.705048,-666.185348
1233.277909,-9844.739029,-842.705048,-0.000000
1233.278220,-9104.533087,0.000000,-0.000000
1233.278532,-8586.388927,536.266849,592.164754
1233.278843,-7846.182985,1608.800546,1480.411884
1233.279154,-6735.874072,2068.457845,2516.700203
1233.279466,-5107.421000,1762.019645,2664.741391
1233.279777,-4737.318029,536.266849,2368.659014
1233.280089,-5255.462188,-689.485948,1702.473667
1233.280400,-7105.977043,-766.095498,222.061783
1233.280711,-9252.574275,0.000000,-740.205942
1233.281023,-10881.027347,689.485948,-888.247130
1233.281334,-11621.233289,-612.876398,-740.205942
1233.281646,-11251.130318,-1302.362347,-1036.288319
1233.281957,-10807.006753,-766.095498,-222.061783
1233.282268,-10214.842000,-612.876398,888.247130
1233.282580,-10066.800811,0.000000,1332.370696
1233.282891,-9844.739029,919.314598,1554.432478
1233.283202,-8956.491898,2221.676944,1776.494261
1233.283514,-6439.791695,3447.429741,1850.514855
1233.283825,-4811.338623,1762.019645,1702.473667
1233.284137,-4885.359217,76.609550,1110.308913
1233.284448,-6883.915261,-1455.581446,666.185348
1233.284759,-9770.718434,-1072.533697,-74.020594
1233.285071,-11843.295072,-766.095498,-0.000000
1233.285382,-12287.418637,-306.438199,-296.082377
1233.285693,-11769.274478,-2068.457845,-222.061783
1233.286005,-10732.986159,-3600.648841,-444.123565
1233.286316,-10658.965565,-3140.991542,-148.041188
1233.286628,-9696.697840,-383.047749,370.102971
1233.286939,-9770.718434,766.095498,592.164754
1233.287250,-9400.615463,1685.410096,1184.329507
1233.287562,-7476.080014,842.705048,1924.535449
1233.287873,-5107.421000,0.000000,2294.638420
1233.288184,-3775.050304,-306.438199,1924.535449
1233.288496,-4515.256246,-536.266849,518.144159
1233.288807,-6217.729913,-306.438199,-740.205942
1233.289119,-9178.553681,-766.095498,-1628.453072
1233.289430,-11251.130318,-612.876398,-1480.411884
1233.289741,-12361.439231,-306.438199,-1110.308913
1233.290053,-13027.624579,-1072.533697,-518.144159
1233.290364,-12509.480420,-1532.190996,-0.000000
1233.290675,-12435.459826,-1302.362347,296.082377
1233.290987,-11325.150913,1225.752797,1036.288319
1233.291298,-9104.533087,1915.238745,518.144159
1233.291610,-8216.285956,2145.067394,-0.000000
1233.291921,-5551.544565,1991.848295,1184.329507
1233.292232,-4441.235652,1532.190996,1332.370696
1233.292544,-4515.256246,612.876398,1332.370696
1233.292855,-7179.997637,-306.438199,740.205942
1233.293166,-9918.759623,-383.047749,592.164754
1233.293478,-11917.315666,-842.705048,-444.123565
1233.293789,-12805.562797,0.000000,-666.185348
1233.294101,-11843.295072,-306.438199,-740.205942
1233.294412,-11029.068536,-689.485948,-1036.288319
1233.294723,-10510.924376,-1072.533697,-74.020594
1233.295035,-9400.615463,-766.095498,518.144159
1233.295346,-8586.388927,459.657299,1184.329507
1233.295657,-7031.956449,2068.457845,2146.597232
1233.295969,-5255.462188,1532.190996,3404.947333
1233.296280,-3627.009116,76.609550,3627.009116
1233.296592,-3478.967927,-995.924147,2886.803174
1233.296903,-5403.503377,-1149.143247,1554.432478
1233.297214,-7550.100608,-383.047749,370.102971
1233.297526,-10584.944971,689.485948,-888.247130
1233.297837,-11991.336260,536.266849,-962.267725
1233.298148,-11769.274478,-536.266849,-962.267725
1233.298460,-10881.027347,-1838.629195,-296.082377
1233.298771,-10807.006753,-1225.752797,444.123565
1233.299083,-10658.965565,0.000000,962.267725
1233.299394,-10214.842000,842.705048,1554.432478
1233.299706,-9326.594869,1608.800546,1776.494261
1233.300017,-7179.997637,2451.505594,1924.535449
1233.300329,-5329.482782,2221.676944,1924.535449
1233.300640,-3849.070898,766.095498,2294.638420
1233.300952,-5625.565159,-383.047749,1332.370696
1233.301263,-8364.327145,-766.095498,888.247130
1233.301575,-11473.192101,-689.485948,592.164754
1233.301886,-12879.583391,0.000000,370.102971
1233.302198,-12805.562797,-995.924147,-370.102971
1233.302509,-11473.192101,-2221.676944,-888.247130
1233.302820,-9992.780217,-1915.238745,-1332.370696
1233.303132,-9104.533087,-689.485948,-740.205942
1233.303443,-9178.553681,-383.047749,-0.000000
1233.303755,-8882.471304,1072.533697,1110.308913
1233.304066,-8660.409521,995.924147,2146.597232
1233.304378,-7105.977043,612.876398,2960.823768
1233.304689,-5255.462188,76.609550,2368.659014
1233.305001,-4811.338623,-306.438199,1332.370696
1233.305312,-5329.482782,-612.876398,-444.123565
1233.305624,-6587.832884,-612.876398,-1554.432478
1233.305935,-9178.553681,-459.657299,-1776.494261
1233.306247,-11251.130318,-919.314598,-1702.473667
1233.306558,-12287.418637,-1302.362347,-888.247130
1233.306869,-12139.377449,-1378.971896,-148.041188
1233.307181,-11769.274478,-919.314598,296.082377
1233.307492,-11547.212695,0.000000,444.123565
1233.307804,-10140.821405,995.924147,444.123565
1233.308115,-9178.553681,2451.505594,296.082377
1233.308427,-6587.832884,1762.019645,1332.370696
1233.308738,-5181.441594,766.095498,1110.308913
1233.309050,-5477.523971,-153.219100,962.267725
1233.309361,-6883.915261,-1378.971896,888.247130
1233.309673,-8660.409521,-1991.848295,666.185348
1233.309984,-11399.171507,-842.705048,444.123565
1233.310296,-12361.439231,-842.705048,370.102971
1233.310607,-12731.542202,-1685.410096,-962.267725
1233.310918,-11695.253884,-1455.581446,-592.164754
1233.311230,-10288.862594,-689.485948,-592.164754
1233.311541,-9474.636058,76.609550,-370.102971
1233.311853,-8808.450710,689.485948,296.082377
1233.312164,-7920.203579,1302.362347,1036.288319
1233.312476,-6661.853478,1378.971896,1702.473667
1233.312787,-4959.379811,1608.800546,2590.720797
1233.313099,-4441.235652,612.876398,2664.741391
1233.313410,-5403.503377,-995.924147,1850.514855
1233.313722,-7624.121203,-1532.190996,1036.288319
1233.314033,-9474.636058,-306.438199,-74.020594
1233.314345,-10955.047942,0.000000,-1258.350101
1233.314656,-11843.295072,-153.219100,-1110.308913
1233.314967,-11843.295072,-766.095498,-888.247130
1233.315279,-11103.089130,-1532.190996,-444.123565
1233.315590,-10362.883188,0.000000,444.123565
1233.315902,-10362.883188,612.876398,1258.350101
1233.316213,-9474.636058,766.095498,1776.494261
1233.316525,-8290.306550,1378.971896,2072.576638
1233.316836,-6439.791695,2145.067394,2368.659014
1233.317148,-4663.297435,1915.238745,2442.679609
1233.317459,-4737.318029,229.828649,1776.494261
1233.317771,-6069.688724,-306.438199,1554.432478
1233.318082,-9548.656652,-306.438199,-0.000000
1233.318394,-10584.944971,0.000000,-444.123565
1233.318705,-11325.150913,612.876398,-962.267725
1233.319017,-10955.047942,-689.485948,-888.247130
1233.319328,-10436.903782,-1915.238745,-1110.308913
1233.319639,-9992.780217,-1991.848295,-296.082377
1233.319951,-9696.697840,76.609550,666.185348
1233.320262,-9474.636058,229.828649,1554.432478
1233.320574,-8364.327145,1149.143247,2294.638420
1233.320885,-6957.935855,919.314598,2886.803174
1233.321197,-4737.318029,0.000000,3034.844362
1233.321508,-4219.173869,-612.876398,1850.514855
1233.321820,-5181.441594,0.000000,444.123565
1233.322131,-6365.771101,0.000000,-888.247130
1233.322443,-9030.512492,-153.219100,-1554.432478
1233.322754,-11251.130318,76.609550,-1332.370696
1233.323066,-12657.521608,-689.485948,-1110.308913
1233.323377,-12879.583391,-1378.971896,-148.041188
1233.323688,-12361.439231,-1455.581446,444.123565
1233.324000,-11843.295072,-459.657299,740.205942
1233.324311,-10955.047942,383.047749,740.205942
1233.324623,-9326.594869,995.924147,444.123565
1233.324934,-7105.977043,1991.848295,1110.308913
1233.325246,-5181.441594,2221.676944,1554.432478
1233.325557,-4737.318029,766.095498,740.205942
1233.325869,-5403.503377,0.000000,1258.350101
1233.326180,-7846.182985,-766.095498,740.205942
1233.326492,-9992.780217,-689.485948,444.123565
1233.326803,-11991.336260,-536.266849,-222.061783
1233.327115,-12731.542202,-766.095498,-814.226536
1233.327426,-12361.439231,-2451.505594,-1110.308913
1233.327737,-11843.295072,-1838.629195,-888.247130
1233.328049,-10955.047942,-1072.533697,-0.000000
1233.328360,-9770.718434,-766.095498,740.205942
1233.328672,-9030.512492,0.000000,1258.350101
1233.328983,-7698.141797,1378.971896,1702.473667
1233.329295,-6069.688724,2451.505594,1924.535449
1233.329606,-4071.132681,1685.410096,2442.679609
1233.329918,-3552.988522,383.047749,1924.535449
1233.330229,-4737.318029,0.000000,592.164754
1233.330541,-6883.915261,0.000000,-592.164754
1233.330852,-9548.656652,229.828649,-962.267725
1233.331164,-11029.068536,76.609550,-1258.350101
1233.331475,-11917.315666,-919.314598,-1110.308913
1233.331786,-11695.253884,-1072.533697,-370.102971
1233.332098,-11473.192101,-995.924147,-74.020594
1233.332409,-11177.109724,-536.266849,962.267725
1233.332721,-10436.903782,689.485948,1332.370696
1233.333032,-9252.574275,1455.581446,1406.391290
1233.333344,-7402.059420,2068.457845,1702.473667
1233.333655,-5107.421000,2145.067394,2072.576638
1233.333967,-4441.235652,1072.533697,2146.597232
1233.334278,-5921.647536,-536.266849,1332.370696
1233.334590,-8068.244768,-689.485948,962.267725
1233.334901,-10510.924376,-536.266849,444.123565
1233.335213,-12287.418637,0.000000,-444.123565
1233.335524,-12139.377449,0.000000,-592.164754
1233.335836,-11251.130318,-1838.629195,-814.226536
1233.336147,-10214.842000,-2298.286494,-740.205942
1233.336458,-9474.636058,-842.705048,-0.000000
1233.336770,-9474.636058,-459.657299,888.247130
1233.337081,-9400.615463,612.876398,1702.473667
1233.337393,-8512.368333,1225.752797,1776.494261
1233.337704,-6291.750507,612.876398,2368.659014
1233.338016,-4663.297435,0.000000,2590.720797
1233.338327,-4441.235652,-536.266849,1554.432478
1233.338639,-5033.400406,-1149.143247,148.041188
1233.338950,-7328.038826,-1072.533697,-592.164754
1233.339262,-9918.759623,-689.485948,-740.205942
1233.339573,-11843.295072,-1532.190996,-666.185348
1233.339885,-12509.480420,-1685.410096,-370.102971
1233.340196,-12139.377449,-1608.800546,-0.000000
1233.340507,-12213.398043,-1225.752797,444.123565
1233.340819,-11251.130318,-229.828649,592.164754
1233.341130,-10066.800811,306.438199,962.267725
1233.341442,-8586.388927,919.314598,666.185348
1233.341753,-6883.915261,1762.019645,888.247130
1233.342065,-4885.359217,2068.457845,1406.391290
1233.342376,-4737.318029,0.000000,1554.432478
1233.342688,-5995.668130,-919.314598,1258.350101
1233.342999,-7846.182985,-842.705048,740.205942
1233.343311,-10288.862594,-229.828649,148.041188
1233.343622,-12731.542202,0.000000,-0.000000
1233.343934,-13471.748144,-1072.533697,-518.144159
1233.344245,-12065.356855,-689.485948,-666.185348
1233.344556,-11103.089130,0.000000,-740.205942
1233.344868,-10214.842000,-689.485948,-518.144159
1233.345179,-9178.553681,459.657299,222.061783
1233.345491,-8142.265362,766.095498,1036.288319
1233.345802,-6365.771101,1072.533697,2146.597232
1233.346114,-5107.421000,1378.971896,2590.720797
1233.346425,-4737.318029,306.438199,2368.659014
1233.346737,-4811.338623,-995.924147,1258.350101
1233.347048,-6513.812290,-1378.971896,222.061783
1233.347360,-8290.306550,-153.219100,-518.144159
1233.347671,-10436.903782,76.609550,-1036.288319
1233.347983,-11399.171507,76.609550,-1184.329507
1233.348294,-11177.109724,-842.705048,-1110.308913
1233.348606,-11103.089130,-919.314598,-592.164754
1233.348917,-10066.800811,-383.047749,-222.061783
1233.349228,-9548.656652,1455.581446,74.020594
1233.349540,-9400.615463,2068.457845,962.267725
1233.349851,-8290.306550,1302.362347,1110.308913
1233.350163,-6809.894666,1455.581446,1554.432478
1233.350474,-5699.585753,766.095498,2368.659014
1233.350786,-5921.647536,-459.657299,2072.576638
1233.351097,-7550.100608,-1685.410096,1480.411884
1233.351409,-9400.615463,-1838.629195,518.144159
1233.351720,-10732.986159,-1072.533697,-74.020594
1233.352032,-11695.253884,-383.047749,-1110.308913
1233.352343,-11399.171507,-1608.800546,-592.164754
1233.352655,-11029.068536,-2068.457845,-888.247130
1233.352966,-9918.759623,-1991.848295,-666.185348
1233.353277,-9696.697840,-383.047749,-222.061783
1233.353589,-9326.594869,612.876398,296.082377
1233.353900,-8808.450710,1455.581446,814.226536
1233.354212,-7994.224174,1302.362347,666.185348
1233.354523,-6365.771101,229.828649,2146.597232
1233.354835,-5847.626942,-229.828649,2072.576638
1233.355146,-6217.729913,-766.095498,1776.494261
1233.355458,-7254.018232,-919.314598,296.082377
1233.355769,-9252.574275,-1455.581446,-444.123565
1233.356081,-10658.965565,-995.924147,-888.247130
1233.356392,-12287.418637,-306.438199,-1406.391290
1233.356704,-12287.418637,-995.924147,-888.247130
1233.357015,-11769.274478,-383.047749,-666.185348
1233.357326,-11399.171507,0.000000,370.102971
1233.357638,-10584.944971,229.828649,1036.288319
1233.357949,-9474.636058,842.705048,1184.329507
1233.358261,-7772.162391,1685.410096,1554.432478
1233.358572,-5477.523971,2911.162892,1776.494261
1233.358884,-4589.276840,1915.238745,1406.391290
1233.359195,-5107.421000,1302.362347,1036.288319
1233.359507,-6587.832884,-459.657299,962.267725
1233.359818,-8512.368333,-383.047749,518.144159
1233.360130,-11029.068536,-153.219100,444.123565
1233.360441,-12065.356855,0.000000,-74.020594
1233.360753,-11843.295072,-689.485948,-518.144159
1233.361064,-10362.883188,-842.705048,-370.102971
1233.361375,-9252.574275,-383.047749,-148.041188
1233.361687,-8660.409521,459.657299,148.041188
1233.361998,-8364.327145,1072.533697,666.185348
1233.362310,-7698.141797,1532.190996,1628.453072
1233.362621,-6587.832884,1532.190996,2664.741391
1233.362933,-5403.503377,1378.971896,3034.844362
1233.363244,-5033.400406,842.705048,2590.720797
1233.363556,-6143.709319,-383.047749,1258.350101
1233.363867,-8068.244768,-383.047749,-370.102971
1233.364179,-9400.615463,0.000000,-1036.288319
1233.364490,-10955.047942,689.485948,-1702.473667
1233.364802,-11547.212695,0.000000,-1110.308913
1233.365113,-11325.150913,-1149.143247,-592.164754
1233.365425,-10807.006753,-1072.533697,-0.000000
1233.365736,-10362.883188,-306.438199,1110.308913
1233.366047,-10436.903782,306.438199,1554.432478
1233.366359,-9548.656652,1225.752797,1036.288319
1233.366670,-7772.162391,1838.629195,1184.329507
1233.366982,-5995.668130,2068.457845,1998.556043
1233.367293,-5403.503377,612.876398,1554.432478
1233.367605,-6513.812290,0.000000,962.267725
1233.367916,-8364.327145,-1149.143247,444.123565
1233.368228,-10955.047942,-1225.752797,-222.061783
1233.368539,-11695.253884,-766.095498,-666.185348
1233.368851,-11843.295072,-842.705048,-74.020594
1233.369162,-11325.150913,-3217.601092,-444.123565
1233.369474,-10140.821405,-3447.429741,-370.102971
1233.369785,-9474.636058,-1838.629195,-370.102971
1233.370096,-9104.533087,0.000000,148.041188
1233.370408,-9252.574275,1455.581446,740.205942
1233.370719,-8882.471304,1762.019645,1110.308913
1233.371031,-6957.935855,383.047749,2146.597232
1233.371342,-5033.400406,0.000000,2146.597232
1233.371654,-4663.297435,-153.219100,1628.453072
1233.371965,-5181.441594,-919.314598,-0.000000
1233.372277,-6883.915261,-612.876398,-814.226536
1233.372588,-8808.450710,-1072.533697,-1110.308913
1233.372900,-11103.089130,-842.705048,-1036.288319
1233.373211,-11769.274478,-766.095498,-666.185348
1233.373523,-12139.377449,-1455.581446,-814.226536
1233.373834,-12213.398043,-842.705048,518.144159
1233.374145,-11547.212695,-612.876398,888.247130
1233.374457,-9992.780217,689.485948,1036.288319
1233.374768,-8660.409521,1378.971896,1110.308913
1233.375080,-6957.935855,1762.019645,1480.411884
1233.375391,-5403.503377,1225.752797,1776.494261
1233.375703,-5403.503377,612.876398,1036.288319
1233.376014,-5847.626942,-153.219100,888.247130
1233.376326,-8068.244768,-842.705048,444.123565
1233.376637,-10362.883188,-153.219100,-0.000000
1233.376949,-11695.253884,-229.828649,-222.061783
1233.377260,-12731.542202,-536.266849,-592.164754
1233.377572,-11843.295072,-612.876398,-222.061783
1233.377883,-10510.924376,0.000000,-0.000000
1233.378195,-9844.739029,-1072.533697,222.061783
1233.378506,-9326.594869,229.828649,222.061783
1233.378817,-8216.285956,1762.019645,1258.350101
1233.379129,-6809.894666,2451.505594,1850.514855
1233.379440,-5625.565159,2145.067394,2442.679609
1233.379752,-5107.421000,229.828649,2368.659014
1233.380063,-5699.585753,-919.314598,1332.370696
1233.380375,-7105.977043,-1225.752797,370.102971
1233.380686,-8956.491898,0.000000,-296.082377
1233.380998,-9992.780217,76.609550,-1258.350101
1233.381309,-10881.027347,-842.705048,-1036.288319
1233.381621,-10955.047942,-1455.581446,-814.226536
1233.381932,-10807.006753,-1532.190996,-74.020594
1233.382244,-10436.903782,-459.657299,518.144159
1233.382555,-10658.965565,153.219100,962.267725
1233.382866,-9474.636058,1455.581446,1258.350101
1233.383178,-8290.306550,919.314598,1998.556043
1233.383489,-5847.626942,1608.800546,1702.473667
1233.383801,-5033.400406,766.095498,1776.494261
1233.384112,-5329.482782,0.000000,1702.473667
1233.384424,-7179.997637,-995.924147,1036.288319
1233.384735,-10066.800811,-995.924147,444.123565
1233.385047,-11621.233289,-612.876398,296.082377
1233.385358,-12287.418637,-383.047749,-148.041188
1233.385670,-11399.171507,-1762.019645,-296.082377
1233.385981,-9844.739029,-3370.820191,-518.144159
1233.386293,-9770.718434,-2528.115143,-370.102971
1233.386604,-9622.677246,-919.314598,-0.000000
1233.386915,-9474.636058,842.705048,814.226536
1233.387227,-8808.450710,1302.362347,1258.350101
1233.387538,-7698.141797,1302.362347,1924.535449
1233.387850,-5477.523971,306.438199,2146.597232
1233.388161,-4441.235652,-536.266849,2368.659014
1233.388473,-5107.421000,-1149.143247,1406.391290
1233.388784,-6735.874072,-842.705048,148.041188
1233.389096,-8734.430116,-1072.533697,-518.144159
1233.389407,-10510.924376,-842.705048,-740.205942
1233.389719,-12139.377449,-1225.752797,-1036.288319
1233.390030,-13027.624579,-1149.143247,-1480.411884
1233.390342,-11843.295072,-689.485948,-666.185348
1233.390653,-11547.212695,-612.876398,518.144159
1233.390964,-10955.047942,-919.314598,1110.308913
1233.391276,-9696.697840,229.828649,1332.370696
1233.391587,-8068.244768,1302.362347,1776.494261
1233.391899,-5403.503377,1762.019645,2220.617826
1233.392210,-4885.359217,612.876398,1480.411884
1233.392522,-5255.462188,536.266849,-0.000000
1233.392833,-6809.894666,-153.219100,-0.000000
1233.393145,-9326.594869,459.657299,-666.185348
1233.393456,-11473.192101,612.876398,-666.185348
1233.393768,-12953.603985,306.438199,-666.185348
1233.394079,-13323.706956,-689.485948,-740.205942
1233.394391,-11769.274478,-766.095498,-222.061783
1233.394702,-10658.965565,-153.219100,-0.000000
1233.395014,-9400.615463,229.828649,370.102971
1233.395325,-8142.265362,1072.533697,666.185348
1233.395637,-6365.771101,1685.410096,1258.350101
1233.395948,-4811.338623,1378.971896,1628.453072
1233.396260,-4589.276840,919.314598,2294.638420
1233.396571,-5255.462188,-459.657299,1998.556043
1233.396883,-7105.977043,-1225.752797,1184.329507
1233.397194,-8586.388927,-842.705048,148.041188
1233.397506,-9992.780217,0.000000,-740.205942
1233.397817,-11103.089130,0.000000,-1554.432478
1233.398129,-11177.109724,-1762.019645,-1332.370696
1233.398440,-10955.047942,-2068.457845,-962.267725
1233.398752,-10214.842000,-1455.581446,-0.000000
1233.399063,-10362.883188,76.609550,888.247130
1233.399375,-10288.862594,536.266849,1628.453072
1233.399686,-9030.512492,536.266849,1850.514855
1233.399998,-7031.956449,766.095498,1628.453072
1233.400309,-4663.297435,1915.238745,1776.494261
1233.400621,-3849.070898,1455.581446,1184.329507
1233.400932,-6143.709319,153.219100,518.144159
1233.401244,-8882.471304,-1072.533697,296.082377
1233.401555,-11177.109724,-1225.752797,148.041188
1233.401867,-12213.398043,-919.314598,-0.000000
1233.402178,-11991.336260,-1225.752797,-0.000000
1233.402490,-11769.274478,-1685.410096,-888.247130
1233.402801,-10510.924376,-2145.067394,-518.144159
1233.403113,-9548.656652,-1225.752797,-0.000000
1233.403424,-9252.574275,-306.438199,666.185348
1233.403736,-9104.533087,1378.971896,1332.370696
1233.404047,-8216.285956,1838.629195,1850.514855
1233.404359,-6735.874072,1225.752797,2368.659014
1233.404670,-4885.359217,383.047749,2220.617826
1233.404982,-5181.441594,0.000000,1036.288319
1233.405293,-6069.688724,76.609550,-74.020594
1233.405605,-7846.182985,-306.438199,-1036.288319
1233.405916,-10140.821405,-612.876398,-888.247130
1233.406228,-11547.212695,-1455.581446,-814.226536
1233.406539,-12583.501014,-1685.410096,-888.247130
1233.406851,-12065.356855,-1302.362347,-222.061783
1233.407162,-11177.109724,-919.314598,370.102971
1233.407474,-10214.842000,-459.657299,1184.329507
1233.407785,-9548.656652,766.095498,1110.308913
1233.408097,-8290.306550,1378.971896,888.247130
1233.408408,-6439.791695,2528.115143,1480.411884
1233.408720,-5551.544565,2298.286494,1628.453072
1233.409031,-5847.626942,1378.971896,962.267725
1233.409343,-6809.894666,306.438199,814.226536
1233.409654,-8512.368333,0.000000,444.123565
1233.409966,-10288.862594,-612.876398,370.102971
1233.410277,-11251.130318,-536.266849,-148.041188
1233.410589,-11917.315666,-995.924147,-370.102971
1233.410900,-11473.192101,-1225.752797,-296.082377
1233.411212,-10362.883188,-766.095498,-0.000000
1233.411523,-9252.574275,306.438199,222.061783
1233.411835,-8956.491898,766.095498,814.226536
1233.412146,-8290.306550,1225.752797,1184.329507
1233.412458,-6291.750507,2145.067394,1924.535449
1233.412769,-5181.441594,1455.581446,2294.638420
1233.413081,-4515.256246,306.438199,2146.597232
1233.413392,-5773.606348,-842.705048,1258.350101
1233.413704,-7550.100608,-1532.190996,-0.000000
1233.414015,-8882.471304,-1149.143247,-296.082377
1233.414327,-10436.903782,-766.095498,-1184.329507
1233.414638,-11399.171507,-1225.752797,-814.226536
1233.414950,-11547.212695,-1991.848295,-666.185348
1233.415261,-11399.171507,-1608.800546,-222.061783
1233.415572,-10732.986159,-306.438199,666.185348
1233.415884,-10214.842000,383.047749,888.247130
1233.416195,-9622.677246,459.657299,814.226536
1233.416507,-8512.368333,1302.362347,1554.432478
1233.416818,-6143.709319,1455.581446,1998.556043
1233.417130,-4737.318029,1455.581446,1702.473667
1233.417441,-6291.750507,-153.219100,1332.370696
1233.417753,-7920.203579,-1072.533697,814.226536
1233.418064,-9844.739029,-1532.190996,-0.000000
1233.418376,-11103.089130,-842.705048,-222.061783
1233.418687,-11991.336260,-306.438199,-518.144159
1233.418999,-11695.253884,-1915.238745,-962.267725
1233.419310,-11177.109724,-2298.286494,-1332.370696
1233.419622,-10214.842000,-2145.067394,-444.123565
1233.419933,-9030.512492,0.000000,-0.000000
1233.420245,-9474.636058,689.485948,962.267725
1233.420556,-8956.491898,919.314598,1702.473667
1233.420868,-7105.977043,689.485948,2516.700203
1233.421179,-5255.462188,383.047749,2812.782580
1233.421491,-4663.297435,153.219100,1776.494261
1233.421802,-5329.482782,76.609550,666.185348
1233.422114,-6439.791695,76.609550,-518.144159
1233.422425,-8364.327145,-153.219100,-1406.391290
1233.422737,-10288.862594,229.828649,-1332.370696
1233.423048,-11991.336260,-229.828649,-1480.411884
1233.423360,-12583.501014,-995.924147,-814.226536
1233.423671,-11843.295072,-1072.533697,222.061783
1233.423983,-10881.027347,-306.438199,740.205942
1233.424294,-9992.780217,612.876398,1480.411884
1233.424606,-8438.347739,1225.752797,1406.391290
1233.424917,-6883.915261,1149.143247,1554.432478
1233.425229,-5033.400406,1532.190996,2442.679609
1233.425540,-5181.441594,995.924147,1628.453072
1233.425852,-6365.771101,536.266849,1184.329507
1233.426163,-8512.368333,-229.828649,814.226536
1233.426475,-9770.718434,-153.219100,-0.000000
1233.426786,-11103.089130,383.047749,-444.123565
1233.427098,-11843.295072,-229.828649,-370.102971
1233.427409,-12213.398043,-1149.143247,-592.164754
1233.427721,-10807.006753,-919.314598,-370.102971
1233.428032,-9326.594869,0.000000,370.102971
1233.428344,-8882.471304,76.609550,666.185348
1233.428655,-8068.244768,536.266849,1480.411884
1233.428967,-7031.956449,1149.143247,1776.494261
1233.429278,-6217.729913,1072.533697,2294.638420
1233.429590,-4737.318029,383.047749,2590.720797
1233.429901,-5255.462188,-842.705048,2294.638420
1233.430213,-6439.791695,-1838.629195,962.267725
1233.430524,-8142.265362,-1532.190996,-74.020594
1233.430836,-10066.800811,-1225.752797,-962.267725
1233.431147,-10732.986159,-995.924147,-1110.308913
1233.431459,-11917.315666,-1991.848295,-1628.453072
1233.431770,-11769.274478,-842.705048,-888.247130
1233.432082,-11325.150913,-1225.752797,148.041188
1233.432393,-11251.130318,-689.485948,1110.308913
1233.432705,-10658.965565,153.219100,1554.432478
1233.433016,-9622.677246,766.095498,1554.432478
1233.433328,-7402.059420,2068.457845,1628.453072
1233.433639,-5847.626942,1915.238745,1702.473667
1233.433951,-4811.338623,919.314598,1258.350101
1233.434262,-6587.832884,-612.876398,-0.000000
1233.434574,-8142.265362,-612.876398,-444.123565
1233.434885,-10436.903782,-459.657299,-740.205942
1233.435197,-12139.377449,-306.438199,-888.247130
1233.435508,-12287.418637,-995.924147,-814.226536
1233.435820,-11621.233289,-1762.019645,-962.267725
1233.436131,-10510.924376,-2068.457845,-666.185348
1233.436443,-9622.677246,-689.485948,-370.102971
1233.436754,-9548.656652,536.266849,592.164754
1233.437066,-9326.594869,689.485948,740.205942
1233.437377,-7698.141797,1302.362347,1924.535449
1233.437689,-5995.668130,919.314598,2368.659014
1233.438000,-5033.400406,229.828649,2368.659014
1233.438312,-5921.647536,-459.657299,1258.350101
1233.438623,-6143.709319,-306.438199,-74.020594
1233.438935,-8438.347739,689.485948,-1480.411884
1233.439246,-9548.656652,612.876398,-1480.411884
1233.439558,-11325.150913,0.000000,-1406.391290
1233.439869,-12287.418637,-689.485948,-962.267725
1233.440181,-11621.233289,-1149.143247,-0.000000
1233.440492,-11325.150913,-612.876398,518.144159
1233.440804,-10510.924376,842.705048,1036.288319
1233.441115,-9474.636058,995.924147,1184.329507
1233.441427,-7772.162391,1149.143247,1332.370696
1233.441738,-5551.544565,1915.238745,1406.391290
1233.442050,-4811.338623,1915.238745,1850.514855
1233.442361,-5403.503377,995.924147,1258.350101
1233.442673,-7179.997637,-383.047749,1184.329507
1233.442984,-9030.512492,-536.266849,1036.288319
1233.443295,-10584.944971,-153.219100,444.123565
1233.443607,-11843.295072,-306.438199,148.041188
1233.443918,-12139.377449,-766.095498,-666.185348
1233.444230,-11399.171507,-1072.533697,-370.102971
1233.444541,-10362.883188,-1149.143247,222.061783
1233.444853,-9474.636058,-306.438199,592.164754
1233.445164,-9104.533087,-229.828649,1480.411884
1233.445476,-8216.285956,383.047749,1702.473667
1233.445787,-6587.832884,1455.581446,1776.494261
1233.446099,-5033.400406,842.705048,2072.576638
1233.446410,-4515.256246,229.828649,2294.638420
1233.446722,-5181.441594,-229.828649,962.267725
1233.447033,-7105.977043,-1149.143247,222.061783
1233.447345,-8882.471304,-306.438199,-370.102971
1233.447656,-10510.924376,0.000000,-962.267725
1233.447968,-11695.253884,-306.438199,-888.247130
1233.448279,-11843.295072,-1838.629195,-1184.329507
1233.448591,-10955.047942,-1302.362347,-370.102971
1233.448902,-11029.068536,-459.657299,-0.000000
1233.449214,-10881.027347,76.609550,814.226536
1233.449525,-10436.903782,842.705048,1258.350101
1233.449837,-9178.553681,1532.190996,1480.411884
1233.450148,-6735.874072,2221.676944,1332.370696
1233.450460,-5181.441594,1532.190996,1998.556043
1233.450771,-4737.318029,229.828649,1628.453072
1233.451083,-6809.894666,-766.095498,1110.308913
1233.451394,-8882.471304,-1302.362347,148.041188
1233.451706,-11251.130318,-842.705048,-0.000000
1233.452017,-11769.274478,0.000000,-666.185348
1233.452329,-11769.274478,-766.095498,-1406.391290
1233.452640,-10732.986159,-1838.629195,-1332.370696
1233.452952,-9770.718434,-2221.676944,-740.205942
1233.453263,-9844.739029,76.609550,-148.041188
1233.453575,-9474.636058,1455.581446,666.185348
1233.453886,-8734.430116,1455.581446,1702.473667
1233.454198,-7328.038826,1302.362347,2220.617826
1233.454509,-4959.379811,689.485948,2960.823768
1233.454821,-4367.215058,-229.828649,2368.659014
1233.455132,-5107.421000,-995.924147,740.205942
1233.455444,-6957.935855,-766.095498,-888.247130
1233.455755,-9104.533087,-612.876398,-1480.411884
1233.456067,-10881.027347,-536.266849,-1628.453072
1233.456378,-12361.439231,-1149.143247,-1628.453072
1233.456690,-12731.542202,-1762.019645,-444.123565
1233.457001,-11843.295072,-1455.581446,370.102971
1233.457313,-10881.027347,-459.657299,962.267725
1233.457624,-10140.821405,536.266849,1332.370696
1233.457936,-8586.388927,1991.848295,1998.556043
1233.458247,-6957.935855,1225.752797,1924.535449
1233.458559,-5107.421000,1762.019645,2368.659014
1233.458870,-4959.379811,1455.581446,1554.432478
1233.459182,-6661.853478,766.095498,888.247130
1233.459493,-8586.388927,153.219100,222.061783
1233.459805,-10362.883188,0.000000,-0.000000
1233.460116,-11547.212695,0.000000,74.020594
1233.460428,-12583.501014,-766.095498,-0.000000
1233.460739,-12065.356855,-2068.457845,-222.061783
1233.461051,-11251.130318,-1685.410096,-74.020594
1233.461362,-9474.636058,-536.266849,518.144159
1233.461674,-8956.491898,153.219100,666.185348
1233.461985,-7846.182985,766.095498,1480.411884
1233.462297,-6809.894666,1225.752797,1702.473667
1233.462608,-5551.544565,1225.752797,2516.700203
1233.462920,-4811.338623,76.609550,2146.597232
1233.463231,-5477.523971,-383.047749,2368.659014
1233.463543,-6957.935855,-995.924147,370.102971
1233.463854,-8364.327145,-842.705048,-222.061783
1233.464166,-9844.739029,-612.876398,-1110.308913
1233.464477,-10955.047942,-459.657299,-1258.350101
1233.464789,-11547.212695,-919.314598,-962.267725
1233.465100,-10807.006753,-1149.143247,-666.185348
1233.465412,-10510.924376,-306.438199,370.102971
1233.465723,-10436.903782,0.000000,1036.288319
1233.466035,-9992.780217,612.876398,1406.391290
1233.466346,-9474.636058,1378.971896,1480.411884
1233.466658,-7254.018232,2374.896044,1702.473667
1233.466969,-5107.421000,2451.505594,1332.370696
1233.467281,-5181.441594,1072.533697,962.267725
1233.467592,-6587.832884,-766.095498,592.164754
1233.467904,-9104.533087,-1378.971896,222.061783
1233.468215,-11325.150913,-919.314598,-222.061783
1233.468527,-11917.315666,-612.876398,-592.164754
1233.468838,-12065.356855,-1225.752797,-666.185348
1233.469150,-11473.192101,-2221.676944,-592.164754
1233.469461,-10362.883188,-2221.676944,-814.226536
1233.469773,-9474.636058,-1072.533697,-296.082377
1233.470084,-9178.553681,842.705048,222.061783
1233.470396,-8438.347739,1378.971896,1036.288319
1233.470707,-7328.038826,1455.581446,1628.453072
1233.471018,-5773.606348,536.266849,2368.659014
1233.471330,-4885.359217,-1072.533697,2664.741391
1233.471641,-5477.523971,-842.705048,1480.411884
1233.471953,-6809.894666,-766.095498,296.082377
1233.472264,-8808.450710,-536.266849,-1110.308913
1233.472576,-10066.800811,-995.924147,-1554.432478
1233.472887,-11177.109724,-919.314598,-1628.453072
1233.473199,-11843.295072,-1378.971896,-1110.308913
1233.473510,-11991.336260,-1378.971896,-296.082377
1233.473822,-11843.295072,-1072.533697,518.144159
1233.474133,-11769.274478,-536.266849,888.247130
1233.474445,-10288.862594,919.314598,1258.350101
1233.474756,-8438.347739,1455.581446,1480.411884
1233.475068,-6069.688724,2451.505594,1776.494261
