#time,accel_x,accel_y,accel_z
1406.519854,-8882.471304,0.000000,592.164754
1406.520165,-8438.347739,0.000000,518.144159
1406.520477,-8512.368333,0.000000,518.144159
1406.520788,-8956.491898,0.000000,74.020594
1406.521099,-8364.327145,-459.657299,370.102971
1406.521411,-9252.574275,-229.828649,444.123565
1406.521722,-8956.491898,0.000000,444.123565
1406.522033,-9104.533087,0.000000,518.144159
1406.522345,-8956.491898,0.000000,518.144159
1406.522656,-9030.512492,0.000000,370.102971
1406.522967,-8956.491898,459.657299,592.164754
1406.523278,-8734.430116,76.609550,666.185348
1406.523590,-9178.553681,0.000000,666.185348
1406.523901,-8882.471304,0.000000,518.144159
1406.524212,-8734.430116,-306.438199,370.102971
1406.524524,-8882.471304,0.000000,518.144159
1406.524835,-8734.430116,-229.828649,518.144159
1406.525146,-8808.450710,536.266849,666.185348
1406.525458,-9030.512492,0.000000,592.164754
1406.525769,-8808.450710,383.047749,666.185348
1406.526080,-8808.450710,-383.047749,740.205942
1406.526392,-8808.450710,0.000000,518.144159
1406.526703,-8956.491898,-153.219100,370.102971
1406.527014,-8956.491898,0.000000,666.185348
1406.527326,-9030.512492,-766.095498,518.144159
1406.527637,-8734.430116,0.000000,592.164754
1406.527948,-8808.450710,-306.438199,592.164754
1406.528260,-8512.368333,-383.047749,370.102971
1406.528571,-9030.512492,-229.828649,444.123565
1406.528882,-9104.533087,-229.828649,444.123565
1406.529194,-9030.512492,-153.219100,666.185348
1406.529505,-9030.512492,229.828649,592.164754
1406.529816,-8808.450710,-689.485948,296.082377
1406.530128,-8438.347739,0.000000,592.164754
1406.530439,-8956.491898,-153.219100,518.144159
1406.530750,-8808.450710,0.000000,370.102971
1406.531062,-8882.471304,76.609550,444.123565
1406.531373,-8808.450710,76.609550,518.144159
1406.531684,-8956.491898,-306.438199,518.144159
1406.531996,-8882.471304,-153.219100,518.144159
1406.532307,-8956.491898,-153.219100,592.164754
1406.532618,-8808.450710,0.000000,518.144159
1406.532930,-8808.450710,0.000000,222.061783
1406.533241,-8956.491898,-153.219100,296.082377
1406.533552,-8956.491898,0.000000,518.144159
1406.533864,-8956.491898,0.000000,444.123565
1406.534175,-8956.491898,-229.828649,444.123565
1406.534486,-8808.450710,0.000000,592.164754
1406.534798,-8438.347739,0.000000,444.123565
1406.535109,-8586.388927,0.000000,296.082377
1406.535420,-8808.450710,0.000000,814.226536
1406.535732,-8512.368333,0.000000,740.205942
1406.536043,-8882.471304,0.000000,518.144159
1406.536354,-8882.471304,0.000000,444.123565
1406.536666,-9030.512492,0.000000,444.123565
1406.536977,-9326.594869,0.000000,518.144159
1406.537288,-8882.471304,689.485948,814.226536
1406.537600,-8956.491898,0.000000,444.123565
1406.537911,-8882.471304,306.438199,518.144159
1406.538222,-8808.450710,0.000000,592.164754
1406.538534,-9030.512492,-229.828649,370.102971
1406.538845,-9178.553681,0.000000,666.185348
1406.539156,-9104.533087,0.000000,592.164754
1406.539467,-8734.430116,0.000000,296.082377
1406.539779,-8586.388927,0.000000,444.123565
1406.540090,-8586.388927,-153.219100,148.041188
1406.540401,-8882.471304,0.000000,444.123565
1406.540713,-8808.450710,0.000000,518.144159
1406.541024,-8882.471304,0.000000,444.123565
1406.541335,-8808.450710,0.000000,740.205942
1406.541647,-9178.553681,-153.219100,592.164754
1406.541958,-8882.471304,0.000000,518.144159
1406.542269,-8734.430116,0.000000,592.164754
1406.542581,-8956.491898,76.609550,444.123565
1406.542892,-9030.512492,-229.828649,444.123565
1406.543203,-8956.491898,-153.219100,592.164754
1406.543515,-9104.533087,-229.828649,518.144159
1406.543826,-8956.491898,76.609550,592.164754
1406.544137,-8956.491898,0.000000,444.123565
1406.544449,-8586.388927,306.438199,518.144159
1406.544760,-8438.347739,-536.266849,592.164754
1406.545071,-8512.368333,-229.828649,962.267725
1406.545383,-8882.471304,0.000000,740.205942
1406.545694,-8956.491898,0.000000,592.164754
1406.546005,-8882.471304,-153.219100,740.205942
1406.546317,-8956.491898,-306.438199,518.144159
1406.546628,-9104.533087,0.000000,592.164754
1406.546939,-9030.512492,459.657299,370.102971
1406.547251,-8734.430116,0.000000,666.185348
1406.547562,-8734.430116,153.219100,444.123565
1406.547873,-9030.512492,0.000000,518.144159
1406.548185,-8956.491898,-229.828649,592.164754
1406.548496,-9104.533087,153.219100,518.144159
1406.548807,-8882.471304,0.000000,666.185348
1406.549119,-8882.471304,76.609550,-0.000000
1406.549430,-9030.512492,0.000000,222.061783
1406.549741,-8882.471304,0.000000,370.102971
1406.550053,-8808.450710,153.219100,592.164754
1406.550364,-8808.450710,76.609550,592.164754
1406.550675,-9030.512492,-153.219100,518.144159
1406.550987,-9104.533087,-153.219100,740.205942
1406.551298,-8808.450710,0.000000,518.144159
1406.551609,-8586.388927,0.000000,962.267725
1406.551921,-9252.574275,-995.924147,444.123565
1406.552232,-9030.512492,0.000000,370.102971
1406.552543,-9252.574275,153.219100,222.061783
1406.552855,-8882.471304,0.000000,518.144159
1406.553166,-9104.533087,-229.828649,370.102971
1406.553477,-8956.491898,0.000000,444.123565
1406.553789,-9252.574275,-153.219100,444.123565
1406.554100,-9030.512492,229.828649,592.164754
1406.554411,-9030.512492,-612.876398,222.061783
1406.554723,-8290.306550,0.000000,518.144159
1406.555034,-9030.512492,153.219100,666.185348
1406.555345,-8882.471304,-306.438199,592.164754
1406.555656,-9030.512492,-153.219100,592.164754
1406.555968,-8956.491898,-306.438199,444.123565
1406.556279,-8956.491898,76.609550,962.267725
1406.556590,-8882.471304,153.219100,444.123565
1406.556902,-8660.409521,-153.219100,444.123565
1406.557213,-9400.615463,76.609550,444.123565
1406.557524,-12065.356855,1149.143247,-0.000000
1406.557836,-10732.986159,3524.039291,666.185348
1406.558147,-8216.285956,5056.230287,592.164754
1406.558458,-7254.018232,3064.381992,1184.329507
1406.558770,-6291.750507,459.657299,962.267725
1406.559081,-7105.977043,-1455.581446,-148.041188
1406.559392,-6957.935855,-612.876398,-74.020594
1406.559704,-8290.306550,-153.219100,-1036.288319
1406.560015,-12657.521608,-995.924147,-1406.391290
1406.560326,-12065.356855,76.609550,296.082377
1406.560638,-10140.821405,459.657299,814.226536
1406.560949,-8956.491898,-229.828649,2442.679609
1406.561260,-9844.739029,-229.828649,3034.844362
1406.561572,-11473.192101,1302.362347,1480.411884
1406.561883,-6513.812290,4903.011187,2812.782580
1406.562194,-5477.523971,4673.182538,1776.494261
1406.562506,-7994.224174,2757.943793,296.082377
1406.562817,-7402.059420,2987.772442,-1110.308913
1406.563128,-8216.285956,3447.429741,-2146.597232
1406.563440,-9252.574275,3370.820191,-814.226536
1406.563751,-9252.574275,3370.820191,-296.082377
1406.564062,-14211.954086,1072.533697,-1480.411884
1406.564374,-12065.356855,-842.705048,2368.659014
1406.564685,-8586.388927,-536.266849,1924.535449
1406.564996,-10510.924376,1685.410096,1332.370696
1406.565308,-7846.182985,6281.983084,2738.761985
1406.565619,-7698.141797,5056.230287,1554.432478
1406.565930,-7328.038826,3524.039291,2368.659014
1406.566242,-5995.668130,5592.497135,2220.617826
1406.566553,-8142.265362,7660.954980,-296.082377
1406.566864,-8216.285956,6435.202183,-1184.329507
1406.567176,-9104.533087,5515.887586,-1184.329507
1406.567487,-9918.759623,5362.668486,-1554.432478
1406.567798,-11325.150913,5439.278036,-222.061783
1406.568110,-12139.377449,4826.401637,296.082377
1406.568421,-10362.883188,3830.477490,2442.679609
1406.568732,-9918.759623,3753.867940,1776.494261
1406.569044,-8586.388927,5362.668486,2442.679609
1406.569355,-5921.647536,4443.353888,370.102971
1406.569666,-5921.647536,5286.058936,370.102971
1406.569978,-5477.523971,4903.011187,888.247130
1406.570289,-5699.585753,4903.011187,-888.247130
1406.570600,-7031.956449,4366.744339,-1036.288319
1406.570912,-8142.265362,3524.039291,-1258.350101
1406.571223,-9770.718434,2834.553343,-0.000000
1406.571534,-11399.171507,766.095498,740.205942
1406.571846,-10881.027347,842.705048,1702.473667
1406.572157,-11029.068536,0.000000,1702.473667
1406.572468,-10510.924376,1302.362347,1702.473667
1406.572779,-9770.718434,2681.334243,2146.597232
1406.573091,-7624.121203,4673.182538,296.082377
1406.573402,-6587.832884,3983.696590,-0.000000
1406.573713,-6735.874072,4596.572988,-222.061783
1406.574025,-7105.977043,3753.867940,-666.185348
1406.574336,-7402.059420,3447.429741,-1776.494261
1406.574647,-7402.059420,1072.533697,-1406.391290
1406.574959,-9252.574275,-1455.581446,-740.205942
1406.575270,-11399.171507,-2145.067394,370.102971
1406.575581,-12583.501014,-2528.115143,962.267725
1406.575893,-13323.706956,-1608.800546,1406.391290
1406.576204,-13471.748144,-919.314598,1628.453072
1406.576515,-12657.521608,1685.410096,814.226536
1406.576827,-10510.924376,3677.258390,-0.000000
1406.577138,-7698.141797,4290.134789,222.061783
1406.577449,-5847.626942,4673.182538,740.205942
1406.577761,-5625.565159,4366.744339,814.226536
1406.578072,-6513.812290,3677.258390,370.102971
1406.578383,-8364.327145,2757.943793,-518.144159
1406.578695,-10288.862594,1685.410096,-222.061783
1406.579006,-12583.501014,842.705048,-666.185348
1406.579317,-13767.830521,383.047749,-296.082377
1406.579629,-13989.892304,-229.828649,-0.000000
1406.579940,-12805.562797,1149.143247,814.226536
1406.580251,-10955.047942,2528.115143,1480.411884
1406.580563,-8882.471304,3753.867940,2146.597232
1406.580874,-5847.626942,4060.306139,2368.659014
1406.581185,-3552.988522,6128.763984,1406.391290
1406.581497,-1850.514855,6281.983084,444.123565
1406.581808,-1702.473667,5975.544884,-1332.370696
1406.582119,-4293.194464,4213.525239,-1924.535449
1406.582431,-7994.224174,2681.334243,-2220.617826
1406.582742,-11843.295072,3217.601092,-518.144159
1406.583053,-14878.139434,3217.601092,888.247130
1406.583365,-16284.530724,3907.087040,2960.823768
1406.583676,-14730.098246,2757.943793,3552.988522
1406.583987,-9992.780217,2834.553343,3256.906145
1406.584299,-5773.606348,3294.210641,2664.741391
1406.584610,-2294.638420,4673.182538,1110.308913
1406.584921,-1850.514855,6741.640382,-370.102971
1406.585233,-3034.844362,7584.345430,-1924.535449
1406.585544,-4737.318029,6511.811733,-2368.659014
1406.585855,-7476.080014,3830.477490,-2146.597232
1406.586167,-9104.533087,2987.772442,-148.041188
1406.586478,-9918.759623,0.000000,518.144159
1406.586789,-11843.295072,-3140.991542,1554.432478
1406.587101,-12435.459826,-3600.648841,1850.514855
1406.587412,-13101.645173,-2451.505594,2072.576638
1406.587723,-13397.727550,842.705048,2516.700203
1406.588035,-11991.336260,2911.162892,1702.473667
1406.588346,-11177.109724,5439.278036,2368.659014
1406.588657,-7698.141797,6128.763984,1036.288319
1406.588968,-6069.688724,6281.983084,740.205942
1406.589280,-5477.523971,4443.353888,-74.020594
1406.589591,-5625.565159,3064.381992,-1332.370696
1406.589902,-7994.224174,2451.505594,-2590.720797
1406.590214,-9400.615463,2834.553343,-2516.700203
1406.590525,-10807.006753,3524.039291,-2294.638420
1406.590836,-12805.562797,1149.143247,-962.267725
1406.591148,-12583.501014,689.485948,1776.494261
1406.591459,-12435.459826,76.609550,2294.638420
1406.591770,-13989.892304,1455.581446,2368.659014
1406.592082,-11473.192101,4673.182538,2886.803174
1406.592393,-8956.491898,6588.421283,296.082377
1406.592704,-7179.997637,6741.640382,-0.000000
1406.593016,-5403.503377,5669.106685,-1036.288319
1406.593327,-5551.544565,4366.744339,-2072.576638
1406.593638,-7698.141797,3524.039291,-1924.535449
1406.593950,-8586.388927,3294.210641,-592.164754
1406.594261,-9622.677246,995.924147,-148.041188
1406.594572,-9622.677246,-1149.143247,1184.329507
1406.594884,-7624.121203,-3217.601092,2516.700203
1406.595195,-7624.121203,-2757.943793,1480.411884
1406.595506,-9030.512492,842.705048,666.185348
1406.595818,-9548.656652,6205.373534,-0.000000
1406.596129,-9844.739029,8656.879127,-444.123565
1406.596440,-10807.006753,9882.631924,370.102971
1406.596752,-10362.883188,7814.174080,1184.329507
1406.597063,-8660.409521,4979.620737,592.164754
1406.597374,-7254.018232,3370.820191,1110.308913
1406.597686,-6439.791695,4519.963438,222.061783
1406.597997,-4663.297435,3677.258390,-370.102971
1406.598308,-5995.668130,1532.190996,370.102971
1406.598620,-7402.059420,-1225.752797,1406.391290
1406.598931,-7031.956449,-995.924147,296.082377
1406.599242,-9326.594869,3064.381992,-148.041188
1406.599554,-11399.171507,5056.230287,-296.082377
1406.599865,-12509.480420,5975.544884,-0.000000
1406.600176,-13101.645173,4979.620737,1480.411884
1406.600488,-12583.501014,2987.772442,2886.803174
1406.600799,-11103.089130,2528.115143,3182.885551
1406.601111,-8808.450710,2757.943793,1776.494261
1406.601422,-6069.688724,1915.238745,2072.576638
1406.601734,-3627.009116,-2068.457845,1406.391290
1406.602045,-3404.947333,-6052.154434,1110.308913
1406.602356,-4885.359217,-7048.078582,888.247130
1406.602668,-5995.668130,-3217.601092,-1184.329507
1406.602979,-7920.203579,2451.505594,-1036.288319
1406.603291,-11769.274478,4290.134789,-740.205942
1406.603602,-15914.427753,2221.676944,1110.308913
1406.603913,-18505.148550,1378.971896,2886.803174
1406.604225,-16950.716072,3524.039291,3108.864956
1406.604536,-12657.521608,5822.325785,2516.700203
1406.604848,-6365.771101,3907.087040,2146.597232
1406.605159,-2442.679609,-1302.362347,962.267725
1406.605471,370.102971,-4060.306139,-814.226536
1406.605782,1628.453072,-1378.971896,-1406.391290
1406.606093,-1924.535449,1762.019645,-1554.432478
1406.606405,-7994.224174,1608.800546,-888.247130
1406.606716,-14285.974681,-306.438199,370.102971
1406.607028,-17838.963202,-919.314598,962.267725
1406.607339,-16950.716072,919.314598,888.247130
1406.607651,-14508.036463,3524.039291,-0.000000
1406.607962,-11695.253884,1838.629195,-962.267725
1406.608273,-8512.368333,-1302.362347,-1628.453072
1406.608585,-5699.585753,-3370.820191,-1850.514855
1406.608896,-3330.926739,-2068.457845,-740.205942
1406.609208,-2738.761985,153.219100,444.123565
1406.609519,-5255.462188,-1455.581446,2590.720797
1406.609830,-9474.636058,-5056.230287,2960.823768
1406.610142,-11621.233289,-3524.039291,2960.823768
1406.610453,-11695.253884,4596.572988,1110.308913
1406.610765,-12139.377449,7354.516781,-1184.329507
1406.611076,-11843.295072,4366.744339,-3034.844362
1406.611388,-9548.656652,1762.019645,-3849.070898
1406.611699,-7550.100608,2604.724693,-4811.338623
1406.612010,-7698.141797,4749.792088,-3034.844362
1406.612322,-8956.491898,3447.429741,-444.123565
1406.612633,-11769.274478,-612.876398,2072.576638
1406.612945,-11991.336260,-4903.011187,4367.215058
1406.613256,-8438.347739,-3600.648841,5403.503377
1406.613567,-6883.915261,-612.876398,4219.173869
1406.613879,-5477.523971,-766.095498,1628.453072
1406.614190,-4441.235652,-2451.505594,-1480.411884
1406.614502,-4589.276840,-1532.190996,-2664.741391
1406.614813,-7105.977043,2987.772442,-3701.029710
1406.615125,-10288.862594,5975.544884,-1702.473667
1406.615436,-14656.077652,2451.505594,370.102971
1406.615747,-17246.798449,-1455.581446,3478.967927
1406.616059,-15100.201217,-1378.971896,4737.318029
1406.616370,-10732.986159,76.609550,3849.070898
1406.616682,-6217.729913,76.609550,3627.009116
1406.616993,-3478.967927,-3217.601092,2368.659014
1406.617305,-1184.329507,-6358.592633,222.061783
1406.617616,-296.082377,-2911.162892,-1110.308913
1406.617927,-2664.741391,1762.019645,-1406.391290
1406.618239,-8142.265362,2145.067394,-74.020594
1406.618550,-13841.851115,-995.924147,2072.576638
1406.618862,-16062.468941,-3140.991542,2664.741391
1406.619173,-14137.933492,-1838.629195,2516.700203
1406.619484,-10807.006753,0.000000,2516.700203
1406.619796,-9326.594869,-2068.457845,888.247130
1406.620107,-5995.668130,-5975.544884,-0.000000
1406.620419,-3627.009116,-6894.859482,-1184.329507
1406.620730,-4293.194464,-2757.943793,-74.020594
1406.621042,-6661.853478,1302.362347,-0.000000
1406.621353,-10140.821405,1149.143247,1258.350101
1406.621664,-12361.439231,-1225.752797,2220.617826
1406.621976,-11621.233289,153.219100,1998.556043
1406.622287,-10658.965565,4749.792088,888.247130
1406.622599,-10732.986159,4903.011187,-1184.329507
1406.622910,-9178.553681,2681.334243,-2368.659014
1406.623221,-8142.265362,919.314598,-3627.009116
1406.623533,-7476.080014,2681.334243,-3108.864956
1406.623844,-8364.327145,3983.696590,-1406.391290
1406.624156,-10807.006753,1608.800546,222.061783
1406.624467,-13249.686362,-2987.772442,2960.823768
1406.624779,-13841.851115,-4136.915689,3923.091493
1406.625090,-11177.109724,0.000000,2516.700203
1406.625401,-8586.388927,2757.943793,666.185348
1406.625713,-6513.812290,689.485948,-1998.556043
1406.626024,-4515.256246,-1991.848295,-4367.215058
1406.626336,-4959.379811,-383.047749,-4811.338623
1406.626647,-5551.544565,4213.525239,-3478.967927
1406.626959,-10288.862594,4290.134789,-1258.350101
1406.627270,-14582.057057,0.000000,2516.700203
1406.627581,-14656.077652,-3753.867940,5329.482782
1406.627893,-12731.542202,-2757.943793,5699.585753
1406.628204,-9252.574275,1149.143247,4219.173869
1406.628516,-7031.956449,2987.772442,1628.453072
1406.628827,-4145.153275,1455.581446,-1776.494261
1406.629138,-2072.576638,1225.752797,-3182.885551
1406.629450,-1554.432478,3447.429741,-4219.173869
1406.629761,-4071.132681,4903.011187,-3108.864956
1406.630073,-9104.533087,2451.505594,-1110.308913
1406.630384,-13027.624579,-2374.896044,2294.638420
1406.630696,-14285.974681,-3753.867940,3849.070898
1406.631007,-13767.830521,-1838.629195,4959.379811
1406.631318,-11473.192101,-689.485948,5107.421000
1406.631630,-9474.636058,-4060.306139,3849.070898
1406.631941,-5403.503377,-6435.202183,1110.308913
1406.632253,-3478.967927,-3907.087040,518.144159
1406.632564,-2368.659014,612.876398,-1924.535449
1406.632875,-4885.359217,1915.238745,-222.061783
1406.633187,-9474.636058,-1532.190996,1554.432478
1406.633498,-11325.150913,-4519.963438,2886.803174
1406.633810,-13101.645173,-2451.505594,1850.514855
1406.634121,-11399.171507,995.924147,2738.761985
1406.634433,-11473.192101,1378.971896,-0.000000
1406.634744,-10436.903782,-2757.943793,-518.144159
1406.635055,-7698.141797,-3677.258390,-1258.350101
1406.635367,-6957.935855,-1378.971896,-370.102971
1406.635678,-8290.306550,689.485948,666.185348
1406.635990,-10436.903782,-612.876398,3108.864956
1406.636301,-11843.295072,-3677.258390,3552.988522
1406.636613,-11547.212695,-3907.087040,3997.112087
1406.636924,-9696.697840,612.876398,3182.885551
1406.637235,-8734.430116,2757.943793,-0.000000
1406.637547,-7402.059420,1532.190996,-2886.803174
1406.637858,-5255.462188,-995.924147,-4219.173869
1406.638170,-5699.585753,0.000000,-5033.400406
1406.638481,-6883.915261,3600.648841,-3108.864956
1406.638792,-11177.109724,3294.210641,-740.205942
1406.639104,-14878.139434,-842.705048,3182.885551
1406.639415,-14730.098246,-2834.553343,4959.379811
1406.639727,-13693.809927,-229.828649,3997.112087
1406.640038,-10140.821405,4290.134789,2220.617826
1406.640350,-7031.956449,3907.087040,-1332.370696
1406.640661,-4367.215058,1762.019645,-3923.091493
1406.640972,-2664.741391,1608.800546,-5625.565159
1406.641284,-2664.741391,4136.915689,-5477.523971
1406.641595,-5921.647536,4903.011187,-3923.091493
1406.641907,-10362.883188,2604.724693,-666.185348
1406.642218,-13249.686362,-1685.410096,2590.720797
1406.642529,-14137.933492,-2911.162892,4663.297435
1406.642841,-12953.603985,-383.047749,4737.318029
1406.643152,-10288.862594,766.095498,3478.967927
1406.643464,-7994.224174,-1532.190996,1554.432478
1406.643775,-5181.441594,-2834.553343,-962.267725
1406.644087,-2294.638420,-153.219100,-2442.679609
1406.644398,-2368.659014,2145.067394,-3775.050304
1406.644709,-5551.544565,1838.629195,-1258.350101
1406.645021,-9104.533087,-2068.457845,888.247130
1406.645332,-13101.645173,-4443.353888,2738.761985
1406.645644,-13619.789333,-1302.362347,3478.967927
1406.645955,-11325.150913,1915.238745,3330.926739
1406.646267,-11325.150913,919.314598,1332.370696
1406.646578,-8438.347739,-2528.115143,1110.308913
1406.646889,-5181.441594,-3370.820191,-814.226536
1406.647201,-4959.379811,-459.657299,-370.102971
1406.647512,-6587.832884,2528.115143,592.164754
1406.647824,-9104.533087,919.314598,1776.494261
1406.648135,-11695.253884,-3370.820191,2738.761985
1406.648446,-11621.233289,-5056.230287,3923.091493
1406.648758,-11325.150913,-1915.238745,2072.576638
1406.649069,-10362.883188,76.609550,-0.000000
1406.649381,-8882.471304,-1225.752797,-1554.432478
1406.649692,-7624.121203,-3370.820191,-2146.597232
1406.650004,-7105.977043,-2834.553343,-1702.473667
1406.650315,-8438.347739,-153.219100,370.102971
1406.650626,-12213.398043,229.828649,2368.659014
1406.650938,-14063.912898,-1532.190996,4811.338623
1406.651249,-14656.077652,-2145.067394,5107.421000
1406.651561,-11103.089130,459.657299,4367.215058
1406.651872,-7402.059420,2757.943793,1850.514855
1406.652183,-5921.647536,1838.629195,-1406.391290
1406.652495,-4219.173869,306.438199,-4219.173869
1406.652806,-3552.988522,1685.410096,-5773.606348
1406.653118,-5699.585753,4903.011187,-4811.338623
1406.653429,-8808.450710,4903.011187,-1924.535449
1406.653741,-13767.830521,1915.238745,1110.308913
1406.654052,-15544.324782,-1685.410096,4811.338623
1406.654363,-13693.809927,-995.924147,5847.626942
1406.654675,-11843.295072,2068.457845,4367.215058
1406.654986,-7994.224174,2911.162892,2072.576638
1406.655298,-4663.297435,1225.752797,-1850.514855
1406.655609,-3182.885551,-459.657299,-3849.070898
1406.655921,-1480.411884,1838.629195,-5033.400406
1406.656232,-3849.070898,5822.325785,-5403.503377
1406.656543,-8216.285956,3600.648841,-2960.823768
1406.656855,-11695.253884,0.000000,814.226536
1406.657166,-14137.933492,-1762.019645,2960.823768
1406.657478,-12287.418637,766.095498,4663.297435
1406.657789,-11251.130318,2911.162892,3108.864956
1406.658100,-9696.697840,995.924147,1406.391290
1406.658412,-6587.832884,306.438199,-1480.411884
1406.658723,-4441.235652,1225.752797,-2812.782580
1406.659035,-2664.741391,2451.505594,-3256.906145
1406.659346,-4959.379811,1455.581446,-888.247130
1406.659658,-9548.656652,-2298.286494,444.123565
1406.659969,-11695.253884,-5362.668486,2812.782580
1406.660280,-12361.439231,-3830.477490,2738.761985
1406.660592,-12139.377449,-766.095498,2220.617826
1406.660903,-11621.233289,-383.047749,370.102971
1406.661215,-9104.533087,-4136.915689,-1036.288319
1406.661526,-6217.729913,-4136.915689,-888.247130
1406.661837,-5329.482782,-2068.457845,-0.000000
1406.662149,-8142.265362,-919.314598,666.185348
1406.662460,-10807.006753,-3140.991542,3627.009116
1406.662772,-13101.645173,-5898.935335,5181.441594
1406.663083,-12065.356855,-7048.078582,5995.668130
1406.663395,-10881.027347,-2834.553343,3627.009116
1406.663706,-9474.636058,995.924147,888.247130
1406.664017,-8216.285956,-306.438199,-1850.514855
1406.664329,-5551.544565,-2298.286494,-3923.091493
1406.664640,-4959.379811,-612.876398,-4293.194464
1406.664952,-6883.915261,2834.553343,-2664.741391
1406.665263,-10881.027347,3370.820191,-0.000000
1406.665575,-14434.015869,-153.219100,2812.782580
1406.665886,-15618.345376,-2374.896044,5255.462188
1406.666197,-14137.933492,-459.657299,5255.462188
1406.666509,-10658.965565,2298.286494,3404.947333
1406.666820,-7179.997637,2298.286494,1184.329507
1406.667132,-4219.173869,383.047749,-1998.556043
1406.667443,-2368.659014,-229.828649,-3701.029710
1406.667754,-2442.679609,1608.800546,-3627.009116
1406.668066,-5773.606348,3677.258390,-2812.782580
1406.668377,-10510.924376,3140.991542,444.123565
1406.668689,-14656.077652,-1072.533697,3552.988522
1406.669000,-15544.324782,-842.705048,4367.215058
1406.669312,-13619.789333,3677.258390,4737.318029
1406.669623,-12361.439231,4903.011187,2368.659014
1406.669934,-7254.018232,3064.381992,-222.061783
1406.670246,-3182.885551,1455.581446,-2812.782580
1406.670557,-1258.350101,2604.724693,-4441.235652
1406.670869,-1036.288319,6052.154434,-3997.112087
1406.671180,-5329.482782,5745.716235,-1406.391290
1406.671491,-9104.533087,612.876398,592.164754
1406.671803,-11695.253884,-2451.505594,3034.844362
1406.672114,-11621.233289,0.000000,3330.926739
1406.672426,-10584.944971,3677.258390,1924.535449
1406.672737,-9030.512492,2068.457845,296.082377
1406.673049,-7031.956449,-1378.971896,-1924.535449
1406.673360,-4737.318029,-1072.533697,-2664.741391
1406.673671,-3478.967927,2145.067394,-1554.432478
1406.673983,-6291.750507,2221.676944,296.082377
1406.674294,-11251.130318,-919.314598,2738.761985
1406.674606,-12953.603985,-4443.353888,4811.338623
1406.674917,-12805.562797,-4443.353888,5181.441594
1406.675229,-10881.027347,-1532.190996,3108.864956
1406.675540,-8808.450710,76.609550,592.164754
1406.675851,-6957.935855,-2221.676944,-2146.597232
1406.676163,-4589.276840,-4213.525239,-2812.782580
1406.676474,-5477.523971,-2681.334243,-2368.659014
1406.676786,-8216.285956,536.266849,-518.144159
1406.677097,-12361.439231,-766.095498,1776.494261
1406.677408,-15322.262999,-4366.744339,4367.215058
1406.677720,-15544.324782,-6435.202183,5107.421000
1406.678031,-12657.521608,-3370.820191,4367.215058
1406.678343,-9844.739029,-1378.971896,2072.576638
1406.678654,-7698.141797,-2374.896044,-592.164754
1406.678966,-5625.565159,-4366.744339,-2368.659014
1406.679277,-4367.215058,-4136.915689,-3552.988522
1406.679588,-5403.503377,-1072.533697,-2886.803174
1406.679900,-9770.718434,-612.876398,-1110.308913
1406.680211,-13619.789333,-1762.019645,1702.473667
1406.680523,-16136.489536,-3140.991542,3478.967927
1406.680834,-15988.448347,-1378.971896,5107.421000
1406.681145,-12879.583391,1762.019645,4441.235652
1406.681457,-10288.862594,2145.067394,2220.617826
1406.681768,-6957.935855,306.438199,-592.164754
1406.682080,-3108.864956,-306.438199,-2590.720797
1406.682391,-1850.514855,3140.991542,-4145.153275
1406.682703,-3330.926739,6205.373534,-3701.029710
1406.683014,-8364.327145,5209.449386,-1776.494261
1406.683325,-12583.501014,1455.581446,962.267725
1406.683637,-14285.974681,306.438199,2738.761985
1406.683948,-13693.809927,2681.334243,2886.803174
1406.684260,-9252.574275,4673.182538,2072.576638
1406.684571,-7624.121203,2681.334243,-740.205942
1406.684883,-4293.194464,383.047749,-1850.514855
1406.685194,-1258.350101,1378.971896,-3701.029710
1406.685505,-2738.761985,4673.182538,-2442.679609
1406.685817,-6365.771101,4979.620737,-0.000000
1406.686128,-11325.150913,1532.190996,2146.597232
1406.686440,-13471.748144,-1378.971896,3404.947333
1406.686751,-12657.521608,-612.876398,3108.864956
1406.687062,-9326.594869,2834.553343,2516.700203
1406.687374,-7402.059420,2681.334243,-1184.329507
1406.687685,-5625.565159,0.000000,-2664.741391
1406.687997,-3108.864956,-1149.143247,-3775.050304
1406.688308,-3997.112087,1149.143247,-2368.659014
1406.688620,-6661.853478,3140.991542,814.226536
1406.688931,-11473.192101,0.000000,2960.823768
1406.689242,-14359.995275,-4060.306139,4959.379811
1406.689554,-13249.686362,-4136.915689,5921.647536
1406.689865,-11399.171507,-1608.800546,4367.215058
1406.690177,-7402.059420,383.047749,2516.700203
1406.690488,-6143.709319,-3600.648841,-148.041188
1406.690799,-4367.215058,-6818.249932,-1332.370696
1406.691111,-2886.803174,-4903.011187,-2368.659014
1406.691422,-5773.606348,-1608.800546,-1628.453072
1406.691734,-10732.986159,-229.828649,740.205942
1406.692045,-14952.160028,-4060.306139,4071.132681
1406.692357,-15470.304188,-6052.154434,5107.421000
1406.692668,-14878.139434,-3370.820191,5107.421000
1406.692979,-12657.521608,-459.657299,2812.782580
1406.693291,-9622.677246,-995.924147,518.144159
1406.693602,-7772.162391,-3217.601092,-2146.597232
1406.693914,-5477.523971,-2911.162892,-3775.050304
1406.694225,-5181.441594,229.828649,-4219.173869
1406.694537,-8364.327145,1838.629195,-2146.597232
1406.694848,-11843.295072,995.924147,444.123565
1406.695159,-13619.789333,-2834.553343,3330.926739
1406.695471,-14211.954086,-2528.115143,3552.988522
1406.695782,-11695.253884,1149.143247,2960.823768
1406.696094,-8438.347739,2911.162892,1258.350101
1406.696405,-7031.956449,612.876398,-666.185348
1406.696716,-5181.441594,-919.314598,-2220.617826
1406.697028,-4959.379811,1149.143247,-3404.947333
1406.697339,-7105.977043,4213.525239,-1776.494261
1406.697651,-10214.842000,4596.572988,-0.000000
1406.697962,-13989.892304,536.266849,2664.741391
1406.698274,-14211.954086,-1762.019645,3923.091493
1406.698585,-11473.192101,459.657299,3108.864956
1406.698896,-8808.450710,4213.525239,962.267725
1406.699208,-7105.977043,4290.134789,-1776.494261
1406.699519,-3256.906145,3064.381992,-4293.194464
1406.699831,-1406.391290,3907.087040,-4811.338623
1406.700142,-1924.535449,5362.668486,-3478.967927
1406.700454,-5551.544565,5515.887586,-814.226536
1406.700765,-11325.150913,2145.067394,1776.494261
1406.701077,-13101.645173,-1072.533697,3330.926739
1406.701388,-12065.356855,-459.657299,3775.050304
1406.701699,-9178.553681,2068.457845,2146.597232
1406.702011,-6661.853478,2911.162892,-0.000000
1406.702322,-4737.318029,-1838.629195,-2146.597232
1406.702634,-2664.741391,-3447.429741,-3404.947333
1406.702945,-3182.885551,-919.314598,-2368.659014
1406.703257,-6439.791695,1532.190996,-888.247130
1406.703568,-12361.439231,-229.828649,2590.720797
1406.703880,-15840.407159,-4213.525239,6143.709319
1406.704191,-14285.974681,-5592.497135,7624.121203
1406.704502,-12657.521608,-2757.943793,6217.729913
1406.704814,-9548.656652,229.828649,4071.132681
1406.705125,-6513.812290,-1378.971896,444.123565
1406.705437,-4071.132681,-4596.572988,-1406.391290
1406.705748,-2664.741391,-3983.696590,-2590.720797
1406.706060,-4367.215058,-306.438199,-2072.576638
1406.706371,-8438.347739,612.876398,-222.061783
1406.706683,-13915.871710,-3524.039291,2294.638420
1406.706994,-14359.995275,-6435.202183,4145.153275
1406.707306,-14211.954086,-4903.011187,3182.885551
1406.707617,-12583.501014,-1991.848295,2738.761985
1406.707928,-10214.842000,-1532.190996,-148.041188
1406.708240,-8512.368333,-3907.087040,-2072.576638
1406.708551,-6439.791695,-4903.011187,-1702.473667
1406.708863,-7179.997637,-2757.943793,-2442.679609
1406.709174,-9622.677246,153.219100,-518.144159
1406.709486,-13545.768739,689.485948,1258.350101
1406.709797,-15396.283594,-1685.410096,2812.782580
1406.710109,-14878.139434,-2374.896044,3552.988522
1406.710420,-12065.356855,689.485948,2812.782580
1406.710732,-8808.450710,3677.258390,370.102971
1406.711043,-6069.688724,3370.820191,-2220.617826
1406.711354,-4367.215058,2145.067394,-3404.947333
1406.711666,-2960.823768,2911.162892,-3478.967927
1406.711977,-4589.276840,6052.154434,-2294.638420
1406.712289,-8364.327145,5056.230287,-0.000000
1406.712600,-12953.603985,1378.971896,1776.494261
1406.712912,-13545.768739,-459.657299,3108.864956
1406.713223,-11917.315666,995.924147,2664.741391
1406.713535,-8808.450710,3983.696590,1702.473667
1406.713846,-5329.482782,2911.162892,-1184.329507
1406.714158,-3552.988522,919.314598,-3108.864956
1406.714469,-518.144159,1149.143247,-4071.132681
1406.714780,-1406.391290,4290.134789,-3256.906145
1406.715092,-5255.462188,6741.640382,-1258.350101
1406.715403,-9696.697840,4290.134789,1924.535449
1406.715715,-12953.603985,0.000000,4441.235652
1406.716026,-13619.789333,-1532.190996,4663.297435
1406.716338,-11991.336260,2757.943793,3701.029710
1406.716649,-9622.677246,3677.258390,1110.308913
1406.716961,-6661.853478,1302.362347,-1480.411884
1406.717272,-3701.029710,-1225.752797,-2220.617826
1406.717583,-3330.926739,-1225.752797,-3182.885551
1406.717895,-4737.318029,1608.800546,-1184.329507
1406.718206,-9400.615463,1455.581446,1332.370696
1406.718518,-13397.727550,-2451.505594,4515.256246
1406.718829,-13989.892304,-4673.182538,5033.400406
1406.719141,-12435.459826,-3064.381992,4663.297435
1406.719452,-10510.924376,76.609550,3034.844362
1406.719764,-7772.162391,-1608.800546,1702.473667
1406.720075,-5847.626942,-4673.182538,-518.144159
1406.720387,-3701.029710,-5515.887586,-962.267725
1406.720698,-5033.400406,-3294.210641,-1480.411884
1406.721009,-7920.203579,-2528.115143,370.102971
1406.721321,-12361.439231,-4826.401637,2812.782580
1406.721632,-16358.551318,-7584.345430,4071.132681
1406.721944,-15100.201217,-6511.811733,4071.132681
1406.722255,-13767.830521,-1838.629195,2442.679609
1406.722567,-11621.233289,-689.485948,148.041188
1406.722878,-8586.388927,-2604.724693,-1924.535449
1406.723190,-5995.668130,-4366.744339,-3330.926739
1406.723501,-4589.276840,-1532.190996,-2886.803174
1406.723813,-6143.709319,3983.696590,-2146.597232
1406.724124,-10436.903782,2451.505594,-74.020594
1406.724435,-13693.809927,-766.095498,2146.597232
1406.724747,-13693.809927,-3830.477490,3627.009116
1406.725058,-13101.645173,-1532.190996,3330.926739
1406.725370,-10658.965565,1991.848295,2220.617826
1406.725681,-8068.244768,459.657299,-962.267725
1406.725993,-7179.997637,-1762.019645,-3256.906145
1406.726304,-4293.194464,-919.314598,-3182.885551
1406.726616,-4515.256246,3677.258390,-3108.864956
1406.726927,-7402.059420,5132.839837,-814.226536
1406.727239,-10288.862594,2451.505594,2072.576638
1406.727550,-12731.542202,-842.705048,3849.070898
1406.727861,-12213.398043,383.047749,4367.215058
1406.728173,-10436.903782,5515.887586,2812.782580
1406.728484,-7920.203579,7201.297681,-370.102971
1406.728796,-5329.482782,5056.230287,-3478.967927
1406.729107,-2368.659014,3524.039291,-4663.297435
1406.729419,-1554.432478,4749.792088,-5847.626942
1406.729730,-4367.215058,7890.783629,-3330.926739
1406.730042,-8734.430116,5515.887586,-148.041188
1406.730353,-12361.439231,153.219100,2368.659014
1406.730664,-12509.480420,-1302.362347,3256.906145
1406.730976,-10807.006753,1685.410096,3330.926739
1406.731287,-8438.347739,3064.381992,2960.823768
1406.731599,-6439.791695,153.219100,-0.000000
1406.731910,-4811.338623,-2528.115143,-1406.391290
1406.732222,-3034.844362,-3140.991542,-2590.720797
1406.732533,-4071.132681,536.266849,-1480.411884
1406.732845,-9104.533087,1838.629195,1554.432478
1406.733156,-14211.954086,-1762.019645,3775.050304
1406.733468,-15618.345376,-5286.058936,6291.750507
1406.733779,-14508.036463,-3447.429741,5477.523971
1406.734090,-11251.130318,842.705048,4293.194464
1406.734402,-8660.409521,1532.190996,1332.370696
1406.734713,-6143.709319,-1991.848295,-592.164754
1406.735025,-2442.679609,-3983.696590,-1554.432478
1406.735336,-2516.700203,-1915.238745,-1998.556043
1406.735648,-5625.565159,919.314598,-1184.329507
1406.735959,-10955.047942,-995.924147,1406.391290
1406.736271,-14804.118840,-5975.544884,5033.400406
1406.736582,-14508.036463,-7660.954980,5403.503377
1406.736894,-12879.583391,-3830.477490,4367.215058
1406.737205,-9992.780217,-1762.019645,1554.432478
1406.737516,-8586.388927,-3907.087040,-1480.411884
1406.737828,-6365.771101,-4749.792088,-3108.864956
1406.738139,-4441.235652,-3294.210641,-3552.988522
1406.738451,-7105.977043,0.000000,-2664.741391
1406.738762,-10510.924376,459.657299,518.144159
1406.739074,-14656.077652,-2681.334243,2886.803174
1406.739385,-16802.674883,-4673.182538,4219.173869
1406.739697,-14952.160028,-1991.848295,4145.153275
1406.740008,-11991.336260,2298.286494,1998.556043
1406.740320,-8882.471304,2987.772442,-0.000000
1406.740631,-5995.668130,842.705048,-2664.741391
1406.740942,-4145.153275,842.705048,-3923.091493
1406.741254,-4367.215058,4136.915689,-4367.215058
1406.741565,-5995.668130,7431.126331,-1850.514855
1406.741877,-9992.780217,5745.716235,-0.000000
1406.742188,-13471.748144,1149.143247,1850.514855
1406.742500,-12805.562797,459.657299,2442.679609
1406.742811,-9770.718434,4290.134789,814.226536
1406.743123,-7328.038826,6358.592633,-1036.288319
1406.743434,-6143.709319,4060.306139,-2664.741391
1406.743746,-2812.782580,383.047749,-4737.318029
1406.744057,-1036.288319,1608.800546,-3997.112087
1406.744368,-3552.988522,4519.963438,-2664.741391
1406.744680,-8660.409521,4519.963438,444.123565
1406.744991,-12953.603985,842.705048,2738.761985
1406.745303,-14359.995275,-1302.362347,4293.194464
1406.745614,-11695.253884,0.000000,4071.132681
1406.745926,-9400.615463,3830.477490,1850.514855
1406.746237,-8660.409521,3064.381992,-962.267725
1406.746549,-5699.585753,76.609550,-2738.761985
1406.746860,-3256.906145,-689.485948,-3478.967927
1406.747171,-3330.926739,2145.067394,-2590.720797
1406.747483,-7105.977043,3983.696590,-370.102971
1406.747794,-12509.480420,-1225.752797,3552.988522
1406.748106,-13101.645173,-5132.839837,7031.956449
1406.748417,-12065.356855,-4749.792088,6439.791695
1406.748729,-10584.944971,-1455.581446,4663.297435
1406.749040,-8734.430116,-766.095498,2738.761985
1406.749352,-6513.812290,-3907.087040,296.082377
1406.749663,-3330.926739,-6358.592633,-518.144159
1406.749975,-2368.659014,-4213.525239,-1628.453072
1406.750286,-5181.441594,-995.924147,-1110.308913
1406.750597,-11843.295072,-1991.848295,1850.514855
1406.750909,-15692.365970,-5745.716235,3923.091493
1406.751220,-15396.283594,-5975.544884,5699.585753
1406.751532,-14063.912898,-2681.334243,5033.400406
1406.751843,-11843.295072,-459.657299,2738.761985
1406.752155,-9696.697840,-1532.190996,-0.000000
1406.752466,-5255.462188,-1991.848295,-1702.473667
1406.752778,-2664.741391,-1532.190996,-2590.720797
1406.753089,-4145.153275,383.047749,-3404.947333
1406.753401,-8290.306550,1685.410096,-962.267725
1406.753712,-13693.809927,0.000000,814.226536
1406.754023,-15766.386565,-3524.039291,3478.967927
1406.754335,-15766.386565,-3447.429741,3330.926739
1406.754646,-14508.036463,76.609550,2516.700203
1406.754958,-11103.089130,1685.410096,592.164754
1406.755269,-8216.285956,-1149.143247,-1850.514855
1406.755581,-4515.256246,-842.705048,-3034.844362
1406.755892,-2960.823768,2681.334243,-3330.926739
1406.756204,-4145.153275,5822.325785,-2590.720797
1406.756515,-8142.265362,4136.915689,-222.061783
1406.756827,-12435.459826,1302.362347,1554.432478
1406.757138,-14211.954086,919.314598,2664.741391
1406.757449,-13323.706956,4366.744339,1702.473667
1406.757761,-10658.965565,6588.421283,222.061783
1406.758072,-7476.080014,4443.353888,-2368.659014
1406.758384,-3478.967927,1378.971896,-3627.009116
1406.758695,-1480.411884,1455.581446,-4737.318029
1406.759007,-1998.556043,5132.839837,-3775.050304
1406.759318,-5181.441594,6741.640382,-888.247130
1406.759630,-9474.636058,2681.334243,2146.597232
1406.759941,-11177.109724,-766.095498,3849.070898
1406.760252,-11029.068536,-153.219100,3923.091493
1406.760564,-9696.697840,3294.210641,2294.638420
1406.760875,-7698.141797,2681.334243,296.082377
1406.761187,-6217.729913,-1225.752797,-2368.659014
1406.761498,-4811.338623,-2911.162892,-3034.844362
1406.761810,-4071.132681,-1378.971896,-2516.700203
1406.762121,-6883.915261,76.609550,-444.123565
1406.762433,-11917.315666,-1532.190996,4293.194464
1406.762744,-14730.098246,-5898.935335,5995.668130
1406.763056,-14582.057057,-5822.325785,6957.935855
1406.763367,-12509.480420,-2681.334243,6291.750507
1406.763678,-10510.924376,229.828649,3849.070898
1406.763990,-6291.750507,-689.485948,666.185348
1406.764301,-2590.720797,-3370.820191,-1110.308913
1406.764613,-1554.432478,-3370.820191,-2664.741391
1406.764924,-2886.803174,-459.657299,-2516.700203
1406.765236,-8068.244768,612.876398,-444.123565
1406.765547,-14952.160028,-3907.087040,2516.700203
1406.765859,-16876.695478,-6894.859482,5181.441594
1406.766170,-16136.489536,-5209.449386,5181.441594
1406.766482,-13767.830521,-2221.676944,3627.009116
1406.766793,-10288.862594,-3524.039291,1258.350101
1406.767104,-7179.997637,-5439.278036,-1184.329507
1406.767416,-3923.091493,-4749.792088,-2442.679609
1406.767727,-4293.194464,-1225.752797,-2886.803174
1406.768039,-7550.100608,842.705048,-518.144159
1406.768350,-12213.398043,-459.657299,1628.453072
1406.768662,-15174.221811,-3217.601092,3330.926739
1406.768973,-15248.242405,-2911.162892,3849.070898
1406.769285,-13027.624579,2298.286494,2886.803174
1406.769596,-10584.944971,5209.449386,148.041188
1406.769908,-7328.038826,3370.820191,-1776.494261
1406.770219,-4589.276840,612.876398,-2738.761985
1406.770530,-2368.659014,2068.457845,-3404.947333
1406.770842,-4293.194464,5592.497135,-2590.720797
1406.771153,-8364.327145,5898.935335,-1036.288319
1406.771465,-12435.459826,2604.724693,1036.288319
1406.771776,-13545.768739,229.828649,1924.535449
1406.772088,-11917.315666,1455.581446,1924.535449
1406.772399,-9474.636058,4596.572988,370.102971
1406.772711,-7624.121203,2987.772442,-1258.350101
1406.773022,-4811.338623,842.705048,-3108.864956
1406.773333,-1480.411884,536.266849,-3627.009116
1406.773645,-1406.391290,3064.381992,-2886.803174
1406.773956,-5255.462188,4596.572988,-518.144159
1406.774268,-10510.924376,2757.943793,1406.391290
1406.774579,-12065.356855,919.314598,2442.679609
1406.774891,-12139.377449,1378.971896,2886.803174
1406.775202,-10658.965565,4443.353888,1924.535449
1406.775514,-8882.471304,4060.306139,-0.000000
1406.775825,-7328.038826,153.219100,-2368.659014
1406.776137,-3849.070898,-2145.067394,-2516.700203
1406.776448,-2812.782580,-995.924147,-2886.803174
1406.776759,-5477.523971,842.705048,-1480.411884
1406.777071,-10288.862594,76.609550,1628.453072
1406.777382,-15396.283594,-3907.087040,4441.235652
1406.777694,-14285.974681,-5592.497135,6291.750507
1406.778005,-12731.542202,-2911.162892,6143.709319
1406.778317,-10881.027347,-842.705048,3997.112087
1406.778628,-7920.203579,-2451.505594,1850.514855
1406.778940,-4219.173869,-5669.106685,-296.082377
1406.779251,-2368.659014,-4903.011187,-2368.659014
1406.779563,-3923.091493,-919.314598,-1850.514855
1406.779874,-8808.450710,-229.828649,-962.267725
1406.780185,-14730.098246,-3983.696590,2294.638420
1406.780497,-16062.468941,-7354.516781,4663.297435
1406.780808,-15248.242405,-5745.716235,4959.379811
1406.781120,-14063.912898,-2374.896044,4145.153275
1406.781431,-10510.924376,-1991.848295,1924.535449
1406.781743,-7402.059420,-3677.258390,-740.205942
1406.782054,-5181.441594,-3140.991542,-2516.700203
1406.782366,-3849.070898,306.438199,-2960.823768
1406.782677,-5995.668130,2604.724693,-2146.597232
1406.782989,-10066.800811,2068.457845,518.144159
1406.783300,-13693.809927,-1608.800546,2590.720797
1406.783611,-14211.954086,-3600.648841,3627.009116
1406.783923,-13397.727550,-612.876398,3997.112087
1406.784234,-10881.027347,2451.505594,2294.638420
1406.784546,-8364.327145,1225.752797,-592.164754
1406.784857,-6513.812290,-1455.581446,-2294.638420
1406.785169,-4663.297435,0.000000,-2886.803174
1406.785480,-4219.173869,4519.963438,-3034.844362
1406.785792,-7402.059420,6052.154434,-1110.308913
1406.786103,-11695.253884,2911.162892,1480.411884
1406.786415,-12953.603985,0.000000,2368.659014
1406.786726,-11695.253884,1762.019645,2590.720797
1406.787037,-9030.512492,6281.983084,1554.432478
1406.787349,-7254.018232,6818.249932,-1406.391290
1406.787660,-5033.400406,4903.011187,-4071.132681
1406.787972,-2442.679609,4366.744339,-5477.523971
1406.788283,-1628.453072,5898.935335,-5403.503377
1406.788595,-3849.070898,7890.783629,-3182.885551
1406.788906,-9252.574275,4903.011187,-74.020594
1406.789218,-11917.315666,-153.219100,2590.720797
1406.789529,-12583.501014,-1455.581446,3701.029710
1406.789840,-12065.356855,1302.362347,3552.988522
1406.790152,-9326.594869,2451.505594,1998.556043
1406.790463,-7402.059420,-1302.362347,-518.144159
1406.790775,-4441.235652,-4366.744339,-2072.576638
1406.791086,-2590.720797,-3064.381992,-2738.761985
1406.791398,-4737.318029,-995.924147,-2072.576638
1406.791709,-8882.471304,-1532.190996,1998.556043
1406.792021,-13397.727550,-4596.572988,5255.462188
1406.792332,-15026.180623,-7354.516781,7105.977043
1406.792644,-14359.995275,-5056.230287,6365.771101
1406.792955,-11695.253884,0.000000,5255.462188
1406.793266,-8734.430116,689.485948,1998.556043
1406.793578,-4959.379811,-2834.553343,-962.267725
1406.793889,-3034.844362,-3830.477490,-2516.700203
1406.794201,-3478.967927,-1072.533697,-3775.050304
1406.794512,-5625.565159,995.924147,-1850.514855
1406.794824,-11399.171507,-1762.019645,962.267725
1406.795135,-16136.489536,-5822.325785,4071.132681
1406.795447,-16580.613101,-6511.811733,5773.606348
1406.795758,-14137.933492,-4443.353888,4663.297435
1406.796070,-11843.295072,-2604.724693,2516.700203
1406.796381,-8956.491898,-3907.087040,-0.000000
1406.796692,-5847.626942,-3753.867940,-2664.741391
1406.797004,-4737.318029,-2911.162892,-3256.906145
1406.797315,-5921.647536,1072.533697,-2960.823768
1406.797627,-9252.574275,1915.238745,-0.000000
1406.797938,-13249.686362,-1455.581446,2146.597232
1406.798250,-15840.407159,-3907.087040,3849.070898
1406.798561,-14359.995275,-612.876398,3330.926739
1406.798873,-11769.274478,4290.134789,2368.659014
1406.799184,-8882.471304,3983.696590,370.102971
1406.799496,-6513.812290,766.095498,-1776.494261
1406.799807,-5181.441594,383.047749,-2590.720797
1406.800118,-4071.132681,4903.011187,-2886.803174
1406.800430,-4885.359217,8810.098227,-2368.659014
1406.800741,-9326.594869,6358.592633,-296.082377
1406.801053,-11843.295072,1685.410096,1036.288319
1406.801364,-10807.006753,689.485948,1628.453072
1406.801676,-8068.244768,4290.134789,814.226536
1406.801987,-7179.997637,5822.325785,-666.185348
1406.802298,-6883.915261,2987.772442,-2738.761985
1406.802610,-3627.009116,995.924147,-4145.153275
1406.802921,-2294.638420,2451.505594,-4219.173869
1406.803233,-3552.988522,4749.792088,-2442.679609
1406.803544,-8142.265362,3753.867940,518.144159
1406.803855,-12509.480420,-612.876398,3256.906145
1406.804167,-12657.521608,-1608.800546,4663.297435
1406.804478,-11991.336260,153.219100,4071.132681
1406.804789,-10362.883188,3447.429741,2072.576638
1406.805101,-8438.347739,2757.943793,-444.123565
1406.805412,-5551.544565,-919.314598,-3108.864956
1406.805723,-3034.844362,-1149.143247,-4219.173869
1406.806035,-3108.864956,1608.800546,-2960.823768
1406.806346,-6735.874072,2451.505594,-296.082377
1406.806657,-12731.542202,-2911.162892,3775.050304
1406.806969,-15470.304188,-7354.516781,6291.750507
1406.807280,-14285.974681,-6435.202183,6883.915261
1406.807591,-11843.295072,-2834.553343,4959.379811
1406.807903,-9474.636058,-1762.019645,3256.906145
1406.808214,-7254.018232,-5515.887586,-444.123565
1406.808525,-3849.070898,-7354.516781,-2590.720797
1406.808837,-3330.926739,-5056.230287,-2960.823768
1406.809148,-5773.606348,-1991.848295,-1258.350101
1406.809459,-12213.398043,-2221.676944,1628.453072
1406.809771,-16358.551318,-6358.592633,4441.235652
1406.810082,-16284.530724,-6818.249932,5551.544565
1406.810394,-14434.015869,-3064.381992,5403.503377
1406.810705,-11399.171507,0.000000,3478.967927
1406.811016,-9474.636058,-612.876398,740.205942
1406.811328,-6809.894666,-2757.943793,-2072.576638
1406.811639,-4219.173869,-1072.533697,-3404.947333
1406.811950,-4515.256246,2374.896044,-3552.988522
1406.812262,-7846.182985,3140.991542,-1110.308913
1406.812573,-12139.377449,383.047749,814.226536
1406.812884,-14211.954086,-2528.115143,3108.864956
1406.813196,-14137.933492,-1608.800546,3404.947333
1406.813507,-11473.192101,3217.601092,3627.009116
1406.813818,-9844.739029,3983.696590,592.164754
1406.814130,-8216.285956,383.047749,-1110.308913
1406.814441,-3552.988522,0.000000,-2812.782580
1406.814752,-2738.761985,3524.039291,-3849.070898
1406.815064,-4293.194464,7354.516781,-2960.823768
1406.815375,-8512.368333,5439.278036,-518.144159
1406.815686,-11621.233289,842.705048,1480.411884
1406.815998,-12213.398043,76.609550,2812.782580
1406.816309,-11399.171507,4213.525239,2146.597232
1406.816620,-8808.450710,6588.421283,-0.000000
1406.816932,-7105.977043,4596.572988,-2294.638420
1406.817243,-4293.194464,919.314598,-4071.132681
1406.817555,-1110.308913,1838.629195,-5329.482782
1406.817866,-592.164754,5898.935335,-3552.988522
1406.818177,-5995.668130,6128.763984,-1406.391290
1406.818489,-11325.150913,919.314598,2738.761985
1406.818800,-13249.686362,-2145.067394,3701.029710
1406.819111,-13323.706956,0.000000,3404.947333
1406.819423,-11029.068536,3064.381992,2072.576638
1406.819734,-9474.636058,1608.800546,-0.000000
1406.820045,-6513.812290,-1991.848295,-2220.617826
1406.820357,-3923.091493,-3677.258390,-3404.947333
1406.820668,-4589.276840,-2451.505594,-2368.659014
1406.820979,-7476.080014,153.219100,592.164754
1406.821291,-13027.624579,-2604.724693,3627.009116
1406.821602,-15692.365970,-7431.126331,6883.915261
1406.821913,-14063.912898,-7890.783629,7105.977043
1406.822225,-12509.480420,-2374.896044,5329.482782
1406.822536,-9326.594869,1378.971896,2812.782580
1406.822847,-6217.729913,-1608.800546,-962.267725
1406.823159,-3701.029710,-4903.011187,-2146.597232
1406.823470,-2812.782580,-2374.896044,-3404.947333
1406.823781,-4145.153275,536.266849,-2220.617826
1406.824093,-10214.842000,0.000000,-518.144159
1406.824404,-15470.304188,-3830.477490,3256.906145
1406.824716,-16284.530724,-6435.202183,4589.276840
1406.825027,-15174.221811,-4443.353888,4737.318029
1406.825338,-12583.501014,-919.314598,3478.967927
1406.825650,-9844.739029,-1532.190996,888.247130
1406.825961,-7772.162391,-3907.087040,-740.205942
1406.826272,-4811.338623,-4290.134789,-1332.370696
1406.826584,-4367.215058,-919.314598,-2442.679609
1406.826895,-6735.874072,1302.362347,148.041188
1406.827206,-10288.862594,0.000000,2368.659014
1406.827518,-13915.871710,-3064.381992,4441.235652
1406.827829,-13027.624579,-1991.848295,4441.235652
1406.828140,-12287.418637,3753.867940,2812.782580
1406.828452,-9918.759623,6741.640382,-222.061783
1406.828763,-7698.141797,4673.182538,-2664.741391
1406.829074,-5107.421000,2987.772442,-4071.132681
1406.829386,-2442.679609,4596.572988,-5033.400406
1406.829697,-3701.029710,7814.174080,-3701.029710
1406.830008,-6883.915261,6971.469032,-814.226536
1406.830320,-10584.944971,3294.210641,1406.391290
1406.830631,-11769.274478,536.266849,2590.720797
1406.830943,-10510.924376,2451.505594,2368.659014
1406.831254,-7772.162391,5669.106685,1184.329507
1406.831565,-6143.709319,3370.820191,-1554.432478
1406.831877,-4293.194464,-306.438199,-2886.803174
1406.832188,-2294.638420,766.095498,-4367.215058
1406.832499,-2960.823768,3907.087040,-4441.235652
1406.832811,-6291.750507,5286.058936,-1036.288319
1406.833122,-11843.295072,1302.362347,1406.391290
1406.833433,-14359.995275,-2987.772442,3997.112087
1406.833745,-13915.871710,-2451.505594,4441.235652
1406.834056,-11843.295072,1072.533697,3404.947333
1406.834367,-9844.739029,2221.676944,1406.391290
1406.834679,-7105.977043,-1302.362347,-1998.556043
1406.834990,-3552.988522,-2911.162892,-2960.823768
1406.835301,-3330.926739,-1225.752797,-3849.070898
1406.835613,-5107.421000,1685.410096,-1850.514855
1406.835924,-9918.759623,-153.219100,1924.535449
1406.836235,-15544.324782,-5669.106685,4663.297435
1406.836547,-15470.304188,-7737.564530,6661.853478
1406.836858,-13101.645173,-3524.039291,5329.482782
1406.837169,-10288.862594,-919.314598,3997.112087
1406.837481,-8290.306550,-4443.353888,370.102971
1406.837792,-4737.318029,-6588.421283,-2072.576638
1406.838104,-3256.906145,-4519.963438,-3256.906145
1406.838415,-5255.462188,-919.314598,-1998.556043
1406.838726,-9400.615463,-766.095498,1332.370696
1406.839038,-15322.262999,-5209.449386,4219.173869
1406.839349,-16580.613101,-8427.050478,6291.750507
1406.839660,-14878.139434,-6511.811733,5625.565159
1406.839972,-11399.171507,-536.266849,3330.926739
1406.840283,-10066.800811,1378.971896,-0.000000
1406.840594,-7846.182985,-1685.410096,-2664.741391
1406.840906,-4885.359217,-2834.553343,-2516.700203
1406.841217,-4219.173869,383.047749,-2960.823768
1406.841528,-5477.523971,3600.648841,-888.247130
1406.841840,-9992.780217,2298.286494,1628.453072
1406.842151,-13027.624579,-2451.505594,3775.050304
1406.842462,-13175.665768,-4290.134789,3997.112087
1406.842774,-10658.965565,1455.581446,3701.029710
1406.843085,-8364.327145,4749.792088,1702.473667
1406.843396,-7550.100608,2604.724693,-1110.308913
1406.843708,-5033.400406,-306.438199,-3256.906145
1406.844019,-2590.720797,306.438199,-4293.194464
1406.844330,-4071.132681,3830.477490,-2590.720797
1406.844642,-7920.203579,5132.839837,-296.082377
1406.844953,-12139.377449,2987.772442,1776.494261
1406.845265,-14137.933492,612.876398,2738.761985
1406.845576,-12435.459826,2145.067394,2664.741391
1406.845887,-9178.553681,6358.592633,814.226536
1406.846199,-7624.121203,7048.078582,-2516.700203
1406.846510,-4219.173869,4903.011187,-4293.194464
1406.846821,-1480.411884,3064.381992,-5847.626942
1406.847133,-1628.453072,5515.887586,-4959.379811
1406.847444,-4219.173869,7201.297681,-2516.700203
1406.847755,-9548.656652,2987.772442,444.123565
1406.848067,-13397.727550,-1838.629195,2886.803174
1406.848378,-14508.036463,-1991.848295,3404.947333
1406.848689,-12435.459826,842.705048,2590.720797
1406.849001,-10658.965565,1685.410096,814.226536
1406.849312,-8438.347739,-2451.505594,-962.267725
1406.849623,-5625.565159,-4979.620737,-2368.659014
1406.849935,-5033.400406,-4673.182538,-2812.782580
1406.850246,-6143.709319,-383.047749,-592.164754
1406.850557,-10584.944971,0.000000,2294.638420
1406.850869,-15322.262999,-3753.867940,4441.235652
1406.851180,-14656.077652,-6052.154434,5995.668130
1406.851491,-12213.398043,-3524.039291,5181.441594
1406.851803,-9770.718434,-229.828649,3108.864956
1406.852114,-8216.285956,-766.095498,592.164754
1406.852426,-5551.544565,-4213.525239,-740.205942
1406.852737,-3108.864956,-5515.887586,-2220.617826
1406.853048,-3701.029710,-2528.115143,-1702.473667
1406.853360,-7772.162391,-995.924147,-222.061783
1406.853671,-13323.706956,-3217.601092,2516.700203
1406.853982,-14878.139434,-6971.469032,4293.194464
1406.854294,-14063.912898,-5975.544884,4589.276840
1406.854605,-11399.171507,-1838.629195,4293.194464
1406.854916,-9474.636058,-842.705048,1480.411884
1406.855228,-7698.141797,-3217.601092,-888.247130
1406.855539,-5329.482782,-3830.477490,-2368.659014
1406.855850,-3997.112087,-383.047749,-2664.741391
1406.856162,-6069.688724,2604.724693,-1184.329507
1406.856473,-11177.109724,2451.505594,1406.391290
1406.856784,-14508.036463,-1685.410096,4071.132681
1406.857096,-14730.098246,-2681.334243,4515.256246
1406.857407,-12435.459826,1532.190996,4737.318029
1406.857718,-9474.636058,5362.668486,2368.659014
1406.858030,-7179.997637,4903.011187,-962.267725
1406.858341,-4663.297435,1915.238745,-3034.844362
1406.858652,-2368.659014,2757.943793,-3923.091493
1406.858964,-2886.803174,6665.030833,-4145.153275
1406.859275,-6883.915261,7890.783629,-2072.576638
1406.859587,-10881.027347,4213.525239,-0.000000
1406.859898,-12583.501014,689.485948,1332.370696
1406.860209,-11843.295072,383.047749,2220.617826
1406.860521,-9474.636058,3294.210641,1332.370696
1406.860832,-8216.285956,3830.477490,-148.041188
1406.861143,-7476.080014,842.705048,-2442.679609
1406.861455,-4589.276840,-153.219100,-3330.926739
1406.861766,-3701.029710,2298.286494,-3108.864956
1406.862077,-4885.359217,4673.182538,-1258.350101
1406.862389,-9770.718434,2911.162892,888.247130
1406.862700,-13249.686362,-919.314598,2294.638420
1406.863011,-12657.521608,-689.485948,3849.070898
1406.863323,-11547.212695,1685.410096,3182.885551
1406.863634,-9474.636058,2911.162892,1924.535449
1406.863945,-8512.368333,1149.143247,-1850.514855
1406.864257,-5477.523971,-1991.848295,-2442.679609
1406.864568,-2812.782580,-1608.800546,-3034.844362
1406.864879,-4515.256246,995.924147,-1702.473667
1406.865191,-8364.327145,842.705048,1258.350101
1406.865502,-14137.933492,-4749.792088,4145.153275
1406.865813,-14508.036463,-7890.783629,6217.729913
1406.866125,-12287.418637,-4903.011187,4885.359217
1406.866436,-10140.821405,-1302.362347,3404.947333
1406.866748,-8660.409521,-2451.505594,1406.391290
1406.867059,-6217.729913,-5592.497135,-1554.432478
1406.867370,-4441.235652,-4749.792088,-2886.803174
1406.867682,-3923.091493,-1762.019645,-1998.556043
1406.867993,-7476.080014,-1532.190996,518.144159
1406.868304,-13101.645173,-4749.792088,3182.885551
1406.868616,-16654.633695,-6741.640382,4811.338623
1406.868927,-15544.324782,-5056.230287,4737.318029
1406.869238,-13175.665768,-229.828649,3108.864956
1406.869550,-11917.315666,919.314598,1554.432478
1406.869861,-9770.718434,-1225.752797,-740.205942
1406.870172,-5551.544565,-2451.505594,-2590.720797
1406.870484,-3775.050304,-459.657299,-3478.967927
1406.870795,-4515.256246,2757.943793,-2664.741391
1406.871106,-7920.203579,2221.676944,-592.164754
1406.871418,-10658.965565,-1608.800546,2442.679609
1406.871729,-12953.603985,-4979.620737,4737.318029
1406.872040,-12731.542202,-1991.848295,4219.173869
1406.872352,-11103.089130,3294.210641,2368.659014
1406.872663,-9992.780217,3217.601092,-222.061783
1406.872974,-7476.080014,536.266849,-2220.617826
1406.873286,-4737.318029,1532.190996,-3182.885551
1406.873597,-3701.029710,5439.278036,-3775.050304
1406.873909,-4663.297435,7737.564530,-1776.494261
1406.874220,-8438.347739,5056.230287,592.164754
1406.874531,-11547.212695,1685.410096,2442.679609
1406.874843,-11991.336260,2068.457845,2072.576638
1406.875154,-10510.924376,5056.230287,1406.391290
1406.875465,-7994.224174,6971.469032,-444.123565
1406.875777,-7179.997637,4903.011187,-3478.967927
1406.876088,-4737.318029,2451.505594,-4515.256246
1406.876399,-4219.173869,2451.505594,-4367.215058
1406.876711,-4737.318029,6128.763984,-1776.494261
1406.877022,-7846.182985,4903.011187,518.144159
1406.877333,-11547.212695,153.219100,2886.803174
1406.877645,-12583.501014,-2528.115143,3775.050304
1406.877956,-11399.171507,76.609550,3182.885551
1406.878267,-8586.388927,3447.429741,1628.453072
1406.878579,-6957.935855,2068.457845,-962.267725
1406.878890,-6143.709319,-2451.505594,-1554.432478
1406.879201,-5773.606348,-4366.744339,-2442.679609
1406.879513,-5107.421000,-2068.457845,-666.185348
1406.879824,-7772.162391,-306.438199,1628.453072
1406.880136,-13101.645173,-4443.353888,4663.297435
1406.880447,-14878.139434,-8273.831378,6365.771101
1406.880758,-14359.995275,-7048.078582,6069.688724
1406.881070,-11843.295072,-1225.752797,4737.318029
1406.881381,-8734.430116,459.657299,2738.761985
1406.881692,-6661.853478,-2145.067394,-148.041188
1406.882004,-3330.926739,-4060.306139,-1628.453072
1406.882315,-2590.720797,-2145.067394,-3330.926739
1406.882626,-3849.070898,766.095498,-1850.514855
1406.882938,-9548.656652,-306.438199,740.205942
1406.883249,-12805.562797,-5898.935335,3552.988522
1406.883560,-15618.345376,-7737.564530,3775.050304
1406.883872,-15322.262999,-4519.963438,3478.967927
1406.884183,-12361.439231,0.000000,2294.638420
1406.884494,-11695.253884,-2145.067394,-0.000000
1406.884806,-9252.574275,-5056.230287,-1406.391290
1406.885117,-6069.688724,-3983.696590,-2442.679609
1406.885428,-4737.318029,689.485948,-2368.659014
1406.885740,-6143.709319,2757.943793,-296.082377
1406.886051,-11473.192101,-459.657299,740.205942
1406.886362,-12361.439231,-2834.553343,3182.885551
1406.886674,-11769.274478,-1532.190996,2960.823768
1406.886985,-9770.718434,3370.820191,2812.782580
1406.887297,-8882.471304,4826.401637,888.247130
1406.887608,-8808.450710,1915.238745,-814.226536
1406.887919,-5255.462188,0.000000,-2072.576638
1406.888231,-4071.132681,1762.019645,-3552.988522
1406.888542,-4219.173869,7354.516781,-1776.494261
1406.888853,-9622.677246,6511.811733,-370.102971
1406.889165,-13841.851115,1685.410096,814.226536
1406.889476,-13471.748144,536.266849,1850.514855
1406.889787,-11843.295072,4443.353888,1628.453072
1406.890099,-8956.491898,7201.297681,222.061783
1406.890410,-7328.038826,3753.867940,-2220.617826
1406.890721,-4885.359217,-689.485948,-3330.926739
1406.891033,-1036.288319,306.438199,-3997.112087
1406.891344,-740.205942,4903.011187,-2960.823768
1406.891655,-5107.421000,5669.106685,-888.247130
1406.891967,-12213.398043,1072.533697,1924.535449
1406.892278,-14359.995275,-1991.848295,3330.926739
1406.892589,-13471.748144,842.705048,3478.967927
1406.892901,-11547.212695,4903.011187,1702.473667
1406.893212,-9252.574275,5515.887586,222.061783
1406.893523,-7846.182985,612.876398,-2960.823768
1406.893835,-3923.091493,-2145.067394,-2960.823768
1406.894146,-1628.453072,76.609550,-2664.741391
1406.894458,-4885.359217,1762.019645,-74.020594
1406.894769,-10881.027347,-1532.190996,3627.009116
1406.895080,-15692.365970,-6894.859482,5329.482782
1406.895392,-13915.871710,-6818.249932,6957.935855
1406.895703,-11843.295072,-1915.238745,5625.565159
1406.896014,-9918.759623,-153.219100,3849.070898
1406.896326,-7105.977043,-3983.696590,1036.288319
1406.896637,-4441.235652,-7354.516781,-1628.453072
1406.896948,-2146.597232,-5592.497135,-2368.659014
1406.897260,-3923.091493,-1225.752797,-2146.597232
1406.897571,-9918.759623,-153.219100,-296.082377
1406.897882,-14285.974681,-4366.744339,2812.782580
1406.898194,-15174.221811,-7201.297681,4515.256246
1406.898505,-14434.015869,-5056.230287,4145.153275
1406.898816,-12065.356855,0.000000,3034.844362
1406.899128,-10584.944971,-306.438199,592.164754
1406.899439,-7105.977043,-3294.210641,-962.267725
1406.899750,-4737.318029,-3370.820191,-2664.741391
1406.900062,-4663.297435,919.314598,-3330.926739
1406.900373,-7105.977043,3524.039291,-1702.473667
1406.900684,-12139.377449,1455.581446,222.061783
1406.900996,-14063.912898,-2221.676944,2960.823768
1406.901307,-14211.954086,-2911.162892,3552.988522
1406.901619,-13323.706956,-306.438199,3701.029710
1406.901930,-9178.553681,2298.286494,1776.494261
1406.902241,-7698.141797,-459.657299,-814.226536
1406.902552,-4515.256246,-2221.676944,-2442.679609
1406.902864,-2368.659014,383.047749,-3108.864956
1406.903175,-4885.359217,6205.373534,-3182.885551
1406.903486,-8660.409521,7124.688131,592.164754
1406.903798,-12509.480420,2757.943793,1924.535449
1406.904109,-14211.954086,766.095498,2442.679609
1406.904420,-13397.727550,3600.648841,2220.617826
1406.904732,-10362.883188,7584.345430,-0.000000
1406.905043,-6587.832884,6971.469032,-2442.679609
1406.905354,-3849.070898,2451.505594,-4367.215058
1406.905666,-1258.350101,1378.971896,-5033.400406
1406.905977,-1924.535449,4060.306139,-4737.318029
1406.906288,-5847.626942,6358.592633,-1998.556043
1406.906600,-10881.027347,2987.772442,1850.514855
1406.906911,-13841.851115,-1991.848295,3404.947333
1406.907222,-12657.521608,-1378.971896,4589.276840
1406.907534,-10658.965565,2068.457845,2738.761985
1406.907845,-8956.491898,1915.238745,740.205942
1406.908156,-6883.915261,-689.485948,-1850.514855
1406.908467,-4441.235652,-2757.943793,-3034.844362
1406.908779,-3330.926739,-1225.752797,-2812.782580
1406.909090,-6365.771101,612.876398,-74.020594
1406.909401,-11251.130318,-995.924147,3627.009116
1406.909713,-13841.851115,-5132.839837,6217.729913
1406.910024,-14063.912898,-6435.202183,6513.812290
1406.910335,-11769.274478,-2221.676944,5995.668130
1406.910647,-8956.491898,1685.410096,3404.947333
1406.910958,-6587.832884,-229.828649,740.205942
1406.911269,-3997.112087,-3447.429741,-1036.288319
1406.911581,-2368.659014,-3753.867940,-2368.659014
1406.911892,-3478.967927,229.828649,-2442.679609
1406.912203,-8290.306550,919.314598,-370.102971
1406.912515,-13767.830521,-4903.011187,2516.700203
1406.912826,-15026.180623,-9269.755526,4441.235652
1406.913137,-15026.180623,-7277.907231,3627.009116
1406.913449,-13027.624579,-2528.115143,2738.761985
1406.913760,-10584.944971,-1915.238745,962.267725
1406.914071,-9252.574275,-5898.935335,-888.247130
1406.914382,-6587.832884,-6971.469032,-1850.514855
1406.914694,-5329.482782,-4136.915689,-1924.535449
1406.915005,-7179.997637,0.000000,-962.267725
1406.915316,-12879.583391,995.924147,1184.329507
1406.915628,-15100.201217,-1302.362347,2072.576638
1406.915939,-13989.892304,-1225.752797,2960.823768
1406.916250,-11769.274478,2221.676944,2442.679609
1406.916562,-10510.924376,4979.620737,444.123565
1406.916873,-8364.327145,3983.696590,-2294.638420
1406.917184,-4885.359217,1455.581446,-3478.967927
1406.917496,-2886.803174,1455.581446,-3701.029710
1406.917807,-2812.782580,5209.449386,-2812.782580
1406.918118,-8438.347739,5592.497135,-1406.391290
1406.918430,-11399.171507,1838.629195,2146.597232
1406.918741,-11547.212695,-1532.190996,3108.864956
1406.919052,-11695.253884,689.485948,2664.741391
1406.919364,-10066.800811,5515.887586,1036.288319
1406.919675,-8068.244768,5056.230287,-888.247130
1406.919986,-4367.215058,-536.266849,-3330.926739
1406.920297,-1924.535449,459.657299,-4145.153275
1406.920609,-2516.700203,3600.648841,-3923.091493
1406.920920,-4663.297435,5362.668486,-1480.411884
1406.921231,-11843.295072,2451.505594,2146.597232
1406.921543,-14508.036463,-1149.143247,4663.297435
1406.921854,-14211.954086,-229.828649,3923.091493
1406.922165,-12361.439231,3677.258390,2590.720797
1406.922477,-8882.471304,5822.325785,592.164754
1406.922788,-5773.606348,2451.505594,-2072.576638
1406.923099,-1554.432478,-383.047749,-2664.741391
1406.923411,-2146.597232,-1072.533697,-3701.029710
1406.923722,-4737.318029,842.705048,-1702.473667
1406.924033,-8660.409521,1608.800546,2220.617826
1406.924345,-15100.201217,-2834.553343,5033.400406
1406.924656,-14137.933492,-6894.859482,7328.038826
1406.924967,-13027.624579,-5515.887586,5921.647536
1406.925279,-11325.150913,-1378.971896,4293.194464
1406.925590,-8216.285956,-842.705048,2146.597232
1406.925901,-6661.853478,-4749.792088,-888.247130
1406.926213,-4663.297435,-4443.353888,-2146.597232
1406.926524,-3330.926739,76.609550,-1924.535449
1406.926835,-7031.956449,1072.533697,-962.267725
1406.927146,-12065.356855,-2374.896044,2368.659014
1406.927458,-14063.912898,-5669.106685,4515.256246
1406.927769,-13471.748144,-5439.278036,4145.153275
1406.928080,-12065.356855,-1685.410096,3849.070898
1406.928392,-9992.780217,766.095498,1554.432478
1406.928703,-9104.533087,-2528.115143,-1184.329507
1406.929014,-5625.565159,-4903.011187,-1998.556043
1406.929326,-4663.297435,-2604.724693,-2664.741391
1406.929637,-6217.729913,1991.848295,-2738.761985
1406.929948,-10881.027347,2757.943793,-370.102971
1406.930260,-14804.118840,-2451.505594,2886.803174
1406.930571,-13915.871710,-5515.887586,4071.132681
1406.930882,-12657.521608,-2221.676944,2590.720797
1406.931194,-10955.047942,2681.334243,814.226536
1406.931505,-9178.553681,2681.334243,-1628.453072
1406.931816,-7254.018232,-919.314598,-2590.720797
1406.932128,-4219.173869,-536.266849,-2368.659014
1406.932439,-2442.679609,2298.286494,-1924.535449
1406.932750,-6365.771101,2681.334243,296.082377
1406.933061,-11917.315666,612.876398,2738.761985
1406.933373,-13693.809927,-1072.533697,3108.864956
1406.933684,-12583.501014,1532.190996,962.267725
1406.933995,-10214.842000,5898.935335,444.123565
1406.934307,-8142.265362,7277.907231,-2442.679609
1406.934618,-6883.915261,4290.134789,-4737.318029
1406.934929,-4293.194464,2528.115143,-4737.318029
1406.935241,-2664.741391,3217.601092,-4589.276840
1406.935552,-3849.070898,5975.544884,-2146.597232
1406.935863,-9252.574275,4443.353888,814.226536
1406.936175,-12657.521608,-229.828649,2590.720797
1406.936486,-12509.480420,-1532.190996,2960.823768
1406.936797,-11547.212695,2757.943793,2812.782580
1406.937109,-9918.759623,4749.792088,1110.308913
1406.937420,-8882.471304,2298.286494,-1406.391290
1406.937731,-6735.874072,-1685.410096,-1480.411884
1406.938043,-4959.379811,-2604.724693,-2738.761985
1406.938354,-4219.173869,76.609550,-1258.350101
1406.938665,-7179.997637,2068.457845,296.082377
1406.938976,-12139.377449,-1915.238745,3182.885551
1406.939288,-13101.645173,-5745.716235,5477.523971
1406.939599,-11769.274478,-4519.963438,5107.421000
1406.939910,-11029.068536,0.000000,4663.297435
1406.940222,-9622.677246,1149.143247,3552.988522
1406.940533,-7698.141797,-2451.505594,814.226536
1406.940844,-4663.297435,-3907.087040,-74.020594
1406.941156,-2812.782580,-229.828649,-1480.411884
1406.941467,-4367.215058,1378.971896,-814.226536
1406.941778,-9104.533087,-842.705048,1184.329507
1406.942090,-12805.562797,-4826.401637,3034.844362
1406.942401,-13175.665768,-4903.011187,3034.844362
1406.942712,-12287.418637,-919.314598,2812.782580
1406.943024,-11473.192101,842.705048,1554.432478
1406.943335,-9474.636058,-2298.286494,148.041188
1406.943646,-6883.915261,-6052.154434,-814.226536
1406.943958,-4515.256246,-4443.353888,-1332.370696
1406.944269,-4811.338623,0.000000,-1184.329507
1406.944580,-8956.491898,1378.971896,148.041188
1406.944891,-13175.665768,-2681.334243,2368.659014
1406.945203,-13915.871710,-5515.887586,2886.803174
1406.945514,-13323.706956,-2145.067394,2516.700203
1406.945825,-12287.418637,3447.429741,2146.597232
1406.946137,-11621.233289,3830.477490,-148.041188
1406.946448,-9400.615463,383.047749,-1924.535449
1406.946759,-5847.626942,-536.266849,-2146.597232
1406.947071,-3478.967927,3600.648841,-3108.864956
1406.947382,-3923.091493,5669.106685,-1184.329507
1406.947693,-8956.491898,3447.429741,148.041188
1406.948005,-12731.542202,-612.876398,2368.659014
1406.948316,-12213.398043,-306.438199,2516.700203
1406.948627,-10881.027347,3370.820191,1924.535449
1406.948939,-10658.965565,5669.106685,-0.000000
1406.949250,-8882.471304,2911.162892,-2368.659014
1406.949561,-5847.626942,76.609550,-4441.235652
1406.949873,-2146.597232,1762.019645,-3997.112087
1406.950184,-2590.720797,4443.353888,-3034.844362
1406.950495,-6957.935855,3447.429741,-148.041188
1406.950806,-10732.986159,-766.095498,2368.659014
1406.951118,-11843.295072,-3064.381992,3404.947333
1406.951429,-11695.253884,1149.143247,2442.679609
1406.951740,-10584.944971,5745.716235,1998.556043
1406.952052,-9474.636058,3983.696590,-296.082377
1406.952363,-7624.121203,-1149.143247,-2220.617826
1406.952674,-5255.462188,-1762.019645,-2590.720797
1406.952986,-4441.235652,2604.724693,-2146.597232
1406.953297,-6587.832884,4366.744339,-1036.288319
1406.953608,-11621.233289,306.438199,1480.411884
1406.953920,-13249.686362,-3830.477490,4145.153275
1406.954231,-12139.377449,-4596.572988,3923.091493
1406.954542,-10955.047942,-1149.143247,4663.297435
1406.954854,-8808.450710,76.609550,3849.070898
1406.955165,-7476.080014,-3753.867940,1850.514855
1406.955476,-5329.482782,-6511.811733,74.020594
1406.955788,-3478.967927,-4979.620737,-962.267725
1406.956099,-4589.276840,-2068.457845,-518.144159
1406.956410,-8216.285956,-995.924147,1036.288319
1406.956722,-12509.480420,-4213.525239,2368.659014
1406.957033,-13323.706956,-5439.278036,3404.947333
1406.957344,-12953.603985,-2298.286494,3849.070898
1406.957655,-11917.315666,383.047749,3108.864956
1406.957967,-10658.965565,-1455.581446,1924.535449
1406.958278,-8364.327145,-3217.601092,-296.082377
1406.958589,-5477.523971,-1915.238745,-1406.391290
1406.958901,-4663.297435,1378.971896,-2960.823768
1406.959212,-7402.059420,2757.943793,-1110.308913
1406.959523,-11769.274478,-383.047749,1332.370696
1406.959835,-13471.748144,-4290.134789,3108.864956
1406.960146,-13989.892304,-3447.429741,3478.967927
1406.960457,-12953.603985,612.876398,2812.782580
1406.960769,-10436.903782,2145.067394,592.164754
1406.961080,-9252.574275,-536.266849,-1480.411884
1406.961391,-5181.441594,-2298.286494,-1924.535449
1406.961703,-2886.803174,995.924147,-2738.761985
1406.962014,-4589.276840,4673.182538,-1924.535449
1406.962325,-9474.636058,3600.648841,444.123565
1406.962637,-13767.830521,383.047749,2146.597232
1406.962948,-12879.583391,612.876398,2368.659014
1406.963259,-11473.192101,4673.182538,2072.576638
1406.963570,-9252.574275,6511.811733,888.247130
1406.963882,-6735.874072,5209.449386,-2590.720797
1406.964193,-4589.276840,2221.676944,-4515.256246
1406.964504,-1258.350101,2681.334243,-4071.132681
1406.964816,-2072.576638,4979.620737,-3404.947333
1406.965127,-6143.709319,5592.497135,-1480.411884
1406.965438,-11769.274478,1685.410096,1406.391290
1406.965750,-12953.603985,-1915.238745,2368.659014
1406.966061,-11695.253884,76.609550,3108.864956
1406.966372,-11103.089130,3907.087040,2368.659014
1406.966684,-9030.512492,2298.286494,296.082377
1406.966995,-7476.080014,-2451.505594,-1110.308913
1406.967306,-4515.256246,-2757.943793,-2220.617826
1406.967618,-3701.029710,-229.828649,-2294.638420
1406.967929,-5403.503377,1838.629195,-1110.308913
1406.968240,-10140.821405,306.438199,1998.556043
1406.968552,-13767.830521,-4519.963438,4293.194464
1406.968863,-12731.542202,-5209.449386,5181.441594
1406.969174,-11991.336260,-995.924147,4737.318029
1406.969485,-10807.006753,1149.143247,3478.967927
1406.969797,-8808.450710,-1915.238745,1480.411884
1406.970108,-5921.647536,-5745.716235,-666.185348
1406.970419,-3552.988522,-4060.306139,-2220.617826
1406.970731,-4959.379811,-153.219100,-2516.700203
1406.971042,-8882.471304,153.219100,-370.102971
1406.971353,-13323.706956,-4519.963438,2590.720797
1406.971665,-13323.706956,-7124.688131,4145.153275
1406.971976,-13545.768739,-4903.011187,4515.256246
1406.972287,-11843.295072,-1149.143247,3701.029710
1406.972599,-9178.553681,-995.924147,1332.370696
1406.972910,-8068.244768,-3907.087040,-1480.411884
1406.973221,-5107.421000,-3600.648841,-1776.494261
1406.973533,-4589.276840,-306.438199,-3034.844362
1406.973844,-7402.059420,1838.629195,-1036.288319
1406.974155,-12509.480420,306.438199,2146.597232
1406.974467,-14952.160028,-3753.867940,3552.988522
1406.974778,-14285.974681,-3907.087040,3627.009116
1406.975089,-12583.501014,459.657299,3256.906145
1406.975400,-9844.739029,3753.867940,888.247130
1406.975712,-8142.265362,1225.752797,-1406.391290
1406.976023,-4737.318029,-229.828649,-2960.823768
1406.976334,-2368.659014,2451.505594,-3627.009116
1406.976646,-3923.091493,5898.935335,-2812.782580
1406.976957,-7476.080014,5439.278036,888.247130
1406.977268,-12287.418637,995.924147,2738.761985
1406.977580,-13397.727550,-1378.971896,3701.029710
1406.977891,-11843.295072,1608.800546,2886.803174
1406.978202,-9474.636058,5209.449386,1184.329507
1406.978514,-7994.224174,3983.696590,-1998.556043
1406.978825,-5551.544565,766.095498,-3404.947333
1406.979136,-2220.617826,536.266849,-4293.194464
1406.979448,-2368.659014,3370.820191,-3627.009116
1406.979759,-6291.750507,6052.154434,-1258.350101
1406.980070,-10955.047942,1915.238745,1184.329507
1406.980382,-11325.150913,-536.266849,3256.906145
1406.980693,-11473.192101,-383.047749,3108.864956
1406.981004,-10584.944971,3217.601092,1850.514855
1406.981315,-8956.491898,4903.011187,-0.000000
1406.981627,-7846.182985,1685.410096,-2368.659014
1406.981938,-5033.400406,-1685.410096,-1702.473667
1406.982249,-3108.864956,-919.314598,-2886.803174
1406.982561,-5921.647536,1072.533697,-222.061783
1406.982872,-10066.800811,-689.485948,1998.556043
1406.983183,-13323.706956,-4903.011187,3923.091493
1406.983495,-13471.748144,-5669.106685,4293.194464
1406.983806,-12213.398043,-2374.896044,3330.926739
1406.984117,-10140.821405,-459.657299,2664.741391
1406.984429,-8142.265362,-3294.210641,1406.391290
1406.984740,-6957.935855,-5898.935335,-0.000000
1406.985051,-4959.379811,-4979.620737,-1258.350101
1406.985363,-4959.379811,-1762.019645,-1184.329507
1406.985674,-7846.182985,153.219100,1036.288319
1406.985985,-12435.459826,-3370.820191,2516.700203
1406.986297,-13323.706956,-6894.859482,3849.070898
1406.986608,-12731.542202,-4979.620737,3034.844362
1406.986919,-12065.356855,-306.438199,2442.679609
1406.987230,-10658.965565,306.438199,740.205942
1406.987542,-9474.636058,-2681.334243,-1628.453072
1406.987853,-6513.812290,-3524.039291,-2738.761985
1406.988164,-5403.503377,-919.314598,-2886.803174
1406.988476,-6513.812290,2604.724693,-1258.350101
1406.988787,-10807.006753,2451.505594,1258.350101
1406.989098,-14359.995275,-2528.115143,3552.988522
1406.989410,-13175.665768,-4366.744339,4367.215058
1406.989721,-11473.192101,-536.266849,3701.029710
1406.990032,-9770.718434,3140.991542,1480.411884
1406.990344,-8438.347739,1532.190996,-1406.391290
1406.990655,-6957.935855,-1225.752797,-2516.700203
1406.990966,-3923.091493,842.705048,-3034.844362
1406.991278,-4663.297435,4903.011187,-2442.679609
1406.991589,-8882.471304,5209.449386,-814.226536
1406.991900,-11991.336260,2451.505594,2368.659014
1406.992212,-12361.439231,76.609550,2516.700203
1406.992523,-10955.047942,2298.286494,2442.679609
1406.992834,-8364.327145,6511.811733,1776.494261
1406.993146,-7179.997637,5822.325785,-1406.391290
1406.993457,-5699.585753,2987.772442,-2812.782580
1406.993768,-2960.823768,2221.676944,-3034.844362
1406.994079,-2294.638420,4749.792088,-3849.070898
1406.994391,-4441.235652,6741.640382,-2368.659014
1406.994702,-10510.924376,3830.477490,-222.061783
1406.995013,-12657.521608,-919.314598,2590.720797
1406.995325,-11547.212695,-1762.019645,2886.803174
1406.995636,-10510.924376,1072.533697,2146.597232
1406.995947,-8512.368333,2681.334243,518.144159
1406.996259,-7105.977043,-536.266849,-296.082377
1406.996570,-4737.318029,-4213.525239,-1184.329507
1406.996881,-2886.803174,-4366.744339,-1184.329507
1406.997193,-5699.585753,-1915.238745,-74.020594
1406.997504,-9844.739029,-1072.533697,2590.720797
1406.997815,-13619.789333,-4673.182538,4811.338623
1406.998127,-13915.871710,-7967.393179,6217.729913
1406.998438,-11621.233289,-5592.497135,5329.482782
1406.998749,-9252.574275,-1915.238745,3330.926739
1406.999061,-6735.874072,-2528.115143,962.267725
1406.999372,-5329.482782,-5286.058936,-1702.473667
1406.999683,-4663.297435,-6281.983084,-2886.803174
1406.999994,-4515.256246,-3370.820191,-2294.638420
1407.000306,-8364.327145,-1762.019645,-296.082377
1407.000617,-12583.501014,-4673.182538,2886.803174
1407.000928,-14730.098246,-9422.974625,4515.256246
1407.001240,-13841.851115,-9576.193725,4663.297435
1407.001551,-11991.336260,-5898.935335,2590.720797
1407.001863,-9770.718434,-4136.915689,666.185348
1407.002174,-8142.265362,-5286.058936,-666.185348
1407.002485,-6957.935855,-7124.688131,-2812.782580
1407.002797,-6365.771101,-5669.106685,-3034.844362
1407.003108,-9104.533087,-1991.848295,-1998.556043
1407.003420,-11769.274478,689.485948,740.205942
1407.003731,-13693.809927,-1838.629195,2442.679609
1407.004042,-14434.015869,-5669.106685,3256.906145
1407.004354,-13989.892304,-4213.525239,2960.823768
1407.004665,-12287.418637,842.705048,814.226536
1407.004977,-9178.553681,3600.648841,-1480.411884
1407.005288,-5847.626942,1455.581446,-2146.597232
1407.005600,-3849.070898,-1302.362347,-2960.823768
1407.005911,-3552.988522,-1455.581446,-2664.741391
1407.006222,-3849.070898,919.314598,-1554.432478
1407.006534,-6661.853478,995.924147,-518.144159
1407.006845,-9474.636058,-383.047749,1628.453072
1407.007157,-10955.047942,-2451.505594,1998.556043
1407.007468,-11843.295072,-1608.800546,592.164754
1407.007779,-11769.274478,0.000000,370.102971
1407.008091,-9104.533087,1608.800546,-74.020594
1407.008402,-6291.750507,1225.752797,-1332.370696
1407.008714,-4441.235652,-459.657299,-1776.494261
1407.009025,-3849.070898,-2298.286494,-1480.411884
1407.009337,-3997.112087,-2987.772442,-592.164754
1407.009648,-5921.647536,-2298.286494,-148.041188
1407.009959,-8808.450710,-1149.143247,148.041188
1407.010271,-11029.068536,0.000000,148.041188
1407.010582,-12657.521608,689.485948,814.226536
1407.010894,-12139.377449,76.609550,1554.432478
1407.011205,-10510.924376,-1455.581446,2146.597232
1407.011516,-9474.636058,-1915.238745,2368.659014
1407.011828,-7698.141797,-1838.629195,1850.514855
1407.012139,-6587.832884,-2528.115143,1110.308913
1407.012451,-4071.132681,-3753.867940,296.082377
1407.012762,-2886.803174,-6052.154434,518.144159
1407.013074,-4293.194464,-7967.393179,-592.164754
1407.013385,-7105.977043,-7507.735880,-518.144159
1407.013696,-10955.047942,-5132.839837,-148.041188
1407.014008,-13323.706956,-3677.258390,1480.411884
1407.014319,-15248.242405,-4136.915689,2886.803174
1407.014631,-16062.468941,-5975.544884,4145.153275
1407.014942,-14285.974681,-6358.592633,5107.421000
1407.015253,-11843.295072,-6818.249932,4293.194464
1407.015565,-8438.347739,-6281.983084,2590.720797
1407.015876,-5699.585753,-4979.620737,444.123565
1407.016188,-3478.967927,-4596.572988,-1110.308913
1407.016499,-3404.947333,-5132.839837,-1776.494261
1407.016811,-4663.297435,-5286.058936,-1480.411884
1407.017122,-6217.729913,-5132.839837,-1110.308913
1407.017433,-10140.821405,-4979.620737,-222.061783
1407.017745,-12805.562797,-4213.525239,1184.329507
1407.018056,-14211.954086,-3524.039291,1628.453072
1407.018368,-14730.098246,-3524.039291,2886.803174
1407.018679,-14434.015869,-3983.696590,3108.864956
1407.018990,-12953.603985,-3064.381992,2294.638420
1407.019302,-10807.006753,-2604.724693,1850.514855
1407.019613,-7105.977043,-2834.553343,888.247130
1407.019925,-4589.276840,-4826.401637,1184.329507
1407.020236,-2960.823768,-5822.325785,-74.020594
1407.020548,-2886.803174,-4596.572988,-1480.411884
1407.020859,-4515.256246,-1915.238745,-2812.782580
1407.021170,-6587.832884,0.000000,-2738.761985
1407.021482,-9178.553681,1072.533697,-2072.576638
1407.021793,-11399.171507,842.705048,-888.247130
1407.022105,-12287.418637,919.314598,592.164754
1407.022416,-11251.130318,919.314598,1258.350101
1407.022728,-8808.450710,689.485948,518.144159
1407.023039,-7105.977043,-459.657299,370.102971
1407.023350,-6291.750507,-995.924147,-592.164754
1407.023662,-6809.894666,-1225.752797,-962.267725
1407.023973,-6957.935855,0.000000,-1628.453072
1407.024285,-7846.182985,1685.410096,-1776.494261
1407.024596,-9030.512492,-383.047749,-1406.391290
1407.024907,-8660.409521,-2145.067394,-1554.432478
1407.025219,-7994.224174,-2834.553343,-888.247130
1407.025530,-8290.306550,-4136.915689,-370.102971
1407.025842,-9252.574275,-4903.011187,518.144159
1407.026153,-10510.924376,-5209.449386,1406.391290
1407.026465,-12139.377449,-6128.763984,1480.411884
1407.026776,-12213.398043,-5209.449386,2220.617826
1407.027087,-11769.274478,-4596.572988,2590.720797
1407.027399,-9844.739029,-3370.820191,2072.576638
1407.027710,-8290.306550,-3524.039291,1110.308913
1407.028022,-7402.059420,-3064.381992,296.082377
1407.028333,-6439.791695,-1455.581446,296.082377
1407.028644,-5847.626942,-229.828649,-592.164754
1407.028956,-6365.771101,-689.485948,-888.247130
1407.029267,-6883.915261,-1838.629195,-0.000000
1407.029579,-8290.306550,-2911.162892,518.144159
1407.029890,-9474.636058,-3830.477490,1110.308913
1407.030202,-10807.006753,-5209.449386,2442.679609
1407.030513,-11917.315666,-6435.202183,3182.885551
1407.030824,-12805.562797,-7431.126331,2960.823768
1407.031136,-12583.501014,-6741.640382,2220.617826
1407.031447,-11325.150913,-5132.839837,1406.391290
1407.031759,-8956.491898,-3753.867940,1776.494261
1407.032070,-7328.038826,-2757.943793,1036.288319
1407.032381,-6217.729913,-2757.943793,740.205942
1407.032693,-5625.565159,-2604.724693,1036.288319
1407.033004,-5773.606348,-2298.286494,962.267725
1407.033316,-6513.812290,-1532.190996,1850.514855
1407.033627,-7550.100608,-2987.772442,1258.350101
1407.033939,-9326.594869,-3217.601092,1036.288319
1407.034250,-10584.944971,-3140.991542,1332.370696
1407.034561,-11177.109724,-3064.381992,1332.370696
1407.034873,-10881.027347,-3753.867940,1480.411884
1407.035184,-9844.739029,-4443.353888,1628.453072
1407.035496,-8438.347739,-4290.134789,1332.370696
1407.035807,-7105.977043,-3677.258390,518.144159
1407.036118,-6661.853478,-1532.190996,222.061783
1407.036430,-5921.647536,-1149.143247,-0.000000
1407.036741,-5329.482782,-383.047749,-444.123565
1407.037053,-5847.626942,-766.095498,-0.000000
1407.037364,-6291.750507,-306.438199,74.020594
1407.037676,-7328.038826,-1455.581446,370.102971
1407.037987,-9326.594869,-2145.067394,-222.061783
1407.038298,-10140.821405,-2834.553343,-0.000000
1407.038610,-10436.903782,-2681.334243,-370.102971
1407.038921,-10658.965565,-1915.238745,-814.226536
1407.039233,-9474.636058,-1762.019645,-370.102971
1407.039544,-11177.109724,-2757.943793,-1406.391290
1407.039855,-8808.450710,-2145.067394,-0.000000
1407.040167,-7624.121203,-2221.676944,-1332.370696
1407.040478,-8512.368333,-3217.601092,-0.000000
1407.040790,-10807.006753,-3524.039291,-222.061783
1407.041101,-11399.171507,-2604.724693,814.226536
1407.041413,-10732.986159,-1532.190996,888.247130
1407.041724,-10436.903782,-1685.410096,1480.411884
1407.042035,-10140.821405,-3677.258390,1332.370696
1407.042347,-9400.615463,-4290.134789,1184.329507
1407.042658,-8586.388927,-3524.039291,1480.411884
1407.042970,-9178.553681,-3447.429741,1628.453072
1407.043281,-10807.006753,-2145.067394,1554.432478
1407.043592,-12139.377449,-995.924147,1554.432478
1407.043904,-10955.047942,-995.924147,2146.597232
1407.044215,-10362.883188,-1838.629195,1554.432478
1407.044527,-7402.059420,-919.314598,2368.659014
1407.044838,-7920.203579,-1302.362347,1480.411884
1407.045150,-7031.956449,-2987.772442,2886.803174
1407.045461,-7698.141797,-4749.792088,3478.967927
1407.045772,-7698.141797,-4213.525239,4737.318029
1407.046084,-8660.409521,-2145.067394,5551.544565
1407.046395,-11769.274478,-3370.820191,5255.462188
1407.046707,-9770.718434,-2604.724693,5995.668130
1407.047018,-7772.162391,-153.219100,3849.070898
1407.047329,-7254.018232,1149.143247,4145.153275
1407.047641,-5921.647536,1762.019645,3034.844362
1407.047952,-7254.018232,0.000000,2220.617826
1407.048264,-6661.853478,1225.752797,3034.844362
1407.048575,-5329.482782,995.924147,4219.173869
1407.048887,-9252.574275,0.000000,3627.009116
1407.049198,-10066.800811,383.047749,6661.853478
1407.049509,-9918.759623,0.000000,5921.647536
1407.049821,-7994.224174,-995.924147,6587.832884
1407.050132,-7698.141797,-689.485948,5625.565159
1407.050444,-8512.368333,0.000000,5403.503377
1407.050755,-7105.977043,842.705048,4737.318029
1407.051066,-6291.750507,689.485948,4145.153275
1407.051378,-6661.853478,1302.362347,4811.338623
1407.051689,-8734.430116,2068.457845,3997.112087
1407.052001,-9400.615463,1532.190996,5255.462188
1407.052312,-8882.471304,995.924147,5255.462188
1407.052624,-7402.059420,76.609550,5181.441594
1407.052935,-7550.100608,-383.047749,4737.318029
1407.053246,-8364.327145,-1378.971896,4737.318029
1407.053558,-7772.162391,-1838.629195,4589.276840
1407.053869,-7920.203579,459.657299,5181.441594
1407.054181,-8660.409521,1302.362347,4367.215058
1407.054492,-10214.842000,1685.410096,4663.297435
1407.054803,-11251.130318,1608.800546,3849.070898
1407.055115,-9400.615463,2681.334243,4589.276840
1407.055426,-8438.347739,2145.067394,3404.947333
1407.055738,-7624.121203,76.609550,3478.967927
1407.056049,-7328.038826,-766.095498,2516.700203
1407.056361,-6513.812290,-1532.190996,2220.617826
1407.056672,-5181.441594,-1455.581446,2442.679609
1407.056983,-6365.771101,-2604.724693,2220.617826
1407.057295,-8290.306550,-2528.115143,2960.823768
1407.057606,-9918.759623,-2451.505594,3330.926739
1407.057918,-10807.006753,-2298.286494,3627.009116
1407.058229,-12065.356855,-995.924147,3552.988522
1407.058540,-12287.418637,0.000000,3182.885551
1407.058852,-11621.233289,229.828649,1850.514855
1407.059163,-9844.739029,689.485948,962.267725
1407.059475,-8660.409521,1685.410096,296.082377
1407.059786,-8586.388927,1685.410096,148.041188
1407.060098,-9326.594869,459.657299,1628.453072
1407.060409,-9326.594869,-459.657299,2294.638420
1407.060720,-10362.883188,-1149.143247,3182.885551
1407.061032,-10066.800811,-919.314598,3701.029710
1407.061343,-9622.677246,-1149.143247,3034.844362
1407.061655,-8734.430116,-229.828649,2368.659014
1407.061966,-6735.874072,842.705048,1406.391290
1407.062277,-7105.977043,1378.971896,-0.000000
1407.062589,-7846.182985,919.314598,-0.000000
1407.062900,-9844.739029,919.314598,666.185348
1407.063212,-11325.150913,1149.143247,2294.638420
1407.063523,-12583.501014,536.266849,3552.988522
1407.063835,-12879.583391,-689.485948,4367.215058
1407.064146,-12139.377449,-1608.800546,4737.318029
1407.064457,-8882.471304,-1608.800546,4441.235652
1407.064769,-5181.441594,-1302.362347,2960.823768
1407.065080,-3182.885551,-1838.629195,1998.556043
1407.065392,-3552.988522,-2374.896044,1554.432478
1407.065703,-5921.647536,-1455.581446,1924.535449
1407.066014,-9178.553681,0.000000,3182.885551
1407.066326,-11695.253884,1762.019645,4811.338623
1407.066637,-13841.851115,2528.115143,5773.606348
1407.066949,-13249.686362,2145.067394,6587.832884
1407.067260,-10288.862594,459.657299,5329.482782
1407.067572,-6291.750507,689.485948,4441.235652
1407.067883,-3182.885551,689.485948,2146.597232
1407.068194,-2368.659014,842.705048,1110.308913
1407.068506,-2294.638420,536.266849,592.164754
1407.068817,-5033.400406,689.485948,1480.411884
1407.069129,-9326.594869,919.314598,3627.009116
1407.069440,-13693.809927,1072.533697,5551.544565
1407.069751,-15988.448347,919.314598,7031.956449
1407.070063,-14359.995275,-229.828649,7179.997637
1407.070374,-10584.944971,-1685.410096,6143.709319
1407.070686,-7031.956449,-1915.238745,4441.235652
1407.070997,-4367.215058,-1225.752797,3108.864956
1407.071309,-4663.297435,-995.924147,3701.029710
1407.071620,-7402.059420,-1149.143247,5181.441594
1407.071931,-11399.171507,0.000000,7402.059420
1407.072243,-13841.851115,766.095498,8882.471304
1407.072554,-13323.706956,-995.924147,8734.430116
1407.072866,-9400.615463,-153.219100,5995.668130
1407.073177,-5107.421000,1685.410096,2886.803174
1407.073488,-3182.885551,2681.334243,-0.000000
1407.073800,-3552.988522,2681.334243,-444.123565
1407.074111,-6513.812290,2451.505594,518.144159
1407.074423,-10140.821405,1378.971896,2812.782580
1407.074734,-13767.830521,612.876398,5551.544565
1407.075046,-14582.057057,-1225.752797,8142.265362
1407.075357,-13693.809927,-2757.943793,8586.388927
1407.075668,-11251.130318,-2451.505594,9030.512492
1407.075980,-8660.409521,-1915.238745,7920.203579
1407.076291,-5995.668130,-1302.362347,5847.626942
1407.076603,-3923.091493,-612.876398,3849.070898
1407.076914,-2960.823768,2221.676944,1184.329507
1407.077225,-1702.473667,3907.087040,-0.000000
1407.077537,-3552.988522,4060.306139,-592.164754
1407.077848,-6513.812290,3677.258390,1036.288319
1407.078160,-9030.512492,2221.676944,2812.782580
1407.078471,-11991.336260,153.219100,4885.359217
1407.078783,-14137.933492,-1149.143247,5847.626942
1407.079094,-14508.036463,-1532.190996,5921.647536
1407.079405,-12805.562797,-689.485948,5329.482782
1407.079717,-10140.821405,0.000000,4145.153275
1407.080028,-8216.285956,-995.924147,4293.194464
1407.080340,-7105.977043,-995.924147,3404.947333
1407.080651,-5329.482782,-1072.533697,3923.091493
1407.080962,-3775.050304,-995.924147,3034.844362
1407.081274,-3256.906145,-842.705048,2220.617826
1407.081585,-3627.009116,-459.657299,518.144159
1407.081897,-4663.297435,-459.657299,-666.185348
1407.082208,-7179.997637,-919.314598,-444.123565
1407.082520,-12139.377449,-842.705048,1110.308913
1407.082831,-16654.633695,0.000000,3997.112087
1407.083142,-20725.766376,-383.047749,5625.565159
1407.083454,-20947.828159,383.047749,7624.121203
1407.083765,-16654.633695,76.609550,7994.224174
1407.084077,-10807.006753,-766.095498,5329.482782
1407.084388,-3256.906145,-459.657299,2960.823768
1407.084699,1406.391290,1608.800546,-592.164754
1407.085011,3701.029710,1455.581446,-3849.070898
1407.085322,1850.514855,1838.629195,-5107.421000
1407.085634,-2738.761985,1378.971896,-3552.988522
1407.085945,-8364.327145,-383.047749,-1184.329507
1407.086257,-15026.180623,-306.438199,2812.782580
1407.086568,-19541.436869,-612.876398,4589.276840
1407.086879,-21317.931130,0.000000,6883.915261
1407.087191,-19393.395680,-995.924147,7402.059420
1407.087502,-15174.221811,-1072.533697,6365.771101
1407.087814,-10066.800811,-766.095498,3256.906145
1407.088125,-3404.947333,842.705048,-0.000000
1407.088436,2146.597232,2068.457845,-3701.029710
1407.088748,3775.050304,2451.505594,-5773.606348
1407.089059,2146.597232,1455.581446,-5107.421000
1407.089371,-3627.009116,-306.438199,-3997.112087
1407.089682,-10881.027347,-229.828649,-370.102971
1407.089994,-17616.901420,689.485948,4515.256246
1407.090305,-22798.343014,-383.047749,6439.791695
1407.090616,-20799.786970,-1608.800546,7920.203579
1407.090928,-14434.015869,-2834.553343,6661.853478
1407.091239,-6513.812290,-2451.505594,3552.988522
1407.091551,814.226536,-536.266849,-1036.288319
1407.091862,3923.091493,153.219100,-4589.276840
1407.092173,2960.823768,536.266849,-4663.297435
1407.092485,-2886.803174,995.924147,-2812.782580
1407.092796,-10510.924376,1302.362347,-518.144159
1407.093108,-16432.571912,1608.800546,1184.329507
1407.093419,-19689.478057,2374.896044,2738.761985
1407.093731,-17838.963202,2221.676944,3256.906145
1407.094042,-13397.727550,306.438199,2590.720797
1407.094353,-8956.491898,-2298.286494,1776.494261
1407.094665,-6217.729913,-2451.505594,1480.411884
1407.094976,-4737.318029,-1838.629195,1332.370696
1407.095288,-5477.523971,-766.095498,2146.597232
1407.095599,-8808.450710,0.000000,2590.720797
1407.095910,-11991.336260,0.000000,2590.720797
1407.096222,-11695.253884,1915.238745,2590.720797
1407.096533,-8586.388927,3370.820191,74.020594
1407.096845,-6217.729913,2604.724693,-1776.494261
1407.097156,-4663.297435,919.314598,-2664.741391
1407.097468,-4737.318029,-766.095498,-2590.720797
1407.097779,-5329.482782,-1072.533697,-1702.473667
1407.098090,-8142.265362,-689.485948,1110.308913
1407.098402,-13101.645173,-1225.752797,4885.359217
1407.098713,-17172.777854,-2374.896044,7328.038826
1407.099025,-18727.210333,-3064.381992,8068.244768
1407.099336,-15470.304188,-842.705048,7624.121203
1407.099647,-9474.636058,1149.143247,5107.421000
1407.099959,-3404.947333,612.876398,-296.082377
1407.100270,2886.803174,536.266849,-4441.235652
1407.100582,6365.771101,153.219100,-7624.121203
1407.100893,4293.194464,1149.143247,-7328.038826
1407.101205,-2590.720797,2145.067394,-2960.823768
1407.101516,-12139.377449,383.047749,1998.556043
1407.101827,-20873.807564,-1532.190996,7105.977043
1407.102139,-24648.857869,-2298.286494,9770.718434
1407.102450,-21169.889941,-1225.752797,8882.471304
1407.102761,-14211.954086,-383.047749,4737.318029
1407.103073,-5921.647536,-229.828649,-814.226536
1407.103384,1998.556043,459.657299,-6143.709319
1407.103695,5477.523971,919.314598,-9326.594869
1407.104007,3182.885551,1532.190996,-7698.141797
1407.104318,-3775.050304,1149.143247,-5033.400406
1407.104630,-12213.398043,-229.828649,-1110.308913
1407.104941,-18949.272115,-1378.971896,2072.576638
1407.105252,-20799.786970,-1685.410096,4663.297435
1407.105564,-18727.210333,-1915.238745,4367.215058
1407.105875,-14582.057057,-1225.752797,2220.617826
1407.106186,-8364.327145,-2068.457845,-1628.453072
1407.106498,-3627.009116,-1685.410096,-4293.194464
1407.106809,-1776.494261,153.219100,-5329.482782
1407.107120,-2664.741391,1532.190996,-4367.215058
1407.107432,-7179.997637,1302.362347,-2960.823768
1407.107743,-12509.480420,536.266849,-0.000000
1407.108055,-15470.304188,612.876398,740.205942
1407.108366,-13545.768739,1225.752797,370.102971
1407.108677,-10436.903782,919.314598,-1480.411884
1407.108989,-5773.606348,-995.924147,-4219.173869
1407.109300,-3330.926739,-2068.457845,-6291.750507
1407.109611,-3404.947333,-2145.067394,-4589.276840
1407.109923,-8364.327145,-1072.533697,-2516.700203
1407.110234,-15544.324782,-842.705048,3182.885551
1407.110546,-21391.951724,-1762.019645,6883.915261
1407.110857,-22650.301825,-1838.629195,8142.265362
1407.111168,-15988.448347,-766.095498,4885.359217
1407.111480,-6069.688724,0.000000,-518.144159
1407.111791,2368.659014,1838.629195,-5847.626942
1407.112102,6217.729913,1685.410096,-8956.491898
1407.112414,3775.050304,-229.828649,-7476.080014
1407.112725,-3330.926739,-383.047749,-3478.967927
1407.113036,-12435.459826,-459.657299,2072.576638
1407.113348,-19171.333898,-459.657299,7698.141797
1407.113659,-21762.054695,-1685.410096,9696.697840
1407.113971,-18949.272115,-1532.190996,7994.224174
1407.114282,-11399.171507,459.657299,4811.338623
1407.114593,-4441.235652,1225.752797,814.226536
1407.114905,740.205942,919.314598,-2812.782580
1407.115216,2072.576638,842.705048,-5255.462188
1407.115527,1850.514855,2221.676944,-4811.338623
1407.115839,-1850.514855,2757.943793,-3182.885551
1407.116150,-7846.182985,1225.752797,-0.000000
1407.116462,-12583.501014,-1302.362347,4145.153275
1407.116773,-15988.448347,-3064.381992,6809.894666
1407.117084,-16062.468941,-3217.601092,7105.977043
1407.117396,-14211.954086,-2145.067394,5847.626942
1407.117707,-10732.986159,-995.924147,3182.885551
1407.118018,-5773.606348,-1608.800546,444.123565
1407.118330,-1628.453072,-842.705048,-2590.720797
1407.118641,-518.144159,1991.848295,-4071.132681
1407.118952,-4145.153275,3600.648841,-2368.659014
1407.119264,-9400.615463,3294.210641,-444.123565
1407.119575,-13175.665768,1685.410096,2146.597232
1407.119887,-15544.324782,919.314598,3404.947333
1407.120198,-14582.057057,612.876398,2220.617826
1407.120509,-10214.842000,1072.533697,740.205942
1407.120821,-6365.771101,76.609550,-1554.432478
1407.121132,-3552.988522,-1149.143247,-3256.906145
1407.121443,-3627.009116,-1608.800546,-2294.638420
1407.121755,-8068.244768,-2145.067394,-296.082377
1407.122066,-13767.830521,-1991.848295,2812.782580
1407.122377,-17690.922014,-2451.505594,4663.297435
1407.122689,-17764.942608,-2068.457845,4441.235652
1407.123000,-13175.665768,-766.095498,2590.720797
1407.123312,-6735.874072,-306.438199,-370.102971
1407.123623,-1628.453072,-536.266849,-3997.112087
1407.123934,222.061783,-1072.533697,-5403.503377
1407.124246,-1036.288319,-689.485948,-4663.297435
1407.124557,-5847.626942,-153.219100,-2590.720797
1407.124868,-11917.315666,0.000000,1554.432478
1407.125180,-16950.716072,306.438199,4811.338623
1407.125491,-20133.601622,-306.438199,5107.421000
1407.125803,-17172.777854,76.609550,4959.379811
1407.126114,-12213.398043,1532.190996,1924.535449
1407.126425,-6809.894666,1838.629195,-2220.617826
1407.126737,-148.041188,1685.410096,-5181.441594
1407.127048,3404.947333,383.047749,-8512.368333
1407.127359,3108.864956,1149.143247,-6883.915261
1407.127671,-2516.700203,612.876398,-3775.050304
1407.127982,-10362.883188,-306.438199,962.267725
1407.128293,-17024.736666,-2374.896044,5255.462188
1407.128605,-21317.931130,-3294.210641,8068.244768
1407.128916,-19689.478057,-2987.772442,7179.997637
1407.129228,-14582.057057,-1532.190996,4441.235652
1407.129539,-7624.121203,-919.314598,-518.144159
1407.129850,-1258.350101,-1378.971896,-4071.132681
1407.130162,2220.617826,459.657299,-7402.059420
1407.130473,0.000000,2987.772442,-5033.400406
1407.130784,-6735.874072,3447.429741,-1776.494261
1407.131096,-13915.871710,1149.143247,3182.885551
1407.131407,-16580.613101,0.000000,4737.318029
1407.131719,-14952.160028,-459.657299,3627.009116
1407.132030,-10362.883188,459.657299,1036.288319
1407.132341,-6587.832884,1302.362347,-740.205942
1407.132653,-5551.544565,919.314598,-3182.885551
1407.132964,-6439.791695,-689.485948,-3034.844362
1407.133275,-8364.327145,-383.047749,-1924.535449
1407.133587,-11325.150913,0.000000,888.247130
1407.133898,-13693.809927,-383.047749,2590.720797
1407.134209,-13693.809927,-1838.629195,2368.659014
1407.134521,-10658.965565,-1991.848295,1480.411884
1407.134832,-7994.224174,76.609550,740.205942
1407.135144,-6513.812290,536.266849,-0.000000
1407.135455,-6809.894666,0.000000,-1110.308913
1407.135766,-7105.977043,-919.314598,-1110.308913
1407.136078,-7105.977043,-306.438199,-1110.308913
1407.136389,-7624.121203,306.438199,-444.123565
1407.136700,-8586.388927,919.314598,1258.350101
1407.137012,-11325.150913,0.000000,2886.803174
1407.137323,-13175.665768,-1072.533697,3849.070898
1407.137634,-12805.562797,-459.657299,4071.132681
1407.137946,-11325.150913,1685.410096,2368.659014
1407.138257,-7920.203579,1991.848295,370.102971
1407.138569,-3404.947333,1455.581446,-2368.659014
1407.138880,740.205942,689.485948,-4071.132681
1407.139191,666.185348,1149.143247,-3775.050304
1407.139503,-3701.029710,995.924147,-888.247130
1407.139814,-11325.150913,-1302.362347,3034.844362
1407.140125,-17468.860231,-2911.162892,6069.688724
1407.140437,-19985.560434,-995.924147,7846.182985
1407.140748,-17838.963202,-153.219100,7624.121203
1407.141060,-13101.645173,-842.705048,5107.421000
1407.141371,-6217.729913,-1378.971896,1554.432478
1407.141682,-444.123565,-919.314598,-2072.576638
1407.141994,1480.411884,0.000000,-3330.926739
1407.142305,-740.205942,1302.362347,-1480.411884
1407.142616,-8364.327145,1838.629195,222.061783
1407.142928,-13693.809927,1072.533697,3552.988522
1407.143239,-16210.510130,153.219100,6143.709319
1407.143550,-15544.324782,0.000000,6661.853478
1407.143862,-11843.295072,459.657299,5329.482782
1407.144173,-7772.162391,-459.657299,2960.823768
1407.144485,-4441.235652,-1838.629195,444.123565
1407.144796,-3256.906145,-1685.410096,-296.082377
1407.145107,-4071.132681,-383.047749,-222.061783
1407.145419,-7550.100608,153.219100,1184.329507
1407.145730,-10436.903782,-229.828649,2590.720797
1407.146041,-12139.377449,0.000000,3330.926739
1407.146353,-11399.171507,536.266849,3552.988522
1407.146664,-9178.553681,995.924147,3478.967927
1407.146976,-7328.038826,-459.657299,1924.535449
1407.147287,-5033.400406,-1608.800546,-888.247130
1407.147598,-2886.803174,0.000000,-2812.782580
1407.147910,-3775.050304,1532.190996,-3256.906145
1407.148221,-5181.441594,2451.505594,-2368.659014
1407.148532,-9918.759623,1225.752797,-148.041188
1407.148844,-14582.057057,76.609550,2590.720797
1407.149155,-16062.468941,-306.438199,4293.194464
1407.149466,-14952.160028,842.705048,3775.050304
1407.149778,-10436.903782,1838.629195,1554.432478
1407.150089,-6217.729913,1302.362347,-2220.617826
1407.150401,-1332.370696,0.000000,-5921.647536
1407.150712,740.205942,459.657299,-7105.977043
1407.151023,-1776.494261,919.314598,-6217.729913
1407.151335,-8142.265362,229.828649,-2072.576638
1407.151646,-14952.160028,-2451.505594,1554.432478
1407.151957,-21243.910535,-3983.696590,4145.153275
1407.152269,-22354.219448,-1915.238745,5995.668130
1407.152580,-19615.457463,-229.828649,4959.379811
1407.152891,-14211.954086,-153.219100,2220.617826
1407.153203,-6291.750507,-1915.238745,-2738.761985
1407.153514,1406.391290,-2068.457845,-7105.977043
1407.153826,5181.441594,383.047749,-8956.491898
1407.154137,1776.494261,2298.286494,-6291.750507
1407.154448,-7772.162391,919.314598,-2442.679609
1407.154760,-17987.004391,-306.438199,1850.514855
1407.155071,-24278.754898,-919.314598,6957.935855
1407.155382,-23390.507767,-153.219100,7476.080014
1407.155694,-16136.489536,459.657299,3923.091493
1407.156005,-7624.121203,153.219100,-1554.432478
1407.156317,740.205942,612.876398,-6439.791695
1407.156628,5551.544565,-153.219100,-7254.018232
1407.156939,2960.823768,229.828649,-5699.585753
1407.157251,-5403.503377,1225.752797,-666.185348
1407.157562,-14878.139434,0.000000,3775.050304
1407.157873,-19837.519246,-383.047749,7179.997637
1407.158185,-18653.189738,1455.581446,7550.100608
1407.158496,-12953.603985,995.924147,4737.318029
1407.158807,-5773.606348,-612.876398,888.247130
1407.159119,148.041188,-1608.800546,-3256.906145
1407.159430,3330.926739,-1302.362347,-4663.297435
1407.159742,888.247130,-153.219100,-3849.070898
1407.160053,-5477.523971,229.828649,222.061783
1407.160364,-12731.542202,153.219100,4219.173869
1407.160676,-17468.860231,306.438199,7105.977043
1407.160987,-18209.066173,995.924147,8586.388927
1407.161298,-15174.221811,1532.190996,7105.977043
1407.161610,-9918.759623,1608.800546,3034.844362
1407.161921,-3330.926739,919.314598,-1184.329507
1407.162233,1406.391290,0.000000,-3775.050304
1407.162544,1850.514855,459.657299,-4515.256246
1407.162855,-3330.926739,612.876398,-2368.659014
1407.163167,-10955.047942,229.828649,1702.473667
1407.163478,-16950.716072,-689.485948,7031.956449
1407.163789,-21317.931130,-2298.286494,9918.759623
1407.164101,-20059.581028,-3294.210641,10955.047942
1407.164412,-14878.139434,-2374.896044,8216.285956
1407.164723,-7550.100608,-2451.505594,3701.029710
1407.165035,-592.164754,-1225.752797,-1924.535449
1407.165346,3552.988522,383.047749,-4737.318029
1407.165658,2220.617826,2374.896044,-5551.544565
1407.165969,-3404.947333,2528.115143,-2368.659014
1407.166280,-10955.047942,1838.629195,1480.411884
1407.166592,-17616.901420,459.657299,5551.544565
1407.166903,-19689.478057,-153.219100,8068.244768
1407.167214,-17172.777854,153.219100,6661.853478
1407.167526,-11029.068536,689.485948,2960.823768
1407.167837,-4071.132681,536.266849,-1406.391290
1407.168148,1628.453072,1225.752797,-5403.503377
1407.168460,3404.947333,1455.581446,-7402.059420
1407.168771,-592.164754,2451.505594,-6217.729913
1407.169083,-7105.977043,2528.115143,-2516.700203
1407.169394,-13915.871710,383.047749,1628.453072
1407.169705,-18727.210333,-1532.190996,5329.482782
1407.170017,-18431.127956,-2068.457845,5921.647536
1407.170328,-13693.809927,-2298.286494,3330.926739
1407.170639,-7105.977043,-2145.067394,-740.205942
1407.170951,-1332.370696,-1991.848295,-4885.359217
1407.171262,666.185348,-1532.190996,-6439.791695
1407.171574,-888.247130,-1838.629195,-5699.585753
1407.171885,-6513.812290,-612.876398,-3108.864956
1407.172196,-13989.892304,76.609550,370.102971
1407.172508,-20503.704593,229.828649,4219.173869
1407.172819,-22354.219448,689.485948,4737.318029
1407.173130,-18505.148550,842.705048,2960.823768
1407.173442,-11399.171507,1532.190996,-1036.288319
1407.173753,-3478.967927,1455.581446,-5773.606348
1407.174064,1332.370696,1532.190996,-8586.388927
1407.174376,1480.411884,459.657299,-9548.656652
1407.174687,-2960.823768,0.000000,-5403.503377
1407.174999,-9770.718434,-1532.190996,-1036.288319
1407.175310,-17320.819043,-2911.162892,3478.967927
1407.175621,-21243.910535,-2451.505594,6143.709319
1407.175933,-20577.725188,-1302.362347,5995.668130
1407.176244,-16580.613101,-766.095498,2368.659014
1407.176555,-8586.388927,-1532.190996,-2368.659014
1407.176867,-148.041188,-153.219100,-6735.874072
1407.177178,5181.441594,306.438199,-9104.533087
1407.177490,2812.782580,1225.752797,-7920.203579
1407.177801,-4737.318029,1149.143247,-3404.947333
1407.178112,-13545.768739,766.095498,1258.350101
1407.178424,-19763.498651,-229.828649,6735.874072
1407.178735,-22280.198854,76.609550,7846.182985
1407.179046,-18727.210333,536.266849,4959.379811
1407.179358,-11325.150913,1455.581446,-74.020594
1407.179669,-1924.535449,2374.896044,-5181.441594
1407.179980,5255.462188,1915.238745,-8142.265362
1407.180292,5773.606348,1838.629195,-8290.306550
1407.180603,-1406.391290,1149.143247,-3552.988522
1407.180915,-9400.615463,0.000000,2368.659014
1407.181226,-17616.901420,-2068.457845,7105.977043
1407.181537,-21095.869347,-1838.629195,9252.574275
1407.181849,-17912.983796,-1455.581446,8142.265362
1407.182160,-11843.295072,-2221.676944,4589.276840
1407.182471,-5551.544565,-2757.943793,666.185348
1407.182783,-740.205942,-2757.943793,-3182.885551
1407.183094,1332.370696,-1532.190996,-4737.318029
1407.183405,-1850.514855,306.438199,-1850.514855
1407.183717,-9252.574275,-766.095498,2442.679609
1407.184028,-16062.468941,-1608.800546,6069.688724
1407.184340,-19097.313304,-1608.800546,8956.491898
1407.184651,-17764.942608,0.000000,9030.512492
1407.184962,-12287.418637,842.705048,6809.894666
1407.185274,-6291.750507,612.876398,2886.803174
1407.185585,-1184.329507,306.438199,-1406.391290
1407.185896,2146.597232,995.924147,-3923.091493
1407.186208,1628.453072,1838.629195,-3997.112087
1407.186519,-4219.173869,2604.724693,-740.205942
1407.186831,-10658.965565,1378.971896,2886.803174
1407.187142,-16506.592507,-919.314598,6809.894666
1407.187453,-18949.272115,-536.266849,8956.491898
1407.187765,-16358.551318,0.000000,8586.388927
1407.188076,-10066.800811,153.219100,5033.400406
1407.188387,-3701.029710,-919.314598,-0.000000
1407.188699,888.247130,153.219100,-3923.091493
1407.189010,2812.782580,306.438199,-6069.688724
1407.189321,296.082377,1532.190996,-4885.359217
1407.189633,-6143.709319,1532.190996,-1406.391290
1407.189944,-13323.706956,229.828649,2368.659014
1407.190256,-18135.045579,-995.924147,6143.709319
1407.190567,-19171.333898,-1225.752797,6957.935855
1407.190878,-15766.386565,153.219100,5033.400406
1407.191190,-9474.636058,-383.047749,814.226536
1407.191501,-2220.617826,0.000000,-4589.276840
1407.191812,2886.803174,766.095498,-7550.100608
1407.192124,2146.597232,536.266849,-8808.450710
1407.192435,-3256.906145,306.438199,-5403.503377
1407.192746,-11769.274478,919.314598,-1184.329507
1407.193058,-19097.313304,-842.705048,3627.009116
1407.193369,-22280.198854,-2221.676944,5847.626942
1407.193681,-20503.704593,-1685.410096,4811.338623
1407.193992,-13767.830521,-1072.533697,1258.350101
1407.194303,-6069.688724,-1685.410096,-3849.070898
1407.194615,-148.041188,-1608.800546,-7254.018232
1407.194926,2072.576638,-995.924147,-9030.512492
1407.195237,-1776.494261,-766.095498,-7476.080014
1407.195549,-10140.821405,-689.485948,-2220.617826
1407.195860,-18431.127956,-1608.800546,2516.700203
1407.196172,-22946.384202,-2604.724693,4737.318029
1407.196483,-21688.034101,-1762.019645,5033.400406
1407.196794,-14878.139434,-1072.533697,1628.453072
1407.197106,-6439.791695,-612.876398,-2590.720797
1407.197417,222.061783,459.657299,-8142.265362
1407.197728,3478.967927,689.485948,-9844.739029
1407.198040,1702.473667,2221.676944,-8364.327145
1407.198351,-5477.523971,1762.019645,-3849.070898
1407.198662,-13841.851115,459.657299,1554.432478
1407.198974,-20873.807564,-1302.362347,5773.606348
1407.199285,-22206.178260,-842.705048,6883.915261
1407.199597,-17246.798449,1149.143247,4663.297435
1407.199908,-9770.718434,1685.410096,-74.020594
1407.200219,-2368.659014,1532.190996,-4293.194464
1407.200531,2738.761985,689.485948,-6883.915261
1407.200842,4145.153275,689.485948,-7031.956449
1407.201153,-1110.308913,1455.581446,-2368.659014
1407.201465,-9178.553681,766.095498,2368.659014
1407.201776,-16136.489536,-1072.533697,6439.791695
1407.202088,-19689.478057,-2068.457845,9030.512492
1407.202399,-17394.839637,-1762.019645,9104.533087
1407.202710,-12953.603985,-612.876398,5625.565159
1407.203022,-7698.141797,-383.047749,962.267725
1407.203333,-2072.576638,612.876398,-1998.556043
1407.203644,296.082377,-306.438199,-3404.947333
1407.203956,-592.164754,0.000000,-1406.391290
1407.204267,-5477.523971,689.485948,2294.638420
1407.204579,-12213.398043,-766.095498,5699.585753
1407.204890,-15766.386565,-1532.190996,9104.533087
1407.205202,-16136.489536,-1072.533697,10955.047942
1407.205513,-13915.871710,-459.657299,8956.491898
1407.205824,-9178.553681,-995.924147,6069.688724
1407.206136,-4441.235652,-1608.800546,2442.679609
1407.206447,-222.061783,-1455.581446,-1554.432478
1407.206759,1332.370696,995.924147,-2442.679609
1407.207070,-2220.617826,1608.800546,-1184.329507
1407.207382,-8808.450710,1149.143247,1850.514855
1407.207693,-14211.954086,229.828649,6069.688724
1407.208004,-16802.674883,0.000000,8734.430116
1407.208316,-15692.365970,919.314598,9252.574275
1407.208627,-11325.150913,536.266849,6587.832884
1407.208939,-5255.462188,0.000000,1924.535449
1407.209250,222.061783,1378.971896,-4145.153275
1407.209562,2738.761985,2451.505594,-6069.688724
1407.209873,-1110.308913,2987.772442,-5995.668130
1407.210184,-6883.915261,2298.286494,-2072.576638
1407.210496,-14211.954086,1378.971896,888.247130
1407.210807,-19467.416275,-612.876398,5403.503377
1407.211119,-19911.539840,-919.314598,6883.915261
1407.211430,-15766.386565,-383.047749,5477.523971
1407.211742,-8734.430116,-459.657299,1406.391290
1407.212053,-1554.432478,-1302.362347,-2812.782580
1407.212364,2590.720797,0.000000,-7698.141797
1407.212676,888.247130,995.924147,-7772.162391
1407.212987,-4737.318029,2145.067394,-5329.482782
1407.213299,-12509.480420,766.095498,-592.164754
1407.213610,-19467.416275,-1685.410096,3256.906145
1407.213922,-22872.363608,-2604.724693,5477.523971
1407.214233,-19467.416275,-2068.457845,4737.318029
1407.214545,-12657.521608,-1685.410096,1258.350101
1407.214856,-6365.771101,-1991.848295,-2812.782580
1407.215167,-1110.308913,-919.314598,-7254.018232
1407.215479,1184.329507,0.000000,-7254.018232
1407.215790,-2664.741391,306.438199,-4737.318029
1407.216102,-8438.347739,0.000000,-592.164754
1407.216413,-14804.118840,-1455.581446,2664.741391
1407.216725,-17320.819043,-1685.410096,4441.235652
1407.217036,-15988.448347,-1378.971896,3775.050304
1407.217347,-12879.583391,0.000000,1924.535449
1407.217659,-8586.388927,0.000000,-814.226536
1407.217970,-5477.523971,-383.047749,-4145.153275
1407.218282,-3701.029710,0.000000,-4515.256246
1407.218593,-3478.967927,536.266849,-4145.153275
1407.218905,-3923.091493,612.876398,-2294.638420
1407.219216,-7031.956449,76.609550,-74.020594
1407.219527,-11473.192101,76.609550,2664.741391
1407.219839,-14137.933492,459.657299,4367.215058
1407.220150,-15396.283594,1685.410096,3775.050304
1407.220462,-13397.727550,1532.190996,1924.535449
1407.220773,-9252.574275,995.924147,-1184.329507
1407.221085,-4515.256246,842.705048,-3997.112087
1407.221396,0.000000,1838.629195,-5847.626942
1407.221708,74.020594,536.266849,-4811.338623
1407.222019,-4737.318029,-612.876398,-1480.411884
1407.222330,-12065.356855,-1762.019645,3627.009116
1407.222642,-17912.983796,-1915.238745,6809.894666
1407.222953,-20059.581028,-1532.190996,8734.430116
1407.223265,-16876.695478,-612.876398,6365.771101
1407.223576,-9622.677246,689.485948,2812.782580
1407.223888,-2146.597232,612.876398,-2590.720797
1407.224199,2812.782580,0.000000,-4811.338623
1407.224510,2072.576638,306.438199,-4663.297435
1407.224822,-4367.215058,0.000000,-888.247130
1407.225133,-12583.501014,-995.924147,2960.823768
1407.225445,-19541.436869,-2987.772442,7476.080014
1407.225756,-21762.054695,-2145.067394,9326.594869
1407.226068,-17838.963202,-995.924147,8734.430116
1407.226379,-11325.150913,-1225.752797,4737.318029
1407.226690,-4885.359217,-1225.752797,1110.308913
1407.227002,0.000000,766.095498,-3256.906145
1407.227313,3108.864956,1532.190996,-3923.091493
1407.227625,444.123565,1991.848295,-3256.906145
1407.227936,-5551.544565,1532.190996,148.041188
1407.228248,-11917.315666,842.705048,3034.844362
1407.228559,-16506.592507,536.266849,6069.688724
1407.228870,-17690.922014,995.924147,7846.182985
1407.229182,-14804.118840,76.609550,6143.709319
1407.229493,-10066.800811,-919.314598,2960.823768
1407.229805,-4441.235652,-842.705048,-518.144159
1407.230116,814.226536,229.828649,-4737.318029
1407.230428,1850.514855,2068.457845,-4811.338623
1407.230739,-2442.679609,3064.381992,-2590.720797
1407.231051,-9474.636058,2221.676944,814.226536
1407.231362,-14211.954086,1072.533697,4737.318029
1407.231673,-16580.613101,383.047749,6957.935855
1407.231985,-15100.201217,689.485948,6217.729913
1407.232296,-10066.800811,153.219100,2368.659014
1407.232608,-4737.318029,-995.924147,-2294.638420
1407.232919,0.000000,-153.219100,-6217.729913
1407.233231,0.000000,229.828649,-6217.729913
1407.233542,-5403.503377,153.219100,-3775.050304
1407.233853,-11843.295072,0.000000,296.082377
1407.234165,-17468.860231,-1072.533697,4071.132681
1407.234476,-19615.457463,-995.924147,5625.565159
1407.234788,-17616.901420,153.219100,4663.297435
1407.235099,-12509.480420,1149.143247,1480.411884
1407.235411,-6809.894666,1225.752797,-1776.494261
1407.235722,-1702.473667,383.047749,-5477.523971
1407.236033,74.020594,-153.219100,-7031.956449
1407.236345,-3256.906145,0.000000,-6883.915261
1407.236656,-8290.306550,0.000000,-2220.617826
1407.236968,-13397.727550,-1378.971896,1480.411884
1407.237279,-17246.798449,-3524.039291,4293.194464
1407.237591,-17987.004391,-2604.724693,5477.523971
1407.237902,-15840.407159,-2145.067394,3182.885551
1407.238213,-11177.109724,-1072.533697,1332.370696
1407.238525,-5477.523971,-383.047749,-3404.947333
1407.238836,-1258.350101,995.924147,-6735.874072
1407.239148,592.164754,1149.143247,-7402.059420
1407.239459,-2146.597232,1378.971896,-6365.771101
1407.239771,-7031.956449,1532.190996,-2442.679609
1407.240082,-13323.706956,-306.438199,1184.329507
1407.240394,-18431.127956,-1378.971896,4515.256246
1407.240705,-19615.457463,-612.876398,5033.400406
1407.241016,-15840.407159,689.485948,3552.988522
1407.241328,-10436.903782,995.924147,222.061783
1407.241639,-3182.885551,536.266849,-3034.844362
1407.241951,1258.350101,229.828649,-5329.482782
1407.242262,2368.659014,459.657299,-5773.606348
1407.242574,-888.247130,612.876398,-3478.967927
1407.242885,-7254.018232,1149.143247,444.123565
1407.243196,-14656.077652,536.266849,4071.132681
1407.243508,-19393.395680,-459.657299,6365.771101
1407.243819,-19245.354492,-1072.533697,6809.894666
1407.244131,-13693.809927,-1149.143247,3330.926739
1407.244442,-6069.688724,-2221.676944,-296.082377
1407.244754,0.000000,-2298.286494,-2960.823768
1407.245065,2368.659014,-2298.286494,-4071.132681
1407.245376,-1258.350101,-1532.190996,-1702.473667
1407.245688,-7920.203579,-1072.533697,2220.617826
1407.245999,-15692.365970,-919.314598,5551.544565
1407.246311,-20059.581028,459.657299,8808.450710
1407.246622,-18875.251521,1532.190996,8216.285956
1407.246934,-11843.295072,1072.533697,4515.256246
1407.247245,-4737.318029,536.266849,148.041188
1407.247556,1480.411884,459.657299,-3627.009116
1407.247868,3627.009116,459.657299,-5921.647536
1407.248179,0.000000,1302.362347,-3923.091493
1407.248491,-7105.977043,612.876398,-296.082377
1407.248802,-14508.036463,-306.438199,3627.009116
1407.249114,-19615.457463,-612.876398,7328.038826
1407.249425,-19319.375086,76.609550,7476.080014
1407.249737,-14656.077652,306.438199,4737.318029
1407.250048,-8586.388927,612.876398,814.226536
1407.250359,-2516.700203,842.705048,-3775.050304
1407.250671,1702.473667,1838.629195,-6513.812290
1407.250982,1036.288319,1838.629195,-6957.935855
1407.251294,-4589.276840,1685.410096,-3404.947333
1407.251605,-11177.109724,459.657299,1110.308913
1407.251917,-17246.798449,-1455.581446,4885.359217
1407.252228,-18875.251521,-2374.896044,7624.121203
1407.252539,-15618.345376,-1991.848295,6513.812290
1407.252851,-11621.233289,-2221.676944,2664.741391
1407.253162,-5699.585753,-2221.676944,-814.226536
1407.253474,-2072.576638,0.000000,-5551.544565
1407.253785,-814.226536,1685.410096,-6957.935855
1407.254097,-2220.617826,2298.286494,-5921.647536
1407.254408,-7328.038826,2451.505594,-2664.741391
1407.254719,-12361.439231,919.314598,592.164754
1407.255031,-15988.448347,-612.876398,3701.029710
1407.255342,-17024.736666,-1455.581446,4589.276840
1407.255654,-15544.324782,-1302.362347,3775.050304
1407.255965,-10955.047942,-1532.190996,296.082377
1407.256277,-4959.379811,-2298.286494,-2590.720797
1407.256588,-1332.370696,-1532.190996,-5625.565159
1407.256900,-888.247130,-1225.752797,-5181.441594
1407.257211,-5255.462188,-1302.362347,-2664.741391
1407.257522,-10584.944971,-1378.971896,962.267725
1407.257834,-15988.448347,-1608.800546,4219.173869
1407.258145,-18209.066173,-1532.190996,6217.729913
1407.258457,-16358.551318,-1608.800546,5181.441594
1407.258768,-10658.965565,-1608.800546,2294.638420
1407.259080,-3923.091493,-766.095498,-2294.638420
1407.259391,148.041188,919.314598,-5329.482782
1407.259702,1184.329507,1378.971896,-6143.709319
1407.260014,-3330.926739,1532.190996,-3701.029710
1407.260325,-9622.677246,919.314598,370.102971
1407.260637,-15766.386565,459.657299,3923.091493
1407.260948,-18801.230927,383.047749,6069.688724
1407.261260,-17394.839637,1762.019645,5551.544565
1407.261571,-12213.398043,536.266849,2516.700203
1407.261882,-5773.606348,229.828649,-1554.432478
1407.262194,-296.082377,306.438199,-5699.585753
1407.262505,2220.617826,612.876398,-5921.647536
1407.262817,-1776.494261,842.705048,-4737.318029
1407.263128,-8290.306550,-459.657299,-0.000000
1407.263440,-14952.160028,-536.266849,4071.132681
1407.263751,-20133.601622,-2068.457845,7698.141797
1407.264062,-19393.395680,-2528.115143,9104.533087
1407.264374,-13989.892304,-2451.505594,5625.565159
1407.264685,-7179.997637,-2068.457845,1628.453072
1407.264997,-1480.411884,-689.485948,-2886.803174
1407.265308,1110.308913,-153.219100,-4811.338623
1407.265620,-518.144159,995.924147,-5477.523971
1407.265931,-5255.462188,1838.629195,-2220.617826
1407.266243,-11991.336260,1072.533697,2442.679609
1407.266554,-16950.716072,0.000000,6439.791695
1407.266865,-18061.024985,0.000000,7698.141797
1407.267177,-14952.160028,-612.876398,6587.832884
1407.267488,-9548.656652,-1455.581446,3701.029710
1407.267800,-3256.906145,-919.314598,-814.226536
1407.268111,814.226536,-612.876398,-4367.215058
1407.268423,1776.494261,0.000000,-5477.523971
1407.268734,-2442.679609,612.876398,-3775.050304
1407.269045,-8660.409521,536.266849,-0.000000
1407.269357,-14952.160028,-842.705048,3034.844362
1407.269668,-19023.292709,-2221.676944,6439.791695
1407.269980,-17912.983796,-1378.971896,6513.812290
1407.270291,-12139.377449,-766.095498,3775.050304
1407.270603,-6587.832884,-1149.143247,-1110.308913
1407.270914,-1258.350101,153.219100,-3701.029710
1407.271225,740.205942,229.828649,-5995.668130
1407.271537,-1924.535449,1838.629195,-5107.421000
1407.271848,-7402.059420,1991.848295,-1184.329507
1407.272160,-14359.995275,1149.143247,2220.617826
1407.272471,-18801.230927,842.705048,5329.482782
1407.272783,-17616.901420,1225.752797,5403.503377
1407.273094,-13693.809927,842.705048,3330.926739
1407.273405,-8882.471304,919.314598,296.082377
1407.273717,-3330.926739,1149.143247,-2886.803174
1407.274028,592.164754,1149.143247,-5403.503377
1407.274340,518.144159,229.828649,-4737.318029
1407.274651,-4737.318029,-153.219100,-1406.391290
1407.274963,-10807.006753,-1302.362347,2220.617826
