#time,accel_x,accel_y,accel_z
1431.904584,-8808.450710,-229.828649,592.164754
1431.904895,-9104.533087,0.000000,518.144159
1431.905206,-9030.512492,229.828649,296.082377
1431.905518,-8660.409521,0.000000,592.164754
1431.905829,-8586.388927,-383.047749,370.102971
1431.906140,-9030.512492,-766.095498,444.123565
1431.906452,-8808.450710,-153.219100,518.144159
1431.906763,-8882.471304,0.000000,518.144159
1431.907074,-8808.450710,0.000000,666.185348
1431.907385,-8956.491898,0.000000,518.144159
1431.907697,-8808.450710,-153.219100,518.144159
1431.908008,-9030.512492,229.828649,74.020594
1431.908319,-8956.491898,153.219100,148.041188
1431.908631,-8882.471304,229.828649,444.123565
1431.908942,-9030.512492,153.219100,444.123565
1431.909253,-8956.491898,-153.219100,666.185348
1431.909564,-9178.553681,0.000000,592.164754
1431.909876,-8882.471304,0.000000,518.144159
1431.910187,-9178.553681,0.000000,740.205942
1431.910498,-9030.512492,0.000000,148.041188
1431.910810,-9178.553681,-612.876398,296.082377
1431.911121,-8660.409521,0.000000,666.185348
1431.911432,-9030.512492,-229.828649,444.123565
1431.911744,-8882.471304,0.000000,592.164754
1431.912055,-9030.512492,0.000000,518.144159
1431.912366,-9030.512492,153.219100,518.144159
1431.912677,-9030.512492,383.047749,666.185348
1431.912989,-8734.430116,-383.047749,518.144159
1431.913300,-8734.430116,0.000000,148.041188
1431.913611,-8808.450710,0.000000,370.102971
1431.913923,-9030.512492,0.000000,370.102971
1431.914234,-9104.533087,0.000000,444.123565
1431.914545,-9030.512492,0.000000,666.185348
1431.914856,-8586.388927,0.000000,666.185348
1431.915168,-8956.491898,-229.828649,222.061783
1431.915479,-8734.430116,0.000000,888.247130
1431.915790,-8882.471304,-536.266849,444.123565
1431.916102,-8956.491898,-306.438199,518.144159
1431.916413,-8882.471304,0.000000,518.144159
1431.916724,-8882.471304,0.000000,592.164754
1431.917035,-8956.491898,-229.828649,740.205942
1431.917347,-8808.450710,0.000000,148.041188
1431.917658,-8882.471304,76.609550,296.082377
1431.917969,-8882.471304,0.000000,370.102971
1431.918281,-8734.430116,229.828649,740.205942
1431.918592,-9030.512492,76.609550,592.164754
1431.918903,-8882.471304,0.000000,666.185348
1431.919215,-8956.491898,76.609550,592.164754
1431.919526,-8882.471304,459.657299,370.102971
1431.919837,-8882.471304,-229.828649,444.123565
1431.920148,-8882.471304,-153.219100,592.164754
1431.920460,-9252.574275,-229.828649,444.123565
1431.920771,-9030.512492,0.000000,-0.000000
1431.921082,-8808.450710,-153.219100,444.123565
1431.921394,-8882.471304,0.000000,444.123565
1431.921705,-9104.533087,0.000000,444.123565
1431.922016,-9474.636058,0.000000,222.061783
1431.922327,-8660.409521,0.000000,444.123565
1431.922639,-8734.430116,-153.219100,222.061783
1431.922950,-8808.450710,306.438199,222.061783
1431.923261,-8956.491898,76.609550,518.144159
1431.923573,-9178.553681,0.000000,592.164754
1431.923884,-9104.533087,0.000000,592.164754
1431.924195,-9104.533087,-153.219100,592.164754
1431.924507,-8808.450710,0.000000,444.123565
1431.924818,-9030.512492,0.000000,296.082377
1431.925129,-8882.471304,153.219100,962.267725
1431.925440,-8734.430116,0.000000,444.123565
1431.925752,-8808.450710,76.609550,592.164754
1431.926063,-8882.471304,0.000000,444.123565
1431.926374,-8734.430116,0.000000,740.205942
1431.926686,-9030.512492,-229.828649,444.123565
1431.926997,-8808.450710,153.219100,370.102971
1431.927308,-8660.409521,-459.657299,518.144159
1431.927619,-8808.450710,0.000000,222.061783
1431.927931,-9030.512492,153.219100,370.102971
1431.928242,-8882.471304,0.000000,370.102971
1431.928553,-8882.471304,0.000000,518.144159
1431.928865,-8882.471304,0.000000,666.185348
1431.929176,-9104.533087,459.657299,444.123565
1431.929487,-8808.450710,0.000000,444.123565
1431.929798,-8808.450710,0.000000,518.144159
1431.930110,-8882.471304,76.609550,666.185348
1431.930421,-8734.430116,153.219100,740.205942
1431.930732,-8882.471304,0.000000,592.164754
1431.931044,-9104.533087,-306.438199,370.102971
1431.931355,-9030.512492,76.609550,444.123565
1431.931666,-9030.512492,-306.438199,370.102971
1431.931978,-9104.533087,229.828649,740.205942
1431.932289,-8734.430116,459.657299,518.144159
1431.932600,-8734.430116,536.266849,444.123565
1431.932911,-9104.533087,153.219100,296.082377
1431.933223,-9178.553681,0.000000,444.123565
1431.933534,-9104.533087,0.000000,444.123565
1431.933845,-9178.553681,-153.219100,518.144159
1431.934157,-11251.130318,459.657299,-0.000000
1431.934468,-11917.315666,2911.162892,592.164754
1431.934779,-9030.512492,5056.230287,740.205942
1431.935090,-7476.080014,4519.963438,592.164754
1431.935402,-6587.832884,1838.629195,1480.411884
1431.935713,-6587.832884,-1149.143247,370.102971
1431.936024,-7402.059420,-1608.800546,-74.020594
1431.936336,-7105.977043,-766.095498,-0.000000
1431.936647,-10510.924376,-842.705048,-1110.308913
1431.936958,-12805.562797,-919.314598,-666.185348
1431.937270,-10436.903782,1608.800546,-0.000000
1431.937581,-9178.553681,153.219100,1258.350101
1431.937892,-8808.450710,-459.657299,3034.844362
1431.938203,-11769.274478,0.000000,1628.453072
1431.938515,-9474.636058,3600.648841,2368.659014
1431.938826,-5033.400406,5362.668486,2294.638420
1431.939137,-7105.977043,3677.258390,1258.350101
1431.939449,-7328.038826,2451.505594,-148.041188
1431.939760,-7179.997637,3830.477490,-2220.617826
1431.940071,-9030.512492,3677.258390,-1924.535449
1431.940382,-8808.450710,4136.915689,-296.082377
1431.940694,-11621.233289,3140.991542,-1480.411884
1431.941005,-14582.057057,-306.438199,-0.000000
1431.941316,-9400.615463,-1225.752797,2738.761985
1431.941628,-9696.697840,76.609550,740.205942
1431.941939,-9548.656652,5209.449386,1998.556043
1431.942250,-7550.100608,6358.592633,2072.576638
1431.942561,-7476.080014,3140.991542,2220.617826
1431.942873,-5921.647536,3677.258390,2368.659014
1431.943184,-7328.038826,6052.154434,814.226536
1431.943495,-8216.285956,6971.469032,-666.185348
1431.943807,-9178.553681,5898.935335,-1258.350101
1431.944118,-9548.656652,5056.230287,-1406.391290
1431.944429,-10658.965565,5822.325785,-1554.432478
1431.944741,-12287.418637,5592.497135,-0.000000
1431.945052,-11695.253884,5132.839837,1110.308913
1431.945363,-10066.800811,3677.258390,1850.514855
1431.945674,-9622.677246,4519.963438,2294.638420
1431.945986,-6809.894666,5515.887586,1776.494261
1431.946297,-5107.421000,6052.154434,-74.020594
1431.946608,-5255.462188,5209.449386,962.267725
1431.946920,-4737.318029,4749.792088,222.061783
1431.947231,-5995.668130,3830.477490,-1036.288319
1431.947542,-7624.121203,3983.696590,-370.102971
1431.947853,-9252.574275,3064.381992,-666.185348
1431.948165,-10658.965565,1915.238745,222.061783
1431.948476,-10807.006753,536.266849,814.226536
1431.948787,-10807.006753,0.000000,1554.432478
1431.949099,-10658.965565,995.924147,1480.411884
1431.949410,-10066.800811,2221.676944,2368.659014
1431.949721,-8882.471304,3677.258390,1998.556043
1431.950033,-6587.832884,3524.039291,370.102971
1431.950344,-6217.729913,3064.381992,296.082377
1431.950655,-6735.874072,3830.477490,-888.247130
1431.950966,-6661.853478,3907.087040,-1036.288319
1431.951278,-7328.038826,2451.505594,-1554.432478
1431.951589,-8808.450710,-612.876398,-814.226536
1431.951900,-9770.718434,-2374.896044,-0.000000
1431.952212,-11769.274478,-2374.896044,962.267725
1431.952523,-13101.645173,-2068.457845,1776.494261
1431.952834,-13471.748144,-1225.752797,1702.473667
1431.953145,-12879.583391,689.485948,1554.432478
1431.953457,-11917.315666,2298.286494,740.205942
1431.953768,-8808.450710,4903.011187,148.041188
1431.954079,-7031.956449,5056.230287,-814.226536
1431.954391,-5403.503377,4979.620737,370.102971
1431.954702,-6069.688724,4443.353888,740.205942
1431.955013,-7698.141797,2911.162892,148.041188
1431.955324,-9918.759623,1915.238745,-370.102971
1431.955636,-11843.295072,995.924147,-148.041188
1431.955947,-13101.645173,153.219100,148.041188
1431.956258,-13915.871710,-1072.533697,148.041188
1431.956570,-13841.851115,-383.047749,444.123565
1431.956881,-12065.356855,2221.676944,666.185348
1431.957192,-9844.739029,3524.039291,1850.514855
1431.957504,-7402.059420,4366.744339,2146.597232
1431.957815,-4441.235652,5056.230287,2072.576638
1431.958126,-2442.679609,5898.935335,592.164754
1431.958437,-1702.473667,6665.030833,-666.185348
1431.958749,-2368.659014,4903.011187,-1998.556043
1431.959060,-6365.771101,4290.134789,-2812.782580
1431.959371,-10066.800811,3140.991542,-1258.350101
1431.959683,-13915.871710,2834.553343,-222.061783
1431.959994,-15618.345376,2987.772442,2146.597232
1431.960305,-15174.221811,2451.505594,3404.947333
1431.960616,-12509.480420,2757.943793,3997.112087
1431.960928,-7846.182985,3370.820191,3108.864956
1431.961239,-4737.318029,3830.477490,1850.514855
1431.961550,-1628.453072,6511.811733,148.041188
1431.961862,-1036.288319,7124.688131,-1332.370696
1431.962173,-3182.885551,7124.688131,-2072.576638
1431.962484,-6291.750507,4903.011187,-2146.597232
1431.962796,-8512.368333,3294.210641,-1184.329507
1431.963107,-10510.924376,1532.190996,-0.000000
1431.963418,-11177.109724,-919.314598,888.247130
1431.963729,-12879.583391,-3294.210641,1110.308913
1431.964041,-13027.624579,-2987.772442,1998.556043
1431.964352,-12879.583391,-1072.533697,1998.556043
1431.964663,-12435.459826,1915.238745,2072.576638
1431.964975,-11251.130318,4443.353888,2294.638420
1431.965286,-9400.615463,5669.106685,2294.638420
1431.965597,-6883.915261,5898.935335,1998.556043
1431.965908,-6069.688724,4366.744339,370.102971
1431.966220,-5477.523971,3983.696590,-0.000000
1431.966531,-6735.874072,3217.601092,-2368.659014
1431.966842,-8808.450710,3370.820191,-2960.823768
1431.967154,-10510.924376,3064.381992,-2886.803174
1431.967465,-11843.295072,3140.991542,-1110.308913
1431.967776,-12509.480420,1991.848295,370.102971
1431.968087,-13323.706956,1455.581446,1628.453072
1431.968399,-12361.439231,1302.362347,2368.659014
1431.968710,-12213.398043,2911.162892,2220.617826
1431.969021,-10436.903782,6281.983084,1998.556043
1431.969333,-8142.265362,7354.516781,666.185348
1431.969644,-6883.915261,6358.592633,-888.247130
1431.969955,-5625.565159,4213.525239,-888.247130
1431.970267,-6217.729913,3140.991542,-1480.411884
1431.970578,-7846.182985,2911.162892,-1332.370696
1431.970889,-8142.265362,2068.457845,296.082377
1431.971200,-9252.574275,383.047749,370.102971
1431.971512,-9104.533087,-1378.971896,1480.411884
1431.971823,-7846.182985,-2451.505594,1924.535449
1431.972134,-7550.100608,-919.314598,1480.411884
1431.972446,-8882.471304,2757.943793,296.082377
1431.972757,-9474.636058,7814.174080,-370.102971
1431.973068,-9770.718434,10572.117872,-296.082377
1431.973379,-10140.821405,9499.584175,370.102971
1431.973691,-9474.636058,6741.640382,592.164754
1431.974002,-8586.388927,3600.648841,740.205942
1431.974313,-8216.285956,3064.381992,-0.000000
1431.974625,-6661.853478,3907.087040,1036.288319
1431.974936,-5403.503377,2834.553343,444.123565
1431.975247,-5181.441594,0.000000,518.144159
1431.975559,-5403.503377,-2221.676944,814.226536
1431.975870,-8068.244768,-766.095498,-296.082377
1431.976181,-10288.862594,3677.258390,-1036.288319
1431.976492,-11991.336260,7660.954980,-370.102971
1431.976804,-12879.583391,7277.907231,962.267725
1431.977115,-13841.851115,3600.648841,2516.700203
1431.977426,-13767.830521,1302.362347,3330.926739
1431.977738,-10732.986159,2681.334243,2812.782580
1431.978050,-7920.203579,3217.601092,1702.473667
1431.978361,-5477.523971,1378.971896,1924.535449
1431.978673,-3627.009116,-2451.505594,296.082377
1431.978984,-4885.359217,-6435.202183,-740.205942
1431.979296,-5773.606348,-3983.696590,-148.041188
1431.979607,-6291.750507,2451.505594,-1110.308913
1431.979919,-10288.862594,5669.106685,-1332.370696
1431.980230,-13841.851115,4213.525239,666.185348
1431.980542,-18209.066173,1608.800546,1332.370696
1431.980853,-16654.633695,3600.648841,3256.906145
1431.981165,-13397.727550,7507.735880,2738.761985
1431.981476,-9326.594869,7201.297681,1850.514855
1431.981788,-4737.318029,2451.505594,666.185348
1431.982099,-2442.679609,-2221.676944,-518.144159
1431.982411,-370.102971,-842.705048,-666.185348
1431.982722,-518.144159,2145.067394,-666.185348
1431.983034,-6069.688724,4673.182538,-814.226536
1431.983345,-12731.542202,2604.724693,-222.061783
1431.983657,-15396.283594,1685.410096,740.205942
1431.983968,-15100.201217,3217.601092,666.185348
1431.984280,-12361.439231,5362.668486,444.123565
1431.984591,-11399.171507,3677.258390,-1110.308913
1431.984903,-10288.862594,0.000000,-2220.617826
1431.985214,-7031.956449,995.924147,-1702.473667
1431.985526,-4515.256246,1915.238745,-444.123565
1431.985837,-4959.379811,1378.971896,1924.535449
1431.986149,-7179.997637,-1915.238745,3997.112087
1431.986460,-9474.636058,-4290.134789,3997.112087
1431.986772,-8142.265362,-1532.190996,3627.009116
1431.987083,-7698.141797,4366.744339,740.205942
1431.987395,-8438.347739,7584.345430,-1924.535449
1431.987706,-9622.677246,4903.011187,-4071.132681
1431.988018,-8882.471304,4213.525239,-4959.379811
1431.988329,-7254.018232,6588.421283,-3997.112087
1431.988641,-11769.274478,7507.735880,-2146.597232
1431.988952,-15322.262999,4136.915689,1480.411884
1431.989264,-14804.118840,-459.657299,3552.988522
1431.989576,-10955.047942,-3524.039291,5329.482782
1431.989887,-6587.832884,-2987.772442,4219.173869
1431.990199,-4145.153275,-2451.505594,1406.391290
1431.990510,-1998.556043,-766.095498,-1702.473667
1431.990822,0.000000,-919.314598,-2294.638420
1431.991133,-2516.700203,153.219100,-1406.391290
1431.991445,-10584.944971,689.485948,-518.144159
1431.991756,-16950.716072,689.485948,962.267725
1431.992068,-17172.777854,612.876398,3997.112087
1431.992379,-14804.118840,-153.219100,4589.276840
1431.992691,-12435.459826,-1915.238745,1924.535449
1431.993002,-8512.368333,-2374.896044,592.164754
1431.993314,-3478.967927,-3217.601092,-1258.350101
1431.993625,-1036.288319,-3140.991542,-0.000000
1431.993937,-3849.070898,-2604.724693,962.267725
1431.994248,-8438.347739,-2604.724693,1258.350101
1431.994560,-10362.883188,-2757.943793,2294.638420
1431.994871,-9770.718434,-1991.848295,3849.070898
1431.995183,-9474.636058,-1608.800546,2886.803174
1431.995494,-10658.965565,-2451.505594,-888.247130
1431.995806,-9178.553681,-1302.362347,-3034.844362
1431.996117,-7698.141797,-995.924147,-2664.741391
1431.996429,-8660.409521,-459.657299,-1036.288319
1431.996740,-12287.418637,-1762.019645,962.267725
1431.997052,-14508.036463,-2681.334243,1702.473667
1431.997363,-13101.645173,-2451.505594,4441.235652
1431.997675,-11029.068536,919.314598,4515.256246
1431.997986,-8364.327145,2757.943793,814.226536
1431.998298,-4885.359217,2451.505594,-2072.576638
1431.998609,-592.164754,2451.505594,-2738.761985
1431.998921,-1554.432478,3983.696590,-2812.782580
1431.999232,-8512.368333,4903.011187,-3627.009116
1431.999544,-15840.407159,4903.011187,-2960.823768
1431.999855,-18061.024985,3753.867940,-518.144159
1432.000167,-17024.736666,2911.162892,3034.844362
1432.000479,-15396.283594,536.266849,3404.947333
1432.000790,-11843.295072,-2298.286494,666.185348
1432.001102,-5107.421000,-2834.553343,518.144159
1432.001413,-296.082377,-1762.019645,1332.370696
1432.001725,-1776.494261,383.047749,666.185348
1432.002036,-7031.956449,1378.971896,-1184.329507
1432.002348,-9326.594869,2451.505594,-370.102971
1432.002659,-7476.080014,2451.505594,1110.308913
1432.002971,-9030.512492,3907.087040,740.205942
1432.003282,-10362.883188,3600.648841,-1184.329507
1432.003594,-8882.471304,1149.143247,-3034.844362
1432.003905,-6735.874072,-995.924147,-1110.308913
1432.004217,-7179.997637,-995.924147,1850.514855
1432.004528,-11399.171507,-1532.190996,2664.741391
1432.004840,-12065.356855,-2221.676944,3034.844362
1432.005151,-9474.636058,-2528.115143,4515.256246
1432.005463,-7698.141797,-1685.410096,4293.194464
1432.005774,-5995.668130,689.485948,1480.411884
1432.006086,-4145.153275,1378.971896,-1776.494261
1432.006397,-1480.411884,0.000000,-1850.514855
1432.006709,-1332.370696,0.000000,-518.144159
1432.007020,-7476.080014,-306.438199,-666.185348
1432.007332,-12583.501014,-1991.848295,740.205942
1432.007643,-13619.789333,-4596.572988,2812.782580
1432.007955,-13767.830521,-4136.915689,5329.482782
1432.008266,-13397.727550,-2298.286494,4589.276840
1432.008578,-12213.398043,-2068.457845,962.267725
1432.008889,-8068.244768,-2681.334243,-518.144159
1432.009201,-5329.482782,-1762.019645,-518.144159
1432.009512,-5403.503377,1302.362347,-0.000000
1432.009824,-8290.306550,229.828649,-1184.329507
1432.010135,-10362.883188,-536.266849,-740.205942
1432.010447,-9104.533087,-766.095498,1332.370696
1432.010758,-10510.924376,-459.657299,740.205942
1432.011070,-11769.274478,-689.485948,-1036.288319
1432.011381,-10214.842000,-1838.629195,-2294.638420
1432.011693,-9178.553681,-2604.724693,-814.226536
1432.012005,-10584.944971,-3753.867940,2738.761985
1432.012316,-13693.809927,-3217.601092,3404.947333
1432.012628,-14804.118840,-2757.943793,3404.947333
1432.012939,-11991.336260,-1225.752797,3849.070898
1432.013251,-9252.574275,1838.629195,3256.906145
1432.013562,-8216.285956,4366.744339,-1258.350101
1432.013874,-6365.771101,6511.811733,-4737.318029
1432.014185,-3627.009116,7048.078582,-5921.647536
1432.014497,-3849.070898,6894.859482,-4071.132681
1432.014808,-9178.553681,5822.325785,-3478.967927
1432.015120,-13323.706956,3907.087040,-370.102971
1432.015431,-12065.356855,1455.581446,2368.659014
1432.015743,-11177.109724,-842.705048,5181.441594
1432.016054,-9918.759623,-689.485948,4367.215058
1432.016366,-7179.997637,153.219100,592.164754
1432.016677,-3997.112087,-306.438199,-1258.350101
1432.016989,-962.267725,0.000000,-740.205942
1432.017300,-2368.659014,1149.143247,-2516.700203
1432.017612,-6883.915261,1685.410096,-1998.556043
1432.017923,-8586.388927,383.047749,-148.041188
1432.018235,-9770.718434,-1455.581446,2590.720797
1432.018546,-11029.068536,-2298.286494,3775.050304
1432.018858,-11473.192101,-2528.115143,1924.535449
1432.019169,-8586.388927,-2911.162892,1554.432478
1432.019481,-6365.771101,-3524.039291,1776.494261
1432.019792,-6809.894666,-1608.800546,1480.411884
1432.020104,-8438.347739,-153.219100,1036.288319
1432.020415,-10214.842000,-1302.362347,1702.473667
1432.020727,-9252.574275,-2221.676944,3478.967927
1432.021038,-7846.182985,-1378.971896,2664.741391
1432.021350,-8068.244768,0.000000,148.041188
1432.021661,-7031.956449,-612.876398,-2368.659014
1432.021973,-5033.400406,-1915.238745,-3182.885551
1432.022284,-5773.606348,-1762.019645,-1628.453072
1432.022596,-10881.027347,-1991.848295,-666.185348
1432.022908,-14359.995275,-2298.286494,1110.308913
1432.023219,-14434.015869,-3064.381992,3701.029710
1432.023531,-14656.077652,-2834.553343,5921.647536
1432.023842,-13471.748144,-2528.115143,5033.400406
1432.024154,-11843.295072,-153.219100,148.041188
1432.024465,-7994.224174,1378.971896,-1998.556043
1432.024777,-4515.256246,2987.772442,-2294.638420
1432.025088,-6069.688724,2834.553343,-3552.988522
1432.025400,-9326.594869,2451.505594,-3256.906145
1432.025711,-11843.295072,919.314598,-1628.453072
1432.026023,-12361.439231,0.000000,888.247130
1432.026334,-13249.686362,-306.438199,2220.617826
1432.026646,-13693.809927,229.828649,1036.288319
1432.026957,-11029.068536,-2068.457845,814.226536
1432.027269,-7772.162391,-2451.505594,1480.411884
1432.027580,-7105.977043,-612.876398,1776.494261
1432.027892,-9622.677246,1455.581446,370.102971
1432.028203,-10436.903782,2604.724693,370.102971
1432.028515,-8068.244768,2757.943793,1702.473667
1432.028826,-6883.915261,3217.601092,1332.370696
1432.029138,-7254.018232,3830.477490,-1332.370696
1432.029449,-6291.750507,2987.772442,-3330.926739
1432.029761,-2960.823768,3370.820191,-3108.864956
1432.030072,-3404.947333,3370.820191,-1850.514855
1432.030384,-7920.203579,1991.848295,-370.102971
1432.030695,-11399.171507,-306.438199,888.247130
1432.031007,-10214.842000,-1838.629195,3849.070898
1432.031318,-9622.677246,-1302.362347,5329.482782
1432.031630,-8734.430116,0.000000,3701.029710
1432.031941,-7402.059420,536.266849,296.082377
1432.032253,-4219.173869,229.828649,-1776.494261
1432.032564,-1702.473667,536.266849,-1776.494261
1432.032876,-2960.823768,1072.533697,-2812.782580
1432.033187,-7179.997637,76.609550,-2664.741391
1432.033499,-9474.636058,-2298.286494,222.061783
1432.033810,-10140.821405,-4826.401637,3552.988522
1432.034122,-11103.089130,-3983.696590,4737.318029
1432.034434,-12805.562797,-3447.429741,2516.700203
1432.034745,-10807.006753,-3524.039291,1998.556043
1432.035057,-6587.832884,-3064.381992,1258.350101
1432.035368,-7179.997637,-1991.848295,-0.000000
1432.035680,-9770.718434,-1302.362347,-0.000000
1432.035991,-10881.027347,-842.705048,-666.185348
1432.036303,-11177.109724,-1149.143247,592.164754
1432.036614,-10362.883188,-919.314598,1702.473667
1432.036926,-11917.315666,-612.876398,-518.144159
1432.037237,-10881.027347,-383.047749,-2442.679609
1432.037549,-8216.285956,-229.828649,-2294.638420
1432.037860,-8364.327145,229.828649,-814.226536
1432.038172,-12139.377449,0.000000,296.082377
1432.038483,-14878.139434,-76.609550,1998.556043
1432.038795,-13915.871710,-995.924147,4293.194464
1432.039106,-11991.336260,-1225.752797,5107.421000
1432.039418,-11177.109724,229.828649,3108.864956
1432.039729,-9474.636058,1838.629195,-1110.308913
1432.040041,-6217.729913,1991.848295,-3627.009116
1432.040352,-3849.070898,2451.505594,-2812.782580
1432.040664,-6883.915261,3294.210641,-3108.864956
1432.040975,-12361.439231,3140.991542,-2368.659014
1432.041287,-14063.912898,1608.800546,-592.164754
1432.041598,-12139.377449,1072.533697,2960.823768
1432.041910,-10362.883188,1225.752797,5033.400406
1432.042221,-9030.512492,459.657299,2886.803174
1432.042533,-5107.421000,-689.485948,740.205942
1432.042844,-2442.679609,76.609550,1332.370696
1432.043156,-4219.173869,2757.943793,1110.308913
1432.043467,-5477.523971,2528.115143,-518.144159
1432.043779,-7624.121203,3140.991542,-592.164754
1432.044090,-7624.121203,689.485948,1406.391290
1432.044402,-5255.462188,76.609550,2072.576638
1432.044713,-6143.709319,153.219100,222.061783
1432.045025,-6661.853478,-689.485948,-1702.473667
1432.045337,-4589.276840,-1072.533697,-222.061783
1432.045648,-3627.009116,-1072.533697,1036.288319
1432.045960,-7698.141797,383.047749,1332.370696
1432.046271,-11695.253884,-919.314598,1850.514855
1432.046583,-12361.439231,-2068.457845,4145.153275
1432.046894,-10658.965565,-1072.533697,4737.318029
1432.047206,-8290.306550,612.876398,2368.659014
1432.047517,-7105.977043,-612.876398,-1258.350101
1432.047829,-5181.441594,-766.095498,-2294.638420
1432.048140,-2442.679609,-1302.362347,-1036.288319
1432.048452,-5033.400406,-1225.752797,-2220.617826
1432.048763,-11029.068536,-689.485948,-1184.329507
1432.049075,-13397.727550,-459.657299,518.144159
1432.049386,-14359.995275,-1302.362347,2516.700203
1432.049698,-14730.098246,-1685.410096,3775.050304
1432.050009,-14730.098246,-612.876398,1258.350101
1432.050321,-12509.480420,229.828649,-592.164754
1432.050632,-8290.306550,612.876398,-518.144159
1432.050944,-8956.491898,689.485948,-1776.494261
1432.051255,-10362.883188,1532.190996,-1776.494261
1432.051567,-11769.274478,995.924147,-1776.494261
1432.051878,-11251.130318,-229.828649,-0.000000
1432.052190,-10807.006753,76.609550,962.267725
1432.052501,-12509.480420,842.705048,-0.000000
1432.052813,-11621.233289,-842.705048,-1554.432478
1432.053124,-9104.533087,-1225.752797,-1184.329507
1432.053436,-8734.430116,-842.705048,1628.453072
1432.053747,-10584.944971,689.485948,2516.700203
1432.054059,-12657.521608,76.609550,2072.576638
1432.054370,-11029.068536,-995.924147,3552.988522
1432.054682,-8216.285956,-153.219100,3701.029710
1432.054993,-6439.791695,2221.676944,1924.535449
1432.055305,-4959.379811,2987.772442,-1776.494261
1432.055616,-4219.173869,3294.210641,-3552.988522
1432.055928,-1776.494261,2604.724693,-1406.391290
1432.056239,-3849.070898,2911.162892,-1850.514855
1432.056551,-9252.574275,2068.457845,-0.000000
1432.056863,-10658.965565,1149.143247,2664.741391
1432.057174,-10584.944971,-383.047749,4441.235652
1432.057486,-9252.574275,-536.266849,4811.338623
1432.057797,-6661.853478,-689.485948,1554.432478
1432.058109,-4515.256246,-1915.238745,-444.123565
1432.058420,-1480.411884,-3447.429741,-0.000000
1432.058732,-2294.638420,-2834.553343,-0.000000
1432.059043,-5847.626942,-2757.943793,-74.020594
1432.059355,-10436.903782,-3217.601092,740.205942
1432.059666,-11103.089130,-3524.039291,3182.885551
1432.059978,-9696.697840,-2451.505594,2960.823768
1432.060289,-10214.842000,-842.705048,444.123565
1432.060601,-9696.697840,153.219100,-1258.350101
1432.060912,-7254.018232,153.219100,-1406.391290
1432.061224,-6587.832884,-536.266849,-0.000000
1432.061535,-10140.821405,-459.657299,518.144159
1432.061847,-13027.624579,536.266849,666.185348
1432.062158,-14656.077652,995.924147,222.061783
1432.062470,-11103.089130,1762.019645,1554.432478
1432.062781,-9474.636058,1532.190996,-1110.308913
1432.063093,-9104.533087,153.219100,-2886.803174
1432.063404,-7476.080014,0.000000,-3627.009116
1432.063716,-7550.100608,-306.438199,-1776.494261
1432.064027,-10807.006753,0.000000,222.061783
1432.064339,-14656.077652,153.219100,1924.535449
1432.064650,-15692.365970,-766.095498,3108.864956
1432.064962,-13175.665768,-919.314598,4071.132681
1432.065273,-11843.295072,0.000000,3034.844362
1432.065585,-9474.636058,1072.533697,592.164754
1432.065896,-7624.121203,1455.581446,-2590.720797
1432.066208,-5995.668130,1378.971896,-3034.844362
1432.066519,-6735.874072,2834.553343,-1628.453072
1432.066831,-10436.903782,2757.943793,-1184.329507
1432.067142,-13767.830521,1378.971896,-296.082377
1432.067454,-11843.295072,766.095498,2368.659014
1432.067766,-9844.739029,-536.266849,3627.009116
1432.068077,-9030.512492,76.609550,2812.782580
1432.068389,-6365.771101,-995.924147,888.247130
1432.068700,-3775.050304,-1915.238745,370.102971
1432.069012,-3701.029710,-842.705048,1554.432478
1432.069323,-4885.359217,0.000000,2220.617826
1432.069635,-7772.162391,1378.971896,666.185348
1432.069946,-9400.615463,-153.219100,3034.844362
1432.070258,-6957.935855,-383.047749,3997.112087
1432.070569,-5329.482782,-383.047749,2516.700203
1432.070881,-5773.606348,306.438199,-0.000000
1432.071192,-4959.379811,-383.047749,-1924.535449
1432.071504,-2368.659014,-536.266849,-2220.617826
1432.071815,-5033.400406,919.314598,-1036.288319
1432.072127,-9770.718434,0.000000,1258.350101
1432.072438,-12805.562797,-4366.744339,2220.617826
1432.072750,-12731.542202,-5132.839837,5107.421000
1432.073061,-10510.924376,-3064.381992,4589.276840
1432.073373,-9252.574275,-2528.115143,1184.329507
1432.073684,-7254.018232,-1915.238745,-1332.370696
1432.073996,-5033.400406,-1915.238745,-2442.679609
1432.074307,-5477.523971,-1762.019645,-2664.741391
1432.074619,-8364.327145,612.876398,-1924.535449
1432.074930,-11547.212695,1991.848295,-740.205942
1432.075242,-12805.562797,1072.533697,1036.288319
1432.075553,-12361.439231,-459.657299,2294.638420
1432.075865,-12583.501014,-459.657299,888.247130
1432.076176,-11473.192101,1838.629195,-814.226536
1432.076488,-7920.203579,1915.238745,-1998.556043
1432.076799,-7624.121203,919.314598,-2072.576638
1432.077111,-11621.233289,0.000000,-814.226536
1432.077423,-13175.665768,-459.657299,-444.123565
1432.077734,-14730.098246,-1685.410096,370.102971
1432.078046,-13693.809927,459.657299,1110.308913
1432.078357,-12435.459826,1762.019645,222.061783
1432.078669,-11029.068536,383.047749,-1480.411884
1432.078980,-7476.080014,-306.438199,-1406.391290
1432.079292,-5181.441594,-306.438199,-666.185348
1432.079603,-7254.018232,842.705048,1036.288319
1432.079915,-11103.089130,1608.800546,1924.535449
1432.080226,-12287.418637,459.657299,3108.864956
1432.080538,-9622.677246,612.876398,3923.091493
1432.080850,-7402.059420,1072.533697,3627.009116
1432.081161,-5995.668130,1762.019645,1036.288319
1432.081473,-5625.565159,1455.581446,-1702.473667
1432.081784,-3923.091493,1225.752797,-1554.432478
1432.082096,-3330.926739,1225.752797,-1036.288319
1432.082407,-7328.038826,2834.553343,-1036.288319
1432.082719,-11029.068536,2374.896044,814.226536
1432.083030,-11103.089130,536.266849,3034.844362
1432.083342,-7772.162391,-459.657299,4737.318029
1432.083653,-6365.771101,-995.924147,3552.988522
1432.083965,-5921.647536,-2221.676944,2368.659014
1432.084277,-3552.988522,-2987.772442,814.226536
1432.084588,-2442.679609,-2834.553343,1554.432478
1432.084900,-4219.173869,-2221.676944,1258.350101
1432.085211,-8142.265362,-1991.848295,888.247130
1432.085523,-11103.089130,-2604.724693,1702.473667
1432.085834,-9770.718434,-2374.896044,2516.700203
1432.086146,-8734.430116,-1915.238745,1702.473667
1432.086457,-9326.594869,-2068.457845,-370.102971
1432.086769,-8364.327145,-1915.238745,-1258.350101
1432.087081,-6883.915261,-1072.533697,-1850.514855
1432.087392,-7476.080014,-995.924147,-296.082377
1432.087704,-11843.295072,-536.266849,-222.061783
1432.088015,-13693.809927,-766.095498,666.185348
1432.088327,-13027.624579,-1838.629195,962.267725
1432.088638,-12435.459826,-1532.190996,1554.432478
1432.088950,-11769.274478,306.438199,-814.226536
1432.089261,-9104.533087,766.095498,-2886.803174
1432.089573,-7179.997637,919.314598,-3034.844362
1432.089884,-8216.285956,612.876398,-2516.700203
1432.090196,-10658.965565,1225.752797,-1406.391290
1432.090508,-14211.954086,229.828649,-814.226536
1432.090819,-14137.933492,-229.828649,1924.535449
1432.091131,-12361.439231,-842.705048,2738.761985
1432.091442,-12805.562797,-229.828649,1036.288319
1432.091754,-11473.192101,1991.848295,-740.205942
1432.092065,-8142.265362,1149.143247,-2590.720797
1432.092377,-6513.812290,1149.143247,-1406.391290
1432.092688,-8882.471304,2068.457845,-592.164754
1432.093000,-11547.212695,2374.896044,-814.226536
1432.093312,-11769.274478,1378.971896,444.123565
1432.093623,-9178.553681,1455.581446,2960.823768
1432.093935,-7254.018232,1838.629195,2664.741391
1432.094246,-6143.709319,1608.800546,-222.061783
1432.094558,-4959.379811,536.266849,-222.061783
1432.094869,-3923.091493,-383.047749,962.267725
1432.095181,-2960.823768,536.266849,1406.391290
1432.095492,-7698.141797,1302.362347,1850.514855
1432.095804,-10140.821405,-1072.533697,2960.823768
1432.096115,-9770.718434,-2298.286494,4663.297435
1432.096427,-7698.141797,-1072.533697,4737.318029
1432.096739,-5995.668130,1378.971896,1776.494261
1432.097050,-5181.441594,383.047749,-222.061783
1432.097362,-2590.720797,-612.876398,-592.164754
1432.097673,-1998.556043,76.609550,370.102971
1432.097985,-6069.688724,-689.485948,370.102971
1432.098296,-10140.821405,-1915.238745,1776.494261
1432.098608,-10510.924376,-2451.505594,3849.070898
1432.098919,-9844.739029,-2757.943793,3182.885551
1432.099231,-10140.821405,-3064.381992,2812.782580
1432.099543,-8882.471304,-3064.381992,-0.000000
1432.099854,-7179.997637,-3294.210641,-1036.288319
1432.100166,-7105.977043,-3064.381992,-370.102971
1432.100477,-9178.553681,-2145.067394,-222.061783
1432.100789,-11917.315666,-919.314598,-74.020594
1432.101100,-13175.665768,-306.438199,370.102971
1432.101412,-11325.150913,-612.876398,1924.535449
1432.101723,-10881.027347,0.000000,-0.000000
1432.102035,-11399.171507,2221.676944,-1702.473667
1432.102346,-9252.574275,2451.505594,-3182.885551
1432.102658,-7698.141797,1762.019645,-2294.638420
1432.102970,-10362.883188,1225.752797,-666.185348
1432.103281,-14359.995275,766.095498,-222.061783
1432.103593,-15396.283594,-153.219100,-296.082377
1432.103904,-14137.933492,153.219100,592.164754
1432.104216,-11621.233289,1225.752797,1110.308913
1432.104527,-10658.965565,229.828649,-1406.391290
1432.104839,-8734.430116,-536.266849,-2812.782580
1432.105150,-5699.585753,0.000000,-2220.617826
1432.105462,-6809.894666,995.924147,-370.102971
1432.105774,-9548.656652,2145.067394,592.164754
1432.106085,-12657.521608,1149.143247,444.123565
1432.106397,-11547.212695,306.438199,2516.700203
1432.106708,-10288.862594,1072.533697,3182.885551
1432.107020,-9178.553681,2987.772442,1924.535449
1432.107331,-6439.791695,3907.087040,-1924.535449
1432.107643,-4219.173869,2604.724693,-2072.576638
1432.107954,-3108.864956,1302.362347,-0.000000
1432.108266,-4885.359217,1838.629195,296.082377
1432.108577,-8660.409521,3217.601092,296.082377
1432.108889,-9548.656652,383.047749,2368.659014
1432.109201,-8364.327145,-1072.533697,3775.050304
1432.109512,-6069.688724,383.047749,3182.885551
1432.109824,-6291.750507,0.000000,592.164754
1432.110135,-4589.276840,-2681.334243,518.144159
1432.110447,-2812.782580,-4136.915689,1184.329507
1432.110758,-4737.318029,-3064.381992,2294.638420
1432.111070,-8586.388927,-1532.190996,1702.473667
1432.111381,-11843.295072,-2451.505594,2960.823768
1432.111693,-10362.883188,-2374.896044,4293.194464
1432.112005,-9178.553681,-1149.143247,3701.029710
1432.112316,-7772.162391,-842.705048,592.164754
1432.112628,-6661.853478,76.609550,-1776.494261
1432.112939,-4441.235652,1149.143247,-1480.411884
1432.113251,-4515.256246,0.000000,-1258.350101
1432.113562,-9770.718434,-1532.190996,-74.020594
1432.113874,-13915.871710,-2298.286494,814.226536
1432.114185,-14359.995275,-2221.676944,1554.432478
1432.114497,-13693.809927,-1532.190996,2516.700203
1432.114808,-12879.583391,-1072.533697,1406.391290
1432.115120,-12435.459826,-2068.457845,-1776.494261
1432.115432,-8956.491898,-1762.019645,-2442.679609
1432.115743,-7328.038826,153.219100,-2146.597232
1432.116055,-10066.800811,1685.410096,-1184.329507
1432.116366,-12805.562797,1838.629195,370.102971
1432.116678,-14063.912898,-306.438199,1628.453072
1432.116989,-11251.130318,-766.095498,3923.091493
1432.117301,-10140.821405,995.924147,2516.700203
1432.117612,-9992.780217,2298.286494,-444.123565
1432.117924,-8734.430116,2374.896044,-3923.091493
1432.118236,-7179.997637,2374.896044,-3627.009116
1432.118547,-8068.244768,3140.991542,-3034.844362
1432.118859,-12583.501014,2987.772442,-2220.617826
1432.119170,-14211.954086,1149.143247,444.123565
1432.119482,-12583.501014,-842.705048,2516.700203
1432.119793,-9474.636058,0.000000,3775.050304
1432.120105,-6439.791695,919.314598,1332.370696
1432.120416,-3478.967927,995.924147,-814.226536
1432.120728,-3256.906145,-1378.971896,-222.061783
1432.121039,-148.041188,-1378.971896,-0.000000
1432.121351,-2738.761985,1608.800546,444.123565
1432.121663,-10066.800811,306.438199,1036.288319
1432.121974,-12435.459826,-1149.143247,4145.153275
1432.122286,-10807.006753,-1225.752797,5699.585753
1432.122597,-8586.388927,383.047749,3330.926739
1432.122909,-7328.038826,459.657299,222.061783
1432.123220,-3478.967927,76.609550,-1776.494261
1432.123532,-1406.391290,689.485948,-2072.576638
1432.123843,-2960.823768,995.924147,-962.267725
1432.124155,-7105.977043,0.000000,444.123565
1432.124467,-10362.883188,-995.924147,2220.617826
1432.124778,-11473.192101,-1685.410096,3404.947333
1432.125090,-10881.027347,-2987.772442,3478.967927
1432.125401,-9030.512492,-3677.258390,1554.432478
1432.125713,-6291.750507,-3370.820191,-0.000000
1432.126024,-5551.544565,-3677.258390,-962.267725
1432.126336,-8142.265362,-3830.477490,-0.000000
1432.126647,-11399.171507,-1532.190996,518.144159
1432.126959,-13545.768739,229.828649,1036.288319
1432.127270,-13101.645173,0.000000,2146.597232
1432.127582,-12065.356855,1302.362347,1332.370696
1432.127894,-10584.944971,3217.601092,-444.123565
1432.128205,-9030.512492,2221.676944,-2516.700203
1432.128517,-7179.997637,919.314598,-2220.617826
1432.128828,-8808.450710,1455.581446,-1480.411884
1432.129140,-14137.933492,2528.115143,-370.102971
1432.129451,-16210.510130,1532.190996,-0.000000
1432.129763,-15914.427753,-229.828649,518.144159
1432.130074,-13989.892304,153.219100,2368.659014
1432.130386,-11029.068536,1455.581446,1184.329507
1432.130698,-8882.471304,229.828649,-1628.453072
1432.131009,-5255.462188,-612.876398,-1480.411884
1432.131321,-3256.906145,76.609550,444.123565
1432.131632,-6439.791695,0.000000,740.205942
1432.131944,-10362.883188,306.438199,444.123565
1432.132255,-11843.295072,1225.752797,370.102971
1432.132567,-10140.821405,1762.019645,1628.453072
1432.132878,-9474.636058,2681.334243,1702.473667
1432.133190,-8290.306550,2451.505594,444.123565
1432.133501,-6883.915261,842.705048,-888.247130
1432.133813,-4663.297435,-1072.533697,1184.329507
1432.134125,-4367.215058,-306.438199,1628.453072
1432.134436,-7994.224174,2757.943793,666.185348
1432.134748,-10807.006753,1685.410096,962.267725
1432.135059,-8956.491898,-459.657299,2368.659014
1432.135371,-5255.462188,459.657299,1924.535449
1432.135682,-4515.256246,1455.581446,-0.000000
1432.135994,-4219.173869,-995.924147,-1184.329507
1432.136305,-3478.967927,-2987.772442,-74.020594
1432.136617,-3478.967927,-3600.648841,1702.473667
1432.136928,-6365.771101,-3983.696590,2146.597232
1432.137240,-10658.965565,-4903.011187,3108.864956
1432.137552,-11843.295072,-5209.449386,3923.091493
1432.137863,-9992.780217,-3447.429741,3404.947333
1432.138175,-9030.512492,-1762.019645,1110.308913
1432.138486,-8734.430116,-1072.533697,-1258.350101
1432.138798,-7179.997637,76.609550,-2886.803174
1432.139109,-5995.668130,153.219100,-2368.659014
1432.139421,-8290.306550,76.609550,-1480.411884
1432.139732,-12953.603985,383.047749,-444.123565
1432.140044,-14878.139434,229.828649,1480.411884
1432.140356,-14285.974681,76.609550,2146.597232
1432.140667,-13323.706956,383.047749,2146.597232
1432.140979,-12065.356855,842.705048,222.061783
1432.141290,-9104.533087,-76.609550,-1480.411884
1432.141602,-6069.688724,-1302.362347,-2072.576638
1432.141913,-7476.080014,-459.657299,-518.144159
1432.142225,-10362.883188,1378.971896,-592.164754
1432.142536,-13027.624579,1149.143247,-0.000000
1432.142848,-13915.871710,229.828649,888.247130
1432.143159,-12583.501014,1608.800546,1776.494261
1432.143471,-12583.501014,2528.115143,-1184.329507
1432.143783,-11325.150913,2834.553343,-2812.782580
1432.144094,-7328.038826,2298.286494,-1850.514855
1432.144406,-6217.729913,1072.533697,-0.000000
1432.144717,-9474.636058,-229.828649,1776.494261
1432.145029,-11843.295072,-229.828649,2516.700203
1432.145340,-11917.315666,-229.828649,2664.741391
1432.145652,-9622.677246,2528.115143,4145.153275
1432.145963,-7105.977043,3447.429741,1480.411884
1432.146275,-4441.235652,2681.334243,-3108.864956
1432.146587,-1184.329507,919.314598,-2738.761985
1432.146898,-222.061783,-995.924147,-1332.370696
1432.147210,-3404.947333,-536.266849,-0.000000
1432.147521,-9548.656652,995.924147,1480.411884
1432.147833,-12657.521608,-766.095498,3034.844362
1432.148144,-10584.944971,-2145.067394,6143.709319
1432.148456,-7476.080014,-1149.143247,6143.709319
1432.148767,-6365.771101,-689.485948,1998.556043
1432.149079,-4959.379811,-1915.238745,-148.041188
1432.149390,-444.123565,-995.924147,-444.123565
1432.149702,-1110.308913,153.219100,-740.205942
1432.150014,-5403.503377,-919.314598,-962.267725
1432.150325,-10214.842000,-2298.286494,814.226536
1432.150637,-12065.356855,-3907.087040,2738.761985
1432.150948,-11547.212695,-3064.381992,3256.906145
1432.151260,-11991.336260,-2451.505594,2072.576638
1432.151571,-10140.821405,-3064.381992,-0.000000
1432.151883,-8216.285956,-4673.182538,-518.144159
1432.152194,-7402.059420,-4366.744339,-0.000000
1432.152506,-8438.347739,-2757.943793,-296.082377
1432.152818,-12213.398043,0.000000,-0.000000
1432.153129,-12065.356855,229.828649,1184.329507
1432.153441,-11621.233289,0.000000,1480.411884
1432.153752,-11695.253884,919.314598,666.185348
1432.154064,-11029.068536,1915.238745,-962.267725
1432.154375,-9400.615463,1838.629195,-2886.803174
1432.154687,-8956.491898,2298.286494,-3034.844362
1432.154998,-11547.212695,4060.306139,-3256.906145
1432.155310,-14878.139434,2834.553343,-2738.761985
1432.155621,-15840.407159,459.657299,-740.205942
1432.155933,-14063.912898,-153.219100,1924.535449
1432.156245,-12435.459826,689.485948,2516.700203
1432.156556,-10732.986159,-229.828649,1258.350101
1432.156868,-7994.224174,-1915.238745,-592.164754
1432.157179,-4367.215058,-995.924147,-1184.329507
1432.157491,-4367.215058,1225.752797,-0.000000
1432.157802,-9326.594869,1991.848295,-518.144159
1432.158114,-10955.047942,1225.752797,-148.041188
1432.158425,-10066.800811,1991.848295,1332.370696
1432.158737,-8734.430116,1838.629195,2516.700203
1432.159049,-7179.997637,2221.676944,1480.411884
1432.159360,-8512.368333,1838.629195,-370.102971
1432.159672,-4737.318029,919.314598,-444.123565
1432.159983,-1776.494261,1225.752797,222.061783
1432.160295,-3775.050304,2068.457845,-222.061783
1432.160606,-7920.203579,2298.286494,666.185348
1432.160918,-9474.636058,0.000000,1924.535449
1432.161229,-7031.956449,-1455.581446,3404.947333
1432.161541,-6735.874072,-459.657299,3182.885551
1432.161852,-5995.668130,-1532.190996,888.247130
1432.162164,-5699.585753,-3677.258390,-296.082377
1432.162476,-3997.112087,-4903.011187,888.247130
1432.162787,-4589.276840,-3524.039291,1036.288319
1432.163099,-8956.491898,-2681.334243,1850.514855
1432.163410,-10881.027347,-3064.381992,2368.659014
1432.163722,-11103.089130,-3064.381992,3997.112087
1432.164033,-9178.553681,-3140.991542,3330.926739
1432.164345,-8660.409521,-1762.019645,1110.308913
1432.164656,-7254.018232,-612.876398,-1036.288319
1432.164968,-6291.750507,-1072.533697,-2516.700203
1432.165280,-7476.080014,-1149.143247,-1332.370696
1432.165591,-11473.192101,-919.314598,-1406.391290
1432.165903,-14804.118840,-766.095498,-0.000000
1432.166214,-15544.324782,-536.266849,962.267725
1432.166526,-14063.912898,76.609550,1850.514855
1432.166837,-13767.830521,612.876398,222.061783
1432.167149,-11251.130318,-536.266849,-1406.391290
1432.167460,-6957.935855,-536.266849,-1036.288319
1432.167772,-5921.647536,76.609550,-0.000000
1432.168083,-9178.553681,1532.190996,592.164754
1432.168395,-12805.562797,1762.019645,740.205942
1432.168707,-13397.727550,1685.410096,1036.288319
1432.169018,-13323.706956,2374.896044,1110.308913
1432.169330,-12287.418637,3524.039291,-74.020594
1432.169641,-10955.047942,3677.258390,-2738.761985
1432.169953,-7846.182985,2145.067394,-3701.029710
1432.170264,-5181.441594,1378.971896,-1628.453072
1432.170576,-6957.935855,1149.143247,-592.164754
1432.170887,-10362.883188,842.705048,592.164754
1432.171199,-11473.192101,612.876398,2294.638420
1432.171511,-11843.295072,0.000000,3330.926739
1432.171822,-8808.450710,612.876398,4441.235652
1432.172134,-5477.523971,2451.505594,148.041188
1432.172445,-4145.153275,1072.533697,-962.267725
1432.172757,-1924.535449,-842.705048,-444.123565
1432.173068,-1480.411884,153.219100,370.102971
1432.173380,-5329.482782,1378.971896,370.102971
1432.173691,-9918.759623,689.485948,1776.494261
1432.174003,-9474.636058,-1455.581446,3108.864956
1432.174314,-7476.080014,0.000000,3182.885551
1432.174626,-7254.018232,0.000000,1850.514855
1432.174938,-6809.894666,-842.705048,-666.185348
1432.175249,-4441.235652,-1762.019645,-1110.308913
1432.175561,-3404.947333,-536.266849,-592.164754
1432.175872,-7105.977043,-1455.581446,-74.020594
1432.176184,-11399.171507,-2298.286494,814.226536
1432.176495,-12361.439231,-1991.848295,1850.514855
1432.176807,-10214.842000,-1455.581446,2886.803174
1432.177118,-8216.285956,-1915.238745,2294.638420
1432.177429,-8364.327145,-2911.162892,-0.000000
1432.177741,-7254.018232,-2451.505594,-1184.329507
1432.178052,-5699.585753,-3447.429741,-444.123565
1432.178363,-7846.182985,-2374.896044,-296.082377
1432.178674,-11843.295072,153.219100,592.164754
1432.178986,-14211.954086,-612.876398,592.164754
1432.179297,-14285.974681,-1838.629195,1406.391290
1432.179608,-13989.892304,-766.095498,1924.535449
1432.179920,-13693.809927,1838.629195,-148.041188
1432.180231,-11843.295072,1762.019645,-2516.700203
1432.180542,-8734.430116,1149.143247,-2072.576638
1432.180854,-8512.368333,1072.533697,-1110.308913
1432.181165,-10732.986159,1455.581446,-1332.370696
1432.181476,-12879.583391,1608.800546,-74.020594
1432.181787,-12731.542202,612.876398,1110.308913
1432.182099,-11547.212695,1225.752797,1924.535449
1432.182410,-10288.862594,1838.629195,814.226536
1432.182721,-8734.430116,1762.019645,-1480.411884
1432.183033,-6513.812290,689.485948,-1850.514855
1432.183344,-5995.668130,153.219100,-518.144159
1432.183655,-7624.121203,2451.505594,-592.164754
1432.183967,-10140.821405,2374.896044,296.082377
1432.184278,-9844.739029,766.095498,2590.720797
1432.184589,-10066.800811,-766.095498,4441.235652
1432.184900,-7031.956449,306.438199,2738.761985
1432.185212,-6365.771101,3064.381992,296.082377
1432.185523,-4441.235652,2145.067394,-1184.329507
1432.185834,-2072.576638,2298.286494,-1184.329507
1432.186146,-4145.153275,2451.505594,-296.082377
1432.186457,-8142.265362,1532.190996,-0.000000
1432.186768,-10140.821405,536.266849,2294.638420
1432.187080,-8364.327145,76.609550,3923.091493
1432.187391,-7402.059420,153.219100,3404.947333
1432.187702,-7698.141797,-1149.143247,1702.473667
1432.188013,-6069.688724,-2298.286494,-0.000000
1432.188325,-3108.864956,-2298.286494,222.061783
1432.188636,-1776.494261,-1225.752797,1258.350101
1432.188947,-5921.647536,-2987.772442,592.164754
1432.189259,-10881.027347,-3753.867940,1332.370696
1432.189570,-11029.068536,-2911.162892,2886.803174
1432.189881,-9622.677246,-2221.676944,2812.782580
1432.190193,-10510.924376,-1149.143247,1332.370696
1432.190504,-11769.274478,-229.828649,-1480.411884
1432.190815,-9326.594869,-1072.533697,-1554.432478
1432.191127,-7031.956449,-2221.676944,-888.247130
1432.191438,-10362.883188,-459.657299,-0.000000
1432.191749,-12953.603985,0.000000,666.185348
1432.192060,-14063.912898,-1838.629195,740.205942
1432.192372,-12879.583391,-2604.724693,1998.556043
1432.192683,-10510.924376,-919.314598,1480.411884
1432.192994,-10214.842000,-306.438199,-1184.329507
1432.193306,-8660.409521,-1149.143247,-1998.556043
1432.193617,-6365.771101,-1302.362347,-1110.308913
1432.193928,-9104.533087,-153.219100,-0.000000
1432.194240,-12657.521608,995.924147,-222.061783
1432.194551,-15174.221811,1915.238745,444.123565
1432.194862,-14137.933492,766.095498,1924.535449
1432.195173,-12065.356855,1072.533697,2220.617826
1432.195485,-10510.924376,2757.943793,-592.164754
1432.195796,-8216.285956,2834.553343,-2960.823768
1432.196107,-6661.853478,2298.286494,-2812.782580
1432.196419,-5181.441594,2298.286494,-1110.308913
1432.196730,-9030.512492,2604.724693,-888.247130
1432.197041,-11991.336260,2604.724693,148.041188
1432.197353,-11177.109724,1149.143247,2368.659014
1432.197664,-8808.450710,689.485948,3775.050304
1432.197975,-6661.853478,0.000000,2738.761985
1432.198286,-6217.729913,-536.266849,-518.144159
1432.198598,-5403.503377,-1608.800546,-814.226536
1432.198909,-3701.029710,689.485948,-666.185348
1432.199220,-5329.482782,2221.676944,148.041188
1432.199532,-8512.368333,766.095498,1776.494261
1432.199843,-9770.718434,-1838.629195,3330.926739
1432.200154,-7994.224174,-1685.410096,4589.276840
1432.200466,-5699.585753,1762.019645,3182.885551
1432.200777,-5255.462188,2451.505594,592.164754
1432.201088,-4737.318029,1455.581446,-2442.679609
1432.201399,-3330.926739,536.266849,-2368.659014
1432.201711,-4071.132681,1455.581446,-1628.453072
1432.202022,-8512.368333,-306.438199,-74.020594
1432.202333,-12287.418637,-2681.334243,2146.597232
1432.202645,-12361.439231,-4519.963438,3552.988522
1432.202956,-11029.068536,-5439.278036,4441.235652
1432.203267,-10066.800811,-4213.525239,2368.659014
1432.203579,-8290.306550,-3600.648841,-148.041188
1432.203890,-6291.750507,-4366.744339,-1184.329507
1432.204201,-6439.791695,-3064.381992,-740.205942
1432.204513,-8956.491898,-536.266849,-592.164754
1432.204824,-12657.521608,766.095498,222.061783
1432.205135,-13471.748144,0.000000,1776.494261
1432.205446,-12435.459826,153.219100,3256.906145
1432.205758,-12139.377449,536.266849,1332.370696
1432.206069,-11251.130318,1532.190996,-1258.350101
1432.206380,-8512.368333,1685.410096,-2220.617826
1432.206692,-7328.038826,995.924147,-1406.391290
1432.207003,-11547.212695,612.876398,-1184.329507
1432.207314,-13989.892304,383.047749,-592.164754
1432.207626,-15618.345376,612.876398,-148.041188
1432.207937,-13323.706956,689.485948,1850.514855
1432.208248,-11473.192101,842.705048,1184.329507
1432.208559,-9696.697840,0.000000,-740.205942
1432.208871,-6365.771101,-153.219100,-1258.350101
1432.209182,-5625.565159,0.000000,-74.020594
1432.209493,-6291.750507,766.095498,1924.535449
1432.209805,-8512.368333,2298.286494,444.123565
1432.210116,-10658.965565,1072.533697,1776.494261
1432.210427,-10807.006753,76.609550,3552.988522
1432.210739,-10066.800811,612.876398,3034.844362
1432.211050,-8142.265362,2987.772442,888.247130
1432.211361,-7402.059420,2757.943793,-2072.576638
1432.211672,-3330.926739,995.924147,-2146.597232
1432.211984,-1702.473667,1838.629195,-1184.329507
1432.212295,-6365.771101,2221.676944,-814.226536
1432.212606,-8068.244768,306.438199,888.247130
1432.212918,-8512.368333,-536.266849,2294.638420
1432.213229,-7105.977043,-229.828649,4219.173869
1432.213540,-7105.977043,0.000000,2664.741391
1432.213852,-7254.018232,-1838.629195,1110.308913
1432.214163,-4145.153275,-2834.553343,962.267725
1432.214474,-2516.700203,-3217.601092,1036.288319
1432.214785,-5181.441594,-3753.867940,518.144159
1432.215097,-9844.739029,-2757.943793,444.123565
1432.215408,-11991.336260,-1455.581446,888.247130
1432.215719,-11695.253884,-2221.676944,2220.617826
1432.216031,-10881.027347,-2068.457845,1480.411884
1432.216342,-10214.842000,229.828649,-888.247130
1432.216653,-8734.430116,-229.828649,-2516.700203
1432.216965,-6661.853478,-1915.238745,-1406.391290
1432.217276,-7476.080014,-1685.410096,-222.061783
1432.217587,-11843.295072,-612.876398,296.082377
1432.217898,-13323.706956,-1685.410096,592.164754
1432.218210,-13397.727550,-2298.286494,1554.432478
1432.218521,-12583.501014,-766.095498,2146.597232
1432.218832,-11695.253884,-459.657299,-740.205942
1432.219144,-10881.027347,-995.924147,-2960.823768
1432.219455,-8660.409521,-229.828649,-2146.597232
1432.219766,-7920.203579,612.876398,-1258.350101
1432.220078,-10658.965565,1378.971896,-814.226536
1432.220389,-13471.748144,229.828649,222.061783
1432.220700,-13027.624579,0.000000,1924.535449
1432.221012,-11029.068536,0.000000,2886.803174
1432.221323,-11177.109724,1072.533697,1776.494261
1432.221634,-11769.274478,2221.676944,-1628.453072
1432.221945,-8438.347739,2528.115143,-2220.617826
1432.222257,-6143.709319,1915.238745,-1258.350101
1432.222568,-8586.388927,1762.019645,-592.164754
1432.222879,-11177.109724,1685.410096,-148.041188
1432.223191,-11843.295072,1378.971896,444.123565
1432.223502,-7698.141797,1225.752797,3034.844362
1432.223813,-5773.606348,1532.190996,2590.720797
1432.224125,-6291.750507,1378.971896,222.061783
1432.224436,-4589.276840,383.047749,-444.123565
1432.224747,-1924.535449,536.266849,222.061783
1432.225058,-2812.782580,995.924147,1406.391290
1432.225370,-8068.244768,919.314598,2442.679609
1432.225681,-11843.295072,-919.314598,2294.638420
1432.225992,-9696.697840,-1991.848295,4515.256246
1432.226304,-7698.141797,-689.485948,4737.318029
1432.226615,-6735.874072,0.000000,1998.556043
1432.226926,-5329.482782,0.000000,-1258.350101
1432.227238,-4145.153275,-1532.190996,-1258.350101
1432.227549,-2146.597232,-1762.019645,-74.020594
1432.227860,-5699.585753,0.000000,-148.041188
1432.228171,-10881.027347,0.000000,1110.308913
1432.228483,-11547.212695,-1532.190996,2516.700203
1432.228794,-9992.780217,-2757.943793,3552.988522
1432.229105,-8956.491898,-1532.190996,2294.638420
1432.229417,-9178.553681,-995.924147,-370.102971
1432.229728,-7179.997637,-2834.553343,-1998.556043
1432.230039,-6217.729913,-3217.601092,-518.144159
1432.230351,-8068.244768,-2757.943793,-0.000000
1432.230662,-13249.686362,-2145.067394,-1184.329507
1432.230973,-15248.242405,-1149.143247,370.102971
1432.231284,-14211.954086,-1072.533697,1628.453072
1432.231596,-13471.748144,0.000000,1480.411884
1432.231907,-12953.603985,995.924147,-740.205942
1432.232218,-10288.862594,995.924147,-2294.638420
1432.232530,-7328.038826,1072.533697,-1406.391290
1432.232841,-8512.368333,76.609550,148.041188
1432.233152,-11695.253884,1225.752797,-666.185348
1432.233464,-13397.727550,1149.143247,-1036.288319
1432.233775,-13175.665768,0.000000,1258.350101
1432.234086,-11325.150913,-153.219100,2368.659014
1432.234398,-11399.171507,-153.219100,-1110.308913
1432.234709,-9548.656652,536.266849,-2368.659014
1432.235020,-5181.441594,76.609550,-2294.638420
1432.235331,-5329.482782,383.047749,-592.164754
1432.235643,-9104.533087,1378.971896,518.144159
1432.235954,-12509.480420,1225.752797,222.061783
1432.236265,-11843.295072,919.314598,1924.535449
1432.236577,-10066.800811,1608.800546,4293.194464
1432.236888,-8068.244768,2987.772442,2220.617826
1432.237199,-6661.853478,2451.505594,-1110.308913
1432.237511,-4811.338623,-229.828649,-1628.453072
1432.237822,-2146.597232,612.876398,-0.000000
1432.238133,-4145.153275,3677.258390,-444.123565
1432.238444,-9104.533087,4290.134789,-370.102971
1432.238756,-10658.965565,919.314598,2368.659014
1432.239067,-7920.203579,-1838.629195,4145.153275
1432.239378,-5403.503377,0.000000,3775.050304
1432.239690,-6513.812290,-383.047749,-0.000000
1432.240001,-4959.379811,-1455.581446,-1110.308913
1432.240312,-2442.679609,-2221.676944,-296.082377
1432.240624,-4145.153275,-2374.896044,148.041188
1432.240935,-8808.450710,-2221.676944,1406.391290
1432.241246,-12435.459826,-2834.553343,2146.597232
1432.241557,-11843.295072,-2604.724693,4367.215058
1432.241869,-9548.656652,-1762.019645,4293.194464
1432.242180,-7698.141797,-689.485948,1554.432478
1432.242491,-7105.977043,0.000000,-1702.473667
1432.242803,-5107.421000,-689.485948,-1850.514855
1432.243114,-4219.173869,-842.705048,-962.267725
1432.243425,-8956.491898,0.000000,-888.247130
1432.243737,-13397.727550,-229.828649,296.082377
1432.244048,-15174.221811,-2528.115143,1702.473667
1432.244359,-13619.789333,-3140.991542,2960.823768
1432.244670,-11843.295072,-2987.772442,2294.638420
1432.244982,-11177.109724,-3370.820191,-888.247130
1432.245293,-9918.759623,-3064.381992,-2960.823768
1432.245604,-8438.347739,-766.095498,-2368.659014
1432.245916,-10807.006753,2221.676944,-1184.329507
1432.246227,-13915.871710,2604.724693,-814.226536
1432.246538,-13693.809927,1455.581446,1258.350101
1432.246850,-12435.459826,0.000000,2960.823768
1432.247161,-10066.800811,1378.971896,2738.761985
1432.247472,-8808.450710,2834.553343,-740.205942
1432.247784,-8364.327145,3217.601092,-3552.988522
1432.248095,-6217.729913,2451.505594,-2442.679609
1432.248406,-7328.038826,1915.238745,-1332.370696
1432.248717,-11843.295072,2451.505594,-814.226536
1432.249029,-13915.871710,1915.238745,814.226536
1432.249340,-12657.521608,306.438199,3256.906145
1432.249651,-9770.718434,-536.266849,4589.276840
1432.249963,-6069.688724,153.219100,1554.432478
1432.250274,-4959.379811,229.828649,-1110.308913
1432.250585,-3701.029710,-1225.752797,-1110.308913
1432.250897,-1184.329507,1072.533697,-0.000000
1432.251208,-5403.503377,4290.134789,-296.082377
1432.251519,-9548.656652,2528.115143,1406.391290
1432.251830,-9770.718434,-766.095498,3256.906145
1432.252142,-8364.327145,-1302.362347,4885.359217
1432.252453,-5995.668130,689.485948,3849.070898
1432.252764,-6883.915261,229.828649,-0.000000
1432.253076,-4441.235652,689.485948,-2220.617826
1432.253387,-1998.556043,1685.410096,-1036.288319
1432.253698,-3997.112087,0.000000,-888.247130
1432.254010,-8364.327145,-612.876398,-74.020594
1432.254321,-11769.274478,-1302.362347,1480.411884
1432.254632,-10214.842000,-2604.724693,2960.823768
1432.254943,-9030.512492,-3677.258390,3849.070898
1432.255255,-9252.574275,-4596.572988,1184.329507
1432.255566,-7105.977043,-4443.353888,-666.185348
1432.255877,-5773.606348,-4903.011187,-962.267725
1432.256189,-7328.038826,-3753.867940,222.061783
1432.256500,-11843.295072,-459.657299,-0.000000
1432.256811,-14878.139434,-536.266849,888.247130
1432.257123,-14137.933492,-1608.800546,2294.638420
1432.257434,-12139.377449,-1685.410096,2664.741391
1432.257745,-9770.718434,306.438199,888.247130
1432.258056,-9918.759623,1378.971896,-2812.782580
1432.258368,-7402.059420,1991.848295,-3627.009116
1432.258679,-6735.874072,2911.162892,-2960.823768
1432.258990,-12509.480420,4290.134789,-2516.700203
1432.259302,-14730.098246,3677.258390,-1110.308913
1432.259613,-15840.407159,0.000000,-370.102971
1432.259924,-14285.974681,-1302.362347,1554.432478
1432.260236,-11843.295072,0.000000,1184.329507
1432.260547,-10807.006753,153.219100,-2146.597232
1432.260858,-6661.853478,-995.924147,-1184.329507
1432.261169,-4663.297435,-1608.800546,888.247130
1432.261481,-6809.894666,-689.485948,2220.617826
1432.261792,-10584.944971,-842.705048,1850.514855
1432.262103,-11621.233289,459.657299,1184.329507
1432.262415,-9918.759623,-153.219100,3182.885551
1432.262726,-9622.677246,76.609550,3256.906145
1432.263037,-8512.368333,1991.848295,666.185348
1432.263349,-7105.977043,2451.505594,-2220.617826
1432.263660,-4219.173869,1302.362347,-370.102971
1432.263971,-3849.070898,2145.067394,1036.288319
1432.264283,-6513.812290,3830.477490,1480.411884
1432.264594,-9548.656652,2757.943793,1850.514855
1432.264905,-9474.636058,76.609550,3627.009116
1432.265216,-4219.173869,2374.896044,3923.091493
1432.265528,-3849.070898,3447.429741,740.205942
1432.265839,-3775.050304,536.266849,-888.247130
1432.266150,-888.247130,-1991.848295,-1332.370696
1432.266462,-2516.700203,-2681.334243,148.041188
1432.266773,-5477.523971,-1302.362347,1924.535449
1432.267084,-11621.233289,-2221.676944,2516.700203
1432.267396,-14137.933492,-4136.915689,2664.741391
1432.267707,-11843.295072,-2145.067394,4663.297435
1432.268018,-9992.780217,-1455.581446,2664.741391
1432.268329,-8660.409521,-612.876398,-1406.391290
1432.268641,-7031.956449,1455.581446,-1924.535449
1432.268952,-4737.318029,1072.533697,-1480.411884
1432.269263,-7550.100608,0.000000,-296.082377
1432.269575,-12435.459826,536.266849,296.082377
1432.269886,-13767.830521,-229.828649,1998.556043
1432.270197,-13397.727550,-3294.210641,2590.720797
1432.270509,-12065.356855,-3294.210641,2516.700203
1432.270820,-11325.150913,-1302.362347,-74.020594
1432.271131,-7994.224174,-1302.362347,-2960.823768
1432.271442,-6365.771101,-2528.115143,-2590.720797
1432.271754,-8660.409521,-2298.286494,-1628.453072
1432.272065,-11991.336260,-383.047749,-1036.288319
1432.272376,-14878.139434,612.876398,-148.041188
1432.272688,-14508.036463,459.657299,1184.329507
1432.272999,-12953.603985,919.314598,1554.432478
1432.273310,-11103.089130,2681.334243,296.082377
1432.273622,-8808.450710,2451.505594,-2812.782580
1432.273933,-5551.544565,1149.143247,-3108.864956
1432.274244,-6661.853478,0.000000,-1628.453072
1432.274555,-10140.821405,1685.410096,-74.020594
1432.274867,-14063.912898,1685.410096,518.144159
1432.275178,-14285.974681,0.000000,1924.535449
1432.275489,-11399.171507,-766.095498,3923.091493
1432.275801,-8660.409521,229.828649,2590.720797
1432.276112,-7328.038826,1072.533697,-1554.432478
1432.276423,-4145.153275,0.000000,-2442.679609
1432.276735,-666.185348,229.828649,-1998.556043
1432.277046,-2738.761985,1149.143247,-222.061783
1432.277357,-7624.121203,612.876398,444.123565
1432.277669,-10510.924376,-842.705048,2442.679609
1432.277980,-9622.677246,-1915.238745,4737.318029
1432.278291,-8142.265362,306.438199,4737.318029
1432.278602,-7402.059420,2451.505594,2294.638420
1432.278914,-6439.791695,842.705048,-888.247130
1432.279225,-3182.885551,766.095498,-518.144159
1432.279537,-2442.679609,1149.143247,-1184.329507
1432.279848,-5255.462188,2298.286494,-148.041188
1432.280160,-9474.636058,612.876398,-592.164754
1432.280471,-11029.068536,-2221.676944,1554.432478
1432.280783,-10066.800811,-2451.505594,2960.823768
1432.281094,-9992.780217,-1608.800546,2368.659014
1432.281405,-8512.368333,-2834.553343,666.185348
1432.281717,-7179.997637,-5592.497135,-518.144159
1432.282028,-6735.874072,-4749.792088,740.205942
1432.282340,-8068.244768,-2068.457845,888.247130
1432.282651,-11843.295072,-1149.143247,592.164754
1432.282963,-13397.727550,-459.657299,1628.453072
1432.283274,-12065.356855,536.266849,2442.679609
1432.283586,-11991.336260,2145.067394,814.226536
1432.283897,-10288.862594,3524.039291,-1554.432478
1432.284208,-8142.265362,3677.258390,-2886.803174
1432.284520,-5699.585753,2911.162892,-2664.741391
1432.284831,-7846.182985,1838.629195,-1850.514855
1432.285143,-12287.418637,1149.143247,-1110.308913
1432.285454,-14434.015869,-459.657299,370.102971
1432.285766,-15026.180623,-919.314598,1998.556043
1432.286077,-13693.809927,-536.266849,2738.761985
1432.286388,-12065.356855,0.000000,740.205942
1432.286700,-8438.347739,-1915.238745,-1406.391290
1432.287011,-5403.503377,-2374.896044,-296.082377
1432.287323,-6291.750507,-2068.457845,814.226536
1432.287634,-8216.285956,-536.266849,-518.144159
1432.287946,-10288.862594,1072.533697,-0.000000
1432.288257,-10584.944971,-306.438199,2146.597232
1432.288568,-9474.636058,-383.047749,4145.153275
1432.288880,-8882.471304,229.828649,2516.700203
1432.289191,-8956.491898,-306.438199,-888.247130
1432.289503,-6661.853478,76.609550,-740.205942
1432.289814,-4811.338623,2221.676944,-0.000000
1432.290126,-7105.977043,4136.915689,-370.102971
1432.290437,-10214.842000,2298.286494,-592.164754
1432.290749,-9992.780217,229.828649,1554.432478
1432.291060,-6883.915261,153.219100,2368.659014
1432.291371,-5847.626942,1685.410096,1776.494261
1432.291683,-5847.626942,76.609550,-74.020594
1432.291994,-4515.256246,-2528.115143,-888.247130
1432.292306,-2072.576638,-3294.210641,814.226536
1432.292617,-4219.173869,-3064.381992,1184.329507
1432.292929,-8512.368333,-1991.848295,1702.473667
1432.293240,-11325.150913,-612.876398,2220.617826
1432.293551,-11325.150913,-1072.533697,4071.132681
1432.293863,-9030.512492,-2145.067394,3552.988522
1432.294174,-8512.368333,-1378.971896,1406.391290
1432.294486,-7994.224174,-229.828649,-1406.391290
1432.294797,-6217.729913,0.000000,-2294.638420
1432.295109,-6365.771101,1378.971896,-1850.514855
1432.295420,-10214.842000,2528.115143,-1258.350101
1432.295731,-13249.686362,0.000000,-518.144159
1432.296043,-13545.768739,-2451.505594,962.267725
1432.296354,-13101.645173,-2068.457845,2960.823768
1432.296666,-12731.542202,0.000000,1332.370696
1432.296977,-10584.944971,383.047749,-814.226536
1432.297289,-7105.977043,-612.876398,-1628.453072
1432.297600,-6513.812290,-1225.752797,-1036.288319
1432.297911,-7920.203579,229.828649,148.041188
1432.298223,-10807.006753,1225.752797,-444.123565
1432.298534,-12139.377449,689.485948,1036.288319
1432.298846,-11917.315666,306.438199,2442.679609
1432.299157,-12213.398043,612.876398,1702.473667
1432.299469,-12139.377449,1685.410096,-1332.370696
1432.299780,-9696.697840,1532.190996,-3330.926739
1432.300092,-6883.915261,766.095498,-1702.473667
1432.300403,-7846.182985,1685.410096,-444.123565
1432.300714,-11843.295072,1225.752797,-444.123565
1432.301026,-12879.583391,0.000000,1110.308913
1432.301337,-10436.903782,-383.047749,3330.926739
1432.301649,-8586.388927,536.266849,4293.194464
1432.301960,-7402.059420,919.314598,2072.576638
1432.302272,-5403.503377,-229.828649,-1036.288319
1432.302583,-2294.638420,-766.095498,-1184.329507
1432.302894,-2220.617826,919.314598,-814.226536
1432.303206,-6143.709319,2298.286494,-0.000000
1432.303517,-10140.821405,229.828649,962.267725
1432.303829,-10214.842000,-1685.410096,3182.885551
1432.304140,-9030.512492,-919.314598,3849.070898
1432.304452,-7550.100608,1072.533697,1702.473667
1432.304763,-7179.997637,1072.533697,-222.061783
1432.305074,-4663.297435,-1608.800546,-370.102971
1432.305386,-2886.803174,-1915.238745,222.061783
1432.305697,-5625.565159,-842.705048,-0.000000
1432.306009,-10436.903782,-689.485948,592.164754
1432.306320,-13249.686362,-2145.067394,2146.597232
1432.306632,-11473.192101,-3064.381992,3404.947333
1432.306943,-9400.615463,-3064.381992,3256.906145
1432.307255,-9696.697840,-2987.772442,444.123565
1432.307566,-7624.121203,-2911.162892,-370.102971
1432.307877,-5699.585753,-2987.772442,-222.061783
1432.308189,-7105.977043,-1685.410096,-148.041188
1432.308500,-9326.594869,306.438199,222.061783
1432.308812,-12509.480420,995.924147,518.144159
1432.309123,-12287.418637,153.219100,1776.494261
1432.309435,-10658.965565,995.924147,1110.308913
1432.309746,-10140.821405,2145.067394,-1184.329507
1432.310057,-9252.574275,2528.115143,-2368.659014
1432.310369,-7920.203579,2068.457845,-3034.844362
1432.310680,-8882.471304,1302.362347,-1628.453072
1432.310992,-12509.480420,1838.629195,-888.247130
1432.311303,-14508.036463,766.095498,370.102971
1432.311615,-14508.036463,-995.924147,1332.370696
1432.311926,-12065.356855,-919.314598,3034.844362
1432.312237,-9326.594869,-153.219100,1850.514855
1432.312549,-7772.162391,-383.047749,-296.082377
1432.312860,-6587.832884,-2298.286494,-518.144159
1432.313172,-5625.565159,-1608.800546,962.267725
1432.313483,-7550.100608,1991.848295,-370.102971
1432.313795,-10436.903782,2528.115143,-0.000000
1432.314106,-12731.542202,995.924147,814.226536
1432.314418,-11103.089130,306.438199,3478.967927
1432.314729,-8734.430116,1915.238745,1702.473667
1432.315040,-7402.059420,2681.334243,-0.000000
1432.315352,-4515.256246,1762.019645,-962.267725
1432.315663,-2886.803174,1378.971896,-592.164754
1432.315975,-3849.070898,1838.629195,592.164754
1432.316286,-7476.080014,919.314598,370.102971
1432.316598,-9992.780217,-842.705048,1554.432478
1432.316909,-8438.347739,383.047749,2368.659014
1432.317220,-7476.080014,229.828649,2442.679609
1432.317532,-6513.812290,-1532.190996,1036.288319
1432.317843,-5625.565159,-3370.820191,148.041188
1432.318155,-4071.132681,-3753.867940,148.041188
1432.318466,-4737.318029,-3524.039291,1332.370696
1432.318778,-8660.409521,-1762.019645,1850.514855
1432.319089,-12213.398043,-383.047749,1184.329507
1432.319400,-11769.274478,-2451.505594,2368.659014
1432.319712,-9400.615463,-2757.943793,3478.967927
1432.320023,-8956.491898,-689.485948,-0.000000
1432.320335,-8660.409521,1762.019645,-1924.535449
1432.320646,-7476.080014,153.219100,-2072.576638
1432.320958,-7105.977043,-1378.971896,-666.185348
1432.321269,-9844.739029,0.000000,148.041188
1432.321580,-13619.789333,-229.828649,222.061783
1432.321892,-14211.954086,-919.314598,296.082377
1432.322203,-12139.377449,-689.485948,1184.329507
1432.322515,-9474.636058,383.047749,740.205942
1432.322826,-8512.368333,-919.314598,-1406.391290
1432.323138,-7920.203579,-2451.505594,-1998.556043
1432.323449,-6587.832884,-1685.410096,-518.144159
1432.323761,-8068.244768,-459.657299,-74.020594
1432.324072,-11547.212695,-383.047749,370.102971
1432.324383,-13989.892304,-2221.676944,444.123565
1432.324695,-13249.686362,-2451.505594,1554.432478
1432.325006,-11177.109724,-1072.533697,1776.494261
1432.325318,-11029.068536,766.095498,-0.000000
1432.325629,-9474.636058,153.219100,-1924.535449
1432.325941,-7031.956449,-1225.752797,-1406.391290
1432.326252,-5773.606348,-1302.362347,814.226536
1432.326563,-8586.388927,-612.876398,814.226536
1432.326875,-11473.192101,-536.266849,1776.494261
1432.327186,-11103.089130,-1532.190996,3182.885551
1432.327498,-7624.121203,-2221.676944,3034.844362
1432.327809,-4663.297435,-306.438199,1480.411884
1432.328121,-4737.318029,-1685.410096,-1036.288319
1432.328432,-4737.318029,-3983.696590,-2220.617826
1432.328743,-4145.153275,-2987.772442,-1258.350101
1432.329055,-5403.503377,459.657299,-148.041188
1432.329366,-10140.821405,-306.438199,1110.308913
1432.329678,-13027.624579,-3983.696590,3108.864956
1432.329989,-12213.398043,-4519.963438,5255.462188
1432.330301,-8216.285956,-2374.896044,4737.318029
1432.330612,-5181.441594,-2145.067394,2368.659014
1432.330924,-4663.297435,-4290.134789,296.082377
1432.331235,-2960.823768,-5209.449386,-1406.391290
1432.331546,-1332.370696,-5286.058936,-1702.473667
1432.331858,-2812.782580,-4519.963438,-962.267725
1432.332169,-9400.615463,-6665.030833,296.082377
1432.332481,-14582.057057,-8963.317327,2294.638420
1432.332792,-14804.118840,-8656.879127,3404.947333
1432.333104,-12805.562797,-5439.278036,2664.741391
1432.333415,-10807.006753,-4519.963438,1480.411884
1432.333726,-9918.759623,-7048.078582,-296.082377
1432.334038,-8512.368333,-6818.249932,-1850.514855
1432.334349,-5699.585753,-2834.553343,-2220.617826
1432.334661,-5255.462188,229.828649,-1332.370696
1432.334972,-9178.553681,-1532.190996,-222.061783
1432.335284,-12583.501014,-4290.134789,1628.453072
1432.335595,-12657.521608,-4519.963438,1406.391290
1432.335906,-12287.418637,-1685.410096,814.226536
1432.336218,-13471.748144,1225.752797,-1036.288319
1432.336529,-13249.686362,1378.971896,-2368.659014
1432.336841,-11991.336260,-2068.457845,-2886.803174
1432.337152,-10066.800811,-2298.286494,-3404.947333
1432.337464,-9400.615463,153.219100,-2146.597232
1432.337775,-10732.986159,1915.238745,-1702.473667
1432.338086,-10214.842000,842.705048,1184.329507
1432.338398,-7476.080014,-2681.334243,3330.926739
1432.338709,-6957.935855,-5515.887586,3330.926739
1432.339021,-7031.956449,-4979.620737,2960.823768
1432.339332,-9326.594869,-3294.210641,1998.556043
1432.339644,-9252.574275,-3064.381992,814.226536
1432.339955,-7105.977043,-2604.724693,-1702.473667
1432.340267,-7031.956449,-2911.162892,-1406.391290
1432.340578,-8068.244768,-4136.915689,-1036.288319
1432.340889,-8882.471304,-4290.134789,370.102971
1432.341201,-8216.285956,-3140.991542,1406.391290
1432.341512,-7994.224174,-919.314598,1258.350101
1432.341824,-7994.224174,0.000000,2220.617826
1432.342135,-8364.327145,459.657299,2960.823768
1432.342447,-9030.512492,-536.266849,3775.050304
1432.342758,-7105.977043,-1685.410096,2516.700203
1432.343069,-6365.771101,-1455.581446,2072.576638
1432.343381,-5181.441594,383.047749,-0.000000
1432.343692,-3923.091493,0.000000,-370.102971
1432.344004,-2738.761985,-3983.696590,-148.041188
1432.344315,-3404.947333,-6281.983084,-1184.329507
1432.344627,-6365.771101,-4903.011187,-1258.350101
1432.344938,-9992.780217,-1915.238745,-888.247130
1432.345249,-13989.892304,995.924147,-0.000000
1432.345561,-15100.201217,1149.143247,1776.494261
1432.345872,-13767.830521,-1991.848295,3775.050304
1432.346184,-11621.233289,-5132.839837,4441.235652
1432.346495,-8586.388927,-5439.278036,4663.297435
1432.346807,-6291.750507,-5362.668486,2294.638420
1432.347118,-4885.359217,-6205.373534,-370.102971
1432.347430,-3701.029710,-6665.030833,-1258.350101
1432.347741,-4071.132681,-6281.983084,-2590.720797
1432.348052,-5921.647536,-6281.983084,-2146.597232
1432.348364,-9400.615463,-6358.592633,-1480.411884
1432.348675,-11843.295072,-5975.544884,1036.288319
1432.348987,-13027.624579,-5669.106685,1332.370696
1432.349298,-14434.015869,-5056.230287,2294.638420
1432.349610,-14359.995275,-4290.134789,2590.720797
1432.349921,-14137.933492,-3524.039291,2220.617826
1432.350232,-13619.789333,-3370.820191,2146.597232
1432.350544,-11029.068536,-2911.162892,888.247130
1432.350855,-8142.265362,-2681.334243,444.123565
1432.351167,-7105.977043,-5056.230287,-222.061783
1432.351478,-5551.544565,-6511.811733,-592.164754
1432.351790,-6143.709319,-6052.154434,-1924.535449
1432.352101,-7105.977043,-2987.772442,-2220.617826
1432.352412,-8216.285956,-919.314598,-1776.494261
1432.352724,-10362.883188,-229.828649,-1554.432478
1432.353035,-11843.295072,919.314598,-74.020594
1432.353347,-12213.398043,76.609550,370.102971
1432.353658,-12213.398043,306.438199,592.164754
1432.353970,-10362.883188,-612.876398,1480.411884
1432.354281,-8438.347739,-2451.505594,888.247130
1432.354592,-6365.771101,-3753.867940,148.041188
1432.354904,-7550.100608,-4826.401637,-444.123565
1432.355215,-6661.853478,-4673.182538,370.102971
1432.355527,-6291.750507,-1608.800546,-1036.288319
1432.355838,-7328.038826,-1455.581446,-592.164754
1432.356150,-7402.059420,-2911.162892,-74.020594
1432.356461,-5921.647536,-1838.629195,-74.020594
1432.356773,-4959.379811,-995.924147,296.082377
1432.357084,-6069.688724,-1762.019645,518.144159
1432.357395,-8586.388927,-3370.820191,444.123565
1432.357707,-11251.130318,-2834.553343,1702.473667
1432.358018,-12287.418637,-1915.238745,2664.741391
1432.358330,-11325.150913,-3753.867940,3182.885551
1432.358641,-9474.636058,-4673.182538,2590.720797
1432.358953,-6735.874072,-5056.230287,1702.473667
1432.359264,-5107.421000,-6205.373534,666.185348
1432.359575,-4071.132681,-4903.011187,-148.041188
1432.359887,-4811.338623,-2451.505594,-592.164754
1432.360198,-5773.606348,-1532.190996,-296.082377
1432.360510,-7179.997637,-2451.505594,-0.000000
1432.360821,-8882.471304,-1378.971896,370.102971
1432.361133,-10436.903782,-1149.143247,518.144159
1432.361444,-11251.130318,-2911.162892,1406.391290
1432.361755,-11695.253884,-4979.620737,2516.700203
1432.362067,-11843.295072,-4903.011187,2664.741391
1432.362378,-12065.356855,-4673.182538,2072.576638
1432.362690,-11843.295072,-3524.039291,1554.432478
1432.363001,-10732.986159,-842.705048,1480.411884
1432.363313,-9474.636058,76.609550,740.205942
1432.363624,-7550.100608,0.000000,-148.041188
1432.363936,-6661.853478,-229.828649,-148.041188
1432.364247,-6587.832884,-995.924147,-0.000000
1432.364558,-6883.915261,-2374.896044,-222.061783
1432.364870,-7624.121203,-3753.867940,148.041188
1432.365181,-9400.615463,-4749.792088,-74.020594
1432.365493,-11547.212695,-5669.106685,814.226536
1432.365804,-12657.521608,-6665.030833,1628.453072
1432.366116,-12731.542202,-6511.811733,2146.597232
1432.366427,-12583.501014,-6435.202183,2368.659014
1432.366738,-11103.089130,-6205.373534,2516.700203
1432.367050,-8586.388927,-4749.792088,2368.659014
1432.367361,-6143.709319,-3064.381992,1110.308913
1432.367673,-3701.029710,-1225.752797,-0.000000
1432.367984,-3701.029710,-1149.143247,-962.267725
1432.368296,-4737.318029,229.828649,-1998.556043
1432.368607,-7031.956449,1608.800546,-1554.432478
1432.368918,-9548.656652,0.000000,-1332.370696
1432.369230,-10732.986159,-2451.505594,-444.123565
1432.369541,-11029.068536,-3600.648841,370.102971
1432.369853,-10807.006753,-3830.477490,962.267725
1432.370164,-10658.965565,-3983.696590,740.205942
1432.370476,-7846.182985,-2911.162892,1628.453072
1432.370787,-8586.388927,-4366.744339,148.041188
1432.371099,-5699.585753,-2221.676944,814.226536
1432.371410,-4737.318029,-1072.533697,-1480.411884
1432.371721,-6069.688724,-1225.752797,-888.247130
1432.372033,-8290.306550,-2757.943793,-814.226536
1432.372344,-10732.986159,-3294.210641,-296.082377
1432.372656,-10807.006753,-1378.971896,-148.041188
1432.372967,-11251.130318,-1072.533697,370.102971
1432.373279,-11029.068536,-3447.429741,1628.453072
1432.373590,-11029.068536,-5362.668486,1998.556043
1432.373901,-9696.697840,-5209.449386,2368.659014
1432.374213,-9104.533087,-3983.696590,2590.720797
1432.374524,-9918.759623,-1915.238745,2516.700203
1432.374836,-11621.233289,0.000000,1480.411884
1432.375147,-9696.697840,306.438199,1998.556043
1432.375459,-9178.553681,-995.924147,1628.453072
1432.375770,-6957.935855,76.609550,1850.514855
1432.376081,-7328.038826,153.219100,740.205942
1432.376393,-7994.224174,-1991.848295,1850.514855
1432.376704,-8660.409521,-3677.258390,2886.803174
1432.377016,-9992.780217,-3830.477490,3627.009116
1432.377327,-10436.903782,-1838.629195,6069.688724
1432.377639,-13619.789333,-2374.896044,5551.544565
1432.377950,-12139.377449,-2145.067394,6883.915261
1432.378261,-8808.450710,-306.438199,4737.318029
1432.378573,-7698.141797,1685.410096,4959.379811
1432.378884,-6217.729913,1838.629195,3330.926739
1432.379196,-5625.565159,612.876398,2146.597232
1432.379507,-6217.729913,459.657299,1702.473667
1432.379819,-4663.297435,1225.752797,3182.885551
1432.380130,-9400.615463,306.438199,2072.576638
1432.380442,-11325.150913,-842.705048,5551.544565
1432.380753,-11399.171507,-1532.190996,6439.791695
1432.381064,-9770.718434,-2298.286494,7254.018232
1432.381376,-8586.388927,-1991.848295,7624.121203
1432.381687,-8956.491898,-766.095498,6365.771101
1432.381999,-6735.874072,766.095498,5773.606348
1432.382310,-5847.626942,1149.143247,3627.009116
1432.382622,-3997.112087,2604.724693,3775.050304
1432.382933,-5699.585753,3907.087040,2738.761985
1432.383244,-7476.080014,2528.115143,3404.947333
1432.383556,-7994.224174,1838.629195,3627.009116
1432.383867,-7402.059420,76.609550,4367.215058
1432.384179,-8068.244768,-1149.143247,4959.379811
1432.384490,-8660.409521,-2757.943793,6069.688724
1432.384802,-8882.471304,-4060.306139,6143.709319
1432.385113,-7624.121203,-1838.629195,6365.771101
1432.385425,-8364.327145,-153.219100,5329.482782
1432.385736,-9326.594869,995.924147,4145.153275
1432.386047,-10362.883188,1685.410096,3627.009116
1432.386359,-9252.574275,3524.039291,3108.864956
1432.386670,-8364.327145,2911.162892,2516.700203
1432.386982,-7994.224174,1991.848295,2812.782580
1432.387293,-7994.224174,842.705048,2368.659014
1432.387605,-7105.977043,459.657299,2442.679609
1432.387916,-6143.709319,-919.314598,2960.823768
1432.388228,-7328.038826,-2298.286494,2886.803174
1432.388539,-9030.512492,-1762.019645,4145.153275
1432.388850,-10584.944971,-1532.190996,3997.112087
1432.389162,-11103.089130,-919.314598,4367.215058
1432.389473,-11029.068536,459.657299,4071.132681
1432.389785,-11621.233289,383.047749,3034.844362
1432.390096,-9918.759623,1225.752797,2146.597232
1432.390408,-9474.636058,1608.800546,962.267725
1432.390719,-8586.388927,1532.190996,814.226536
1432.391031,-8290.306550,1072.533697,1184.329507
1432.391342,-9252.574275,-995.924147,2368.659014
1432.391653,-9474.636058,-2604.724693,3256.906145
1432.391965,-9548.656652,-3217.601092,4367.215058
1432.392276,-9178.553681,-3064.381992,4515.256246
1432.392588,-9474.636058,-2374.896044,4293.194464
1432.392899,-9326.594869,-1685.410096,2590.720797
1432.393211,-7402.059420,-229.828649,1480.411884
1432.393522,-7105.977043,995.924147,-444.123565
1432.393833,-7772.162391,1685.410096,-1184.329507
1432.394145,-9548.656652,3064.381992,-962.267725
1432.394456,-11547.212695,3524.039291,148.041188
1432.394768,-12805.562797,2604.724693,2294.638420
1432.395079,-13249.686362,689.485948,3775.050304
1432.395391,-12361.439231,-536.266849,5107.421000
1432.395702,-10140.821405,-1762.019645,4737.318029
1432.396014,-6217.729913,-2145.067394,3330.926739
1432.396325,-3330.926739,-2298.286494,2442.679609
1432.396636,-3108.864956,-1762.019645,1110.308913
1432.396948,-4811.338623,-1149.143247,1036.288319
1432.397259,-7994.224174,-306.438199,3108.864956
1432.397571,-11103.089130,1455.581446,3923.091493
1432.397882,-13915.871710,1838.629195,5329.482782
1432.398194,-14582.057057,1072.533697,5995.668130
1432.398505,-11991.336260,0.000000,5847.626942
1432.398817,-8216.285956,-612.876398,5107.421000
1432.399128,-4737.318029,-612.876398,3775.050304
1432.399439,-3256.906145,-919.314598,2368.659014
1432.399751,-1998.556043,-842.705048,1628.453072
1432.400062,-2812.782580,-383.047749,2072.576638
1432.400374,-6957.935855,153.219100,3182.885551
1432.400685,-11103.089130,689.485948,4737.318029
1432.400997,-14285.974681,1302.362347,6217.729913
1432.401308,-14211.954086,1608.800546,6661.853478
1432.401620,-11399.171507,766.095498,5403.503377
1432.401931,-7476.080014,0.000000,3997.112087
1432.402242,-4515.256246,-383.047749,3478.967927
1432.402554,-3552.988522,612.876398,2664.741391
1432.402865,-5403.503377,153.219100,4589.276840
1432.403177,-9030.512492,0.000000,5995.668130
1432.403488,-12287.418637,229.828649,8068.244768
1432.403800,-13619.789333,383.047749,8364.327145
1432.404111,-12139.377449,919.314598,7476.080014
1432.404422,-8290.306550,2374.896044,4219.173869
1432.404734,-4959.379811,2681.334243,1184.329507
1432.405045,-3552.988522,3524.039291,-370.102971
1432.405357,-4367.215058,2987.772442,-518.144159
1432.405668,-7772.162391,2068.457845,1258.350101
1432.405980,-12287.418637,1149.143247,3997.112087
1432.406291,-14730.098246,-383.047749,7402.059420
1432.406603,-16062.468941,-1991.848295,9326.594869
1432.406914,-14211.954086,-3600.648841,11177.109724
1432.407225,-11103.089130,-2757.943793,9992.780217
1432.407537,-6809.894666,-3370.820191,7846.182985
1432.407848,-2738.761985,-2068.457845,4515.256246
1432.408160,-1110.308913,383.047749,1480.411884
1432.408471,-1554.432478,2528.115143,518.144159
1432.408783,-4219.173869,3064.381992,-148.041188
1432.409094,-7476.080014,2451.505594,814.226536
1432.409406,-9844.739029,1685.410096,2812.782580
1432.409717,-12065.356855,459.657299,4811.338623
1432.410028,-13175.665768,-1762.019645,5699.585753
1432.410340,-13027.624579,-2681.334243,5699.585753
1432.410651,-11399.171507,-2451.505594,5107.421000
1432.410963,-9474.636058,-689.485948,4589.276840
1432.411274,-9178.553681,383.047749,4737.318029
1432.411586,-8586.388927,612.876398,3627.009116
1432.411897,-6069.688724,1608.800546,4219.173869
1432.412209,-4737.318029,1455.581446,2590.720797
1432.412520,-2146.597232,1149.143247,1480.411884
1432.412831,-1332.370696,842.705048,-1036.288319
1432.413143,-1776.494261,612.876398,-2220.617826
1432.413454,-4219.173869,229.828649,-2590.720797
1432.413766,-9992.780217,-306.438199,-518.144159
1432.414077,-16580.613101,0.000000,3108.864956
1432.414389,-22428.240043,-1149.143247,7031.956449
1432.414700,-23464.528361,-842.705048,8956.491898
1432.415011,-19245.354492,-306.438199,8438.347739
1432.415323,-12065.356855,-383.047749,6365.771101
1432.415634,-3849.070898,-995.924147,3182.885551
1432.415946,2368.659014,-842.705048,-1776.494261
1432.416257,5625.565159,383.047749,-5181.441594
1432.416569,3775.050304,1378.971896,-6217.729913
1432.416880,-2812.782580,766.095498,-4441.235652
1432.417192,-10214.842000,-459.657299,-1110.308913
1432.417503,-17987.004391,-1149.143247,4071.132681
1432.417814,-23612.569550,-2221.676944,8068.244768
1432.418126,-25167.002028,-2451.505594,10436.903782
1432.418437,-21984.116477,-2374.896044,10066.800811
1432.418749,-15174.221811,-2145.067394,8882.471304
1432.419060,-7105.977043,-536.266849,5181.441594
1432.419372,-814.226536,-919.314598,1776.494261
1432.419683,4589.276840,306.438199,-2664.741391
1432.419995,5329.482782,2221.676944,-4515.256246
1432.420306,1184.329507,3447.429741,-3478.967927
1432.420617,-6735.874072,2834.553343,-296.082377
1432.420929,-15174.221811,1302.362347,3627.009116
1432.421240,-20355.663405,766.095498,7105.977043
1432.421552,-20651.745782,-612.876398,9178.553681
1432.421863,-15840.407159,-1532.190996,8956.491898
1432.422175,-10214.842000,-1838.629195,7105.977043
1432.422486,-5181.441594,-2374.896044,3997.112087
1432.422798,0.000000,-842.705048,1480.411884
1432.423109,2664.741391,689.485948,-296.082377
1432.423420,1184.329507,1915.238745,148.041188
1432.423732,-5329.482782,2145.067394,1702.473667
1432.424043,-11103.089130,1225.752797,2516.700203
1432.424355,-12509.480420,1762.019645,3108.864956
1432.424666,-10807.006753,2374.896044,3478.967927
1432.424978,-8586.388927,612.876398,2146.597232
1432.425289,-7476.080014,-2298.286494,962.267725
1432.425601,-6587.832884,-2681.334243,1036.288319
1432.425912,-7179.997637,-612.876398,2812.782580
1432.426223,-9992.780217,0.000000,4737.318029
1432.426535,-13915.871710,0.000000,6069.688724
1432.426846,-15100.201217,-459.657299,6809.894666
1432.427158,-11695.253884,459.657299,6217.729913
1432.427469,-6513.812290,919.314598,2146.597232
1432.427781,-1924.535449,1838.629195,-2294.638420
1432.428092,-148.041188,2451.505594,-6291.750507
1432.428403,-1480.411884,1762.019645,-6069.688724
1432.428715,-4811.338623,842.705048,-2812.782580
1432.429026,-11621.233289,-1302.362347,1332.370696
1432.429338,-17764.942608,-3830.477490,4811.338623
1432.429649,-20355.663405,-4290.134789,8586.388927
1432.429961,-18727.210333,-2757.943793,10214.842000
1432.430272,-15470.304188,-3064.381992,9030.512492
1432.430584,-11473.192101,-3524.039291,3330.926739
1432.430895,-5329.482782,-2374.896044,-1480.411884
1432.431206,444.123565,766.095498,-5625.565159
1432.431518,3701.029710,4366.744339,-7772.162391
1432.431829,1998.556043,4596.572988,-7402.059420
1432.432141,-4441.235652,1762.019645,-5847.626942
1432.432452,-11325.150913,-766.095498,-1554.432478
1432.432764,-15618.345376,-995.924147,3256.906145
1432.433075,-18801.230927,-995.924147,4663.297435
1432.433387,-20355.663405,-919.314598,4219.173869
1432.433698,-17394.839637,-1225.752797,2146.597232
1432.434009,-10362.883188,-766.095498,-740.205942
1432.434321,-4515.256246,1149.143247,-3330.926739
1432.434632,-2812.782580,2451.505594,-4589.276840
1432.434944,-4441.235652,2068.457845,-3404.947333
1432.435255,-5847.626942,919.314598,-1850.514855
1432.435567,-7031.956449,-1149.143247,-888.247130
1432.435878,-6365.771101,-2298.286494,-2072.576638
1432.436190,-7328.038826,-1762.019645,-2368.659014
1432.436501,-7846.182985,-612.876398,-3256.906145
1432.436812,-9474.636058,0.000000,-1554.432478
1432.437124,-13471.748144,-536.266849,-0.000000
1432.437435,-16580.613101,-689.485948,3034.844362
1432.437747,-16802.674883,-612.876398,4737.318029
1432.438058,-13989.892304,-1838.629195,4219.173869
1432.438370,-8438.347739,-1455.581446,1850.514855
1432.438681,-4959.379811,0.000000,-2220.617826
1432.438992,-1184.329507,1149.143247,-4885.359217
1432.439304,74.020594,1225.752797,-5921.647536
1432.439615,-3404.947333,766.095498,-5033.400406
1432.439927,-9326.594869,383.047749,-1924.535449
1432.440238,-14211.954086,-995.924147,666.185348
1432.440550,-15174.221811,-2604.724693,3775.050304
1432.440861,-12731.542202,-4060.306139,4515.256246
1432.441173,-10362.883188,-4519.963438,3182.885551
1432.441484,-8882.471304,-4443.353888,2368.659014
1432.441795,-8586.388927,-2374.896044,1258.350101
1432.442107,-9918.759623,995.924147,592.164754
1432.442418,-10658.965565,2987.772442,-0.000000
1432.442730,-11177.109724,4749.792088,-1036.288319
1432.443041,-8586.388927,3447.429741,-1036.288319
1432.443353,-4367.215058,1838.629195,-2294.638420
1432.443664,-2146.597232,1915.238745,-3182.885551
1432.443976,-2886.803174,1302.362347,-2516.700203
1432.444287,-6957.935855,0.000000,-370.102971
1432.444598,-10955.047942,-1762.019645,2960.823768
1432.444910,-15396.283594,-1608.800546,5403.503377
1432.445221,-18505.148550,229.828649,6513.812290
1432.445533,-15988.448347,-383.047749,6143.709319
1432.445844,-9622.677246,-229.828649,3627.009116
1432.446156,-3182.885551,76.609550,740.205942
1432.446467,-1332.370696,1378.971896,-1776.494261
1432.446779,-1628.453072,1685.410096,-2368.659014
1432.447090,-3923.091493,1915.238745,-1184.329507
1432.447401,-5995.668130,1225.752797,-222.061783
1432.447713,-7698.141797,306.438199,-370.102971
1432.448024,-9104.533087,536.266849,1110.308913
1432.448336,-10510.924376,0.000000,3552.988522
1432.448647,-12435.459826,-2298.286494,4367.215058
1432.448959,-14285.974681,-2757.943793,4367.215058
1432.449270,-13397.727550,-2145.067394,3849.070898
1432.449582,-10955.047942,-1455.581446,2664.741391
1432.449893,-7105.977043,-1762.019645,962.267725
1432.450204,-4737.318029,-842.705048,-1776.494261
1432.450516,-5107.421000,1225.752797,-2294.638420
1432.450827,-4293.194464,1302.362347,-1702.473667
1432.451139,-4145.153275,-536.266849,-1924.535449
1432.451450,-5329.482782,-919.314598,-1702.473667
1432.451762,-8290.306550,-612.876398,-1184.329507
1432.452073,-11769.274478,76.609550,-0.000000
1432.452384,-13397.727550,1378.971896,1924.535449
1432.452696,-14285.974681,2451.505594,3108.864956
1432.453007,-14582.057057,1072.533697,2516.700203
1432.453319,-12657.521608,306.438199,666.185348
1432.453630,-8586.388927,229.828649,-1258.350101
1432.453942,-4885.359217,1302.362347,-3552.988522
1432.454253,-2960.823768,1838.629195,-5181.441594
1432.454565,-2960.823768,1225.752797,-5625.565159
1432.454876,-5329.482782,229.828649,-4219.173869
1432.455187,-9030.512492,-1915.238745,-1702.473667
1432.455499,-12213.398043,-1378.971896,1702.473667
1432.455810,-13989.892304,-1532.190996,3997.112087
1432.456122,-13175.665768,-3064.381992,4367.215058
1432.456433,-11251.130318,-5822.325785,3182.885551
1432.456745,-10140.821405,-5515.887586,1628.453072
1432.457056,-8808.450710,-2451.505594,-518.144159
1432.457368,-7698.141797,-459.657299,-1554.432478
1432.457679,-8142.265362,1302.362347,-1628.453072
1432.457990,-10140.821405,2068.457845,-1480.411884
1432.458302,-11473.192101,1991.848295,-1406.391290
1432.458613,-9844.739029,995.924147,-222.061783
1432.458925,-7105.977043,689.485948,-888.247130
1432.459236,-6069.688724,919.314598,-1332.370696
1432.459548,-6143.709319,1455.581446,-1332.370696
1432.459859,-8142.265362,459.657299,-1406.391290
1432.460171,-9918.759623,1225.752797,1332.370696
1432.460482,-12435.459826,689.485948,2664.741391
1432.460793,-14359.995275,842.705048,3108.864956
1432.461105,-13767.830521,612.876398,3552.988522
1432.461416,-9770.718434,-766.095498,1998.556043
1432.461728,-4663.297435,-1455.581446,-296.082377
1432.462039,-2072.576638,-919.314598,-2516.700203
1432.462351,-2146.597232,0.000000,-3849.070898
1432.462662,-3923.091493,1072.533697,-2738.761985
1432.462973,-7254.018232,689.485948,-296.082377
1432.463285,-11473.192101,1838.629195,2368.659014
1432.463596,-15248.242405,766.095498,4367.215058
1432.463908,-15100.201217,-995.924147,5625.565159
1432.464219,-11769.274478,-1608.800546,4219.173869
1432.464531,-8216.285956,-919.314598,1924.535449
1432.464842,-5551.544565,0.000000,-592.164754
1432.465154,-5033.400406,0.000000,-2146.597232
1432.465465,-5255.462188,76.609550,-2072.576638
1432.465776,-7179.997637,1072.533697,-518.144159
1432.466088,-10214.842000,1225.752797,814.226536
1432.466399,-11251.130318,306.438199,3182.885551
1432.466711,-9992.780217,-536.266849,4071.132681
1432.467022,-8142.265362,-1685.410096,4293.194464
1432.467334,-6735.874072,-2145.067394,2590.720797
1432.467645,-4811.338623,-2911.162892,370.102971
1432.467957,-4737.318029,-919.314598,-74.020594
1432.468268,-7402.059420,842.705048,1258.350101
1432.468579,-11621.233289,995.924147,1924.535449
1432.468891,-15026.180623,-153.219100,2590.720797
1432.469202,-14804.118840,-689.485948,2812.782580
1432.469514,-11843.295072,-766.095498,2516.700203
1432.469825,-7402.059420,766.095498,370.102971
1432.470137,-4219.173869,1608.800546,-1998.556043
1432.470448,-3182.885551,536.266849,-3034.844362
1432.470760,-4145.153275,842.705048,-2072.576638
1432.471071,-7698.141797,2681.334243,-296.082377
1432.471382,-11991.336260,3064.381992,2294.638420
1432.471694,-14730.098246,153.219100,3849.070898
1432.472005,-13693.809927,-842.705048,4145.153275
1432.472317,-10510.924376,-1302.362347,1776.494261
1432.472628,-5921.647536,-689.485948,-0.000000
1432.472940,-3108.864956,-919.314598,-2368.659014
1432.473251,-3849.070898,-612.876398,-3923.091493
1432.473562,-5921.647536,459.657299,-3256.906145
1432.473874,-8290.306550,1302.362347,-1924.535449
1432.474185,-11029.068536,1608.800546,-0.000000
1432.474497,-12361.439231,612.876398,1998.556043
1432.474808,-12583.501014,689.485948,1850.514855
1432.475120,-11547.212695,-306.438199,1184.329507
1432.475431,-10362.883188,-766.095498,666.185348
1432.475743,-9326.594869,0.000000,-74.020594
1432.476054,-9474.636058,306.438199,-370.102971
1432.476365,-10214.842000,229.828649,-370.102971
1432.476677,-9548.656652,-766.095498,740.205942
1432.476988,-8586.388927,-1915.238745,888.247130
1432.477300,-6513.812290,-1915.238745,962.267725
1432.477611,-6217.729913,-2221.676944,-296.082377
1432.477923,-6291.750507,-1685.410096,-148.041188
1432.478234,-7254.018232,-766.095498,222.061783
1432.478546,-9622.677246,0.000000,740.205942
1432.478857,-12287.418637,1072.533697,1110.308913
1432.479168,-13323.706956,612.876398,2590.720797
1432.479480,-12361.439231,153.219100,2368.659014
1432.479791,-10362.883188,-689.485948,1924.535449
1432.480103,-8142.265362,-383.047749,740.205942
1432.480414,-6365.771101,-842.705048,-148.041188
1432.480726,-6143.709319,-995.924147,-296.082377
1432.481037,-7698.141797,-459.657299,962.267725
1432.481349,-10584.944971,0.000000,1998.556043
1432.481660,-11695.253884,-229.828649,2738.761985
1432.481971,-10436.903782,153.219100,3404.947333
1432.482283,-7624.121203,-842.705048,2738.761985
1432.482594,-4737.318029,-1149.143247,1480.411884
1432.482905,-3923.091493,-1302.362347,370.102971
1432.483217,-5033.400406,-153.219100,-370.102971
1432.483528,-7550.100608,842.705048,1184.329507
1432.483839,-10214.842000,1455.581446,2072.576638
1432.484151,-12361.439231,2145.067394,2960.823768
1432.484462,-12213.398043,1991.848295,2590.720797
1432.484773,-8364.327145,1915.238745,1998.556043
1432.485085,-6217.729913,2221.676944,-370.102971
1432.485396,-5625.565159,2987.772442,-740.205942
1432.485707,-6365.771101,2911.162892,-1184.329507
1432.486019,-8290.306550,2068.457845,-148.041188
1432.486330,-8364.327145,76.609550,1184.329507
1432.486641,-8512.368333,-459.657299,-0.000000
1432.486953,-8512.368333,-612.876398,592.164754
1432.487264,-9178.553681,-1072.533697,2294.638420
1432.487575,-11251.130318,-1991.848295,3108.864956
1432.487887,-13101.645173,-4060.306139,2368.659014
1432.488198,-12953.603985,-3447.429741,1702.473667
1432.488509,-9400.615463,-1685.410096,1110.308913
1432.488821,-5329.482782,-459.657299,-962.267725
1432.489132,-4589.276840,536.266849,-3108.864956
1432.489443,-6661.853478,766.095498,-3256.906145
1432.489755,-9030.512492,1302.362347,-888.247130
1432.490066,-10732.986159,153.219100,1480.411884
1432.490378,-13323.706956,-612.876398,2220.617826
1432.490689,-13619.789333,-383.047749,1406.391290
1432.491000,-11103.089130,0.000000,-0.000000
1432.491312,-7550.100608,459.657299,-1184.329507
1432.491623,-5699.585753,306.438199,-1480.411884
1432.491934,-6883.915261,383.047749,-444.123565
1432.492246,-9178.553681,-1149.143247,444.123565
1432.492557,-9918.759623,-1838.629195,1776.494261
1432.492868,-9474.636058,-1991.848295,1628.453072
1432.493180,-8586.388927,-1685.410096,-0.000000
1432.493491,-7328.038826,-306.438199,-1332.370696
1432.493802,-6217.729913,919.314598,-1998.556043
1432.494114,-7772.162391,1915.238745,-888.247130
1432.494425,-10436.903782,1685.410096,814.226536
1432.494736,-13249.686362,1302.362347,2294.638420
1432.495048,-13101.645173,0.000000,2960.823768
1432.495359,-10066.800811,-919.314598,2516.700203
1432.495670,-6809.894666,-995.924147,296.082377
1432.495982,-4219.173869,-383.047749,-1110.308913
1432.496293,-4071.132681,306.438199,-2072.576638
1432.496604,-7254.018232,0.000000,-1036.288319
1432.496916,-10881.027347,1685.410096,1480.411884
1432.497227,-13989.892304,1302.362347,2294.638420
1432.497538,-13397.727550,229.828649,3552.988522
1432.497850,-9696.697840,-919.314598,2960.823768
1432.498161,-5699.585753,-1378.971896,814.226536
1432.498472,-3108.864956,-1532.190996,-0.000000
1432.498784,-3849.070898,-383.047749,-222.061783
1432.499095,-7254.018232,76.609550,1480.411884
1432.499406,-10658.965565,-306.438199,2368.659014
1432.499718,-13101.645173,0.000000,2220.617826
1432.500029,-12805.562797,612.876398,2664.741391
1432.500340,-9030.512492,153.219100,1480.411884
1432.500652,-5477.523971,0.000000,-222.061783
1432.500963,-3997.112087,-383.047749,-1332.370696
1432.501274,-5699.585753,229.828649,-1184.329507
1432.501586,-9252.574275,459.657299,518.144159
1432.501897,-11177.109724,1072.533697,2146.597232
1432.502208,-12953.603985,459.657299,2442.679609
1432.502520,-12287.418637,0.000000,2220.617826
1432.502831,-9770.718434,-689.485948,1332.370696
1432.503142,-6069.688724,-1762.019645,592.164754
1432.503454,-4589.276840,-1838.629195,-740.205942
1432.503765,-6587.832884,-2145.067394,-1258.350101
1432.504076,-7846.182985,-1072.533697,-1110.308913
1432.504388,-8882.471304,-153.219100,-1480.411884
1432.504699,-9474.636058,459.657299,-592.164754
1432.505011,-10807.006753,1378.971896,-0.000000
1432.505322,-12731.542202,1072.533697,518.144159
1432.505633,-11843.295072,0.000000,1628.453072
1432.505945,-11029.068536,-842.705048,-222.061783
1432.506256,-10214.842000,919.314598,-592.164754
1432.506567,-8882.471304,1762.019645,-1258.350101
1432.506879,-8290.306550,536.266849,-2072.576638
1432.507190,-7550.100608,0.000000,-1332.370696
1432.507501,-7698.141797,-766.095498,-1554.432478
1432.507813,-8290.306550,383.047749,-222.061783
1432.508124,-9326.594869,536.266849,2220.617826
1432.508435,-10510.924376,-1532.190996,2442.679609
1432.508747,-9844.739029,-2987.772442,1258.350101
1432.509058,-8660.409521,-1762.019645,-0.000000
1432.509369,-5625.565159,0.000000,-962.267725
1432.509681,-4959.379811,383.047749,-1554.432478
1432.509992,-7402.059420,153.219100,-1184.329507
1432.510303,-9622.677246,76.609550,-814.226536
1432.510615,-10214.842000,-1149.143247,148.041188
1432.510926,-9992.780217,-459.657299,1332.370696
1432.511237,-10658.965565,306.438199,888.247130
1432.511549,-9770.718434,383.047749,-296.082377
1432.511860,-7550.100608,689.485948,-962.267725
1432.512171,-7031.956449,1455.581446,-1332.370696
1432.512483,-7772.162391,2987.772442,-74.020594
1432.512794,-9696.697840,2145.067394,814.226536
1432.513105,-9474.636058,-229.828649,814.226536
1432.513417,-8660.409521,-1378.971896,1258.350101
1432.513728,-7476.080014,-1532.190996,888.247130
1432.514039,-6957.935855,-1685.410096,222.061783
1432.514351,-7328.038826,-1838.629195,-0.000000
1432.514662,-8290.306550,-2298.286494,-518.144159
1432.514973,-10214.842000,-1225.752797,444.123565
1432.515285,-12361.439231,459.657299,962.267725
1432.515596,-12065.356855,0.000000,2294.638420
1432.515907,-10510.924376,-459.657299,1036.288319
1432.516219,-8364.327145,-1455.581446,-296.082377
1432.516530,-7179.997637,0.000000,-814.226536
1432.516841,-7402.059420,689.485948,-888.247130
1432.517153,-8808.450710,689.485948,-0.000000
1432.517464,-10436.903782,306.438199,1628.453072
1432.517775,-12213.398043,0.000000,2442.679609
1432.518087,-13619.789333,0.000000,3997.112087
1432.518398,-11325.150913,-842.705048,3404.947333
1432.518709,-6883.915261,-2374.896044,1258.350101
1432.519021,-3923.091493,-1838.629195,444.123565
1432.519332,-3034.844362,-2145.067394,-1110.308913
1432.519644,-4219.173869,-1302.362347,-1110.308913
1432.519955,-7105.977043,229.828649,-370.102971
1432.520266,-10436.903782,766.095498,296.082377
1432.520578,-12731.542202,689.485948,2072.576638
1432.520889,-14211.954086,459.657299,3256.906145
1432.521200,-12731.542202,-76.609550,2886.803174
1432.521512,-8586.388927,-1302.362347,888.247130
1432.521823,-6217.729913,-995.924147,-888.247130
1432.522134,-4811.338623,229.828649,-1776.494261
1432.522446,-5625.565159,536.266849,-1776.494261
1432.522757,-7698.141797,-229.828649,-74.020594
1432.523068,-10732.986159,1072.533697,962.267725
1432.523380,-13693.809927,1532.190996,2072.576638
1432.523691,-11843.295072,1991.848295,2220.617826
1432.524002,-7698.141797,919.314598,888.247130
1432.524314,-4219.173869,153.219100,-1184.329507
1432.524625,-2738.761985,229.828649,-3256.906145
1432.524936,-3404.947333,1149.143247,-3701.029710
1432.525248,-6587.832884,2528.115143,-1850.514855
1432.525559,-11251.130318,1225.752797,-0.000000
1432.525870,-13471.748144,76.609550,1554.432478
1432.526182,-13989.892304,-1072.533697,1776.494261
1432.526493,-11251.130318,-1532.190996,740.205942
1432.526804,-7846.182985,-919.314598,-814.226536
1432.527116,-5107.421000,-612.876398,-2442.679609
1432.527427,-5033.400406,-689.485948,-3108.864956
1432.527738,-8364.327145,-306.438199,-2368.659014
1432.528050,-11695.253884,-689.485948,-74.020594
1432.528361,-15100.201217,995.924147,2294.638420
1432.528672,-16062.468941,842.705048,4071.132681
1432.528984,-13471.748144,-1532.190996,3330.926739
1432.529295,-8364.327145,-3600.648841,1184.329507
1432.529606,-3552.988522,-3140.991542,-2146.597232
1432.529918,-1554.432478,-689.485948,-3478.967927
1432.530229,-3923.091493,1378.971896,-2294.638420
1432.530540,-9474.636058,689.485948,-740.205942
1432.530852,-15248.242405,383.047749,1480.411884
1432.531163,-17246.798449,1762.019645,4589.276840
1432.531474,-13989.892304,689.485948,5403.503377
1432.531786,-8808.450710,-153.219100,3108.864956
1432.532097,-6291.750507,-766.095498,-444.123565
1432.532408,-3701.029710,0.000000,-1850.514855
1432.532720,-2442.679609,-766.095498,-1554.432478
1432.533031,-5403.503377,-612.876398,-148.041188
1432.533343,-11029.068536,0.000000,2220.617826
1432.533654,-14730.098246,-689.485948,4441.235652
1432.533965,-13471.748144,-1225.752797,5921.647536
1432.534277,-9474.636058,-1455.581446,4145.153275
1432.534588,-5773.606348,-689.485948,2664.741391
1432.534899,-3923.091493,-612.876398,222.061783
1432.535211,-2960.823768,-689.485948,-1258.350101
1432.535522,-4219.173869,2145.067394,-1776.494261
1432.535833,-7624.121203,3217.601092,-148.041188
1432.536145,-10584.944971,3524.039291,962.267725
1432.536456,-11621.233289,2221.676944,1924.535449
1432.536767,-10436.903782,612.876398,2294.638420
1432.537079,-8882.471304,0.000000,2664.741391
1432.537390,-8142.265362,-766.095498,370.102971
1432.537701,-6661.853478,0.000000,148.041188
1432.538013,-5995.668130,-383.047749,-1406.391290
1432.538324,-8142.265362,-459.657299,-296.082377
1432.538635,-10140.821405,612.876398,740.205942
1432.538947,-11621.233289,766.095498,1480.411884
1432.539258,-11399.171507,0.000000,2368.659014
1432.539569,-9474.636058,-1608.800546,1850.514855
1432.539881,-7476.080014,-1838.629195,1110.308913
1432.540192,-5847.626942,-2068.457845,-518.144159
1432.540503,-6439.791695,-2221.676944,-1776.494261
1432.540815,-8882.471304,-76.609550,-888.247130
1432.541126,-12435.459826,612.876398,-740.205942
1432.541437,-14656.077652,1608.800546,962.267725
1432.541749,-14508.036463,306.438199,2368.659014
1432.542060,-10881.027347,-766.095498,1184.329507
1432.542371,-7179.997637,-1455.581446,-814.226536
1432.542683,-4663.297435,-76.609550,-2368.659014
1432.542994,-4293.194464,459.657299,-2220.617826
1432.543305,-7772.162391,536.266849,-814.226536
1432.543617,-11843.295072,459.657299,148.041188
1432.543928,-14582.057057,459.657299,1776.494261
1432.544239,-13397.727550,995.924147,2590.720797
1432.544551,-9474.636058,-612.876398,2072.576638
1432.544862,-5847.626942,-536.266849,370.102971
1432.545173,-5033.400406,-1455.581446,-1702.473667
1432.545485,-5329.482782,-766.095498,-740.205942
1432.545796,-7846.182985,76.609550,148.041188
1432.546107,-11547.212695,842.705048,1036.288319
1432.546419,-12805.562797,1455.581446,1776.494261
1432.546730,-11917.315666,1532.190996,1480.411884
1432.547041,-8512.368333,1762.019645,1332.370696
1432.547353,-5329.482782,-306.438199,-444.123565
1432.547664,-4663.297435,0.000000,-1110.308913
1432.547976,-6365.771101,383.047749,-888.247130
1432.548287,-8512.368333,306.438199,592.164754
1432.548598,-11029.068536,689.485948,2146.597232
1432.548910,-13101.645173,1608.800546,3997.112087
1432.549221,-11325.150913,689.485948,3552.988522
1432.549532,-6809.894666,-1685.410096,1480.411884
1432.549844,-4293.194464,-689.485948,222.061783
1432.550155,-4441.235652,1072.533697,1332.370696
1432.550466,-8068.244768,229.828649,1184.329507
1432.550778,-10658.965565,-1072.533697,1554.432478
1432.551089,-11029.068536,-153.219100,1702.473667
1432.551400,-10362.883188,766.095498,1554.432478
1432.551712,-7772.162391,1378.971896,1184.329507
1432.552023,-6735.874072,-766.095498,592.164754
1432.552334,-6513.812290,-2374.896044,296.082377
1432.552646,-7402.059420,-2068.457845,-0.000000
1432.552957,-8956.491898,-995.924147,592.164754
1432.553268,-11177.109724,459.657299,1406.391290
1432.553580,-12139.377449,153.219100,1702.473667
1432.553891,-11843.295072,-76.609550,1332.370696
1432.554202,-10658.965565,1378.971896,740.205942
1432.554514,-8808.450710,2911.162892,1406.391290
1432.554825,-6809.894666,612.876398,1554.432478
1432.555136,-5033.400406,-1532.190996,-296.082377
1432.555448,-5403.503377,-1149.143247,-1480.411884
1432.555759,-7105.977043,-306.438199,-888.247130
1432.556070,-8660.409521,459.657299,592.164754
1432.556382,-11029.068536,1072.533697,814.226536
1432.556693,-12879.583391,689.485948,814.226536
1432.557004,-13619.789333,306.438199,2146.597232
1432.557316,-11843.295072,-1072.533697,2886.803174
1432.557627,-7254.018232,-1915.238745,1998.556043
1432.557938,-5107.421000,-2068.457845,-888.247130
1432.558250,-4737.318029,-612.876398,-2812.782580
1432.558561,-6143.709319,612.876398,-962.267725
1432.558872,-9252.574275,153.219100,-148.041188
1432.559184,-12953.603985,1072.533697,2072.576638
1432.559495,-15396.283594,229.828649,3404.947333
1432.559806,-11991.336260,-1762.019645,4145.153275
1432.560118,-7994.224174,-2068.457845,2812.782580
1432.560429,-5033.400406,-2221.676944,962.267725
1432.560740,-4589.276840,-1991.848295,-962.267725
1432.561052,-5107.421000,-842.705048,-1258.350101
1432.561363,-6957.935855,459.657299,-444.123565
1432.561674,-10140.821405,2911.162892,-0.000000
1432.561986,-11843.295072,2604.724693,1850.514855
1432.562297,-11917.315666,766.095498,1480.411884
1432.562609,-8438.347739,229.828649,962.267725
1432.562920,-5403.503377,306.438199,-0.000000
1432.563231,-5033.400406,766.095498,-2072.576638
1432.563543,-5699.585753,1149.143247,-2738.761985
1432.563854,-7179.997637,383.047749,-2368.659014
1432.564165,-9992.780217,919.314598,-1406.391290
1432.564477,-12435.459826,1455.581446,666.185348
1432.564788,-13249.686362,842.705048,1036.288319
1432.565099,-12361.439231,-612.876398,1702.473667
1432.565411,-9548.656652,-2145.067394,814.226536
1432.565722,-6661.853478,-1608.800546,-592.164754
1432.566033,-6587.832884,0.000000,-1776.494261
1432.566345,-8142.265362,1072.533697,-1110.308913
1432.566656,-9770.718434,1455.581446,-740.205942
1432.566967,-10510.924376,536.266849,-222.061783
1432.567279,-10658.965565,1225.752797,-222.061783
1432.567590,-10584.944971,612.876398,370.102971
1432.567901,-10510.924376,0.000000,1998.556043
1432.568213,-10362.883188,-842.705048,1480.411884
1432.568524,-10732.986159,-1072.533697,222.061783
1432.568835,-9844.739029,-1455.581446,1258.350101
1432.569147,-9104.533087,-995.924147,666.185348
1432.569458,-7550.100608,306.438199,-148.041188
1432.569769,-8068.244768,-153.219100,666.185348
1432.570081,-9474.636058,-1378.971896,1702.473667
1432.570392,-9474.636058,-1762.019645,2590.720797
1432.570703,-8512.368333,-1991.848295,2368.659014
1432.571015,-7846.182985,-1838.629195,2146.597232
1432.571326,-8882.471304,-1991.848295,1998.556043
1432.571637,-8586.388927,-229.828649,1258.350101
1432.571949,-8142.265362,842.705048,740.205942
1432.572260,-8512.368333,1685.410096,1554.432478
1432.572571,-8660.409521,2145.067394,2294.638420
1432.572883,-8438.347739,1532.190996,2294.638420
1432.573194,-7105.977043,1455.581446,1850.514855
1432.573505,-6513.812290,689.485948,1036.288319
1432.573817,-6217.729913,1608.800546,-0.000000
1432.574128,-5329.482782,1762.019645,-0.000000
1432.574439,-6217.729913,459.657299,-592.164754
1432.574751,-9252.574275,0.000000,740.205942
1432.575062,-11325.150913,0.000000,1850.514855
1432.575373,-9992.780217,-383.047749,2886.803174
1432.575685,-7402.059420,-1608.800546,1628.453072
1432.575996,-6069.688724,-1608.800546,666.185348
1432.576307,-6439.791695,-1072.533697,222.061783
1432.576619,-7105.977043,-229.828649,444.123565
1432.576930,-8438.347739,459.657299,740.205942
1432.577242,-10732.986159,919.314598,370.102971
1432.577553,-11843.295072,1762.019645,370.102971
1432.577864,-10955.047942,1608.800546,-518.144159
1432.578176,-8734.430116,229.828649,-1480.411884
1432.578487,-7402.059420,-459.657299,-2220.617826
1432.578798,-7105.977043,-229.828649,-1998.556043
1432.579110,-8364.327145,-459.657299,-1850.514855
1432.579421,-10214.842000,-1838.629195,-666.185348
1432.579732,-12509.480420,-2911.162892,592.164754
1432.580044,-13471.748144,-2145.067394,666.185348
1432.580355,-13027.624579,-536.266849,814.226536
1432.580666,-10955.047942,-306.438199,-0.000000
1432.580978,-8216.285956,-689.485948,-1036.288319
1432.581289,-7179.997637,-1302.362347,-3404.947333
1432.581600,-6069.688724,-1302.362347,-3701.029710
1432.581912,-7179.997637,-612.876398,-2960.823768
1432.582223,-9474.636058,383.047749,-1554.432478
1432.582534,-11843.295072,1225.752797,-222.061783
1432.582845,-14211.954086,1149.143247,222.061783
1432.583157,-14952.160028,153.219100,1776.494261
1432.583468,-13101.645173,459.657299,1406.391290
1432.583779,-9252.574275,0.000000,-814.226536
1432.584091,-5403.503377,383.047749,-2368.659014
1432.584402,-4367.215058,612.876398,-3108.864956
1432.584713,-5329.482782,919.314598,-1998.556043
1432.585025,-7254.018232,1455.581446,-296.082377
1432.585336,-11473.192101,76.609550,1702.473667
1432.585647,-12213.398043,-1302.362347,3330.926739
1432.585959,-10807.006753,-1915.238745,3182.885551
1432.586270,-6883.915261,-612.876398,2146.597232
1432.586581,-5255.462188,-995.924147,518.144159
1432.586892,-6365.771101,-1532.190996,296.082377
1432.587204,-6661.853478,-1225.752797,296.082377
1432.587515,-7698.141797,229.828649,1480.411884
1432.587826,-8438.347739,1762.019645,2812.782580
1432.588138,-8660.409521,1608.800546,1998.556043
1432.588449,-8068.244768,1455.581446,1480.411884
1432.588760,-6217.729913,689.485948,444.123565
1432.589072,-5625.565159,1149.143247,-444.123565
1432.589383,-7105.977043,2298.286494,-0.000000
1432.589694,-9178.553681,1225.752797,370.102971
1432.590006,-10066.800811,0.000000,740.205942
1432.590317,-9770.718434,0.000000,1998.556043
1432.590628,-10140.821405,536.266849,1924.535449
1432.590939,-8734.430116,-229.828649,2516.700203
1432.591251,-7994.224174,-2757.943793,2590.720797
1432.591562,-7031.956449,-2834.553343,1628.453072
1432.591873,-7031.956449,-2298.286494,962.267725
1432.592185,-8956.491898,-995.924147,-296.082377
1432.592496,-9400.615463,229.828649,148.041188
1432.592807,-10436.903782,459.657299,-0.000000
1432.593119,-11325.150913,383.047749,518.144159
1432.593430,-12139.377449,-153.219100,814.226536
1432.593741,-11399.171507,-229.828649,1406.391290
1432.594053,-10140.821405,-536.266849,1184.329507
1432.594364,-10436.903782,-842.705048,370.102971
1432.594675,-10881.027347,-689.485948,-0.000000
1432.594986,-10510.924376,0.000000,-0.000000
1432.595298,-9326.594869,0.000000,148.041188
1432.595609,-9992.780217,766.095498,-0.000000
1432.595920,-9326.594869,76.609550,-0.000000
1432.596232,-8216.285956,76.609550,1702.473667
1432.596543,-7846.182985,-919.314598,1258.350101
1432.596854,-7328.038826,-2068.457845,1702.473667
1432.597166,-6365.771101,-2604.724693,592.164754
1432.597477,-6513.812290,-1915.238745,-0.000000
1432.597788,-7328.038826,-842.705048,-74.020594
1432.598100,-8068.244768,306.438199,-0.000000
1432.598411,-9844.739029,842.705048,888.247130
1432.598722,-10807.006753,536.266849,1628.453072
1432.599033,-10436.903782,0.000000,1480.411884
1432.599345,-8956.491898,0.000000,666.185348
1432.599656,-7476.080014,842.705048,-518.144159
1432.599967,-5995.668130,1149.143247,-1628.453072
1432.600279,-5995.668130,1685.410096,-1924.535449
1432.600590,-7846.182985,1685.410096,-814.226536
1432.600901,-9030.512492,842.705048,814.226536
1432.601213,-11399.171507,153.219100,1924.535449
1432.601524,-11325.150913,-1225.752797,1924.535449
1432.601835,-8512.368333,-1838.629195,888.247130
1432.602147,-5995.668130,-1915.238745,-444.123565
1432.602458,-5403.503377,-1225.752797,-740.205942
1432.602769,-5403.503377,-1072.533697,-962.267725
1432.603080,-8216.285956,536.266849,-1998.556043
1432.603392,-11843.295072,2221.676944,-666.185348
1432.603703,-14211.954086,3217.601092,1702.473667
1432.604014,-15692.365970,2221.676944,2368.659014
1432.604326,-12657.521608,306.438199,1554.432478
1432.604637,-8364.327145,-1838.629195,-1110.308913
1432.604948,-3849.070898,-1532.190996,-3701.029710
1432.605260,-2590.720797,995.924147,-3330.926739
1432.605571,-7179.997637,1225.752797,-1406.391290
1432.605882,-13101.645173,-1302.362347,1480.411884
1432.606194,-17616.901420,-2911.162892,4293.194464
1432.606505,-17024.736666,-1915.238745,4811.338623
1432.606816,-11843.295072,-612.876398,3182.885551
1432.607127,-5921.647536,-766.095498,222.061783
1432.607439,-3034.844362,-1762.019645,-3182.885551
1432.607750,-1924.535449,-689.485948,-3997.112087
1432.608061,-2738.761985,153.219100,-2368.659014
1432.608373,-8586.388927,2221.676944,-0.000000
1432.608684,-14878.139434,2145.067394,2664.741391
1432.608995,-16654.633695,1149.143247,4367.215058
1432.609307,-14063.912898,229.828649,3701.029710
1432.609618,-8142.265362,229.828649,2442.679609
1432.609929,-4737.318029,612.876398,148.041188
1432.610241,-2812.782580,229.828649,-962.267725
1432.610552,-4071.132681,0.000000,-1850.514855
1432.610863,-6587.832884,-995.924147,-296.082377
1432.611174,-9918.759623,-612.876398,1554.432478
1432.611486,-11843.295072,76.609550,3330.926739
1432.611797,-11843.295072,-689.485948,3701.029710
1432.612108,-10584.944971,-2604.724693,3108.864956
1432.612420,-8956.491898,-2528.115143,2442.679609
1432.612731,-7105.977043,-1302.362347,1776.494261
1432.613042,-5329.482782,-229.828649,592.164754
1432.613354,-5403.503377,76.609550,-0.000000
1432.613665,-6957.935855,1072.533697,222.061783
1432.613976,-8586.388927,1915.238745,592.164754
1432.614288,-10510.924376,2681.334243,1628.453072
1432.614599,-11547.212695,1915.238745,2886.803174
1432.614910,-10288.862594,383.047749,2220.617826
1432.615221,-9178.553681,1072.533697,1036.288319
1432.615533,-7624.121203,76.609550,444.123565
1432.615844,-7031.956449,153.219100,-1036.288319
1432.616155,-5921.647536,229.828649,-1110.308913
1432.616467,-6587.832884,766.095498,-0.000000
1432.616778,-8956.491898,-306.438199,1406.391290
1432.617089,-10436.903782,-1915.238745,3330.926739
1432.617401,-9844.739029,-3753.867940,2738.761985
1432.617712,-8734.430116,-2528.115143,1332.370696
1432.618023,-8216.285956,-1455.581446,296.082377
1432.618334,-8068.244768,-306.438199,-592.164754
1432.618646,-9104.533087,536.266849,-1332.370696
1432.618957,-10881.027347,1072.533697,-518.144159
1432.619268,-12435.459826,383.047749,148.041188
1432.619580,-12065.356855,459.657299,1036.288319
1432.619891,-10584.944971,383.047749,518.144159
1432.620202,-7920.203579,0.000000,-444.123565
1432.620514,-6957.935855,-612.876398,-592.164754
1432.620825,-7476.080014,0.000000,-370.102971
1432.621136,-9400.615463,612.876398,-1036.288319
1432.621448,-11621.233289,1685.410096,222.061783
1432.621759,-13915.871710,2068.457845,962.267725
1432.622070,-14063.912898,1455.581446,2516.700203
1432.622381,-11029.068536,-459.657299,2368.659014
1432.622693,-5921.647536,-3140.991542,-148.041188
1432.623004,-2442.679609,-3447.429741,-1850.514855
1432.623315,-1850.514855,-1302.362347,-2072.576638
1432.623627,-5107.421000,-153.219100,-74.020594
1432.623938,-10658.965565,-689.485948,1480.411884
1432.624249,-15026.180623,-1072.533697,3182.885551
1432.624561,-17024.736666,153.219100,3923.091493
1432.624872,-12879.583391,229.828649,3627.009116
1432.625183,-7105.977043,612.876398,1258.350101
1432.625495,-4219.173869,153.219100,-2220.617826
1432.625806,-2590.720797,229.828649,-3627.009116
1432.626117,-2294.638420,919.314598,-3108.864956
1432.626428,-5625.565159,2451.505594,-1184.329507
1432.626740,-10510.924376,2681.334243,1406.391290
1432.627051,-14359.995275,919.314598,3404.947333
1432.627362,-13101.645173,383.047749,2960.823768
1432.627674,-8364.327145,0.000000,1480.411884
1432.627985,-4293.194464,0.000000,-74.020594
1432.628296,-2960.823768,0.000000,-1628.453072
1432.628608,-4145.153275,0.000000,-2442.679609
1432.628919,-6365.771101,-459.657299,-2146.597232
1432.629230,-9770.718434,229.828649,-666.185348
1432.629542,-11769.274478,1838.629195,1184.329507
1432.629853,-13027.624579,1072.533697,1184.329507
1432.630164,-11991.336260,-766.095498,370.102971
1432.630475,-11103.089130,-1225.752797,148.041188
1432.630787,-9918.759623,-306.438199,-0.000000
1432.631098,-8956.491898,383.047749,-370.102971
1432.631409,-9474.636058,0.000000,-814.226536
1432.631721,-10362.883188,-536.266849,-666.185348
1432.632032,-11325.150913,0.000000,592.164754
1432.632343,-11251.130318,306.438199,1110.308913
1432.632655,-10807.006753,229.828649,3256.906145
1432.632966,-10140.821405,-2221.676944,2516.700203
1432.633277,-8956.491898,-3140.991542,1406.391290
1432.633589,-7698.141797,-1991.848295,740.205942
1432.633900,-6661.853478,-995.924147,370.102971
1432.634211,-6439.791695,0.000000,-0.000000
1432.634522,-8586.388927,-766.095498,-222.061783
1432.634834,-8660.409521,-306.438199,1258.350101
1432.635145,-9770.718434,-612.876398,1850.514855
1432.635456,-10288.862594,-229.828649,3330.926739
1432.635768,-10066.800811,-919.314598,2442.679609
1432.636079,-9844.739029,-1532.190996,1258.350101
1432.636390,-8660.409521,-153.219100,1110.308913
1432.636702,-7624.121203,1225.752797,592.164754
1432.637013,-8068.244768,1378.971896,592.164754
1432.637324,-8956.491898,0.000000,1184.329507
1432.637636,-8586.388927,-689.485948,2072.576638
1432.637947,-7179.997637,-459.657299,2368.659014
1432.638258,-5699.585753,-306.438199,2590.720797
1432.638569,-6365.771101,-229.828649,1554.432478
1432.638881,-7105.977043,-229.828649,888.247130
1432.639192,-5403.503377,76.609550,-0.000000
1432.639503,-7105.977043,2528.115143,-592.164754
1432.639815,-9548.656652,3524.039291,370.102971
1432.640126,-11399.171507,3524.039291,1110.308913
1432.640437,-11029.068536,842.705048,1036.288319
1432.640749,-7772.162391,-1532.190996,-0.000000
1432.641060,-5107.421000,-383.047749,-2220.617826
1432.641371,-3330.926739,1608.800546,-2516.700203
1432.641683,-5921.647536,1838.629195,-2072.576638
1432.641994,-11103.089130,0.000000,-592.164754
1432.642305,-14804.118840,-1149.143247,1924.535449
1432.642616,-16950.716072,-842.705048,3256.906145
1432.642928,-14063.912898,0.000000,3182.885551
1432.643239,-9474.636058,-766.095498,666.185348
1432.643550,-5033.400406,-2221.676944,-2146.597232
1432.643862,-3034.844362,-2757.943793,-3775.050304
1432.644173,-2960.823768,-2451.505594,-3997.112087
1432.644484,-5921.647536,-612.876398,-3627.009116
1432.644796,-11695.253884,919.314598,-962.267725
1432.645107,-16210.510130,842.705048,814.226536
1432.645418,-17098.757260,612.876398,2368.659014
1432.645730,-14211.954086,229.828649,2072.576638
1432.646041,-9474.636058,-459.657299,-222.061783
1432.646352,-6513.812290,-229.828649,-2886.803174
1432.646663,-4145.153275,459.657299,-3775.050304
1432.646975,-5181.441594,1149.143247,-3182.885551
1432.647286,-9400.615463,612.876398,-1036.288319
1432.647597,-13175.665768,76.609550,1628.453072
1432.647909,-14878.139434,-919.314598,3034.844362
1432.648220,-12731.542202,-1685.410096,4441.235652
1432.648531,-9548.656652,-2221.676944,1480.411884
1432.648843,-5329.482782,-2068.457845,-444.123565
1432.649154,-3108.864956,-1608.800546,-1258.350101
1432.649465,-3997.112087,-1378.971896,-1850.514855
1432.649777,-6217.729913,-612.876398,-0.000000
1432.650088,-11177.109724,0.000000,1628.453072
1432.650399,-13175.665768,919.314598,3034.844362
1432.650710,-12065.356855,612.876398,4367.215058
1432.651022,-10066.800811,-459.657299,3256.906145
1432.651333,-7254.018232,-1378.971896,2294.638420
1432.651644,-6143.709319,229.828649,518.144159
1432.651956,-4737.318029,612.876398,-1776.494261
1432.652267,-4515.256246,1225.752797,-1628.453072
1432.652578,-7031.956449,1608.800546,222.061783
1432.652890,-10658.965565,1455.581446,1776.494261
1432.653201,-12435.459826,1302.362347,3256.906145
1432.653512,-11325.150913,1072.533697,3627.009116
1432.653824,-8956.491898,0.000000,3404.947333
1432.654135,-6439.791695,0.000000,1258.350101
1432.654446,-4885.359217,-383.047749,-592.164754
1432.654757,-4589.276840,-153.219100,-1924.535449
1432.655069,-6661.853478,459.657299,-1406.391290
1432.655380,-9326.594869,995.924147,-0.000000
1432.655691,-11695.253884,536.266849,1036.288319
1432.656003,-12509.480420,-1378.971896,2812.782580
1432.656314,-11029.068536,-1762.019645,2368.659014
1432.656625,-9548.656652,-1838.629195,888.247130
1432.656937,-7994.224174,-766.095498,296.082377
1432.657248,-6735.874072,-919.314598,-962.267725
1432.657559,-7476.080014,-1149.143247,-888.247130
1432.657871,-8882.471304,0.000000,-148.041188
1432.658182,-12065.356855,1608.800546,666.185348
1432.658493,-13989.892304,1685.410096,3034.844362
1432.658804,-12953.603985,-306.438199,3627.009116
1432.659116,-9622.677246,-1991.848295,1850.514855
1432.659427,-5921.647536,-3064.381992,-888.247130
1432.659738,-3256.906145,-2374.896044,-3552.988522
1432.660050,-3552.988522,229.828649,-3627.009116
1432.660361,-7254.018232,2528.115143,-1776.494261
1432.660672,-12583.501014,1225.752797,-0.000000
1432.660984,-16950.716072,383.047749,2220.617826
1432.661295,-16876.695478,306.438199,4219.173869
1432.661606,-11843.295072,-1149.143247,2886.803174
1432.661917,-7402.059420,-459.657299,-0.000000
1432.662229,-3923.091493,153.219100,-2886.803174
1432.662540,-2368.659014,0.000000,-4145.153275
1432.662851,-3108.864956,459.657299,-3330.926739
1432.663163,-7698.141797,1302.362347,-962.267725
1432.663474,-13471.748144,536.266849,1184.329507
1432.663785,-14804.118840,229.828649,3330.926739
1432.664097,-13175.665768,76.609550,2960.823768
1432.664408,-8290.306550,-153.219100,1702.473667
1432.664719,-5107.421000,-306.438199,-518.144159
