#time,accel_x,accel_y,accel_z
1394.691689,-9030.512492,0.000000,518.144159
1394.692000,-8956.491898,0.000000,592.164754
1394.692312,-8882.471304,-383.047749,444.123565
1394.692623,-9030.512492,-306.438199,518.144159
1394.692934,-9252.574275,-76.609550,370.102971
1394.693246,-9030.512492,-229.828649,444.123565
1394.693557,-9030.512492,76.609550,518.144159
1394.693868,-9030.512492,-153.219100,444.123565
1394.694179,-9030.512492,0.000000,518.144159
1394.694491,-8808.450710,-383.047749,444.123565
1394.694802,-8956.491898,0.000000,444.123565
1394.695113,-9252.574275,306.438199,148.041188
1394.695425,-9104.533087,0.000000,370.102971
1394.695736,-8956.491898,-153.219100,370.102971
1394.696047,-8808.450710,0.000000,592.164754
1394.696358,-8956.491898,-306.438199,518.144159
1394.696670,-8882.471304,153.219100,222.061783
1394.696981,-9030.512492,-306.438199,666.185348
1394.697292,-8586.388927,-459.657299,740.205942
1394.697604,-8956.491898,0.000000,444.123565
1394.697915,-8956.491898,0.000000,592.164754
1394.698226,-8882.471304,76.609550,444.123565
1394.698537,-9104.533087,-153.219100,370.102971
1394.698849,-8808.450710,-153.219100,444.123565
1394.699160,-8956.491898,229.828649,222.061783
1394.699471,-8808.450710,153.219100,518.144159
1394.699783,-8882.471304,306.438199,370.102971
1394.700094,-8882.471304,459.657299,518.144159
1394.700405,-9104.533087,0.000000,296.082377
1394.700716,-8956.491898,0.000000,592.164754
1394.701028,-8660.409521,0.000000,444.123565
1394.701339,-8882.471304,0.000000,518.144159
1394.701650,-9104.533087,0.000000,296.082377
1394.701962,-9326.594869,0.000000,148.041188
1394.702273,-8956.491898,0.000000,592.164754
1394.702584,-8734.430116,-306.438199,592.164754
1394.702895,-9030.512492,0.000000,592.164754
1394.703207,-9030.512492,0.000000,592.164754
1394.703518,-9104.533087,0.000000,592.164754
1394.703829,-9178.553681,0.000000,518.144159
1394.704141,-8956.491898,0.000000,370.102971
1394.704452,-9178.553681,0.000000,296.082377
1394.704763,-9030.512492,612.876398,666.185348
1394.705074,-8956.491898,0.000000,370.102971
1394.705386,-8734.430116,0.000000,740.205942
1394.705697,-8734.430116,76.609550,592.164754
1394.706008,-8808.450710,-229.828649,592.164754
1394.706320,-8882.471304,0.000000,592.164754
1394.706631,-8808.450710,229.828649,370.102971
1394.706942,-8882.471304,383.047749,296.082377
1394.707253,-9104.533087,-612.876398,370.102971
1394.707565,-8882.471304,-153.219100,666.185348
1394.707876,-8956.491898,0.000000,444.123565
1394.708187,-9104.533087,0.000000,444.123565
1394.708498,-8956.491898,0.000000,370.102971
1394.708810,-8882.471304,-306.438199,444.123565
1394.709121,-8438.347739,-306.438199,370.102971
1394.709432,-8882.471304,-229.828649,296.082377
1394.709744,-8808.450710,842.705048,370.102971
1394.710055,-8882.471304,-229.828649,666.185348
1394.710366,-8882.471304,0.000000,666.185348
1394.710677,-8882.471304,0.000000,518.144159
1394.710989,-8808.450710,0.000000,592.164754
1394.711300,-8956.491898,-229.828649,370.102971
1394.711611,-8882.471304,306.438199,888.247130
1394.711923,-8956.491898,0.000000,592.164754
1394.712234,-8586.388927,0.000000,518.144159
1394.712545,-8808.450710,0.000000,518.144159
1394.712856,-8956.491898,-153.219100,592.164754
1394.713168,-8956.491898,0.000000,444.123565
1394.713479,-8956.491898,0.000000,814.226536
1394.713790,-8734.430116,0.000000,296.082377
1394.714102,-8956.491898,0.000000,-0.000000
1394.714413,-9030.512492,0.000000,222.061783
1394.714724,-8734.430116,-229.828649,444.123565
1394.715035,-8956.491898,0.000000,518.144159
1394.715347,-8882.471304,0.000000,592.164754
1394.715658,-8808.450710,0.000000,666.185348
1394.715969,-9104.533087,-536.266849,592.164754
1394.716281,-8808.450710,-153.219100,296.082377
1394.716592,-9030.512492,229.828649,370.102971
1394.716903,-8734.430116,-229.828649,370.102971
1394.717214,-8734.430116,0.000000,444.123565
1394.717526,-8882.471304,0.000000,666.185348
1394.717837,-8956.491898,76.609550,592.164754
1394.718148,-9030.512492,0.000000,592.164754
1394.718460,-8512.368333,0.000000,444.123565
1394.718771,-9252.574275,0.000000,148.041188
1394.719082,-8660.409521,229.828649,370.102971
1394.719393,-8808.450710,-306.438199,148.041188
1394.719705,-8808.450710,0.000000,518.144159
1394.720016,-8956.491898,-229.828649,518.144159
1394.720327,-8956.491898,0.000000,518.144159
1394.720639,-8882.471304,0.000000,444.123565
1394.720950,-9918.759623,459.657299,-0.000000
1394.721261,-11177.109724,995.924147,-0.000000
1394.721572,-10066.800811,4060.306139,370.102971
1394.721884,-7920.203579,4673.182538,518.144159
1394.722195,-7105.977043,2451.505594,1258.350101
1394.722506,-6661.853478,-383.047749,1110.308913
1394.722818,-7550.100608,-1608.800546,-0.000000
1394.723129,-7402.059420,-612.876398,-0.000000
1394.723440,-9474.636058,-842.705048,-888.247130
1394.723751,-12879.583391,-612.876398,-1480.411884
1394.724063,-11695.253884,612.876398,-148.041188
1394.724374,-9548.656652,1072.533697,148.041188
1394.724685,-8586.388927,-153.219100,2664.741391
1394.724997,-10881.027347,-383.047749,2072.576638
1394.725308,-11029.068536,2374.896044,1850.514855
1394.725619,-5847.626942,5975.544884,2516.700203
1394.725930,-5773.606348,4060.306139,1480.411884
1394.726242,-7624.121203,2604.724693,370.102971
1394.726553,-6957.935855,3064.381992,-1480.411884
1394.726864,-8438.347739,2911.162892,-1998.556043
1394.727176,-9104.533087,3753.867940,-370.102971
1394.727487,-9992.780217,3524.039291,-740.205942
1394.727798,-14582.057057,612.876398,-592.164754
1394.728109,-10881.027347,-995.924147,2294.638420
1394.728421,-8956.491898,0.000000,1110.308913
1394.728732,-10140.821405,2757.943793,1332.370696
1394.729043,-6661.853478,6358.592633,2072.576638
1394.729355,-8660.409521,4290.134789,1036.288319
1394.729666,-7476.080014,3294.210641,3256.906145
1394.729977,-6365.771101,5975.544884,1110.308913
1394.730288,-8216.285956,7431.126331,-0.000000
1394.730600,-8660.409521,6128.763984,-1776.494261
1394.730911,-8956.491898,4826.401637,-1332.370696
1394.731222,-9696.697840,4903.011187,-1332.370696
1394.731534,-11325.150913,5822.325785,-370.102971
1394.731845,-11843.295072,4749.792088,962.267725
1394.732156,-10436.903782,3294.210641,1776.494261
1394.732467,-10066.800811,4596.572988,2220.617826
1394.732779,-7476.080014,5209.449386,2146.597232
1394.733090,-5477.523971,5132.839837,-0.000000
1394.733401,-6143.709319,5592.497135,592.164754
1394.733713,-5181.441594,4596.572988,370.102971
1394.734024,-5773.606348,5209.449386,-1184.329507
1394.734335,-7031.956449,4673.182538,-814.226536
1394.734646,-9178.553681,3753.867940,-814.226536
1394.734958,-10436.903782,1838.629195,370.102971
1394.735269,-10584.944971,1072.533697,666.185348
1394.735580,-10362.883188,153.219100,1924.535449
1394.735892,-11029.068536,229.828649,1850.514855
1394.736203,-10955.047942,1302.362347,2220.617826
1394.736514,-9104.533087,3370.820191,1924.535449
1394.736825,-6957.935855,4519.963438,518.144159
1394.737137,-6069.688724,3677.258390,666.185348
1394.737448,-7105.977043,3600.648841,-370.102971
1394.737759,-6957.935855,3907.087040,-666.185348
1394.738071,-6661.853478,2987.772442,-1776.494261
1394.738382,-7772.162391,689.485948,-1406.391290
1394.738693,-9622.677246,-1378.971896,-888.247130
1394.739004,-11695.253884,-2298.286494,592.164754
1394.739316,-12435.459826,-2451.505594,1480.411884
1394.739627,-13471.748144,-1838.629195,1924.535449
1394.739938,-13397.727550,-536.266849,1702.473667
1394.740250,-12805.562797,1608.800546,592.164754
1394.740561,-9844.739029,4290.134789,-0.000000
1394.740872,-7031.956449,4443.353888,-296.082377
1394.741183,-5477.523971,4213.525239,666.185348
1394.741495,-5773.606348,4060.306139,888.247130
1394.741806,-6661.853478,3217.601092,666.185348
1394.742117,-8586.388927,2145.067394,-296.082377
1394.742429,-11251.130318,1378.971896,-444.123565
1394.742740,-13323.706956,919.314598,-740.205942
1394.743051,-13989.892304,612.876398,-666.185348
1394.743362,-14211.954086,383.047749,-74.020594
1394.743674,-13101.645173,1532.190996,518.144159
1394.743985,-10807.006753,2834.553343,1554.432478
1394.744296,-8882.471304,4060.306139,2146.597232
1394.744608,-5921.647536,5056.230287,2368.659014
1394.744919,-2368.659014,5822.325785,962.267725
1394.745230,-1480.411884,7354.516781,-0.000000
1394.745541,-2294.638420,5745.716235,-1776.494261
1394.745853,-3404.947333,4366.744339,-2442.679609
1394.746164,-7698.141797,2757.943793,-1702.473667
1394.746475,-12287.418637,2221.676944,-74.020594
1394.746787,-15988.448347,2221.676944,1480.411884
1394.747098,-17838.963202,2374.896044,3404.947333
1394.747409,-14508.036463,3140.991542,4145.153275
1394.747720,-9474.636058,3447.429741,3627.009116
1394.748032,-4737.318029,3830.477490,1924.535449
1394.748343,-1628.453072,5362.668486,-222.061783
1394.748654,-1110.308913,7124.688131,-1332.370696
1394.748966,-2146.597232,7277.907231,-1998.556043
1394.749277,-5699.585753,6588.421283,-2220.617826
1394.749588,-8512.368333,4673.182538,-1480.411884
1394.749899,-9252.574275,1685.410096,-0.000000
1394.750211,-12509.480420,-1225.752797,666.185348
1394.750522,-11029.068536,-2528.115143,1628.453072
1394.750833,-11621.233289,-2451.505594,1258.350101
1394.751145,-13027.624579,-2374.896044,2294.638420
1394.751456,-11029.068536,612.876398,2368.659014
1394.751767,-11695.253884,2757.943793,1702.473667
1394.752078,-9992.780217,5286.058936,2886.803174
1394.752390,-7105.977043,6511.811733,2146.597232
1394.752701,-7105.977043,4443.353888,370.102971
1394.753012,-6587.832884,4519.963438,296.082377
1394.753324,-6513.812290,3447.429741,-1776.494261
1394.753635,-8512.368333,3294.210641,-2664.741391
1394.753946,-9992.780217,4136.915689,-2738.761985
1394.754257,-11325.150913,4060.306139,-1850.514855
1394.754569,-12361.439231,2451.505594,-592.164754
1394.754880,-12435.459826,766.095498,1924.535449
1394.755191,-12287.418637,1378.971896,2812.782580
1394.755503,-12361.439231,2145.067394,2516.700203
1394.755814,-11103.089130,5132.839837,2886.803174
1394.756125,-8734.430116,6818.249932,814.226536
1394.756436,-6217.729913,6128.763984,-222.061783
1394.756748,-5181.441594,4443.353888,-814.226536
1394.757059,-5477.523971,3064.381992,-1480.411884
1394.757370,-7772.162391,2374.896044,-1850.514855
1394.757682,-8364.327145,2145.067394,-296.082377
1394.757993,-9474.636058,1838.629195,-0.000000
1394.758304,-9326.594869,-1225.752797,1554.432478
1394.758615,-7994.224174,-2987.772442,2368.659014
1394.758927,-8290.306550,-2221.676944,1924.535449
1394.759238,-8734.430116,1378.971896,1110.308913
1394.759549,-9400.615463,6205.373534,-148.041188
1394.759860,-10288.862594,9576.193725,-592.164754
1394.760172,-10288.862594,9116.536426,740.205942
1394.760483,-10362.883188,5975.544884,740.205942
1394.760794,-8512.368333,4136.915689,1258.350101
1394.761106,-7402.059420,3983.696590,444.123565
1394.761417,-5847.626942,4366.744339,814.226536
1394.761728,-5255.462188,3064.381992,592.164754
1394.762039,-4515.256246,766.095498,1110.308913
1394.762351,-3997.112087,-2145.067394,-0.000000
1394.762662,-6217.729913,-1149.143247,-888.247130
1394.762973,-9178.553681,2068.457845,-1628.453072
1394.763285,-12213.398043,5056.230287,-1258.350101
1394.763596,-14359.995275,5822.325785,-0.000000
1394.763907,-14952.160028,3294.210641,2516.700203
1394.764218,-15100.201217,-383.047749,4071.132681
1394.764530,-12583.501014,-1225.752797,4071.132681
1394.764841,-8660.409521,76.609550,2368.659014
1394.765152,-4811.338623,-689.485948,1258.350101
1394.765463,-1480.411884,-3524.039291,962.267725
1394.765775,-2516.700203,-6435.202183,-0.000000
1394.766086,-5107.421000,-7124.688131,-0.000000
1394.766397,-6217.729913,-3217.601092,-370.102971
1394.766708,-9696.697840,2451.505594,-518.144159
1394.767020,-13841.851115,3983.696590,-0.000000
1394.767331,-16802.674883,1378.971896,1480.411884
1394.767642,-18283.086767,919.314598,2220.617826
1394.767953,-15396.283594,3447.429741,2146.597232
1394.768265,-11399.171507,5286.058936,1036.288319
1394.768576,-6661.853478,3064.381992,-666.185348
1394.768887,-2664.741391,-153.219100,-740.205942
1394.769198,370.102971,-3294.210641,-1110.308913
1394.769510,740.205942,-3140.991542,-1036.288319
1394.769821,-2738.761985,-1302.362347,222.061783
1394.770132,-8068.244768,-536.266849,-148.041188
1394.770444,-13397.727550,-1149.143247,370.102971
1394.770755,-17246.798449,-1685.410096,444.123565
1394.771066,-18801.230927,689.485948,370.102971
1394.771377,-16876.695478,3140.991542,296.082377
1394.771689,-13175.665768,3140.991542,-370.102971
1394.772000,-9252.574275,-1072.533697,-888.247130
1394.772311,-5255.462188,-4136.915689,-666.185348
1394.772622,-1702.473667,-3524.039291,-296.082377
1394.772934,814.226536,0.000000,1184.329507
1394.773245,-2442.679609,-689.485948,1628.453072
1394.773556,-7476.080014,-3294.210641,2368.659014
1394.773867,-12435.459826,-1915.238745,962.267725
1394.774179,-15692.365970,4136.915689,518.144159
1394.774490,-14656.077652,9652.803275,-592.164754
1394.774801,-13323.706956,8044.002729,-1924.535449
1394.775112,-10955.047942,2451.505594,-2442.679609
1394.775424,-8142.265362,-766.095498,-2294.638420
1394.775735,-5329.482782,0.000000,-2146.597232
1394.776046,-4885.359217,3907.087040,-1184.329507
1394.776357,-5773.606348,3983.696590,-148.041188
1394.776669,-6809.894666,-1532.190996,2220.617826
1394.776980,-9474.636058,-4826.401637,5255.462188
1394.777291,-9030.512492,-2298.286494,4885.359217
1394.777602,-8068.244768,2068.457845,3330.926739
1394.777914,-8068.244768,1838.629195,1258.350101
1394.778225,-7920.203579,-1378.971896,-740.205942
1394.778536,-8956.491898,-3294.210641,-1924.535449
1394.778847,-9178.553681,-766.095498,-2960.823768
1394.779159,-8512.368333,3983.696590,-1480.411884
1394.779470,-10584.944971,3677.258390,-1036.288319
1394.779781,-12657.521608,-766.095498,2960.823768
1394.780092,-13989.892304,-4749.792088,5107.421000
1394.780404,-11103.089130,-2604.724693,5551.544565
1394.780715,-8438.347739,2298.286494,6365.771101
1394.781026,-4811.338623,1608.800546,5255.462188
1394.781337,-1332.370696,-1838.629195,-148.041188
1394.781649,-888.247130,-2681.334243,-2368.659014
1394.781960,-2072.576638,536.266849,-4145.153275
1394.782271,-5107.421000,4060.306139,-3552.988522
1394.782582,-10658.965565,2298.286494,-1406.391290
1394.782894,-15544.324782,-4366.744339,888.247130
1394.783205,-17616.901420,-8963.317327,3775.050304
1394.783516,-17098.757260,-6665.030833,4219.173869
1394.783827,-13175.665768,-2145.067394,4441.235652
1394.784139,-8586.388927,-2145.067394,2738.761985
1394.784450,-5477.523971,-5975.544884,1184.329507
1394.784761,-3923.091493,-5669.106685,-814.226536
1394.785072,-3775.050304,-2221.676944,-2590.720797
1394.785384,-2886.803174,4290.134789,-2664.741391
1394.785695,-4663.297435,4749.792088,-1554.432478
1394.786006,-9252.574275,919.314598,-296.082377
1394.786317,-14952.160028,-2757.943793,1036.288319
1394.786629,-17468.860231,229.828649,666.185348
1394.786940,-15618.345376,5209.449386,1258.350101
1394.787251,-13249.686362,4979.620737,222.061783
1394.787563,-11991.336260,0.000000,-1480.411884
1394.787874,-7846.182985,-2221.676944,-2516.700203
1394.788185,-4145.153275,0.000000,-3478.967927
1394.788496,-2072.576638,3983.696590,-1776.494261
1394.788808,-4367.215058,3983.696590,-1332.370696
1394.789119,-9030.512492,229.828649,-74.020594
1394.789430,-12065.356855,-3830.477490,814.226536
1394.789741,-13619.789333,-1532.190996,370.102971
1394.790053,-11769.274478,4213.525239,1036.288319
1394.790364,-10066.800811,3064.381992,-296.082377
1394.790675,-9400.615463,-3140.991542,-962.267725
1394.790986,-9030.512492,-7277.907231,-370.102971
1394.791298,-9844.739029,-3447.429741,-296.082377
1394.791609,-6587.832884,3447.429741,1258.350101
1394.791920,-7179.997637,4979.620737,1998.556043
1394.792231,-9474.636058,229.828649,2516.700203
1394.792543,-9844.739029,-1608.800546,2590.720797
1394.792854,-9326.594869,2757.943793,1554.432478
1394.793165,-6069.688724,9116.536426,296.082377
1394.793476,-5403.503377,8273.831378,-814.226536
1394.793788,-5995.668130,1455.581446,-1924.535449
1394.794099,-5329.482782,-2604.724693,-1702.473667
1394.794410,-5255.462188,-2604.724693,-1406.391290
1394.794721,-6217.729913,1762.019645,1184.329507
1394.795033,-9696.697840,1762.019645,2960.823768
1394.795344,-12435.459826,-2757.943793,4219.173869
1394.795655,-13841.851115,-5286.058936,5477.523971
1394.795966,-12731.542202,-3447.429741,4293.194464
1394.796278,-8512.368333,2757.943793,3478.967927
1394.796589,-6513.812290,3140.991542,1184.329507
1394.796900,-4145.153275,-2374.896044,-444.123565
1394.797211,-2812.782580,-6205.373534,-1036.288319
1394.797523,-3627.009116,-5822.325785,-1850.514855
1394.797834,-5477.523971,-1915.238745,222.061783
1394.798145,-10362.883188,-1072.533697,1702.473667
1394.798456,-14804.118840,-4366.744339,3849.070898
1394.798768,-17246.798449,-6741.640382,5255.462188
1394.799079,-17690.922014,-4443.353888,4515.256246
1394.799390,-13397.727550,1455.581446,4441.235652
1394.799701,-8734.430116,2987.772442,1702.473667
1394.800013,-4663.297435,0.000000,-740.205942
1394.800324,-2294.638420,-2374.896044,-2368.659014
1394.800635,-1554.432478,-612.876398,-3849.070898
1394.800946,-1924.535449,2681.334243,-3552.988522
1394.801258,-6217.729913,3447.429741,-2812.782580
1394.801569,-12731.542202,0.000000,-1184.329507
1394.801880,-16136.489536,-2757.943793,814.226536
1394.802191,-17764.942608,-2145.067394,1406.391290
1394.802503,-15692.365970,1762.019645,2960.823768
1394.802814,-12435.459826,1991.848295,2590.720797
1394.803125,-9696.697840,-1685.410096,888.247130
1394.803436,-8068.244768,-3447.429741,-444.123565
1394.803748,-4885.359217,-536.266849,-2368.659014
1394.804059,-3701.029710,4366.744339,-2664.741391
1394.804370,-4441.235652,5056.230287,-2368.659014
1394.804682,-7772.162391,919.314598,-1998.556043
1394.804993,-11695.253884,-2451.505594,-1184.329507
1394.805304,-13693.809927,-689.485948,-814.226536
1394.805615,-12509.480420,3830.477490,888.247130
1394.805927,-11547.212695,4749.792088,518.144159
1394.806238,-10436.903782,383.047749,148.041188
1394.806549,-7476.080014,-2528.115143,370.102971
1394.806860,-6291.750507,-612.876398,-666.185348
1394.807172,-4959.379811,4749.792088,-296.082377
1394.807483,-5181.441594,7124.688131,-814.226536
1394.807794,-7550.100608,2911.162892,-814.226536
1394.808105,-10288.862594,-612.876398,-0.000000
1394.808417,-10881.027347,0.000000,-222.061783
1394.808728,-8512.368333,3140.991542,592.164754
1394.809039,-8290.306550,2451.505594,444.123565
1394.809350,-7994.224174,-2604.724693,1480.411884
1394.809662,-6957.935855,-6665.030833,666.185348
1394.809973,-7105.977043,-5592.497135,592.164754
1394.810284,-5699.585753,-1302.362347,1850.514855
1394.810595,-8364.327145,306.438199,2220.617826
1394.810907,-11251.130318,-842.705048,3108.864956
1394.811218,-12435.459826,-3064.381992,3552.988522
1394.811529,-12287.418637,-1838.629195,2812.782580
1394.811840,-9770.718434,2451.505594,2738.761985
1394.812152,-7476.080014,3830.477490,1628.453072
1394.812463,-5995.668130,-229.828649,-444.123565
1394.812774,-5255.462188,-3983.696590,-740.205942
1394.813085,-5699.585753,-4060.306139,-1702.473667
1394.813397,-6735.874072,383.047749,-1110.308913
1394.813708,-9400.615463,1838.629195,740.205942
1394.814019,-13249.686362,-766.095498,3108.864956
1394.814330,-15174.221811,-3830.477490,4367.215058
1394.814642,-15988.448347,-2604.724693,3701.029710
1394.814953,-12509.480420,1149.143247,3923.091493
1394.815264,-8364.327145,2451.505594,2146.597232
1394.815575,-6069.688724,-995.924147,-814.226536
1394.815887,-3849.070898,-3753.867940,-1554.432478
1394.816198,-4071.132681,-4136.915689,-3256.906145
1394.816509,-4293.194464,-919.314598,-1776.494261
1394.816820,-6217.729913,612.876398,-666.185348
1394.817132,-11547.212695,-2604.724693,1776.494261
1394.817443,-15026.180623,-5056.230287,2812.782580
1394.817754,-17690.922014,-2757.943793,3256.906145
1394.818065,-15100.201217,2451.505594,3849.070898
1394.818377,-11103.089130,6052.154434,2220.617826
1394.818688,-8586.388927,3370.820191,296.082377
1394.818999,-5403.503377,766.095498,-2220.617826
1394.819310,-3330.926739,1838.629195,-4219.173869
1394.819622,-1258.350101,5362.668486,-3849.070898
1394.819933,-2738.761985,6588.421283,-2516.700203
1394.820244,-6957.935855,3140.991542,-1184.329507
1394.820555,-11991.336260,-1455.581446,-0.000000
1394.820867,-14952.160028,-842.705048,-0.000000
1394.821178,-13545.768739,4136.915689,1258.350101
1394.821489,-11325.150913,5745.716235,1110.308913
1394.821801,-9622.677246,1608.800546,-74.020594
1394.822112,-7624.121203,-2451.505594,-592.164754
1394.822423,-5625.565159,-1915.238745,-2516.700203
1394.822734,-3849.070898,1072.533697,-1628.453072
1394.823046,-4367.215058,3600.648841,-888.247130
1394.823357,-7920.203579,0.000000,222.061783
1394.823668,-10066.800811,-4136.915689,814.226536
1394.823979,-11843.295072,-3064.381992,444.123565
1394.824291,-10584.944971,2298.286494,1702.473667
1394.824602,-9548.656652,4136.915689,1998.556043
1394.824913,-9474.636058,-153.219100,888.247130
1394.825224,-8734.430116,-3983.696590,296.082377
1394.825536,-8142.265362,-3064.381992,-666.185348
1394.825847,-7254.018232,2604.724693,74.020594
1394.826158,-7550.100608,4903.011187,370.102971
1394.826469,-9400.615463,1608.800546,666.185348
1394.826781,-10214.842000,-2374.896044,2072.576638
1394.827092,-11251.130318,-2681.334243,2368.659014
1394.827403,-10066.800811,0.000000,1702.473667
1394.827714,-7550.100608,1149.143247,1776.494261
1394.828026,-8216.285956,-2451.505594,740.205942
1394.828337,-6735.874072,-6894.859482,592.164754
1394.828648,-6957.935855,-6358.592633,-1110.308913
1394.828959,-7328.038826,-2145.067394,-0.000000
1394.829271,-8364.327145,459.657299,1554.432478
1394.829582,-11843.295072,-2068.457845,3182.885551
1394.829893,-14211.954086,-4903.011187,3997.112087
1394.830204,-15396.283594,-3907.087040,3330.926739
1394.830516,-11843.295072,1225.752797,3256.906145
1394.830827,-7179.997637,3830.477490,1702.473667
1394.831138,-5773.606348,459.657299,-1110.308913
1394.831449,-4367.215058,-3140.991542,-1776.494261
1394.831761,-4589.276840,-3140.991542,-2442.679609
1394.832072,-4737.318029,383.047749,-1110.308913
1394.832383,-6883.915261,1302.362347,666.185348
1394.832694,-10510.924376,153.219100,2220.617826
1394.833006,-13693.809927,-3370.820191,2738.761985
1394.833317,-14582.057057,-2451.505594,2294.638420
1394.833628,-12139.377449,2604.724693,2664.741391
1394.833939,-9474.636058,5822.325785,1406.391290
1394.834251,-7920.203579,3140.991542,-0.000000
1394.834562,-5329.482782,-1991.848295,-1184.329507
1394.834873,-4441.235652,-1915.238745,-3256.906145
1394.835184,-3404.947333,2528.115143,-2812.782580
1394.835496,-4219.173869,5669.106685,-2220.617826
1394.835807,-8956.491898,2987.772442,-444.123565
1394.836118,-12731.542202,-1149.143247,1850.514855
1394.836429,-14285.974681,-995.924147,2072.576638
1394.836741,-13397.727550,3294.210641,1702.473667
1394.837052,-10362.883188,6588.421283,1776.494261
1394.837363,-9326.594869,4596.572988,-0.000000
1394.837674,-6809.894666,766.095498,-1554.432478
1394.837986,-5403.503377,306.438199,-3108.864956
1394.838297,-4441.235652,3294.210641,-2738.761985
1394.838608,-4219.173869,5592.497135,-1554.432478
1394.838920,-8216.285956,2451.505594,-814.226536
1394.839231,-11103.089130,-2145.067394,370.102971
1394.839542,-13027.624579,-3600.648841,1110.308913
1394.839853,-13175.665768,383.047749,2738.761985
1394.840165,-9770.718434,3524.039291,2738.761985
1394.840476,-8882.471304,-229.828649,1850.514855
1394.840787,-7994.224174,-5439.278036,1110.308913
1394.841098,-7476.080014,-5056.230287,-148.041188
1394.841410,-6957.935855,306.438199,-74.020594
1394.841721,-5847.626942,3524.039291,666.185348
1394.842032,-8808.450710,-229.828649,814.226536
1394.842343,-11177.109724,-3753.867940,2738.761985
1394.842655,-12657.521608,-4290.134789,2220.617826
1394.842966,-11325.150913,0.000000,2368.659014
1394.843277,-8956.491898,2451.505594,2442.679609
1394.843588,-9326.594869,-1302.362347,1850.514855
1394.843900,-6957.935855,-5898.935335,1258.350101
1394.844211,-5995.668130,-6435.202183,-962.267725
1394.844522,-5699.585753,-1532.190996,-740.205942
1394.844833,-6365.771101,1991.848295,222.061783
1394.845145,-10140.821405,0.000000,1628.453072
1394.845456,-12731.542202,-4903.011187,2886.803174
1394.845767,-14137.933492,-4979.620737,3182.885551
1394.846078,-12583.501014,-536.266849,3182.885551
1394.846390,-8512.368333,3524.039291,1554.432478
1394.846701,-7105.977043,919.314598,-0.000000
1394.847012,-5625.565159,-4290.134789,-222.061783
1394.847323,-4589.276840,-5056.230287,-1998.556043
1394.847635,-4145.153275,-766.095498,-592.164754
1394.847946,-5477.523971,2451.505594,370.102971
1394.848257,-10436.903782,766.095498,962.267725
1394.848568,-13915.871710,-2604.724693,2442.679609
1394.848880,-14211.954086,-1915.238745,1998.556043
1394.849191,-13101.645173,2987.772442,2220.617826
1394.849502,-9474.636058,6281.983084,1036.288319
1394.849813,-7994.224174,3524.039291,-888.247130
1394.850125,-6661.853478,-919.314598,-1776.494261
1394.850436,-5773.606348,-1455.581446,-2664.741391
1394.850747,-5625.565159,2298.286494,-2368.659014
1394.851058,-4959.379811,5975.544884,-1776.494261
1394.851370,-7772.162391,4366.744339,-1184.329507
1394.851681,-11251.130318,-1072.533697,444.123565
1394.851992,-13471.748144,-536.266849,592.164754
1394.852303,-13693.809927,4596.572988,888.247130
1394.852615,-11547.212695,6741.640382,1258.350101
1394.852926,-9474.636058,3447.429741,-444.123565
1394.853237,-7402.059420,-919.314598,-888.247130
1394.853548,-5033.400406,-2298.286494,-2294.638420
1394.853860,-4515.256246,1149.143247,-2590.720797
1394.854171,-5329.482782,4060.306139,-888.247130
1394.854482,-8734.430116,1532.190996,740.205942
1394.854793,-11325.150913,-2681.334243,2590.720797
1394.855105,-13693.809927,-3600.648841,2368.659014
1394.855416,-13693.809927,536.266849,2516.700203
1394.855727,-9622.677246,4673.182538,2294.638420
1394.856039,-8734.430116,1762.019645,666.185348
1394.856350,-6661.853478,-3677.258390,148.041188
1394.856661,-4293.194464,-4136.915689,-1036.288319
1394.856972,-4589.276840,-1302.362347,-814.226536
1394.857284,-5255.462188,1608.800546,740.205942
1394.857595,-8512.368333,-153.219100,1628.453072
1394.857906,-11177.109724,-4596.572988,2812.782580
1394.858217,-11843.295072,-5286.058936,3775.050304
1394.858529,-11325.150913,-1915.238745,3701.029710
1394.858840,-9474.636058,1072.533697,3034.844362
1394.859151,-8438.347739,-1378.971896,1776.494261
1394.859462,-7328.038826,-4979.620737,962.267725
1394.859774,-6143.709319,-6052.154434,-370.102971
1394.860085,-5773.606348,-2987.772442,-814.226536
1394.860396,-6365.771101,766.095498,-0.000000
1394.860707,-9696.697840,-1149.143247,1184.329507
1394.861019,-11991.336260,-5056.230287,2960.823768
1394.861330,-13915.871710,-4749.792088,3108.864956
1394.861641,-13989.892304,-842.705048,2368.659014
1394.861952,-10955.047942,2451.505594,2590.720797
1394.862264,-8660.409521,995.924147,1110.308913
1394.862575,-7550.100608,-2987.772442,-370.102971
1394.862886,-5329.482782,-3600.648841,-1850.514855
1394.863197,-4293.194464,76.609550,-2516.700203
1394.863509,-6143.709319,3983.696590,-1554.432478
1394.863820,-8586.388927,3524.039291,-518.144159
1394.864131,-11843.295072,-383.047749,1110.308913
1394.864443,-14285.974681,-1608.800546,1480.411884
1394.864754,-12805.562797,2221.676944,1702.473667
1394.865065,-10288.862594,5286.058936,518.144159
1394.865377,-8512.368333,3370.820191,-888.247130
1394.865688,-6809.894666,-459.657299,-1776.494261
1394.865999,-6217.729913,-2757.943793,-2960.823768
1394.866311,-5773.606348,1302.362347,-2886.803174
1394.866622,-6291.750507,5439.278036,-1110.308913
1394.866933,-9252.574275,3677.258390,296.082377
1394.867245,-12139.377449,-612.876398,1702.473667
1394.867556,-13545.768739,-1378.971896,1480.411884
1394.867867,-12213.398043,2681.334243,1332.370696
1394.868179,-9400.615463,6894.859482,518.144159
1394.868490,-7550.100608,4366.744339,-1036.288319
1394.868801,-6513.812290,0.000000,-2146.597232
1394.869113,-4293.194464,-689.485948,-2812.782580
1394.869424,-3997.112087,1838.629195,-2738.761985
1394.869735,-5551.544565,4213.525239,-814.226536
1394.870047,-8586.388927,2298.286494,814.226536
1394.870358,-11621.233289,-2987.772442,2516.700203
1394.870669,-13471.748144,-4749.792088,2590.720797
1394.870981,-11473.192101,-459.657299,2738.761985
1394.871292,-8882.471304,3830.477490,1850.514855
1394.871603,-8216.285956,842.705048,962.267725
1394.871915,-5773.606348,-4596.572988,296.082377
1394.872226,-4737.318029,-5669.106685,-666.185348
1394.872537,-5847.626942,-2681.334243,-296.082377
1394.872849,-6365.771101,76.609550,1998.556043
1394.873160,-9770.718434,-1991.848295,2442.679609
1394.873471,-13619.789333,-5362.668486,3701.029710
1394.873783,-12953.603985,-4903.011187,4441.235652
1394.874094,-13027.624579,-2145.067394,3849.070898
1394.874405,-10955.047942,1608.800546,3701.029710
1394.874717,-8808.450710,612.876398,1924.535449
1394.875028,-6883.915261,-3524.039291,-0.000000
1394.875339,-5625.565159,-4673.182538,-740.205942
1394.875651,-5255.462188,-766.095498,-1554.432478
1394.875962,-5921.647536,1685.410096,-888.247130
1394.876273,-8512.368333,229.828649,592.164754
1394.876585,-11547.212695,-3753.867940,2516.700203
1394.876896,-12805.562797,-6128.763984,2516.700203
1394.877207,-13027.624579,-3140.991542,2738.761985
1394.877519,-10288.862594,919.314598,2220.617826
1394.877830,-8808.450710,0.000000,444.123565
1394.878141,-8956.491898,-3524.039291,296.082377
1394.878453,-7179.997637,-4826.401637,-1036.288319
1394.878764,-6661.853478,-1991.848295,-2442.679609
1394.879075,-5995.668130,2681.334243,-148.041188
1394.879387,-7994.224174,3447.429741,592.164754
1394.879698,-11991.336260,0.000000,1184.329507
1394.880009,-13397.727550,-842.705048,1184.329507
1394.880321,-12213.398043,4060.306139,740.205942
1394.880632,-9918.759623,8580.269578,296.082377
1394.880943,-7994.224174,7507.735880,-888.247130
1394.881255,-8068.244768,3140.991542,-2738.761985
1394.881566,-6957.935855,0.000000,-2146.597232
1394.881877,-5403.503377,2987.772442,-2442.679609
1394.882189,-5255.462188,6818.249932,-2590.720797
1394.882500,-7254.018232,5898.935335,-1776.494261
1394.882811,-10955.047942,842.705048,-1110.308913
1394.883123,-12435.459826,-1838.629195,-370.102971
1394.883434,-11843.295072,1762.019645,-518.144159
1394.883745,-10436.903782,4749.792088,444.123565
1394.884057,-9252.574275,3294.210641,-0.000000
1394.884368,-8068.244768,-1991.848295,-0.000000
1394.884679,-6439.791695,-4136.915689,-814.226536
1394.884990,-6439.791695,-1915.238745,-1628.453072
1394.885302,-5921.647536,2911.162892,-0.000000
1394.885613,-7698.141797,3140.991542,148.041188
1394.885924,-12065.356855,-1608.800546,1702.473667
1394.886236,-12731.542202,-3217.601092,2960.823768
1394.886547,-12805.562797,0.000000,2812.782580
1394.886858,-9844.739029,4673.182538,2960.823768
1394.887170,-7550.100608,3600.648841,1554.432478
1394.887481,-5921.647536,-1455.581446,-148.041188
1394.887792,-3627.009116,-3524.039291,-740.205942
1394.888104,-2960.823768,-2834.553343,-1184.329507
1394.888415,-3775.050304,306.438199,888.247130
1394.888726,-8438.347739,76.609550,2368.659014
1394.889038,-11621.233289,-3370.820191,3701.029710
1394.889349,-13397.727550,-5745.716235,4441.235652
1394.889660,-14285.974681,-4213.525239,3849.070898
1394.889972,-11029.068536,459.657299,3627.009116
1394.890283,-8734.430116,-229.828649,1628.453072
1394.890594,-7402.059420,-4979.620737,518.144159
1394.890906,-5181.441594,-6281.983084,-74.020594
1394.891217,-5625.565159,-4443.353888,-1406.391290
1394.891528,-6513.812290,-919.314598,-0.000000
1394.891840,-9030.512492,-766.095498,1628.453072
1394.892151,-11843.295072,-3524.039291,3256.906145
1394.892462,-13545.768739,-4979.620737,3849.070898
1394.892774,-13545.768739,-1838.629195,3627.009116
1394.893085,-10658.965565,2451.505594,2664.741391
1394.893396,-9400.615463,2221.676944,1406.391290
1394.893708,-7624.121203,-229.828649,518.144159
1394.894019,-6143.709319,-1685.410096,-2294.638420
1394.894330,-5329.482782,995.924147,-3108.864956
1394.894642,-4071.132681,4443.353888,-1998.556043
1394.894953,-7105.977043,4443.353888,-1184.329507
1394.895264,-10584.944971,306.438199,-296.082377
1394.895576,-12879.583391,-2298.286494,666.185348
1394.895887,-14211.954086,383.047749,814.226536
1394.896198,-12213.398043,4979.620737,888.247130
1394.896510,-9992.780217,4673.182538,-148.041188
1394.896821,-9178.553681,-153.219100,-1110.308913
1394.897132,-7846.182985,-2834.553343,-1406.391290
1394.897444,-7179.997637,383.047749,-2590.720797
1394.897755,-5625.565159,6052.154434,-1776.494261
1394.898066,-6513.812290,6128.763984,-1110.308913
1394.898378,-9400.615463,1455.581446,-0.000000
1394.898689,-11621.233289,-842.705048,518.144159
1394.899000,-12213.398043,2911.162892,-888.247130
1394.899312,-9622.677246,7584.345430,-148.041188
1394.899623,-7846.182985,7660.954980,-962.267725
1394.899934,-7550.100608,1991.848295,-1628.453072
1394.900246,-6217.729913,-1149.143247,-2368.659014
1394.900557,-6069.688724,-383.047749,-1924.535449
1394.900868,-5773.606348,2757.943793,-74.020594
1394.901180,-7698.141797,3753.867940,1702.473667
1394.901491,-11399.171507,-1838.629195,2442.679609
1394.901802,-11769.274478,-5362.668486,3182.885551
1394.902114,-11621.233289,-3294.210641,2664.741391
1394.902425,-8734.430116,2221.676944,2294.638420
1394.902736,-6439.791695,2911.162892,1628.453072
1394.903048,-5699.585753,-2451.505594,592.164754
1394.903359,-4737.318029,-6281.983084,296.082377
1394.903670,-5033.400406,-5056.230287,-370.102971
1394.903982,-5033.400406,-459.657299,962.267725
1394.904293,-8660.409521,229.828649,2294.638420
1394.904604,-12583.501014,-4060.306139,3404.947333
1394.904916,-14656.077652,-6281.983084,4367.215058
1394.905227,-15470.304188,-3753.867940,3997.112087
1394.905538,-12065.356855,459.657299,3923.091493
1394.905850,-9548.656652,1532.190996,2220.617826
1394.906161,-8142.265362,-1915.238745,666.185348
1394.906472,-5699.585753,-3600.648841,-814.226536
1394.906784,-4737.318029,-1915.238745,-2294.638420
1394.907095,-4737.318029,2298.286494,-666.185348
1394.907406,-7254.018232,1685.410096,444.123565
1394.907718,-11251.130318,-2221.676944,1406.391290
1394.908029,-12805.562797,-4749.792088,3182.885551
1394.908340,-14285.974681,-3370.820191,2590.720797
1394.908652,-11843.295072,612.876398,3108.864956
1394.908963,-10214.842000,842.705048,1406.391290
1394.909274,-8808.450710,-2834.553343,592.164754
1394.909586,-6883.915261,-5439.278036,-888.247130
1394.909897,-5921.647536,-3447.429741,-1110.308913
1394.910208,-5403.503377,1455.581446,-1776.494261
1394.910520,-6365.771101,3524.039291,-1036.288319
1394.910831,-8882.471304,459.657299,296.082377
1394.911142,-11843.295072,-2451.505594,1258.350101
1394.911454,-13027.624579,229.828649,740.205942
1394.911765,-11029.068536,5056.230287,666.185348
1394.912076,-10066.800811,6128.763984,-74.020594
1394.912388,-8660.409521,2221.676944,-666.185348
1394.912699,-7179.997637,0.000000,-2220.617826
1394.913010,-6513.812290,1838.629195,-3404.947333
1394.913322,-4737.318029,6971.469032,-2886.803174
1394.913633,-6365.771101,7584.345430,-2146.597232
1394.913944,-9992.780217,3907.087040,-1110.308913
1394.914256,-12435.459826,306.438199,-0.000000
1394.914567,-11769.274478,1378.971896,592.164754
1394.914878,-9252.574275,5439.278036,1036.288319
1394.915190,-7179.997637,5362.668486,-296.082377
1394.915501,-7254.018232,0.000000,-1036.288319
1394.915812,-6661.853478,-4673.182538,-1332.370696
1394.916124,-6217.729913,-3294.210641,-2146.597232
1394.916435,-6291.750507,1302.362347,-666.185348
1394.916746,-8956.491898,2604.724693,-0.000000
1394.917058,-12435.459826,-1225.752797,2368.659014
1394.917369,-13323.706956,-4443.353888,3775.050304
1394.917680,-13693.809927,-2757.943793,2664.741391
1394.917992,-10436.903782,2528.115143,2812.782580
1394.918303,-7402.059420,4290.134789,1702.473667
1394.918614,-5995.668130,-306.438199,518.144159
1394.918926,-4737.318029,-3447.429741,-814.226536
1394.919237,-4293.194464,-3140.991542,-962.267725
1394.919548,-4367.215058,612.876398,-0.000000
1394.919860,-8808.450710,1149.143247,1554.432478
1394.920171,-12583.501014,-2681.334243,3182.885551
1394.920482,-14137.933492,-5669.106685,3775.050304
1394.920793,-14137.933492,-4443.353888,3923.091493
1394.921105,-11621.233289,-766.095498,3701.029710
1394.921416,-9548.656652,76.609550,2294.638420
1394.921727,-7624.121203,-2757.943793,814.226536
1394.922039,-5773.606348,-5286.058936,-222.061783
1394.922350,-5033.400406,-4060.306139,-1406.391290
1394.922661,-5181.441594,-842.705048,-444.123565
1394.922973,-6069.688724,842.705048,1406.391290
1394.923284,-10214.842000,-3447.429741,1998.556043
1394.923595,-12805.562797,-6128.763984,3923.091493
1394.923907,-14137.933492,-4443.353888,3182.885551
1394.924218,-12657.521608,229.828649,3034.844362
1394.924529,-10807.006753,2604.724693,1480.411884
1394.924841,-9326.594869,842.705048,74.020594
1394.925152,-6587.832884,-1455.581446,-1480.411884
1394.925463,-4811.338623,229.828649,-3108.864956
1394.925775,-3923.091493,3983.696590,-2812.782580
1394.926086,-4737.318029,5056.230287,-1776.494261
1394.926397,-8586.388927,1378.971896,-222.061783
1394.926709,-11843.295072,-2451.505594,1036.288319
1394.927020,-13471.748144,-1608.800546,296.082377
1394.927331,-12731.542202,2987.772442,1184.329507
1394.927643,-9474.636058,4749.792088,888.247130
1394.927954,-9252.574275,-229.828649,-666.185348
1394.928265,-8068.244768,-4136.915689,-814.226536
1394.928577,-6735.874072,-2604.724693,-2442.679609
1394.928888,-5921.647536,3217.601092,-1924.535449
1394.929199,-5995.668130,6205.373534,-888.247130
1394.929511,-10510.924376,2911.162892,-444.123565
1394.929822,-12213.398043,-229.828649,-0.000000
1394.930133,-12805.562797,2145.067394,-0.000000
1394.930445,-10881.027347,7354.516781,666.185348
1394.930756,-7550.100608,8273.831378,-0.000000
1394.931067,-7254.018232,2834.553343,-962.267725
1394.931379,-6069.688724,-1149.143247,-1776.494261
1394.931690,-5477.523971,-919.314598,-2072.576638
1394.932001,-5255.462188,3064.381992,-1332.370696
1394.932313,-7476.080014,4136.915689,-0.000000
1394.932624,-11769.274478,0.000000,1480.411884
1394.932935,-12731.542202,-4519.963438,2442.679609
1394.933247,-12953.603985,-3677.258390,2368.659014
1394.933558,-10510.924376,689.485948,2664.741391
1394.933869,-7698.141797,1685.410096,1850.514855
1394.934181,-6439.791695,-2374.896044,1110.308913
1394.934492,-4737.318029,-6511.811733,666.185348
1394.934803,-4885.359217,-5592.497135,296.082377
1394.935115,-5403.503377,-1991.848295,666.185348
1394.935426,-7179.997637,689.485948,2072.576638
1394.935737,-11843.295072,-2604.724693,3478.967927
1394.936049,-13989.892304,-5975.544884,4367.215058
1394.936360,-14285.974681,-5286.058936,4293.194464
1394.936671,-12731.542202,-1072.533697,3849.070898
1394.936983,-9474.636058,2374.896044,2590.720797
1394.937294,-8216.285956,-919.314598,148.041188
1394.937605,-5107.421000,-3370.820191,-740.205942
1394.937917,-3997.112087,-3140.991542,-1924.535449
1394.938228,-3404.947333,-383.047749,-888.247130
1394.938539,-5255.462188,1762.019645,222.061783
1394.938851,-9696.697840,-1378.971896,1702.473667
1394.939162,-11399.171507,-5056.230287,2960.823768
1394.939473,-13915.871710,-4443.353888,2368.659014
1394.939785,-12583.501014,0.000000,3034.844362
1394.940096,-9548.656652,2221.676944,2072.576638
1394.940407,-9104.533087,-1838.629195,-0.000000
1394.940719,-7105.977043,-4749.792088,-666.185348
1394.941030,-6365.771101,-3447.429741,-2368.659014
1394.941341,-5625.565159,1532.190996,-2738.761985
1394.941653,-6513.812290,4290.134789,-1258.350101
1394.941964,-10214.842000,1838.629195,-0.000000
1394.942275,-12509.480420,-1685.410096,2146.597232
1394.942587,-13841.851115,-1149.143247,1924.535449
1394.942898,-12953.603985,3907.087040,1554.432478
1394.943209,-9474.636058,6818.249932,444.123565
1394.943521,-8438.347739,3983.696590,-1702.473667
1394.943832,-7550.100608,0.000000,-2072.576638
1394.944143,-5625.565159,-612.876398,-3923.091493
1394.944455,-5181.441594,4136.915689,-3775.050304
1394.944766,-6587.832884,6588.421283,-2220.617826
1394.945077,-10066.800811,4060.306139,-1036.288319
1394.945389,-12879.583391,-306.438199,370.102971
1394.945700,-12731.542202,-383.047749,592.164754
1394.946011,-10732.986159,3677.258390,1554.432478
1394.946323,-7254.018232,5362.668486,222.061783
1394.946634,-6217.729913,2451.505594,-592.164754
1394.946945,-5551.544565,-2221.676944,-1258.350101
1394.947257,-6291.750507,-3294.210641,-1998.556043
1394.947568,-6143.709319,1072.533697,-1110.308913
1394.947879,-7402.059420,4136.915689,-0.000000
1394.948191,-11029.068536,0.000000,1776.494261
1394.948502,-13323.706956,-4596.572988,3775.050304
1394.948813,-12879.583391,-3447.429741,2590.720797
1394.949125,-10510.924376,1685.410096,2072.576638
1394.949436,-7772.162391,3600.648841,2146.597232
1394.949747,-6661.853478,459.657299,740.205942
1394.950059,-4663.297435,-2681.334243,-74.020594
1394.950370,-3478.967927,-3370.820191,-222.061783
1394.950681,-4293.194464,-1532.190996,-296.082377
1394.950993,-5921.647536,766.095498,2072.576638
1394.951304,-11251.130318,-1838.629195,2368.659014
1394.951615,-13693.809927,-5362.668486,4219.173869
1394.951927,-14211.954086,-4903.011187,3701.029710
1394.952238,-12805.562797,-1302.362347,3108.864956
1394.952549,-10436.903782,766.095498,2220.617826
1394.952861,-8142.265362,-2221.676944,1110.308913
1394.953172,-5921.647536,-5898.935335,-0.000000
1394.953483,-4293.194464,-5286.058936,-74.020594
1394.953795,-5477.523971,-2221.676944,-666.185348
1394.954106,-7105.977043,229.828649,444.123565
1394.954417,-9474.636058,-459.657299,1628.453072
1394.954729,-12361.439231,-4060.306139,2664.741391
1394.955040,-13545.768739,-3907.087040,3034.844362
1394.955351,-12361.439231,0.000000,2294.638420
1394.955663,-11103.089130,3140.991542,1406.391290
1394.955974,-9252.574275,1072.533697,740.205942
1394.956285,-7920.203579,-2911.162892,-222.061783
1394.956596,-7031.956449,-2451.505594,-2442.679609
1394.956908,-5625.565159,1455.581446,-2516.700203
1394.957219,-5921.647536,4826.401637,-2072.576638
1394.957530,-8364.327145,3447.429741,-592.164754
1394.957842,-11547.212695,-919.314598,222.061783
1394.958153,-13175.665768,-2221.676944,1332.370696
1394.958464,-12879.583391,1915.238745,1776.494261
1394.958776,-9400.615463,5975.544884,1480.411884
1394.959087,-9178.553681,4213.525239,-74.020594
1394.959398,-8734.430116,-919.314598,-1258.350101
1394.959710,-6587.832884,-1685.410096,-2516.700203
1394.960021,-5625.565159,2374.896044,-3256.906145
1394.960332,-5625.565159,6052.154434,-2812.782580
1394.960644,-8068.244768,5362.668486,-1776.494261
1394.960955,-11103.089130,229.828649,-518.144159
1394.961266,-12435.459826,-1455.581446,962.267725
1394.961578,-11325.150913,2221.676944,962.267725
1394.961889,-8734.430116,6741.640382,444.123565
1394.962200,-8956.491898,4443.353888,-0.000000
1394.962512,-7031.956449,-995.924147,-148.041188
1394.962823,-4515.256246,-1685.410096,-962.267725
1394.963134,-5329.482782,459.657299,-962.267725
1394.963446,-5477.523971,3524.039291,-0.000000
1394.963757,-9918.759623,1838.629195,1628.453072
1394.964068,-13471.748144,-1302.362347,2886.803174
1394.964380,-13323.706956,-2221.676944,3108.864956
1394.964691,-12213.398043,0.000000,2664.741391
1394.965002,-8660.409521,3217.601092,2886.803174
1394.965314,-6809.894666,1302.362347,1258.350101
1394.965625,-4737.318029,-2987.772442,-518.144159
1394.965936,-3478.967927,-4136.915689,-814.226536
1394.966248,-3997.112087,-1915.238745,-222.061783
1394.966559,-5255.462188,459.657299,1036.288319
1394.966870,-10288.862594,-2298.286494,3034.844362
1394.967182,-13693.809927,-5822.325785,4145.153275
1394.967493,-14582.057057,-5822.325785,4811.338623
1394.967804,-14359.995275,-2528.115143,3849.070898
1394.968116,-10807.006753,1455.581446,3849.070898
1394.968427,-8586.388927,-612.876398,1480.411884
1394.968738,-6735.874072,-4826.401637,-296.082377
1394.969050,-4293.194464,-4290.134789,-1110.308913
1394.969361,-4441.235652,-689.485948,-2146.597232
1394.969673,-5477.523971,2374.896044,-592.164754
1394.969984,-8364.327145,-612.876398,814.226536
1394.970296,-11251.130318,-4519.963438,2442.679609
1394.970607,-13841.851115,-5439.278036,3256.906145
1394.970919,-14730.098246,-1608.800546,2294.638420
1394.971230,-12361.439231,2221.676944,2220.617826
1394.971541,-10436.903782,459.657299,962.267725
1394.971853,-7994.224174,-3447.429741,296.082377
1394.972164,-5551.544565,-3830.477490,-1776.494261
1394.972476,-4737.318029,-536.266849,-3108.864956
1394.972787,-3404.947333,4673.182538,-1776.494261
1394.973099,-6587.832884,4213.525239,-888.247130
1394.973410,-10214.842000,229.828649,-0.000000
1394.973722,-13249.686362,-842.705048,666.185348
1394.974033,-14063.912898,2451.505594,666.185348
1394.974345,-11769.274478,6818.249932,1480.411884
1394.974656,-9918.759623,5439.278036,-0.000000
1394.974968,-8956.491898,306.438199,-1332.370696
1394.975279,-7179.997637,-919.314598,-2368.659014
1394.975591,-5625.565159,2145.067394,-3034.844362
1394.975902,-4959.379811,6128.763984,-2220.617826
1394.976214,-7846.182985,5669.106685,-1628.453072
1394.976525,-11473.192101,1455.581446,-0.000000
1394.976836,-12731.542202,-842.705048,518.144159
1394.977148,-11399.171507,2451.505594,222.061783
1394.977459,-8364.327145,6205.373534,888.247130
1394.977771,-7328.038826,4519.963438,-0.000000
1394.978082,-6439.791695,-1608.800546,-444.123565
1394.978394,-5107.421000,-3753.867940,-1110.308913
1394.978705,-5329.482782,-1608.800546,-1628.453072
1394.979017,-5699.585753,2374.896044,-296.082377
1394.979328,-9252.574275,1302.362347,1628.453072
1394.979640,-12361.439231,-2911.162892,3330.926739
1394.979951,-13767.830521,-4596.572988,3256.906145
1394.980263,-13841.851115,-612.876398,2664.741391
1394.980574,-9696.697840,3140.991542,3330.926739
1394.980886,-7550.100608,2298.286494,1776.494261
1394.981197,-6513.812290,-2145.067394,518.144159
1394.981509,-4663.297435,-3217.601092,-592.164754
1394.981820,-3849.070898,-1072.533697,-888.247130
1394.982131,-5033.400406,2068.457845,296.082377
1394.982443,-8364.327145,536.266849,1628.453072
1394.982754,-11843.295072,-3907.087040,2442.679609
1394.983066,-13101.645173,-6665.030833,4145.153275
1394.983377,-13323.706956,-4290.134789,3849.070898
1394.983689,-11399.171507,-459.657299,3552.988522
1394.984000,-9400.615463,-1149.143247,1924.535449
1394.984312,-7846.182985,-5209.449386,370.102971
1394.984623,-5773.606348,-6818.249932,-888.247130
1394.984935,-4219.173869,-2834.553343,-1554.432478
1394.985246,-5107.421000,995.924147,-592.164754
1394.985558,-7624.121203,-1149.143247,1036.288319
1394.985869,-11917.315666,-5362.668486,2886.803174
1394.986181,-13693.809927,-4826.401637,4071.132681
1394.986492,-13841.851115,-1149.143247,2812.782580
1394.986803,-11769.274478,3217.601092,3108.864956
1394.987115,-9400.615463,2987.772442,1480.411884
1394.987426,-7846.182985,-1149.143247,-0.000000
1394.987738,-5847.626942,-1302.362347,-1554.432478
1394.988049,-5255.462188,1072.533697,-3182.885551
1394.988361,-5773.606348,5209.449386,-2590.720797
1394.988672,-7254.018232,4979.620737,-1702.473667
1394.988984,-10584.944971,612.876398,-592.164754
1394.989295,-11991.336260,-1072.533697,518.144159
1394.989607,-13175.665768,1915.238745,814.226536
1394.989918,-11547.212695,4903.011187,1406.391290
1394.990230,-9844.739029,4519.963438,1184.329507
1394.990541,-8808.450710,0.000000,370.102971
1394.990853,-6661.853478,-2221.676944,-1110.308913
1394.991164,-5403.503377,153.219100,-2960.823768
1394.991476,-5181.441594,4826.401637,-2886.803174
1394.991787,-6513.812290,5745.716235,-2146.597232
1394.992098,-9548.656652,1608.800546,-592.164754
1394.992410,-12435.459826,-1455.581446,1110.308913
1394.992721,-13619.789333,1149.143247,518.144159
1394.993033,-11769.274478,5592.497135,2072.576638
1394.993344,-8882.471304,5439.278036,1036.288319
1394.993656,-8438.347739,842.705048,-370.102971
1394.993967,-6587.832884,-1838.629195,-1554.432478
1394.994279,-4663.297435,153.219100,-2886.803174
1394.994590,-4145.153275,3907.087040,-1406.391290
1394.994902,-6365.771101,2681.334243,666.185348
1394.995213,-9696.697840,-2221.676944,1776.494261
1394.995525,-12657.521608,-5362.668486,2812.782580
1394.995836,-13619.789333,-3677.258390,2368.659014
1394.996148,-9992.780217,919.314598,3182.885551
1394.996459,-8438.347739,842.705048,1998.556043
1394.996771,-7179.997637,-3677.258390,962.267725
1394.997082,-3775.050304,-6205.373534,1110.308913
1394.997393,-4737.318029,-4979.620737,-1036.288319
1394.997705,-4885.359217,0.000000,1110.308913
1394.998016,-7772.162391,612.876398,2368.659014
1394.998328,-12287.418637,-3907.087040,3330.926739
1394.998639,-13693.809927,-5592.497135,5403.503377
1394.998951,-14211.954086,-3294.210641,3330.926739
1394.999262,-12657.521608,1685.410096,3034.844362
1394.999574,-9178.553681,2374.896044,2146.597232
1394.999885,-8290.306550,-2298.286494,-962.267725
1395.000197,-5107.421000,-4443.353888,-1480.411884
1395.000508,-5255.462188,-2451.505594,-2442.679609
1395.000820,-4959.379811,612.876398,-1110.308913
1395.001131,-6513.812290,306.438199,592.164754
1395.001443,-10288.862594,-3064.381992,2516.700203
1395.001754,-12583.501014,-5362.668486,3404.947333
1395.002066,-14137.933492,-3370.820191,2886.803174
1395.002377,-12287.418637,1072.533697,3108.864956
1395.002688,-11029.068536,2834.553343,1628.453072
1395.003000,-8216.285956,229.828649,-444.123565
1395.003311,-6069.688724,-2451.505594,-2590.720797
1395.003623,-5773.606348,-689.485948,-3552.988522
1395.003934,-4885.359217,3217.601092,-2812.782580
1395.004246,-6735.874072,5515.887586,-1480.411884
1395.004557,-10066.800811,1532.190996,296.082377
1395.004869,-13249.686362,-1149.143247,1184.329507
1395.005180,-14359.995275,689.485948,1036.288319
1395.005492,-11621.233289,5745.716235,1702.473667
1395.005803,-8882.471304,6588.421283,-0.000000
1395.006115,-7105.977043,2374.896044,-1184.329507
1395.006426,-6661.853478,-536.266849,-2368.659014
1395.006738,-5477.523971,919.314598,-3627.009116
1395.007049,-4367.215058,5362.668486,-2812.782580
1395.007360,-5921.647536,5439.278036,-1776.494261
1395.007672,-8808.450710,1762.019645,-222.061783
1395.007983,-11399.171507,-1378.971896,444.123565
1395.008295,-12805.562797,-306.438199,296.082377
1395.008606,-11251.130318,4443.353888,888.247130
1395.008918,-8956.491898,4903.011187,1036.288319
1395.009229,-7994.224174,76.609550,-0.000000
1395.009541,-6809.894666,-4596.572988,-592.164754
1395.009852,-7105.977043,-4290.134789,-1258.350101
1395.010164,-5995.668130,153.219100,-0.000000
1395.010475,-7402.059420,2145.067394,1110.308913
1395.010787,-11103.089130,-1915.238745,2146.597232
1395.011098,-12509.480420,-5745.716235,2812.782580
1395.011410,-13545.768739,-4060.306139,1850.514855
1395.011721,-10066.800811,1378.971896,2516.700203
1395.012033,-7994.224174,3294.210641,1406.391290
1395.012344,-7179.997637,-689.485948,-0.000000
1395.012655,-5477.523971,-4060.306139,-0.000000
1395.012967,-4959.379811,-3830.477490,-1258.350101
1395.013278,-5181.441594,76.609550,-0.000000
1395.013590,-7698.141797,1532.190996,740.205942
1395.013901,-11769.274478,-2068.457845,2368.659014
1395.014213,-13989.892304,-5286.058936,3478.967927
1395.014524,-14952.160028,-3907.087040,3034.844362
1395.014836,-12435.459826,0.000000,3627.009116
1395.015147,-9770.718434,689.485948,2886.803174
1395.015459,-9252.574275,-3677.258390,1258.350101
1395.015770,-6365.771101,-5669.106685,-0.000000
1395.016082,-4663.297435,-3677.258390,-1776.494261
1395.016393,-5033.400406,383.047749,-1406.391290
1395.016705,-6217.729913,1378.971896,1184.329507
1395.017016,-10214.842000,-1991.848295,1406.391290
1395.017328,-12065.356855,-4519.963438,3775.050304
1395.017639,-13175.665768,-2987.772442,3552.988522
1395.017950,-12583.501014,1685.410096,3330.926739
1395.018262,-10214.842000,3907.087040,2442.679609
1395.018573,-7994.224174,919.314598,-0.000000
1395.018885,-5847.626942,-1991.848295,-1332.370696
1395.019196,-4515.256246,-459.657299,-3552.988522
1395.019508,-3701.029710,4213.525239,-3256.906145
1395.019819,-4811.338623,5132.839837,-1998.556043
1395.020131,-8586.388927,2068.457845,-370.102971
1395.020442,-11843.295072,-1762.019645,1406.391290
1395.020754,-13323.706956,-1072.533697,1258.350101
1395.021065,-12139.377449,3370.820191,2146.597232
1395.021377,-9178.553681,4749.792088,1332.370696
1395.021688,-7846.182985,995.924147,-592.164754
1395.022000,-6291.750507,-1915.238745,-1406.391290
1395.022311,-5329.482782,-1991.848295,-2368.659014
1395.022623,-5181.441594,2145.067394,-2516.700203
1395.022934,-6291.750507,4903.011187,-1036.288319
1395.023245,-10066.800811,2834.553343,-1036.288319
1395.023557,-12583.501014,-1302.362347,962.267725
1395.023868,-14508.036463,-919.314598,666.185348
1395.024180,-12879.583391,3830.477490,1110.308913
1395.024491,-10214.842000,6052.154434,814.226536
1395.024803,-9474.636058,2374.896044,-666.185348
1395.025114,-6809.894666,-995.924147,-1702.473667
1395.025426,-5403.503377,-1378.971896,-2960.823768
1395.025737,-4737.318029,1838.629195,-2072.576638
1395.026049,-5773.606348,3294.210641,-444.123565
1395.026360,-10510.924376,-459.657299,1332.370696
1395.026672,-13027.624579,-4519.963438,3108.864956
1395.026983,-14285.974681,-4443.353888,2442.679609
1395.027295,-12731.542202,229.828649,2368.659014
1395.027606,-9400.615463,2451.505594,1776.494261
1395.027917,-7698.141797,-995.924147,-0.000000
1395.028229,-5181.441594,-4596.572988,-592.164754
1395.028540,-4219.173869,-4903.011187,-1110.308913
1395.028852,-5625.565159,-1608.800546,-296.082377
1395.029163,-7550.100608,459.657299,1850.514855
1395.029475,-11547.212695,-1915.238745,3182.885551
1395.029786,-14211.954086,-4903.011187,4515.256246
1395.030098,-14137.933492,-3983.696590,4145.153275
1395.030409,-12139.377449,76.609550,3997.112087
1395.030721,-9030.512492,2681.334243,3256.906145
1395.031032,-7254.018232,459.657299,666.185348
1395.031344,-4663.297435,-2604.724693,-0.000000
1395.031655,-3627.009116,-2221.676944,-1332.370696
1395.031967,-3701.029710,919.314598,-1184.329507
1395.032278,-4737.318029,2374.896044,518.144159
1395.032590,-8586.388927,-459.657299,1628.453072
1395.032901,-10955.047942,-3907.087040,2664.741391
1395.033212,-13027.624579,-2834.553343,2368.659014
1395.033524,-11991.336260,1149.143247,2516.700203
1395.033835,-8290.306550,2604.724693,2220.617826
1395.034147,-7920.203579,-689.485948,814.226536
1395.034458,-6587.832884,-3600.648841,-0.000000
1395.034770,-5329.482782,-2757.943793,-2072.576638
1395.035081,-5477.523971,1225.752797,-1998.556043
1395.035393,-6365.771101,3600.648841,-222.061783
1395.035704,-9622.677246,766.095498,740.205942
1395.036016,-13101.645173,-2298.286494,1184.329507
1395.036327,-14285.974681,-1532.190996,814.226536
1395.036639,-12657.521608,4519.963438,1480.411884
1395.036950,-10881.027347,7431.126331,666.185348
1395.037262,-9844.739029,4519.963438,-370.102971
1395.037573,-7920.203579,383.047749,-1406.391290
1395.037885,-6143.709319,153.219100,-2886.803174
1395.038196,-5551.544565,4443.353888,-2812.782580
1395.038507,-5847.626942,5975.544884,-2442.679609
1395.038819,-9326.594869,3217.601092,-1776.494261
1395.039130,-11251.130318,-1225.752797,148.041188
1395.039442,-13323.706956,-1762.019645,-296.082377
1395.039753,-13175.665768,2221.676944,518.144159
1395.040065,-10066.800811,4519.963438,740.205942
1395.040376,-9104.533087,1072.533697,-0.000000
1395.040688,-6143.709319,-2681.334243,740.205942
1395.040999,-6365.771101,-4903.011187,-1110.308913
1395.041311,-5847.626942,-919.314598,-592.164754
1395.041622,-6365.771101,2451.505594,222.061783
1395.041934,-9992.780217,1225.752797,888.247130
1395.042245,-11917.315666,-1378.971896,2220.617826
1395.042557,-12361.439231,-2145.067394,2146.597232
1395.042868,-11769.274478,229.828649,2220.617826
1395.043180,-9030.512492,1378.971896,2812.782580
1395.043491,-7254.018232,-306.438199,888.247130
1395.043802,-6217.729913,-3600.648841,222.061783
1395.044114,-5477.523971,-3600.648841,-962.267725
1395.044425,-5403.503377,-1072.533697,-1036.288319
1395.044737,-5329.482782,1225.752797,444.123565
1395.045048,-9474.636058,-1378.971896,1480.411884
1395.045360,-11843.295072,-5439.278036,3182.885551
1395.045671,-12583.501014,-4519.963438,2886.803174
1395.045983,-12435.459826,-919.314598,3256.906145
1395.046294,-9474.636058,1072.533697,3256.906145
1395.046606,-8512.368333,-2068.457845,1036.288319
1395.046917,-6661.853478,-4826.401637,888.247130
1395.047229,-5033.400406,-3753.867940,-962.267725
1395.047540,-5255.462188,-766.095498,-962.267725
1395.047852,-5699.585753,2298.286494,370.102971
1395.048163,-10140.821405,306.438199,1480.411884
1395.048474,-11991.336260,-3524.039291,3404.947333
1395.048786,-13471.748144,-3217.601092,2960.823768
1395.049097,-13841.851115,1302.362347,2294.638420
1395.049409,-9918.759623,4903.011187,2368.659014
1395.049720,-8586.388927,2451.505594,444.123565
1395.050032,-7550.100608,-1915.238745,-592.164754
1395.050343,-5181.441594,-1532.190996,-1998.556043
1395.050655,-4441.235652,1302.362347,-2442.679609
1395.050966,-5255.462188,3217.601092,-1110.308913
1395.051278,-8068.244768,1378.971896,-148.041188
1395.051589,-10584.944971,-2221.676944,444.123565
1395.051901,-12583.501014,-2681.334243,666.185348
1395.052212,-13323.706956,995.924147,370.102971
1395.052524,-10807.006753,5439.278036,1110.308913
1395.052835,-10955.047942,2834.553343,-0.000000
1395.053147,-8956.491898,-919.314598,-74.020594
1395.053458,-7031.956449,-1685.410096,-1332.370696
1395.053769,-6217.729913,1532.190996,-2294.638420
1395.054081,-5107.421000,5362.668486,-1554.432478
1395.054392,-6809.894666,4213.525239,-1406.391290
1395.054704,-9770.718434,383.047749,-222.061783
1395.055015,-12731.542202,-383.047749,962.267725
1395.055327,-13175.665768,3064.381992,1036.288319
1395.055638,-10955.047942,6052.154434,1184.329507
1395.055950,-9548.656652,4213.525239,518.144159
1395.056261,-8068.244768,-612.876398,-222.061783
1395.056573,-5995.668130,-2451.505594,-1480.411884
1395.056884,-5255.462188,306.438199,-1702.473667
1395.057196,-4885.359217,3064.381992,-592.164754
1395.057507,-7179.997637,1378.971896,592.164754
1395.057819,-10362.883188,-2911.162892,2442.679609
1395.058130,-12287.418637,-4366.744339,2738.761985
1395.058442,-12953.603985,-1378.971896,2220.617826
1395.058753,-9622.677246,2528.115143,2738.761985
1395.059064,-7846.182985,842.705048,1184.329507
1395.059376,-7105.977043,-4519.963438,296.082377
1395.059687,-6513.812290,-6358.592633,-592.164754
1395.059999,-6365.771101,-3217.601092,-518.144159
1395.060310,-5477.523971,383.047749,888.247130
1395.060622,-9770.718434,-229.828649,1406.391290
1395.060933,-12287.418637,-3677.258390,2960.823768
1395.061245,-12657.521608,-4290.134789,2812.782580
1395.061556,-12435.459826,-1455.581446,2442.679609
1395.061868,-9918.759623,2451.505594,2294.638420
1395.062179,-8512.368333,1455.581446,518.144159
1395.062491,-7846.182985,-2068.457845,-222.061783
1395.062802,-5921.647536,-2987.772442,-1406.391290
1395.063114,-5255.462188,-1455.581446,-1628.453072
1395.063425,-5551.544565,1072.533697,518.144159
1395.063737,-8438.347739,-1378.971896,1850.514855
1395.064048,-10955.047942,-5439.278036,2812.782580
1395.064359,-11991.336260,-5209.449386,2590.720797
1395.064671,-13249.686362,-1378.971896,2072.576638
1395.064982,-9252.574275,1455.581446,2516.700203
1395.065294,-8882.471304,-995.924147,592.164754
1395.065605,-8808.450710,-3600.648841,-0.000000
1395.065917,-5329.482782,-2221.676944,-1924.535449
1395.066228,-6809.894666,919.314598,-2664.741391
1395.066540,-6291.750507,3753.867940,-444.123565
1395.066851,-6957.935855,2451.505594,-74.020594
1395.067163,-10881.027347,-1838.629195,1110.308913
1395.067474,-11251.130318,-1915.238745,2368.659014
1395.067786,-13471.748144,1762.019645,1110.308913
1395.068097,-12657.521608,5975.544884,1628.453072
1395.068409,-10140.821405,5286.058936,1110.308913
1395.068720,-7920.203579,689.485948,-1406.391290
1395.069031,-7031.956449,-612.876398,-2368.659014
1395.069343,-6143.709319,2987.772442,-2738.761985
1395.069654,-4811.338623,5745.716235,-2220.617826
1395.069966,-7031.956449,4826.401637,-1258.350101
1395.070277,-10510.924376,-689.485948,592.164754
1395.070589,-12361.439231,-2451.505594,1036.288319
1395.070900,-13323.706956,1072.533697,962.267725
1395.071212,-10807.006753,4979.620737,1554.432478
1395.071523,-9178.553681,3677.258390,-74.020594
1395.071834,-7031.956449,-459.657299,-370.102971
1395.072146,-5847.626942,-2451.505594,-888.247130
1395.072457,-6291.750507,-1991.848295,-1850.514855
1395.072769,-4663.297435,1838.629195,-0.000000
1395.073080,-7031.956449,2298.286494,370.102971
1395.073392,-10362.883188,-1455.581446,1406.391290
1395.073703,-12065.356855,-3064.381992,1776.494261
1395.074015,-11843.295072,153.219100,1924.535449
1395.074326,-9030.512492,3677.258390,2146.597232
1395.074637,-8142.265362,1915.238745,1480.411884
1395.074949,-8586.388927,-2374.896044,444.123565
1395.075260,-6883.915261,-3064.381992,-0.000000
1395.075572,-5995.668130,-1532.190996,-888.247130
1395.075883,-5847.626942,689.485948,518.144159
1395.076195,-8068.244768,-383.047749,1628.453072
1395.076506,-10955.047942,-4366.744339,2516.700203
1395.076818,-11843.295072,-5669.106685,3182.885551
1395.077129,-12213.398043,-3370.820191,2738.761985
1395.077440,-10955.047942,842.705048,2960.823768
1395.077752,-9178.553681,0.000000,1258.350101
1395.078063,-7994.224174,-4366.744339,740.205942
1395.078375,-6291.750507,-5745.716235,-666.185348
1395.078686,-5847.626942,-2987.772442,-1998.556043
1395.078998,-5921.647536,1149.143247,-814.226536
1395.079309,-8660.409521,612.876398,148.041188
1395.079621,-12805.562797,-2757.943793,1554.432478
1395.079932,-13619.789333,-4366.744339,3256.906145
1395.080243,-13693.809927,-2451.505594,2812.782580
1395.080555,-11695.253884,1762.019645,2664.741391
1395.080866,-8512.368333,2528.115143,1702.473667
1395.081178,-7179.997637,0.000000,-814.226536
1395.081489,-5033.400406,-1302.362347,-1406.391290
1395.081801,-4811.338623,919.314598,-2368.659014
1395.082112,-5033.400406,3753.867940,-1776.494261
1395.082423,-7105.977043,3370.820191,-222.061783
1395.082735,-10807.006753,-689.485948,444.123565
1395.083046,-13619.789333,-2681.334243,962.267725
1395.083358,-14211.954086,229.828649,1036.288319
1395.083669,-11843.295072,3907.087040,1776.494261
1395.083981,-9918.759623,3140.991542,814.226536
1395.084292,-8142.265362,-689.485948,-148.041188
1395.084604,-6143.709319,-2068.457845,-1850.514855
1395.084915,-5181.441594,-383.047749,-2516.700203
1395.085226,-3627.009116,4060.306139,-1998.556043
1395.085538,-6143.709319,4596.572988,-1480.411884
1395.085849,-9844.739029,1378.971896,-222.061783
1395.086161,-12139.377449,-536.266849,1184.329507
1395.086472,-13619.789333,2298.286494,666.185348
1395.086784,-11399.171507,5822.325785,1850.514855
1395.087095,-10288.862594,5209.449386,-0.000000
1395.087407,-8216.285956,1149.143247,-0.000000
1395.087718,-5847.626942,-919.314598,-666.185348
1395.088029,-5329.482782,306.438199,-1924.535449
1395.088341,-4293.194464,3600.648841,-888.247130
1395.088652,-7846.182985,3370.820191,-74.020594
1395.088964,-10362.883188,842.705048,1998.556043
1395.089275,-10807.006753,-2451.505594,2368.659014
1395.089587,-13101.645173,-1608.800546,1702.473667
1395.089898,-11103.089130,1532.190996,2886.803174
1395.090210,-8364.327145,1149.143247,2072.576638
1395.090521,-7105.977043,-2987.772442,1184.329507
1395.090832,-6069.688724,-5439.278036,592.164754
1395.091144,-5329.482782,-4213.525239,-1036.288319
1395.091455,-5403.503377,-612.876398,592.164754
1395.091767,-7846.182985,0.000000,1406.391290
1395.092078,-11769.274478,-2834.553343,2368.659014
1395.092390,-13545.768739,-3907.087040,3478.967927
1395.092701,-13471.748144,-1532.190996,2738.761985
1395.093013,-10362.883188,1685.410096,2886.803174
1395.093324,-8216.285956,1225.752797,1258.350101
1395.093635,-6735.874072,-1302.362347,-0.000000
1395.093947,-4737.318029,-3677.258390,-1628.453072
1395.094258,-6069.688724,-2911.162892,-2220.617826
1395.094570,-6587.832884,459.657299,-296.082377
1395.094881,-8882.471304,919.314598,296.082377
1395.095193,-12435.459826,-3370.820191,2294.638420
1395.095504,-13545.768739,-6358.592633,3849.070898
1395.095816,-13471.748144,-4519.963438,2146.597232
1395.096127,-11029.068536,1072.533697,2368.659014
1395.096438,-8660.409521,2681.334243,1110.308913
1395.096750,-7105.977043,-1532.190996,-592.164754
1395.097061,-6143.709319,-2221.676944,-2146.597232
1395.097373,-5107.421000,-229.828649,-3256.906145
1395.097684,-4737.318029,2374.896044,-2368.659014
1395.097996,-6587.832884,1838.629195,-518.144159
1395.098307,-10881.027347,-689.485948,740.205942
1395.098618,-12879.583391,-3140.991542,1924.535449
1395.098930,-14656.077652,-1608.800546,1110.308913
1395.099241,-12583.501014,3370.820191,2812.782580
1395.099553,-9844.739029,3983.696590,1184.329507
1395.099864,-8290.306550,-229.828649,-296.082377
1395.100176,-6217.729913,-2221.676944,-1702.473667
1395.100487,-4663.297435,76.609550,-2886.803174
1395.100799,-4663.297435,4366.744339,-2294.638420
1395.101110,-6513.812290,6052.154434,-1332.370696
1395.101421,-9696.697840,1225.752797,-148.041188
1395.101733,-11917.315666,-1532.190996,814.226536
1395.102044,-12953.603985,995.924147,1332.370696
1395.102356,-11399.171507,5669.106685,1776.494261
1395.102667,-9770.718434,4596.572988,962.267725
1395.102979,-9474.636058,0.000000,592.164754
1395.103290,-5847.626942,-1532.190996,-296.082377
1395.103602,-5181.441594,0.000000,-2146.597232
1395.103913,-5625.565159,3830.477490,-1406.391290
1395.104224,-5921.647536,3830.477490,-0.000000
1395.104536,-9400.615463,76.609550,888.247130
1395.104847,-10510.924376,-2528.115143,2960.823768
1395.105159,-12361.439231,-1532.190996,2220.617826
1395.105470,-11843.295072,2451.505594,2368.659014
1395.105782,-9104.533087,3370.820191,1924.535449
1395.106093,-8068.244768,-919.314598,888.247130
1395.106405,-6291.750507,-2834.553343,-0.000000
1395.106716,-6365.771101,-1991.848295,-962.267725
1395.107027,-6365.771101,459.657299,-0.000000
1395.107339,-7254.018232,1302.362347,1110.308913
1395.107650,-10362.883188,-766.095498,2368.659014
1395.107962,-11769.274478,-3140.991542,3701.029710
1395.108273,-12657.521608,-3753.867940,3108.864956
1395.108585,-9918.759623,-842.705048,3701.029710
1395.108896,-7476.080014,229.828649,2886.803174
1395.109208,-7179.997637,-3524.039291,1110.308913
1395.109519,-6143.709319,-5515.887586,592.164754
1395.109830,-6809.894666,-4290.134789,-1110.308913
1395.110142,-5847.626942,306.438199,-740.205942
1395.110453,-6809.894666,2068.457845,148.041188
1395.110765,-11251.130318,-2451.505594,1628.453072
1395.111076,-12583.501014,-4979.620737,3182.885551
1395.111388,-12657.521608,-2604.724693,2146.597232
1395.111699,-11399.171507,1378.971896,1702.473667
1395.112011,-8956.491898,2451.505594,888.247130
1395.112322,-7698.141797,-153.219100,-222.061783
1395.112633,-6143.709319,-2451.505594,-1258.350101
1395.112945,-6661.853478,-1455.581446,-2960.823768
1395.113256,-6217.729913,2298.286494,-2738.761985
1395.113568,-8216.285956,3524.039291,-1554.432478
1395.113879,-11251.130318,229.828649,518.144159
1395.114191,-12435.459826,-2987.772442,1332.370696
1395.114502,-13249.686362,-1455.581446,740.205942
1395.114814,-11695.253884,3447.429741,1480.411884
1395.115125,-9622.677246,5362.668486,1406.391290
1395.115436,-8956.491898,1302.362347,-0.000000
1395.115748,-7105.977043,-2221.676944,-296.082377
1395.116059,-6143.709319,-1455.581446,-1702.473667
1395.116371,-4959.379811,2604.724693,-2590.720797
1395.116682,-5699.585753,4596.572988,-1776.494261
1395.116994,-9400.615463,612.876398,-666.185348
1395.117305,-11843.295072,-3447.429741,666.185348
1395.117616,-13323.706956,-1225.752797,740.205942
1395.117928,-13101.645173,3370.820191,1776.494261
1395.118239,-11695.253884,4979.620737,888.247130
1395.118551,-10214.842000,1838.629195,-74.020594
1395.118862,-6957.935855,76.609550,-444.123565
1395.119174,-4071.132681,536.266849,-2294.638420
1395.119485,-3552.988522,3140.991542,-1850.514855
1395.119797,-5477.523971,4903.011187,-814.226536
1395.120108,-8660.409521,2221.676944,592.164754
1395.120419,-10140.821405,-1072.533697,2220.617826
1395.120731,-13027.624579,-612.876398,1998.556043
1395.121042,-11843.295072,2374.896044,2516.700203
1395.121354,-9548.656652,2221.676944,2220.617826
1395.121665,-8586.388927,-2298.286494,1776.494261
1395.121977,-6365.771101,-4366.744339,962.267725
1395.122288,-5847.626942,-2528.115143,-296.082377
1395.122600,-5403.503377,0.000000,222.061783
1395.122911,-5773.606348,383.047749,444.123565
1395.123222,-8882.471304,-1455.581446,2146.597232
1395.123534,-11473.192101,-2911.162892,2886.803174
1395.123845,-12361.439231,-1838.629195,3034.844362
1395.124157,-10214.842000,612.876398,3478.967927
1395.124468,-8660.409521,383.047749,3182.885551
1395.124780,-7772.162391,-1991.848295,1406.391290
1395.125091,-6069.688724,-2987.772442,-148.041188
1395.125403,-5551.544565,-2604.724693,-962.267725
1395.125714,-6069.688724,229.828649,-1406.391290
1395.126025,-6735.874072,1149.143247,-222.061783
1395.126337,-10436.903782,-1991.848295,740.205942
1395.126648,-12435.459826,-4903.011187,3034.844362
1395.126960,-13397.727550,-4673.182538,3034.844362
1395.127271,-12879.583391,-229.828649,1480.411884
1395.127583,-10510.924376,1532.190996,1628.453072
1395.127894,-9178.553681,-1072.533697,370.102971
1395.128206,-7994.224174,-3447.429741,-666.185348
1395.128517,-5921.647536,-1685.410096,-1258.350101
1395.128828,-4885.359217,995.924147,-1776.494261
1395.129140,-5847.626942,1455.581446,-518.144159
1395.129451,-9474.636058,-919.314598,-0.000000
1395.129763,-11991.336260,-2528.115143,1554.432478
1395.130074,-13323.706956,-306.438199,592.164754
1395.130386,-13545.768739,3370.820191,-0.000000
1395.130697,-12213.398043,6052.154434,-0.000000
1395.131009,-9992.780217,2834.553343,-518.144159
1395.131320,-8068.244768,-383.047749,-814.226536
1395.131631,-5995.668130,0.000000,-1406.391290
1395.131943,-4145.153275,3064.381992,-1998.556043
1395.132254,-5033.400406,5362.668486,-1850.514855
1395.132566,-7624.121203,3294.210641,-1184.329507
1395.132877,-9918.759623,-1302.362347,-444.123565
1395.133189,-12213.398043,-1532.190996,-0.000000
1395.133500,-12805.562797,1455.581446,1184.329507
1395.133811,-11843.295072,4060.306139,888.247130
1395.134123,-10955.047942,1455.581446,-0.000000
1395.134434,-8808.450710,-1991.848295,222.061783
1395.134746,-5625.565159,-2451.505594,-666.185348
1395.135057,-4663.297435,919.314598,-1850.514855
1395.135369,-3701.029710,3600.648841,-370.102971
1395.135680,-7105.977043,459.657299,444.123565
1395.135992,-9474.636058,-2451.505594,2812.782580
1395.136303,-11843.295072,-1915.238745,2812.782580
1395.136614,-12139.377449,1532.190996,2516.700203
1395.136926,-9918.759623,3677.258390,2368.659014
1395.137237,-8956.491898,1072.533697,444.123565
1395.137549,-7254.018232,-1149.143247,-222.061783
1395.137860,-5625.565159,-1302.362347,-1184.329507
1395.138172,-5033.400406,919.314598,-962.267725
1395.138483,-5921.647536,2528.115143,148.041188
1395.138795,-9326.594869,689.485948,1184.329507
1395.139106,-11621.233289,-1762.019645,2368.659014
1395.139417,-12731.542202,-3064.381992,2738.761985
1395.139729,-11843.295072,-1302.362347,3552.988522
1395.140040,-9178.553681,0.000000,3034.844362
1395.140352,-8290.306550,-3064.381992,2220.617826
1395.140663,-7105.977043,-5745.716235,1480.411884
1395.140975,-5551.544565,-5515.887586,-222.061783
1395.141286,-6291.750507,-2068.457845,-1554.432478
1395.141598,-7105.977043,536.266849,-370.102971
1395.141909,-9548.656652,-1455.581446,592.164754
1395.142220,-12657.521608,-4596.572988,2516.700203
1395.142532,-14211.954086,-3600.648841,2516.700203
1395.142843,-13397.727550,306.438199,2368.659014
1395.143155,-10288.862594,1915.238745,2590.720797
1395.143466,-9030.512492,-306.438199,1036.288319
1395.143778,-6365.771101,-2987.772442,-370.102971
1395.144089,-4145.153275,-2298.286494,-1702.473667
1395.144401,-4441.235652,0.000000,-2590.720797
1395.144712,-4959.379811,2451.505594,-444.123565
1395.145023,-9400.615463,-153.219100,-0.000000
1395.145335,-11621.233289,-2987.772442,1332.370696
1395.145646,-12583.501014,-2451.505594,962.267725
1395.145958,-12953.603985,1685.410096,444.123565
1395.146269,-11103.089130,4903.011187,1258.350101
1395.146581,-9474.636058,2604.724693,-148.041188
1395.146892,-7105.977043,-1532.190996,-148.041188
1395.147204,-5699.585753,-2451.505594,-1258.350101
1395.147515,-5551.544565,1762.019645,-2590.720797
1395.147826,-5625.565159,4826.401637,-2072.576638
1395.148138,-7476.080014,3600.648841,-1110.308913
1395.148449,-9474.636058,0.000000,296.082377
1395.148761,-12805.562797,-1072.533697,-0.000000
1395.149072,-13619.789333,2604.724693,814.226536
1395.149384,-11473.192101,5822.325785,888.247130
1395.149695,-11325.150913,4826.401637,-0.000000
1395.150006,-9474.636058,1302.362347,-592.164754
1395.150318,-6587.832884,306.438199,-2294.638420
1395.150629,-4737.318029,1991.848295,-2368.659014
1395.150941,-4071.132681,3294.210641,-1110.308913
1395.151252,-6587.832884,1685.410096,-592.164754
1395.151564,-9548.656652,-1608.800546,1110.308913
1395.151875,-12361.439231,-2987.772442,1702.473667
1395.152187,-12805.562797,-842.705048,2294.638420
1395.152498,-10436.903782,1838.629195,2664.741391
1395.152809,-9474.636058,0.000000,1332.370696
1395.153121,-8660.409521,-3217.601092,888.247130
1395.153432,-6809.894666,-3140.991542,-222.061783
1395.153744,-5773.606348,153.219100,-740.205942
1395.154055,-5107.421000,2987.772442,1110.308913
1395.154367,-7920.203579,-229.828649,1554.432478
1395.154678,-10658.965565,-2987.772442,3182.885551
1395.154990,-11843.295072,-2757.943793,3478.967927
1395.155301,-11547.212695,-229.828649,3108.864956
1395.155612,-9104.533087,1149.143247,3034.844362
1395.155924,-8734.430116,-612.876398,1850.514855
1395.156235,-6587.832884,-3524.039291,518.144159
1395.156547,-4441.235652,-4213.525239,-1628.453072
1395.156858,-5033.400406,-1762.019645,-2220.617826
1395.157170,-5773.606348,995.924147,-1406.391290
1395.157481,-8586.388927,-919.314598,518.144159
1395.157793,-13545.768739,-4596.572988,2072.576638
1395.158104,-14359.995275,-4979.620737,3552.988522
1395.158415,-13989.892304,-1608.800546,3330.926739
1395.158727,-11103.089130,1378.971896,3404.947333
1395.159038,-8068.244768,-612.876398,1258.350101
1395.159350,-5329.482782,-4443.353888,-592.164754
1395.159661,-3849.070898,-4673.182538,-888.247130
1395.159973,-3775.050304,-919.314598,-1480.411884
1395.160284,-6069.688724,1302.362347,-518.144159
1395.160596,-10658.965565,0.000000,592.164754
1395.160907,-13619.789333,-2374.896044,2368.659014
1395.161218,-13989.892304,-1838.629195,1702.473667
1395.161530,-13027.624579,2221.676944,1184.329507
1395.161841,-11177.109724,5592.497135,666.185348
1395.162153,-8586.388927,3830.477490,-370.102971
1395.162464,-6587.832884,229.828649,-1110.308913
1395.162776,-5699.585753,0.000000,-1628.453072
1395.163087,-5477.523971,2681.334243,-2368.659014
1395.163399,-5403.503377,5745.716235,-1924.535449
1395.163710,-7846.182985,3370.820191,-1480.411884
1395.164021,-9474.636058,229.828649,-592.164754
1395.164333,-12139.377449,76.609550,-370.102971
1395.164644,-13249.686362,2911.162892,-148.041188
1395.164956,-11991.336260,5209.449386,814.226536
1395.165267,-10807.006753,2834.553343,666.185348
1395.165579,-9030.512492,-1302.362347,-0.000000
1395.165890,-6439.791695,-2298.286494,-444.123565
1395.166201,-5033.400406,536.266849,-1406.391290
1395.166513,-4441.235652,3217.601092,-814.226536
1395.166824,-6143.709319,2451.505594,740.205942
1395.167136,-10214.842000,-2068.457845,1702.473667
1395.167447,-12731.542202,-2987.772442,2368.659014
1395.167759,-13841.851115,76.609550,1924.535449
1395.168070,-11029.068536,3370.820191,2294.638420
1395.168382,-9400.615463,1762.019645,592.164754
1395.168693,-7624.121203,-2604.724693,-0.000000
1395.169004,-5255.462188,-2911.162892,-592.164754
1395.169316,-4515.256246,-1149.143247,-1184.329507
1395.169627,-4441.235652,1915.238745,666.185348
1395.169939,-7624.121203,306.438199,1850.514855
1395.170250,-10288.862594,-2911.162892,2812.782580
1395.170562,-11325.150913,-3524.039291,3923.091493
1395.170873,-11399.171507,-1838.629195,2664.741391
1395.171184,-9474.636058,383.047749,3182.885551
1395.171496,-8216.285956,-1072.533697,1998.556043
1395.171807,-7031.956449,-3753.867940,888.247130
1395.172119,-6069.688724,-5286.058936,-0.000000
1395.172430,-6735.874072,-3294.210641,-888.247130
1395.172741,-6661.853478,842.705048,-0.000000
1395.173053,-9326.594869,76.609550,814.226536
1395.173364,-11547.212695,-3830.477490,1924.535449
1395.173676,-13249.686362,-3217.601092,2812.782580
1395.173987,-14137.933492,-842.705048,2516.700203
1395.174299,-11177.109724,1991.848295,2442.679609
1395.174610,-9252.574275,459.657299,1554.432478
1395.174921,-7920.203579,-2451.505594,444.123565
1395.175233,-6513.812290,-2451.505594,-1480.411884
1395.175544,-4515.256246,153.219100,-2368.659014
1395.175856,-5847.626942,2911.162892,-2442.679609
1395.176167,-9178.553681,3830.477490,-222.061783
1395.176479,-11695.253884,0.000000,888.247130
1395.176790,-13101.645173,-2145.067394,1406.391290
1395.177101,-12731.542202,459.657299,1184.329507
1395.177413,-10436.903782,4290.134789,1332.370696
1395.177724,-9030.512492,3677.258390,-666.185348
1395.178036,-7179.997637,306.438199,-1850.514855
1395.178347,-5477.523971,-1072.533697,-1628.453072
1395.178658,-6217.729913,306.438199,-2664.741391
1395.178970,-6883.915261,3830.477490,-814.226536
1395.179281,-8882.471304,3217.601092,-370.102971
1395.179593,-11843.295072,0.000000,666.185348
1395.179904,-11991.336260,0.000000,1554.432478
1395.180216,-11621.233289,2834.553343,888.247130
1395.180527,-9474.636058,5439.278036,444.123565
1395.180838,-7920.203579,4519.963438,-0.000000
1395.181150,-6883.915261,1225.752797,-1110.308913
1395.181461,-5181.441594,1149.143247,-2220.617826
1395.181773,-5699.585753,2298.286494,-2960.823768
1395.182084,-6069.688724,3370.820191,-814.226536
1395.182396,-7476.080014,2068.457845,444.123565
1395.182707,-10362.883188,-2221.676944,2220.617826
1395.183018,-12361.439231,-4443.353888,3182.885551
1395.183330,-13249.686362,-1838.629195,3256.906145
1395.183641,-10658.965565,842.705048,2960.823768
1395.183953,-7920.203579,306.438199,1406.391290
1395.184264,-6291.750507,-3753.867940,148.041188
1395.184575,-5403.503377,-5132.839837,-222.061783
1395.184887,-5255.462188,-2681.334243,-444.123565
1395.185198,-5773.606348,0.000000,370.102971
1395.185510,-7550.100608,0.000000,2072.576638
1395.185821,-11103.089130,-4519.963438,3034.844362
1395.186133,-12731.542202,-5745.716235,3775.050304
1395.186444,-13101.645173,-2757.943793,3108.864956
1395.186755,-11103.089130,1302.362347,2738.761985
1395.187067,-8808.450710,995.924147,1850.514855
1395.187378,-8068.244768,-2681.334243,666.185348
1395.187690,-5477.523971,-4366.744339,-518.144159
1395.188001,-5033.400406,-2681.334243,-1554.432478
1395.188312,-5847.626942,-229.828649,-592.164754
1395.188624,-7846.182985,842.705048,370.102971
1395.188935,-10732.986159,-2604.724693,1036.288319
1395.189247,-12805.562797,-5898.935335,2368.659014
1395.189558,-12805.562797,-5056.230287,2590.720797
1395.189870,-11473.192101,-2221.676944,2368.659014
1395.190181,-9474.636058,-1838.629195,1184.329507
1395.190492,-8216.285956,-4826.401637,1110.308913
1395.190804,-6809.894666,-7124.688131,-1036.288319
1395.191115,-6735.874072,-4060.306139,-2368.659014
1395.191427,-7031.956449,-995.924147,-1480.411884
1395.191738,-8142.265362,229.828649,-666.185348
1395.192050,-9918.759623,-1225.752797,592.164754
1395.192361,-11769.274478,-1762.019645,1332.370696
1395.192672,-11473.192101,-536.266849,1480.411884
1395.192984,-11251.130318,2987.772442,592.164754
1395.193295,-11399.171507,3677.258390,-296.082377
1395.193607,-8512.368333,3140.991542,-1258.350101
1395.193918,-6439.791695,1225.752797,-2146.597232
1395.194229,-5551.544565,842.705048,-1998.556043
1395.194541,-5033.400406,1072.533697,-2516.700203
1395.194852,-7031.956449,1072.533697,-2146.597232
1395.195164,-8364.327145,306.438199,-370.102971
1395.195475,-9770.718434,-1838.629195,-0.000000
1395.195787,-11843.295072,-2528.115143,592.164754
1395.196098,-12139.377449,-2834.553343,1332.370696
1395.196409,-10881.027347,-3064.381992,814.226536
1395.196721,-9326.594869,-3524.039291,518.144159
1395.197032,-7550.100608,-2911.162892,740.205942
1395.197344,-6513.812290,-3753.867940,296.082377
1395.197655,-6291.750507,-5669.106685,-0.000000
1395.197967,-6069.688724,-6052.154434,1036.288319
1395.198278,-7031.956449,-4596.572988,592.164754
1395.198589,-8586.388927,-2221.676944,518.144159
1395.198901,-10214.842000,-689.485948,444.123565
1395.199212,-10658.965565,-1685.410096,1554.432478
1395.199524,-10807.006753,-2987.772442,2516.700203
1395.199835,-11325.150913,-2681.334243,3108.864956
1395.200146,-11177.109724,-2374.896044,2664.741391
1395.200458,-9548.656652,-1991.848295,1850.514855
1395.200769,-6883.915261,-1762.019645,592.164754
1395.201081,-4663.297435,-3907.087040,-814.226536
1395.201392,-3775.050304,-5515.887586,-1628.453072
1395.201704,-4219.173869,-5822.325785,-1110.308913
1395.202015,-5995.668130,-4060.306139,-444.123565
1395.202326,-10066.800811,-3064.381992,-148.041188
1395.202638,-12953.603985,-3217.601092,1480.411884
1395.202949,-13989.892304,-4673.182538,3034.844362
1395.203261,-13841.851115,-5515.887586,4293.194464
1395.203572,-12435.459826,-6435.202183,4219.173869
1395.203884,-10658.965565,-6588.421283,1998.556043
1395.204195,-8808.450710,-6128.763984,592.164754
1395.204506,-7179.997637,-5362.668486,-296.082377
1395.204818,-4959.379811,-5056.230287,-148.041188
1395.205129,-4663.297435,-5745.716235,-222.061783
1395.205441,-5847.626942,-6281.983084,-296.082377
1395.205752,-7105.977043,-5209.449386,370.102971
1395.206063,-8660.409521,-3907.087040,888.247130
1395.206375,-10436.903782,-2834.553343,1184.329507
1395.206686,-11769.274478,-2604.724693,1480.411884
1395.206998,-13027.624579,-1915.238745,1776.494261
1395.207309,-13397.727550,76.609550,1406.391290
1395.207621,-12805.562797,842.705048,740.205942
1395.207932,-10214.842000,919.314598,296.082377
1395.208243,-7772.162391,-1302.362347,740.205942
1395.208555,-4515.256246,-2987.772442,296.082377
1395.208866,-3330.926739,-3600.648841,-1036.288319
1395.209178,-3182.885551,-2528.115143,-2294.638420
1395.209489,-3552.988522,-1762.019645,-2738.761985
1395.209801,-5773.606348,-1149.143247,-2368.659014
1395.210112,-7550.100608,-1838.629195,-592.164754
1395.210423,-11399.171507,-2528.115143,740.205942
1395.210735,-13841.851115,-3677.258390,1776.494261
1395.211046,-14359.995275,-3140.991542,1850.514855
1395.211358,-13841.851115,-2757.943793,2072.576638
1395.211669,-11473.192101,-3140.991542,888.247130
1395.211980,-9622.677246,-3140.991542,-0.000000
1395.212292,-7402.059420,-2987.772442,-370.102971
1395.212603,-5477.523971,-1762.019645,-74.020594
1395.212915,-5329.482782,-612.876398,-814.226536
1395.213226,-6143.709319,-842.705048,-370.102971
1395.213538,-6513.812290,-612.876398,-666.185348
1395.213849,-6809.894666,-459.657299,-1184.329507
1395.214160,-7698.141797,-995.924147,-666.185348
1395.214472,-8956.491898,-2145.067394,-888.247130
1395.214783,-11029.068536,-2911.162892,-148.041188
1395.215095,-12065.356855,-3677.258390,1036.288319
1395.215406,-11843.295072,-3907.087040,1628.453072
1395.215717,-10807.006753,-4673.182538,2368.659014
1395.216029,-9474.636058,-4903.011187,2072.576638
1395.216340,-8660.409521,-4979.620737,1184.329507
1395.216652,-7254.018232,-4136.915689,222.061783
1395.216963,-6439.791695,-2757.943793,-518.144159
1395.217275,-5995.668130,-1685.410096,-1184.329507
1395.217586,-5921.647536,-2834.553343,-740.205942
1395.217897,-7476.080014,-4060.306139,-0.000000
1395.218209,-9770.718434,-4826.401637,1184.329507
1395.218520,-11399.171507,-5132.839837,1702.473667
1395.218832,-13545.768739,-4903.011187,2590.720797
1395.219143,-14137.933492,-5592.497135,3404.947333
1395.219455,-14211.954086,-4519.963438,2516.700203
1395.219766,-12731.542202,-3447.429741,2146.597232
1395.220077,-9992.780217,-2298.286494,1332.370696
1395.220389,-7105.977043,-995.924147,370.102971
1395.220700,-4811.338623,-536.266849,-592.164754
1395.221012,-4145.153275,-459.657299,-962.267725
1395.221323,-3256.906145,-1685.410096,-740.205942
1395.221634,-4367.215058,-2298.286494,-444.123565
1395.221946,-6587.832884,-3983.696590,370.102971
1395.222257,-9104.533087,-4903.011187,888.247130
1395.222569,-11917.315666,-5669.106685,1554.432478
1395.222880,-13101.645173,-6358.592633,2368.659014
1395.223192,-13323.706956,-6281.983084,2738.761985
1395.223503,-12435.459826,-5822.325785,2368.659014
1395.223814,-10288.862594,-4826.401637,2146.597232
1395.224126,-7105.977043,-3677.258390,1406.391290
1395.224437,-5181.441594,-1685.410096,222.061783
1395.224749,-4071.132681,-383.047749,-0.000000
1395.225060,-3923.091493,0.000000,-518.144159
1395.225372,-4071.132681,0.000000,-814.226536
1395.225683,-5625.565159,76.609550,-666.185348
1395.225994,-7920.203579,-459.657299,-814.226536
1395.226306,-10436.903782,-1378.971896,-296.082377
1395.226617,-11843.295072,-2145.067394,296.082377
1395.226929,-11029.068536,-2681.334243,888.247130
1395.227240,-11917.315666,-3294.210641,814.226536
1395.227551,-9474.636058,-2757.943793,1702.473667
1395.227863,-9400.615463,-3294.210641,296.082377
1395.228174,-8216.285956,-3217.601092,-0.000000
1395.228486,-5107.421000,-2145.067394,-0.000000
1395.228797,-5625.565159,-3064.381992,-1036.288319
1395.229109,-7105.977043,-4060.306139,370.102971
1395.229420,-11843.295072,-5209.449386,-0.000000
1395.229731,-12879.583391,-4213.525239,814.226536
1395.230043,-12953.603985,-2068.457845,1702.473667
1395.230354,-12657.521608,-3370.820191,2442.679609
1395.230666,-12435.459826,-5515.887586,2072.576638
1395.230977,-10881.027347,-5286.058936,2220.617826
1395.231289,-8882.471304,-2757.943793,2368.659014
1395.231600,-7846.182985,-842.705048,1924.535449
1395.231911,-10214.842000,229.828649,888.247130
1395.232223,-9696.697840,1838.629195,1036.288319
1395.232534,-8660.409521,612.876398,666.185348
1395.232846,-7476.080014,0.000000,666.185348
1395.233157,-5921.647536,306.438199,1036.288319
1395.233468,-8068.244768,-1302.362347,592.164754
1395.233780,-8290.306550,-3907.087040,3034.844362
1395.234091,-9844.739029,-5132.839837,3627.009116
1395.234403,-10214.842000,-2911.162892,5995.668130
1395.234714,-12879.583391,-1915.238745,5477.523971
1395.235026,-13027.624579,-2528.115143,6661.853478
1395.235337,-9474.636058,-1685.410096,5033.400406
1395.235648,-6587.832884,1225.752797,3701.029710
1395.235960,-5033.400406,1915.238745,2886.803174
1395.236271,-3923.091493,612.876398,2072.576638
1395.236583,-5625.565159,-766.095498,1332.370696
1395.236894,-4663.297435,1378.971896,3552.988522
1395.237206,-7402.059420,0.000000,3182.885551
1395.237517,-11325.150913,-536.266849,4589.276840
1395.237828,-11547.212695,-306.438199,6957.935855
1395.238140,-10288.862594,-1532.190996,6143.709319
1395.238451,-7846.182985,-919.314598,7254.018232
1395.238763,-8364.327145,0.000000,5403.503377
1395.239074,-7328.038826,1149.143247,5403.503377
1395.239385,-5477.523971,1685.410096,3627.009116
1395.239697,-4811.338623,1991.848295,3478.967927
1395.240008,-5921.647536,3217.601092,2812.782580
1395.240320,-8586.388927,2528.115143,3330.926739
1395.240631,-9474.636058,1225.752797,4071.132681
1395.240943,-9030.512492,-229.828649,4737.318029
1395.241254,-9104.533087,-995.924147,5477.523971
1395.241565,-10140.821405,-2298.286494,5329.482782
1395.241877,-9992.780217,-3217.601092,6809.894666
1395.242188,-8808.450710,-3064.381992,5773.606348
1395.242500,-8364.327145,-229.828649,5921.647536
1395.242811,-8882.471304,1072.533697,3701.029710
1395.243122,-10584.944971,1608.800546,3923.091493
1395.243434,-10436.903782,2911.162892,3034.844362
1395.243745,-8660.409521,3830.477490,2812.782580
1395.244057,-8216.285956,2987.772442,2812.782580
1395.244368,-7402.059420,76.609550,2886.803174
1395.244680,-7476.080014,-842.705048,3182.885551
1395.244991,-6217.729913,-1225.752797,3330.926739
1395.245302,-6883.915261,-2221.676944,3701.029710
1395.245614,-8142.265362,-2451.505594,3923.091493
1395.245925,-9326.594869,-2145.067394,3923.091493
1395.246237,-10214.842000,-1072.533697,3627.009116
1395.246548,-10288.862594,-919.314598,3404.947333
1395.246860,-11029.068536,459.657299,3552.988522
1395.247171,-11251.130318,1072.533697,2590.720797
1395.247482,-10066.800811,1149.143247,1850.514855
1395.247794,-8734.430116,995.924147,1258.350101
1395.248105,-7994.224174,1302.362347,1332.370696
1395.248417,-8808.450710,0.000000,2368.659014
1395.248728,-9622.677246,-2068.457845,3182.885551
1395.249039,-9770.718434,-2221.676944,4219.173869
1395.249351,-9474.636058,-2451.505594,4071.132681
1395.249662,-8808.450710,-1378.971896,3701.029710
1395.249974,-8142.265362,-919.314598,2368.659014
1395.250285,-7402.059420,459.657299,1480.411884
1395.250597,-7105.977043,1685.410096,-0.000000
1395.250908,-7698.141797,2451.505594,-518.144159
1395.251219,-8956.491898,2987.772442,518.144159
1395.251531,-10955.047942,2604.724693,1036.288319
1395.251842,-11917.315666,1762.019645,2812.782580
1395.252154,-11769.274478,306.438199,4145.153275
1395.252465,-10955.047942,-1302.362347,4885.359217
1395.252777,-9474.636058,-2757.943793,5107.421000
1395.253088,-6957.935855,-2298.286494,4293.194464
1395.253399,-5625.565159,-3140.991542,2886.803174
1395.253711,-5403.503377,-1838.629195,2664.741391
1395.254022,-6883.915261,-1608.800546,1776.494261
1395.254334,-8586.388927,-612.876398,2368.659014
1395.254645,-9992.780217,459.657299,3108.864956
1395.254956,-11325.150913,1455.581446,4219.173869
1395.255268,-12361.439231,1608.800546,4589.276840
1395.255579,-11103.089130,995.924147,4811.338623
1395.255891,-8438.347739,153.219100,4293.194464
1395.256202,-5773.606348,229.828649,3627.009116
1395.256514,-4515.256246,306.438199,2220.617826
1395.256825,-4663.297435,0.000000,1258.350101
1395.257136,-4737.318029,612.876398,1480.411884
1395.257448,-6883.915261,1072.533697,1702.473667
1395.257759,-9770.718434,1455.581446,3108.864956
1395.258071,-12583.501014,1455.581446,4071.132681
1395.258382,-13249.686362,1072.533697,4885.359217
1395.258694,-11991.336260,1302.362347,4441.235652
1395.259005,-9844.739029,0.000000,3923.091493
1395.259316,-7994.224174,-766.095498,3701.029710
1395.259628,-6365.771101,-1072.533697,3849.070898
1395.259939,-6957.935855,-1149.143247,4737.318029
1395.260251,-9252.574275,-153.219100,5773.606348
1395.260562,-11991.336260,-383.047749,7550.100608
1395.260873,-12287.418637,-306.438199,8142.265362
1395.261185,-10955.047942,153.219100,6587.832884
1395.261496,-8068.244768,612.876398,4663.297435
1395.261808,-5329.482782,2068.457845,2294.638420
1395.262119,-3701.029710,2681.334243,222.061783
1395.262431,-3849.070898,2068.457845,148.041188
1395.262742,-6291.750507,1302.362347,1258.350101
1395.263053,-9918.759623,76.609550,3627.009116
1395.263365,-13249.686362,-1072.533697,6069.688724
1395.263676,-14878.139434,-2451.505594,7920.203579
1395.263988,-14508.036463,-2604.724693,9400.615463
1395.264299,-12213.398043,-2451.505594,9696.697840
1395.264611,-9474.636058,-2221.676944,7772.162391
1395.264922,-6365.771101,-1225.752797,6143.709319
1395.265233,-3256.906145,536.266849,3552.988522
1395.265545,-1554.432478,2145.067394,962.267725
1395.265856,-1184.329507,3294.210641,-296.082377
1395.266168,-3182.885551,3370.820191,-0.000000
1395.266479,-5995.668130,2528.115143,1406.391290
1395.266790,-8882.471304,1225.752797,2590.720797
1395.267102,-11547.212695,229.828649,4441.235652
1395.267413,-13915.871710,-306.438199,6291.750507
1395.267725,-15248.242405,-995.924147,6661.853478
1395.268036,-14804.118840,-306.438199,6291.750507
1395.268348,-11621.233289,383.047749,5699.585753
1395.268659,-9030.512492,536.266849,4367.215058
1395.268970,-5477.523971,76.609550,3182.885551
1395.269282,-2294.638420,612.876398,1554.432478
1395.269593,-592.164754,995.924147,592.164754
1395.269905,-1480.411884,766.095498,-0.000000
1395.270216,-3997.112087,153.219100,-592.164754
1395.270527,-7254.018232,-1455.581446,-444.123565
1395.270839,-11103.089130,-1072.533697,1258.350101
1395.271150,-15618.345376,-2298.286494,3330.926739
1395.271457,-18727.210333,-2068.457845,5921.647536
1395.271768,-19985.560434,-1762.019645,6809.894666
1395.272080,-17172.777854,-1149.143247,6957.935855
1395.272391,-12213.398043,-919.314598,6069.688724
1395.272702,-6143.709319,-306.438199,3775.050304
1395.273014,-592.164754,612.876398,222.061783
1395.273325,3108.864956,1455.581446,-2960.823768
1395.273637,4367.215058,2451.505594,-6069.688724
1395.273948,814.226536,2374.896044,-5625.565159
1395.274259,-4737.318029,1149.143247,-4293.194464
1395.274571,-12287.418637,76.609550,-370.102971
1395.274882,-19171.333898,-766.095498,3627.009116
1395.275193,-23686.590144,-919.314598,7179.997637
1395.275505,-23390.507767,-1762.019645,8660.409521
1395.275816,-18061.024985,-2451.505594,6365.771101
1395.276128,-11177.109724,-1838.629195,3701.029710
1395.276439,-2886.803174,-842.705048,-148.041188
1395.276750,3256.906145,229.828649,-4071.132681
1395.277062,5255.462188,1225.752797,-7624.121203
1395.277373,3256.906145,2834.553343,-7550.100608
1395.277684,-2516.700203,2298.286494,-6069.688724
1395.277996,-11621.233289,1378.971896,-3701.029710
1395.278307,-19319.375086,2068.457845,814.226536
1395.278619,-24056.693115,1762.019645,3997.112087
1395.278930,-23982.672521,689.485948,6143.709319
1395.279241,-18949.272115,-1838.629195,5847.626942
1395.279553,-11769.274478,-2987.772442,3478.967927
1395.279864,-4219.173869,-2298.286494,444.123565
1395.280175,1554.432478,-919.314598,-1184.329507
1395.280487,3478.967927,-1072.533697,-3701.029710
1395.280798,1850.514855,-306.438199,-4367.215058
1395.281110,-2590.720797,-919.314598,-3108.864956
1395.281421,-8068.244768,-995.924147,-1850.514855
1395.281732,-13397.727550,1072.533697,-0.000000
1395.282044,-18135.045579,1838.629195,1850.514855
1395.282355,-20799.786970,919.314598,3701.029710
1395.282666,-18357.107362,-1302.362347,5329.482782
1395.282978,-13545.768739,-1455.581446,6069.688724
1395.283289,-8882.471304,-1685.410096,4811.338623
1395.283601,-3627.009116,-1838.629195,2220.617826
1395.283912,-148.041188,-1685.410096,-0.000000
1395.284223,1406.391290,0.000000,-1776.494261
1395.284535,-444.123565,1838.629195,-1850.514855
1395.284846,-6069.688724,1838.629195,-1924.535449
1395.285157,-9992.780217,3294.210641,-1036.288319
1395.285469,-11843.295072,3600.648841,-0.000000
1395.285780,-12805.562797,2681.334243,1776.494261
1395.286092,-12361.439231,-536.266849,3478.967927
1395.286403,-10732.986159,-2911.162892,3627.009116
1395.286714,-8882.471304,-3140.991542,3552.988522
1395.287026,-7179.997637,-3064.381992,3256.906145
1395.287337,-6957.935855,-2681.334243,4737.318029
1395.287648,-9474.636058,-2451.505594,2960.823768
1395.287960,-10658.965565,0.000000,3108.864956
1395.288271,-10584.944971,919.314598,2294.638420
1395.288583,-8216.285956,2451.505594,962.267725
1395.288894,-5699.585753,3677.258390,-1110.308913
1395.289205,-3849.070898,2374.896044,-2294.638420
1395.289517,-2738.761985,0.000000,-2294.638420
1395.289828,-3701.029710,-1302.362347,-1702.473667
1395.290139,-6809.894666,-1072.533697,-296.082377
1395.290451,-11325.150913,-1225.752797,2294.638420
1395.290762,-17024.736666,-2757.943793,4959.379811
1395.291073,-19837.519246,-2451.505594,6365.771101
1395.291385,-18135.045579,-383.047749,5477.523971
1395.291696,-13471.748144,1149.143247,2812.782580
1395.292008,-5551.544565,2145.067394,-1406.391290
1395.292319,444.123565,1455.581446,-5625.565159
1395.292630,4145.153275,2374.896044,-8734.430116
1395.292942,3182.885551,2298.286494,-8660.409521
1395.293253,-2368.659014,1608.800546,-6661.853478
1395.293564,-10288.862594,383.047749,-2220.617826
1395.293876,-19393.395680,-2068.457845,2886.803174
1395.294187,-25167.002028,-3830.477490,6957.935855
1395.294499,-25241.022622,-3294.210641,7846.182985
1395.294810,-19615.457463,-1915.238745,6143.709319
1395.295121,-11251.130318,-1302.362347,1332.370696
1395.295433,-2146.597232,-1302.362347,-2220.617826
1395.295744,4811.338623,-1072.533697,-6735.874072
1395.296055,7254.018232,229.828649,-9622.677246
1395.296367,4663.297435,2374.896044,-9326.594869
1395.296678,-2738.761985,3294.210641,-7031.956449
1395.296990,-12139.377449,1991.848295,-3034.844362
1395.297301,-20947.828159,459.657299,1554.432478
1395.297612,-25241.022622,0.000000,4737.318029
1395.297924,-22798.343014,-995.924147,5329.482782
1395.298235,-16802.674883,-1762.019645,3552.988522
1395.298546,-8734.430116,-2757.943793,-0.000000
1395.298858,-1998.556043,-3447.429741,-3108.864956
1395.299169,2368.659014,-1991.848295,-5921.647536
1395.299481,2442.679609,0.000000,-5403.503377
1395.299792,-2220.617826,459.657299,-3923.091493
1395.300103,-9326.594869,76.609550,-1776.494261
1395.300415,-14952.160028,229.828649,-0.000000
1395.300726,-17542.880825,1455.581446,1036.288319
1395.301037,-16728.654289,2145.067394,1924.535449
1395.301349,-12287.418637,842.705048,2146.597232
1395.301660,-9844.739029,-1302.362347,814.226536
1395.301972,-6957.935855,-3830.477490,1406.391290
1395.302283,-4811.338623,-3064.381992,888.247130
1395.302594,-4441.235652,-1838.629195,1480.411884
1395.302906,-4737.318029,-306.438199,1480.411884
1395.303217,-9104.533087,0.000000,1998.556043
1395.303528,-11621.233289,612.876398,2146.597232
1395.303840,-12583.501014,2911.162892,1554.432478
1395.304151,-10955.047942,4290.134789,740.205942
1395.304463,-8068.244768,2834.553343,444.123565
1395.304774,-6809.894666,229.828649,-222.061783
1395.305085,-4145.153275,-1532.190996,-370.102971
1395.305397,-3552.988522,-2374.896044,-0.000000
1395.305708,-4885.359217,-3064.381992,2072.576638
1395.306019,-8364.327145,-3524.039291,4293.194464
1395.306331,-14359.995275,-3983.696590,5107.421000
1395.306642,-17172.777854,-2221.676944,6883.915261
1395.306954,-18357.107362,1072.533697,5921.647536
1395.307265,-13545.768739,3217.601092,3775.050304
1395.307576,-6217.729913,3447.429741,592.164754
1395.307888,74.020594,1302.362347,-3775.050304
1395.308199,4737.318029,919.314598,-5625.565159
1395.308510,5329.482782,1762.019645,-4959.379811
1395.308822,-1110.308913,1072.533697,-2960.823768
1395.309133,-10510.924376,76.609550,1850.514855
1395.309445,-19467.416275,-1685.410096,6365.771101
1395.309756,-24944.940245,-2374.896044,9622.677246
1395.310067,-22576.281231,-612.876398,9252.574275
1395.310379,-15396.283594,1149.143247,4885.359217
1395.310690,-5773.606348,2221.676944,-74.020594
1395.311001,1480.411884,1838.629195,-4959.379811
1395.311313,5921.647536,1149.143247,-7846.182985
1395.311624,4663.297435,1225.752797,-8216.285956
1395.311935,-1406.391290,2374.896044,-5477.523971
1395.312247,-8364.327145,536.266849,-2072.576638
1395.312558,-15840.407159,-1838.629195,2368.659014
1395.312870,-20873.807564,-3907.087040,5329.482782
1395.313181,-21317.931130,-3983.696590,5773.606348
1395.313492,-17912.983796,-3370.820191,4959.379811
1395.313804,-11695.253884,-2681.334243,1776.494261
1395.314115,-6291.750507,-1225.752797,-1036.288319
1395.314426,-2442.679609,-1455.581446,-3627.009116
1395.314738,-148.041188,-306.438199,-5033.400406
1395.315049,-1850.514855,1838.629195,-5033.400406
1395.315361,-5699.585753,3370.820191,-3034.844362
1395.315672,-11473.192101,2298.286494,-1628.453072
1395.315983,-14730.098246,1225.752797,444.123565
1395.316295,-16580.613101,766.095498,666.185348
1395.316606,-14508.036463,1608.800546,740.205942
1395.316917,-9918.759623,1302.362347,888.247130
1395.317229,-8142.265362,-1762.019645,-518.144159
1395.317540,-5477.523971,-3294.210641,-370.102971
1395.317852,-3997.112087,-3064.381992,-592.164754
1395.318163,-3404.947333,-1532.190996,-1036.288319
1395.318474,-4959.379811,-689.485948,-740.205942
1395.318786,-9400.615463,0.000000,-740.205942
1395.319097,-13175.665768,306.438199,-222.061783
1395.319408,-15396.283594,1532.190996,-444.123565
1395.319720,-14804.118840,3064.381992,592.164754
1395.320031,-11843.295072,2451.505594,592.164754
1395.320343,-8364.327145,-842.705048,666.185348
1395.320654,-5255.462188,-3447.429741,-0.000000
1395.320965,-2886.803174,-3830.477490,-444.123565
1395.321277,-3701.029710,-1762.019645,370.102971
1395.321588,-7328.038826,-306.438199,1258.350101
1395.321899,-13323.706956,-383.047749,2072.576638
1395.322211,-16654.633695,306.438199,3330.926739
1395.322522,-15544.324782,2298.286494,2886.803174
1395.322834,-12213.398043,3753.867940,962.267725
1395.323145,-6809.894666,3524.039291,-0.000000
1395.323456,-1998.556043,919.314598,-2294.638420
1395.323768,888.247130,-766.095498,-2146.597232
1395.324079,-222.061783,-2145.067394,-1776.494261
1395.324390,-3701.029710,-2911.162892,518.144159
1395.324702,-8438.347739,-2145.067394,2738.761985
1395.325013,-13545.768739,-1915.238745,4737.318029
1395.325325,-18061.024985,-1991.848295,5773.606348
1395.325636,-18357.107362,0.000000,5773.606348
1395.325947,-15100.201217,1072.533697,4663.297435
1395.326259,-8956.491898,1762.019645,2516.700203
1395.326570,-3256.906145,1762.019645,-518.144159
1395.326881,148.041188,995.924147,-2886.803174
1395.327193,1258.350101,1149.143247,-3775.050304
1395.327504,-888.247130,1608.800546,-3108.864956
1395.327816,-5625.565159,1608.800546,-888.247130
1395.328127,-12361.439231,1838.629195,1924.535449
1395.328438,-18727.210333,-153.219100,4885.359217
1395.328750,-21391.951724,76.609550,6661.853478
1395.329061,-19393.395680,1378.971896,6217.729913
1395.329372,-13545.768739,1991.848295,4737.318029
1395.329684,-6439.791695,229.828649,1406.391290
1395.329995,0.000000,-1532.190996,-2368.659014
1395.330307,3997.112087,-383.047749,-4515.256246
1395.330618,2146.597232,1762.019645,-3775.050304
1395.330929,-3627.009116,1608.800546,-740.205942
1395.331241,-12139.377449,-1532.190996,2960.823768
1395.331552,-18579.169144,-3447.429741,5847.626942
1395.331863,-20207.622217,-2604.724693,8142.265362
1395.332175,-16580.613101,-1608.800546,7476.080014
1395.332486,-10881.027347,-1072.533697,4885.359217
1395.332798,-6735.874072,-1532.190996,2368.659014
1395.333109,-2812.782580,-1378.971896,148.041188
1395.333420,-296.082377,0.000000,-518.144159
1395.333732,-3330.926739,1608.800546,-814.226536
1395.334043,-6143.709319,3064.381992,518.144159
1395.334354,-9548.656652,2604.724693,592.164754
1395.334666,-11769.274478,1838.629195,1480.411884
1395.334977,-11991.336260,1915.238745,1850.514855
1395.335288,-11991.336260,1072.533697,962.267725
1395.335600,-8734.430116,689.485948,1406.391290
1395.335911,-7179.997637,-1608.800546,-0.000000
1395.336223,-5625.565159,-1302.362347,-0.000000
1395.336534,-5921.647536,-1762.019645,-0.000000
1395.336845,-6809.894666,-1378.971896,-0.000000
1395.337157,-7698.141797,-689.485948,296.082377
1395.337468,-10140.821405,-612.876398,666.185348
1395.337779,-12361.439231,-612.876398,1554.432478
1395.338091,-12953.603985,1225.752797,592.164754
1395.338402,-11843.295072,2221.676944,-74.020594
1395.338714,-8216.285956,2145.067394,-1110.308913
1395.339025,-5329.482782,919.314598,-1480.411884
1395.339336,-4071.132681,-612.876398,-2368.659014
1395.339648,-3775.050304,-1608.800546,-2516.700203
1395.339959,-5107.421000,-842.705048,-2146.597232
1395.340270,-7105.977043,306.438199,-888.247130
1395.340582,-11695.253884,842.705048,592.164754
1395.340893,-17616.901420,-383.047749,1406.391290
1395.341205,-19245.354492,383.047749,1998.556043
1395.341516,-17024.736666,2221.676944,296.082377
1395.341827,-11029.068536,3677.258390,-1332.370696
1395.342139,-5625.565159,2528.115143,-3627.009116
1395.342450,-2738.761985,-229.828649,-5255.462188
1395.342761,-1258.350101,-1915.238745,-4885.359217
1395.343073,-3108.864956,-2451.505594,-3404.947333
1395.343384,-8364.327145,-3064.381992,-962.267725
1395.343696,-14285.974681,-2911.162892,2072.576638
1395.344007,-19763.498651,-4290.134789,3552.988522
1395.344318,-21317.931130,-3217.601092,4293.194464
1395.344630,-17764.942608,-1225.752797,3034.844362
1395.344941,-11769.274478,153.219100,1258.350101
1395.345252,-6661.853478,383.047749,-962.267725
1395.345564,-2960.823768,-536.266849,-1776.494261
1395.345875,-222.061783,-229.828649,-2368.659014
1395.346187,-962.267725,536.266849,-2590.720797
1395.346498,-3552.988522,1991.848295,-666.185348
1395.346809,-7550.100608,1608.800546,296.082377
1395.347121,-11769.274478,995.924147,2442.679609
1395.347432,-14508.036463,689.485948,3701.029710
1395.347743,-14878.139434,1149.143247,3478.967927
1395.348055,-11991.336260,2068.457845,3552.988522
1395.348366,-8660.409521,1455.581446,2368.659014
1395.348678,-5107.421000,-459.657299,962.267725
1395.348989,-2516.700203,0.000000,148.041188
1395.349300,-1110.308913,1072.533697,-740.205942
1395.349612,-1924.535449,1455.581446,-370.102971
1395.349923,-5921.647536,612.876398,1258.350101
1395.350234,-11843.295072,229.828649,3182.885551
1395.350546,-14730.098246,689.485948,4737.318029
1395.350857,-15914.427753,459.657299,5921.647536
1395.351169,-12657.521608,-306.438199,5921.647536
1395.351480,-8068.244768,-2145.067394,3701.029710
1395.351791,-4071.132681,-2451.505594,1628.453072
1395.352103,-2072.576638,-1378.971896,1554.432478
1395.352414,-4737.318029,-612.876398,1184.329507
1395.352725,-7698.141797,0.000000,2590.720797
1395.353037,-9918.759623,-306.438199,2664.741391
1395.353348,-12879.583391,76.609550,3923.091493
1395.353660,-12361.439231,842.705048,4441.235652
1395.353971,-11325.150913,2374.896044,2738.761985
1395.354282,-8808.450710,3064.381992,2146.597232
1395.354594,-5551.544565,1685.410096,1110.308913
1395.354905,-4515.256246,-689.485948,-370.102971
1395.355216,-3923.091493,459.657299,-888.247130
1395.355528,-5255.462188,995.924147,-1036.288319
1395.355839,-7402.059420,76.609550,-888.247130
1395.356150,-9622.677246,-842.705048,518.144159
1395.356462,-13249.686362,-1149.143247,1850.514855
1395.356773,-15322.262999,-842.705048,2072.576638
1395.357085,-15396.283594,459.657299,1924.535449
1395.357396,-11769.274478,1608.800546,592.164754
1395.357707,-7105.977043,153.219100,-1480.411884
1395.358019,-4367.215058,-919.314598,-3552.988522
1395.358330,-1776.494261,-1302.362347,-4145.153275
1395.358641,-2220.617826,-229.828649,-5033.400406
1395.358953,-5329.482782,383.047749,-2738.761985
1395.359264,-10881.027347,-153.219100,-296.082377
1395.359576,-17690.922014,-2145.067394,1110.308913
1395.359887,-19763.498651,-229.828649,2368.659014
1395.360198,-18357.107362,1378.971896,1850.514855
1395.360510,-12805.562797,1762.019645,-148.041188
1395.360821,-6217.729913,612.876398,-2886.803174
1395.361132,-1702.473667,-459.657299,-5921.647536
1395.361444,1554.432478,0.000000,-6513.812290
1395.361755,0.000000,229.828649,-6069.688724
1395.362067,-4737.318029,306.438199,-3330.926739
1395.362378,-11177.109724,-1072.533697,-1110.308913
1395.362689,-17320.819043,-2834.553343,2368.659014
1395.363001,-19689.478057,-1838.629195,3552.988522
1395.363312,-18505.148550,-995.924147,2294.638420
1395.363623,-14211.954086,-459.657299,962.267725
1395.363935,-8808.450710,-1225.752797,-962.267725
1395.364246,-4589.276840,-2068.457845,-3034.844362
1395.364558,-2072.576638,-1915.238745,-3775.050304
1395.364869,-2220.617826,-1149.143247,-3552.988522
1395.365180,-4145.153275,-306.438199,-2220.617826
1395.365492,-8438.347739,76.609550,-444.123565
1395.365803,-13323.706956,-689.485948,1480.411884
1395.366114,-16654.633695,-383.047749,2368.659014
1395.366426,-17172.777854,1225.752797,2294.638420
1395.366737,-13693.809927,1991.848295,1480.411884
1395.367049,-8808.450710,1762.019645,-0.000000
1395.367360,-5625.565159,-459.657299,-1480.411884
1395.367671,-2664.741391,-459.657299,-1776.494261
1395.367983,-1776.494261,-153.219100,-2220.617826
1395.368294,-3034.844362,919.314598,-666.185348
1395.368605,-6291.750507,459.657299,814.226536
1395.368917,-11177.109724,76.609550,1332.370696
1395.369228,-13767.830521,995.924147,2812.782580
1395.369540,-13249.686362,1915.238745,2664.741391
1395.369851,-10658.965565,1838.629195,1998.556043
1395.370162,-7994.224174,536.266849,1110.308913
1395.370474,-6365.771101,-1685.410096,444.123565
1395.370785,-4663.297435,-2221.676944,370.102971
1395.371096,-4219.173869,-1302.362347,-0.000000
1395.371408,-6513.812290,76.609550,814.226536
1395.371719,-9770.718434,766.095498,1998.556043
1395.372031,-14730.098246,0.000000,4071.132681
1395.372342,-15544.324782,459.657299,5329.482782
1395.372653,-12435.459826,689.485948,3034.844362
1395.372965,-8512.368333,2298.286494,1776.494261
1395.373276,-5181.441594,2987.772442,1480.411884
1395.373588,-4515.256246,383.047749,-0.000000
1395.373899,-3923.091493,-1302.362347,-444.123565
1395.374210,-4811.338623,-1378.971896,-740.205942
1395.374522,-6957.935855,-1608.800546,518.144159
1395.374833,-8216.285956,-1149.143247,2960.823768
1395.375144,-13101.645173,-2757.943793,3256.906145
1395.375456,-16506.592507,-2987.772442,4885.359217
1395.375767,-16358.551318,-1455.581446,5551.544565
1395.376079,-12509.480420,842.705048,4811.338623
1395.376390,-7328.038826,1302.362347,3182.885551
1395.376701,-4071.132681,0.000000,-370.102971
1395.377013,-370.102971,0.000000,-2590.720797
1395.377324,962.267725,306.438199,-4219.173869
1395.377636,-888.247130,1838.629195,-3034.844362
1395.377947,-5921.647536,1838.629195,-888.247130
1395.378258,-13841.851115,-306.438199,1406.391290
1395.378570,-18579.169144,-1149.143247,3627.009116
1395.378881,-19837.519246,153.219100,4663.297435
1395.379193,-16654.633695,1378.971896,4071.132681
1395.379504,-8734.430116,1991.848295,1258.350101
1395.379815,-3701.029710,0.000000,-3404.947333
1395.380127,1406.391290,-842.705048,-5477.523971
1395.380438,2368.659014,1149.143247,-5773.606348
1395.380750,-1850.514855,2145.067394,-3997.112087
1395.381061,-7698.141797,1378.971896,-1036.288319
1395.381372,-14804.118840,-842.705048,1406.391290
1395.381684,-19393.395680,-2374.896044,3108.864956
1395.381995,-18357.107362,-766.095498,3478.967927
1395.382306,-14359.995275,76.609550,1036.288319
1395.382618,-9030.512492,-1378.971896,74.020594
1395.382929,-5921.647536,-2757.943793,-1998.556043
1395.383241,-4663.297435,-2911.162892,-2442.679609
1395.383552,-5181.441594,-2068.457845,-1776.494261
1395.383863,-7031.956449,-536.266849,-1702.473667
1395.384175,-7994.224174,0.000000,-222.061783
1395.384486,-10584.944971,-536.266849,-1332.370696
1395.384798,-11695.253884,-612.876398,-148.041188
1395.385109,-13767.830521,689.485948,-518.144159
1395.385420,-13471.748144,1455.581446,-222.061783
1395.385732,-11251.130318,995.924147,-666.185348
1395.386043,-9918.759623,-1455.581446,-1184.329507
1395.386355,-7402.059420,-2068.457845,-1406.391290
1395.386666,-4737.318029,-1455.581446,-2220.617826
1395.386977,-3404.947333,-1072.533697,-2294.638420
1395.387289,-4811.338623,-1225.752797,-962.267725
1395.387600,-10214.842000,-1072.533697,-74.020594
1395.387911,-14804.118840,153.219100,1406.391290
1395.388223,-15766.386565,1915.238745,2146.597232
1395.388534,-14285.974681,2298.286494,1406.391290
1395.388846,-10288.862594,2298.286494,740.205942
1395.389157,-6217.729913,0.000000,-1406.391290
1395.389468,-3182.885551,-536.266849,-2442.679609
1395.389780,-1776.494261,-766.095498,-1924.535449
1395.390091,-2960.823768,-306.438199,-1184.329507
1395.390403,-7476.080014,-459.657299,888.247130
1395.390714,-13323.706956,-1149.143247,2368.659014
1395.391025,-15766.386565,-459.657299,3330.926739
1395.391337,-15174.221811,2681.334243,2960.823768
1395.391648,-11917.315666,3983.696590,2368.659014
1395.391960,-7179.997637,2987.772442,1258.350101
1395.392271,-4589.276840,0.000000,444.123565
1395.392582,-2442.679609,-612.876398,-0.000000
1395.392894,-2072.576638,-306.438199,-296.082377
1395.393205,-3701.029710,-842.705048,-0.000000
1395.393516,-7402.059420,-1302.362347,1850.514855
1395.393828,-11695.253884,-2068.457845,3923.091493
1395.394139,-15988.448347,-2987.772442,5699.585753
1395.394451,-17024.736666,-1532.190996,7179.997637
1395.394762,-15988.448347,-153.219100,7105.977043
1395.395073,-11325.150913,-153.219100,5699.585753
1395.395385,-6069.688724,-1072.533697,2960.823768
1395.395696,-1628.453072,0.000000,592.164754
1395.396008,962.267725,1532.190996,-740.205942
1395.396319,-1036.288319,1608.800546,-1110.308913
1395.396630,-5255.462188,2451.505594,1480.411884
1395.396942,-10807.006753,689.485948,3627.009116
1395.397253,-14063.912898,-766.095498,5699.585753
1395.397565,-15174.221811,-536.266849,6291.750507
1395.397876,-14434.015869,1225.752797,5551.544565
1395.398187,-10807.006753,1455.581446,4367.215058
1395.398499,-7328.038826,-612.876398,2368.659014
1395.398810,-3775.050304,-306.438199,-0.000000
1395.399122,-1924.535449,766.095498,-1332.370696
1395.399433,-1036.288319,1762.019645,-1628.453072
1395.399744,-3404.947333,1685.410096,-1554.432478
1395.400056,-7994.224174,995.924147,-148.041188
1395.400367,-11843.295072,306.438199,1480.411884
1395.400678,-13915.871710,459.657299,2812.782580
1395.400990,-15174.221811,0.000000,3552.988522
1395.401301,-13249.686362,-995.924147,3034.844362
1395.401613,-10214.842000,-1455.581446,518.144159
1395.401924,-5403.503377,-1225.752797,-1184.329507
1395.402235,-2590.720797,-1072.533697,-2886.803174
1395.402547,-3478.967927,-995.924147,-3256.906145
1395.402858,-5329.482782,-383.047749,-2442.679609
1395.403170,-9400.615463,76.609550,-1406.391290
1395.403481,-12657.521608,306.438199,-74.020594
1395.403792,-14582.057057,1532.190996,296.082377
1395.404104,-14211.954086,2681.334243,-518.144159
1395.404415,-10807.006753,2528.115143,-1554.432478
1395.404727,-9474.636058,689.485948,-3108.864956
1395.405038,-7476.080014,-612.876398,-3478.967927
1395.405349,-6439.791695,-995.924147,-3478.967927
1395.405661,-7105.977043,-1762.019645,-2516.700203
1395.405972,-8364.327145,-2068.457845,-1480.411884
1395.406283,-12361.439231,-2911.162892,-666.185348
1395.406595,-15248.242405,-2374.896044,-296.082377
1395.406906,-15766.386565,-536.266849,740.205942
1395.407218,-14508.036463,536.266849,962.267725
1395.407529,-11177.109724,612.876398,296.082377
1395.407840,-7476.080014,-459.657299,-1406.391290
1395.408152,-4293.194464,-995.924147,-2812.782580
1395.408463,-2220.617826,-2757.943793,-3256.906145
1395.408775,-2442.679609,-842.705048,-2442.679609
1395.409086,-5921.647536,-1455.581446,-814.226536
1395.409397,-11695.253884,-1532.190996,962.267725
1395.409709,-17616.901420,-1149.143247,3330.926739
1395.410020,-19171.333898,612.876398,4293.194464
1395.410332,-16876.695478,2298.286494,2664.741391
1395.410643,-10658.965565,3140.991542,1776.494261
1395.410954,-4885.359217,2528.115143,-0.000000
1395.411266,-592.164754,689.485948,-2294.638420
1395.411577,2146.597232,1455.581446,-2516.700203
1395.411888,666.185348,1455.581446,-2442.679609
1395.412200,-3849.070898,1378.971896,148.041188
1395.412511,-10288.862594,306.438199,2664.741391
1395.412823,-15840.407159,-459.657299,4737.318029
1395.413134,-18283.086767,229.828649,5995.668130
1395.413445,-16802.674883,1685.410096,6217.729913
1395.413757,-12287.418637,536.266849,4885.359217
1395.414068,-6735.874072,-1072.533697,3034.844362
1395.414380,-2664.741391,-1072.533697,962.267725
1395.414691,518.144159,-459.657299,-148.041188
1395.415002,222.061783,153.219100,-592.164754
1395.415314,-2220.617826,842.705048,1036.288319
1395.415625,-8216.285956,612.876398,1998.556043
1395.415937,-12953.603985,0.000000,4219.173869
1395.416248,-15840.407159,306.438199,6217.729913
1395.416559,-17098.757260,536.266849,6587.832884
1395.416871,-14211.954086,153.219100,6291.750507
1395.417182,-9474.636058,-1378.971896,3701.029710
1395.417494,-4293.194464,-1532.190996,888.247130
1395.417805,-888.247130,-919.314598,-1110.308913
1395.418116,-148.041188,-229.828649,-2294.638420
1395.418428,-3256.906145,1838.629195,-1258.350101
1395.418739,-8512.368333,2068.457845,740.205942
1395.419050,-14285.974681,1302.362347,3182.885551
1395.419362,-16950.716072,1455.581446,4737.318029
1395.419673,-15396.283594,612.876398,3849.070898
1395.419985,-9622.677246,153.219100,1258.350101
1395.420296,-4663.297435,-689.485948,-1480.411884
1395.420607,-1850.514855,383.047749,-2886.803174
1395.420919,-2812.782580,-766.095498,-3478.967927
1395.421230,-6735.874072,-1991.848295,-2590.720797
1395.421542,-10288.862594,-1378.971896,222.061783
1395.421853,-13841.851115,-536.266849,1850.514855
1395.422164,-16136.489536,-229.828649,2738.761985
1395.422476,-14434.015869,766.095498,1110.308913
1395.422787,-11251.130318,1838.629195,-814.226536
1395.423099,-5847.626942,2681.334243,-2368.659014
1395.423410,-2738.761985,1915.238745,-4441.235652
1395.423721,-3775.050304,153.219100,-4367.215058
1395.424033,-5403.503377,-153.219100,-3997.112087
1395.424344,-7254.018232,-1072.533697,-2886.803174
1395.424655,-9178.553681,-1302.362347,-1184.329507
1395.424967,-11177.109724,-2528.115143,-0.000000
1395.425278,-14582.057057,-3294.210641,-0.000000
1395.425590,-14508.036463,-1685.410096,518.144159
1395.425901,-15618.345376,-612.876398,-370.102971
1395.426212,-13397.727550,612.876398,-444.123565
1395.426524,-9548.656652,766.095498,-1554.432478
1395.426835,-5921.647536,0.000000,-3478.967927
1395.427147,-2072.576638,-306.438199,-4589.276840
1395.427458,-1628.453072,306.438199,-4589.276840
1395.427769,-4515.256246,-1378.971896,-3552.988522
1395.428081,-9992.780217,-536.266849,-740.205942
1395.428392,-16802.674883,-2221.676944,1850.514855
1395.428704,-21391.951724,-1608.800546,3923.091493
1395.429015,-20873.807564,459.657299,3923.091493
1395.429326,-14952.160028,1302.362347,2220.617826
1395.429638,-7254.018232,-536.266849,-0.000000
1395.429949,-888.247130,-1608.800546,-3108.864956
1395.430260,3034.844362,153.219100,-4145.153275
1395.430572,2220.617826,-383.047749,-4293.194464
1395.430883,-2886.803174,919.314598,-1776.494261
1395.431195,-9918.759623,0.000000,1110.308913
1395.431506,-16506.592507,-383.047749,2886.803174
1395.431817,-18579.169144,612.876398,5107.421000
1395.432129,-17542.880825,1532.190996,3849.070898
1395.432440,-12583.501014,1455.581446,3775.050304
1395.432752,-8142.265362,-536.266849,1776.494261
1395.433063,-3330.926739,-1378.971896,-0.000000
1395.433374,-148.041188,-1608.800546,-1184.329507
1395.433686,74.020594,-612.876398,-1776.494261
1395.433997,-2664.741391,612.876398,-962.267725
1395.434309,-8068.244768,1455.581446,444.123565
1395.434620,-12953.603985,1532.190996,2072.576638
1395.434931,-15248.242405,2298.286494,3478.967927
1395.435243,-15618.345376,2374.896044,4589.276840
1395.435554,-12065.356855,995.924147,3997.112087
1395.435866,-7698.141797,-536.266849,2516.700203
1395.436177,-4737.318029,-2451.505594,666.185348
1395.436488,-1998.556043,-1838.629195,148.041188
1395.436800,-2072.576638,-1532.190996,-740.205942
1395.437111,-3849.070898,-153.219100,296.082377
1395.437422,-8068.244768,-1149.143247,2220.617826
1395.437734,-13915.871710,-1378.971896,3775.050304
1395.438045,-16506.592507,-229.828649,6217.729913
1395.438357,-16432.571912,612.876398,5033.400406
1395.438668,-11251.130318,919.314598,4145.153275
1395.438979,-5551.544565,0.000000,1184.329507
1395.439291,-1554.432478,-229.828649,-1776.494261
1395.439602,518.144159,-995.924147,-2516.700203
1395.439914,-1184.329507,-766.095498,-1850.514855
1395.440225,-6365.771101,-153.219100,-0.000000
1395.440536,-12435.459826,0.000000,2368.659014
1395.440848,-17616.901420,-1072.533697,4145.153275
1395.441159,-18431.127956,0.000000,4589.276840
1395.441471,-15988.448347,1455.581446,3256.906145
1395.441782,-9548.656652,2298.286494,592.164754
1395.442093,-3997.112087,1532.190996,-2886.803174
1395.442405,-370.102971,153.219100,-4737.318029
1395.442716,518.144159,0.000000,-5107.421000
1395.443027,-2664.741391,0.000000,-4071.132681
1395.443339,-7920.203579,229.828649,-1036.288319
1395.443650,-13841.851115,-536.266849,1776.494261
1395.443962,-19689.478057,-2068.457845,4145.153275
1395.444273,-20799.786970,-1762.019645,5625.565159
1395.444584,-16876.695478,0.000000,3552.988522
1395.444896,-10214.842000,-383.047749,1184.329507
1395.445207,-3034.844362,-1378.971896,-2738.761985
1395.445519,1184.329507,-536.266849,-5403.503377
1395.445830,1036.288319,459.657299,-4811.338623
1395.446141,-2442.679609,-229.828649,-3701.029710
1395.446453,-6809.894666,-689.485948,-1480.411884
1395.446764,-12731.542202,-842.705048,1184.329507
1395.447076,-16654.633695,-153.219100,3108.864956
1395.447387,-17912.983796,-612.876398,3552.988522
1395.447698,-16728.654289,0.000000,1924.535449
1395.448010,-12435.459826,306.438199,-148.041188
1395.448321,-6661.853478,-612.876398,-2072.576638
1395.448632,-3182.885551,-1762.019645,-4145.153275
1395.448944,-1776.494261,-842.705048,-4589.276840
