#time,accel_x,accel_y,accel_z
1437.335716,-8882.471304,-229.828649,666.185348
1437.336027,-8734.430116,0.000000,592.164754
1437.336339,-9030.512492,0.000000,592.164754
1437.336650,-8956.491898,-536.266849,370.102971
1437.336962,-8734.430116,0.000000,740.205942
1437.337274,-8882.471304,0.000000,666.185348
1437.337585,-9030.512492,0.000000,444.123565
1437.337897,-8956.491898,0.000000,370.102971
1437.338208,-9030.512492,-153.219100,444.123565
1437.338520,-8734.430116,306.438199,370.102971
1437.338832,-8808.450710,76.609550,444.123565
1437.339143,-8956.491898,-153.219100,518.144159
1437.339455,-8956.491898,-229.828649,444.123565
1437.339766,-8956.491898,-153.219100,592.164754
1437.340078,-8808.450710,0.000000,296.082377
1437.340390,-8882.471304,0.000000,518.144159
1437.340701,-8512.368333,0.000000,592.164754
1437.341013,-9178.553681,-229.828649,222.061783
1437.341324,-9104.533087,229.828649,740.205942
1437.341636,-8660.409521,0.000000,444.123565
1437.341948,-8882.471304,-229.828649,444.123565
1437.342259,-9104.533087,0.000000,518.144159
1437.342571,-8734.430116,0.000000,444.123565
1437.342882,-9030.512492,0.000000,592.164754
1437.343194,-8660.409521,76.609550,592.164754
1437.343506,-8808.450710,306.438199,370.102971
1437.343817,-9178.553681,306.438199,518.144159
1437.344129,-9104.533087,0.000000,518.144159
1437.344440,-8882.471304,0.000000,740.205942
1437.344752,-8956.491898,0.000000,518.144159
1437.345064,-8734.430116,0.000000,592.164754
1437.345375,-8734.430116,0.000000,592.164754
1437.345687,-8586.388927,-306.438199,296.082377
1437.345998,-8956.491898,0.000000,222.061783
1437.346310,-8956.491898,-383.047749,370.102971
1437.346622,-8956.491898,76.609550,222.061783
1437.346933,-9030.512492,0.000000,518.144159
1437.347245,-9030.512492,0.000000,518.144159
1437.347556,-8808.450710,0.000000,518.144159
1437.347868,-9030.512492,-229.828649,444.123565
1437.348180,-8734.430116,0.000000,444.123565
1437.348491,-8882.471304,76.609550,296.082377
1437.348803,-9252.574275,0.000000,518.144159
1437.349114,-8956.491898,-459.657299,592.164754
1437.349426,-8956.491898,0.000000,518.144159
1437.349738,-8956.491898,0.000000,296.082377
1437.350049,-8956.491898,76.609550,592.164754
1437.350361,-8808.450710,-229.828649,444.123565
1437.350672,-8660.409521,0.000000,592.164754
1437.350984,-8734.430116,76.609550,740.205942
1437.351296,-8586.388927,-229.828649,740.205942
1437.351607,-8660.409521,-383.047749,666.185348
1437.351919,-9030.512492,-306.438199,444.123565
1437.352230,-8808.450710,-229.828649,592.164754
1437.352542,-8882.471304,0.000000,592.164754
1437.352854,-8586.388927,-383.047749,666.185348
1437.353165,-9104.533087,-306.438199,-0.000000
1437.353477,-8808.450710,153.219100,1110.308913
1437.353788,-8364.327145,76.609550,740.205942
1437.354100,-9252.574275,0.000000,592.164754
1437.354412,-8808.450710,0.000000,518.144159
1437.354723,-8956.491898,-229.828649,518.144159
1437.355035,-9030.512492,0.000000,740.205942
1437.355346,-8882.471304,0.000000,148.041188
1437.355658,-8808.450710,76.609550,592.164754
1437.355970,-8882.471304,-612.876398,370.102971
1437.356281,-8956.491898,153.219100,592.164754
1437.356593,-8956.491898,-153.219100,592.164754
1437.356904,-8956.491898,-153.219100,518.144159
1437.357216,-9104.533087,0.000000,592.164754
1437.357528,-9030.512492,0.000000,518.144159
1437.357839,-8956.491898,0.000000,814.226536
1437.358151,-8956.491898,383.047749,370.102971
1437.358462,-9252.574275,-229.828649,370.102971
1437.358774,-8808.450710,-153.219100,666.185348
1437.359086,-8956.491898,0.000000,444.123565
1437.359397,-8882.471304,0.000000,518.144159
1437.359709,-9030.512492,0.000000,518.144159
1437.360020,-8882.471304,0.000000,592.164754
1437.360332,-8660.409521,0.000000,592.164754
1437.360644,-9252.574275,-229.828649,370.102971
1437.360955,-8512.368333,459.657299,814.226536
1437.361267,-8808.450710,-153.219100,444.123565
1437.361578,-8882.471304,0.000000,666.185348
1437.361890,-9030.512492,0.000000,370.102971
1437.362202,-8956.491898,-153.219100,518.144159
1437.362513,-8808.450710,153.219100,444.123565
1437.362825,-9104.533087,-229.828649,370.102971
1437.363136,-8882.471304,-306.438199,148.041188
1437.363448,-9104.533087,0.000000,222.061783
1437.363760,-8956.491898,0.000000,444.123565
1437.364071,-8734.430116,-153.219100,518.144159
1437.364383,-8882.471304,0.000000,592.164754
1437.364694,-9030.512492,-229.828649,518.144159
1437.365006,-10732.986159,306.438199,518.144159
1437.365318,-11325.150913,2298.286494,296.082377
1437.365629,-8808.450710,4749.792088,518.144159
1437.365941,-7476.080014,4366.744339,666.185348
1437.366252,-6735.874072,1455.581446,1554.432478
1437.366564,-6957.935855,-1149.143247,-0.000000
1437.366876,-7550.100608,-1225.752797,-74.020594
1437.367187,-7476.080014,-383.047749,-0.000000
1437.367499,-11399.171507,-689.485948,-1332.370696
1437.367810,-13101.645173,-1225.752797,-814.226536
1437.368122,-10436.903782,1149.143247,370.102971
1437.368434,-8956.491898,0.000000,962.267725
1437.368745,-8660.409521,-306.438199,2738.761985
1437.369057,-11547.212695,0.000000,1554.432478
1437.369368,-9178.553681,4213.525239,2442.679609
1437.369680,-5107.421000,5822.325785,2516.700203
1437.369992,-7179.997637,3370.820191,1184.329507
1437.370303,-8364.327145,2604.724693,-518.144159
1437.370615,-7402.059420,3294.210641,-1776.494261
1437.370926,-9030.512492,3217.601092,-1554.432478
1437.371238,-8586.388927,3907.087040,-148.041188
1437.371550,-11621.233289,2681.334243,-1554.432478
1437.371861,-14137.933492,-919.314598,370.102971
1437.372173,-8512.368333,-1455.581446,2960.823768
1437.372484,-9696.697840,0.000000,962.267725
1437.372796,-9030.512492,4596.572988,2886.803174
1437.373108,-7328.038826,5975.544884,1406.391290
1437.373419,-7328.038826,3294.210641,2146.597232
1437.373731,-6809.894666,3907.087040,2368.659014
1437.374042,-8216.285956,6511.811733,666.185348
1437.374354,-9030.512492,7048.078582,-740.205942
1437.374666,-9104.533087,5515.887586,-814.226536
1437.374977,-9474.636058,4366.744339,-1036.288319
1437.375289,-9548.656652,5056.230287,-962.267725
1437.375600,-11251.130318,5209.449386,148.041188
1437.375912,-10955.047942,4826.401637,1036.288319
1437.376224,-10066.800811,4136.915689,1776.494261
1437.376535,-9178.553681,5056.230287,2146.597232
1437.376847,-7328.038826,5822.325785,1850.514855
1437.377158,-5625.565159,6281.983084,-0.000000
1437.377470,-5699.585753,5745.716235,740.205942
1437.377782,-5329.482782,5592.497135,296.082377
1437.378093,-6217.729913,4213.525239,-1184.329507
1437.378405,-8364.327145,3753.867940,-666.185348
1437.378716,-9252.574275,3217.601092,-592.164754
1437.379028,-10510.924376,2681.334243,444.123565
1437.379340,-10881.027347,383.047749,740.205942
1437.379651,-10510.924376,-229.828649,1480.411884
1437.379963,-10510.924376,919.314598,1110.308913
1437.380274,-9696.697840,2834.553343,2072.576638
1437.380586,-8290.306550,4213.525239,2146.597232
1437.380898,-7402.059420,3677.258390,-0.000000
1437.381209,-6587.832884,3983.696590,-0.000000
1437.381521,-7105.977043,3753.867940,-592.164754
1437.381832,-6365.771101,3677.258390,-814.226536
1437.382144,-7328.038826,2221.676944,-1628.453072
1437.382456,-8512.368333,0.000000,-962.267725
1437.382767,-10140.821405,-2145.067394,-370.102971
1437.383079,-11843.295072,-2528.115143,1110.308913
1437.383390,-13027.624579,-1991.848295,2146.597232
1437.383702,-13545.768739,-995.924147,1628.453072
1437.384014,-12731.542202,842.705048,1332.370696
1437.384325,-11547.212695,2681.334243,-0.000000
1437.384637,-7994.224174,4673.182538,-444.123565
1437.384948,-6069.688724,4673.182538,-444.123565
1437.385260,-5551.544565,4136.915689,740.205942
1437.385572,-6513.812290,3677.258390,888.247130
1437.385883,-8068.244768,2757.943793,666.185348
1437.386195,-10288.862594,1532.190996,148.041188
1437.386506,-12213.398043,612.876398,148.041188
1437.386818,-13175.665768,-612.876398,-222.061783
1437.387130,-13397.727550,-536.266849,-74.020594
1437.387441,-13027.624579,76.609550,222.061783
1437.387753,-11991.336260,2068.457845,370.102971
1437.388064,-9992.780217,3524.039291,1554.432478
1437.388376,-7624.121203,4519.963438,1702.473667
1437.388688,-4959.379811,5056.230287,1998.556043
1437.388999,-2738.761985,5439.278036,666.185348
1437.389311,-1924.535449,6435.202183,-592.164754
1437.389622,-2664.741391,5515.887586,-2072.576638
1437.389934,-6217.729913,3830.477490,-1850.514855
1437.390246,-10658.965565,2834.553343,-1554.432478
1437.390557,-13693.809927,2451.505594,148.041188
1437.390869,-15174.221811,2298.286494,2220.617826
1437.391180,-14952.160028,2068.457845,3478.967927
1437.391492,-12139.377449,2451.505594,3330.926739
1437.391804,-8734.430116,3370.820191,2368.659014
1437.392115,-3775.050304,4213.525239,1776.494261
1437.392427,-2146.597232,5439.278036,296.082377
1437.392738,-3552.988522,6894.859482,-1184.329507
1437.393050,-3182.885551,8044.002729,-1776.494261
1437.393362,-6291.750507,6205.373534,-2368.659014
1437.393673,-8808.450710,3983.696590,-296.082377
1437.393985,-8882.471304,2068.457845,370.102971
1437.394296,-10955.047942,-842.705048,148.041188
1437.394608,-11399.171507,-2298.286494,1850.514855
1437.394920,-12509.480420,-1991.848295,1332.370696
1437.395231,-13471.748144,-306.438199,518.144159
1437.395543,-12435.459826,2298.286494,1924.535449
1437.395854,-10732.986159,3907.087040,1776.494261
1437.396166,-9104.533087,5592.497135,1924.535449
1437.396478,-6291.750507,6358.592633,2220.617826
1437.396789,-5921.647536,4290.134789,296.082377
1437.397101,-6069.688724,2451.505594,-148.041188
1437.397412,-7031.956449,2604.724693,-1406.391290
1437.397724,-9178.553681,3753.867940,-2590.720797
1437.398036,-10362.883188,3677.258390,-2664.741391
1437.398347,-11917.315666,2834.553343,-962.267725
1437.398659,-12361.439231,1225.752797,-0.000000
1437.398970,-11991.336260,536.266849,1554.432478
1437.399282,-12879.583391,995.924147,2738.761985
1437.399594,-12065.356855,3677.258390,2442.679609
1437.399905,-10881.027347,5592.497135,1776.494261
1437.400217,-8364.327145,7201.297681,444.123565
1437.400528,-5847.626942,6511.811733,-592.164754
1437.400840,-5107.421000,4826.401637,-1554.432478
1437.401152,-5699.585753,2757.943793,-962.267725
1437.401463,-6957.935855,2298.286494,-592.164754
1437.401775,-7698.141797,1378.971896,518.144159
1437.402086,-8808.450710,-1072.533697,1036.288319
1437.402398,-8734.430116,-3140.991542,1998.556043
1437.402710,-8882.471304,-3600.648841,1628.453072
1437.403021,-9178.553681,-766.095498,888.247130
1437.403333,-9844.739029,3830.477490,-222.061783
1437.403644,-11177.109724,7584.345430,-1036.288319
1437.403956,-11547.212695,9422.974625,-296.082377
1437.404268,-10436.903782,8197.221829,1554.432478
1437.404579,-9326.594869,5592.497135,1628.453072
1437.404891,-8216.285956,3217.601092,1850.514855
1437.405202,-7105.977043,3677.258390,1110.308913
1437.405514,-6069.688724,4596.572988,740.205942
1437.405826,-4515.256246,4519.963438,222.061783
1437.406137,-4515.256246,766.095498,296.082377
1437.406449,-6587.832884,-536.266849,-518.144159
1437.406760,-8364.327145,1225.752797,-1258.350101
1437.407072,-11325.150913,5592.497135,-1258.350101
1437.407384,-12509.480420,8273.831378,-666.185348
1437.407695,-13249.686362,7124.688131,888.247130
1437.408007,-13471.748144,3217.601092,2738.761985
1437.408318,-12435.459826,229.828649,3330.926739
1437.408630,-10362.883188,2221.676944,3330.926739
1437.408941,-7402.059420,3753.867940,1998.556043
1437.409253,-4737.318029,1762.019645,1258.350101
1437.409564,-3775.050304,-3370.820191,1036.288319
1437.409876,-5699.585753,-7584.345430,296.082377
1437.410188,-5477.523971,-4366.744339,-444.123565
1437.410499,-6735.874072,2681.334243,-1702.473667
1437.410811,-9918.759623,5745.716235,-962.267725
1437.411122,-13767.830521,3907.087040,814.226536
1437.411434,-16728.654289,842.705048,2294.638420
1437.411745,-15396.283594,3830.477490,3108.864956
1437.412057,-12731.542202,8427.050478,2664.741391
1437.412368,-8660.409521,8273.831378,1554.432478
1437.412680,-4737.318029,3830.477490,222.061783
1437.412991,-1850.514855,-1072.533697,-888.247130
1437.413303,222.061783,-1072.533697,-814.226536
1437.413614,-1184.329507,2068.457845,-814.226536
1437.413926,-6957.935855,4213.525239,-888.247130
1437.414237,-13175.665768,1225.752797,148.041188
1437.414549,-16728.654289,229.828649,666.185348
1437.414861,-16432.571912,2987.772442,592.164754
1437.415172,-13619.789333,5745.716235,518.144159
1437.415484,-12065.356855,3524.039291,-1036.288319
1437.415795,-10807.006753,459.657299,-1258.350101
1437.416107,-6069.688724,76.609550,-1554.432478
1437.416418,-3849.070898,1838.629195,-222.061783
1437.416730,-4515.256246,1532.190996,1850.514855
1437.417041,-7476.080014,-1378.971896,2886.803174
1437.417353,-10584.944971,-2987.772442,2960.823768
1437.417664,-9622.677246,306.438199,2960.823768
1437.417976,-8882.471304,6281.983084,148.041188
1437.418287,-10510.924376,7814.174080,-2220.617826
1437.418599,-8956.491898,5439.278036,-3256.906145
1437.418910,-8068.244768,4136.915689,-4441.235652
1437.419222,-7994.224174,5592.497135,-2590.720797
1437.419534,-11695.253884,7890.783629,-1850.514855
1437.419845,-13989.892304,5898.935335,888.247130
1437.420157,-12065.356855,383.047749,3404.947333
1437.420468,-8956.491898,-3830.477490,5255.462188
1437.420780,-4885.359217,-3064.381992,3923.091493
1437.421091,-4219.173869,-1149.143247,740.205942
1437.421403,-4145.153275,-536.266849,-666.185348
1437.421714,-1480.411884,-383.047749,-1184.329507
1437.422026,-5699.585753,1532.190996,-740.205942
1437.422337,-12657.521608,2221.676944,-370.102971
1437.422649,-15396.283594,3294.210641,1628.453072
1437.422960,-14730.098246,2681.334243,3627.009116
1437.423272,-11177.109724,612.876398,3701.029710
1437.423583,-9474.636058,-766.095498,1776.494261
1437.423895,-5773.606348,-1532.190996,-518.144159
1437.424207,-2886.803174,-2834.553343,-814.226536
1437.424518,-2442.679609,-4213.525239,370.102971
1437.424830,-5921.647536,-4290.134789,1036.288319
1437.425141,-10658.965565,-3753.867940,1924.535449
1437.425453,-10436.903782,-3447.429741,3108.864956
1437.425764,-9918.759623,-4596.572988,3256.906145
1437.426076,-9992.780217,-3447.429741,1998.556043
1437.426387,-9252.574275,-2604.724693,-1480.411884
1437.426699,-7698.141797,-1532.190996,-2738.761985
1437.427010,-7772.162391,-229.828649,-1480.411884
1437.427322,-10807.006753,-842.705048,148.041188
1437.427633,-13545.768739,-2374.896044,1184.329507
1437.427945,-13545.768739,-3064.381992,2886.803174
1437.428256,-11399.171507,-2834.553343,3775.050304
1437.428568,-10362.883188,-689.485948,2516.700203
1437.428880,-8734.430116,612.876398,-1184.329507
1437.429191,-5255.462188,2068.457845,-2886.803174
1437.429503,-4589.276840,2528.115143,-2442.679609
1437.429814,-7476.080014,4366.744339,-2368.659014
1437.430126,-12139.377449,5515.887586,-2516.700203
1437.430437,-14137.933492,4290.134789,-1850.514855
1437.430749,-13323.706956,2834.553343,222.061783
1437.431060,-12879.583391,2374.896044,592.164754
1437.431372,-11843.295072,1455.581446,-592.164754
1437.431683,-7846.182985,-229.828649,-740.205942
1437.431995,-4737.318029,-2374.896044,1184.329507
1437.432306,-6365.771101,-1838.629195,2960.823768
1437.432618,-8956.491898,1455.581446,2368.659014
1437.432930,-10510.924376,2374.896044,1184.329507
1437.433241,-8438.347739,2757.943793,1184.329507
1437.433553,-8068.244768,3907.087040,-296.082377
1437.433864,-7550.100608,5132.839837,-2812.782580
1437.434176,-5329.482782,4443.353888,-4367.215058
1437.434487,-4441.235652,1149.143247,-2294.638420
1437.434799,-6439.791695,-2451.505594,888.247130
1437.435110,-11843.295072,-2987.772442,2368.659014
1437.435422,-12583.501014,-3217.601092,3256.906145
1437.435733,-10807.006753,-2911.162892,4589.276840
1437.436045,-8882.471304,-3524.039291,5477.523971
1437.436356,-6217.729913,-1378.971896,2368.659014
1437.436668,-3701.029710,689.485948,-74.020594
1437.436979,-592.164754,229.828649,-222.061783
1437.437291,-1628.453072,306.438199,962.267725
1437.437603,-6439.791695,842.705048,1110.308913
1437.437914,-9104.533087,459.657299,1110.308913
1437.438226,-9326.594869,-2068.457845,1406.391290
1437.438537,-9844.739029,-2681.334243,2072.576638
1437.438849,-10807.006753,-1532.190996,444.123565
1437.439160,-11399.171507,-1608.800546,-1850.514855
1437.439472,-10214.842000,-2451.505594,-0.000000
1437.439783,-11177.109724,-2987.772442,2072.576638
1437.440095,-13101.645173,-1991.848295,2072.576638
1437.440406,-13915.871710,0.000000,1776.494261
1437.440718,-10436.903782,-459.657299,2220.617826
1437.441029,-6809.894666,-1762.019645,1332.370696
1437.441341,-5921.647536,-1455.581446,-740.205942
1437.441652,-4959.379811,153.219100,-3330.926739
1437.441964,-4441.235652,-842.705048,-3627.009116
1437.442276,-8216.285956,-3294.210641,-962.267725
1437.442587,-13249.686362,-3217.601092,1554.432478
1437.442899,-19023.292709,-2374.896044,518.144159
1437.443210,-18505.148550,-1608.800546,2812.782580
1437.443522,-15692.365970,-1762.019645,3997.112087
1437.443833,-13101.645173,-459.657299,2516.700203
1437.444145,-10066.800811,1838.629195,-296.082377
1437.444456,-5847.626942,3447.429741,-2442.679609
1437.444768,-3552.988522,3983.696590,-1776.494261
1437.445079,-6957.935855,5745.716235,-1998.556043
1437.445391,-9696.697840,7277.907231,-2220.617826
1437.445702,-9474.636058,4979.620737,-2294.638420
1437.446014,-8290.306550,1302.362347,-222.061783
1437.446325,-7179.997637,1149.143247,814.226536
1437.446637,-7624.121203,1302.362347,-1184.329507
1437.446949,-5403.503377,383.047749,-74.020594
1437.447260,-6069.688724,-2068.457845,1998.556043
1437.447572,-7920.203579,-1302.362347,3108.864956
1437.447883,-9696.697840,1455.581446,1628.453072
1437.448195,-8438.347739,2374.896044,1258.350101
1437.448506,-5699.585753,1532.190996,2294.638420
1437.448818,-6291.750507,536.266849,814.226536
1437.449129,-4737.318029,1762.019645,-2072.576638
1437.449441,-2960.823768,1455.581446,-2516.700203
1437.449752,-4515.256246,-1991.848295,-222.061783
1437.450064,-8142.265362,-2528.115143,1924.535449
1437.450375,-13471.748144,-2298.286494,1258.350101
1437.450687,-13693.809927,-2681.334243,2960.823768
1437.450998,-11843.295072,-4749.792088,5699.585753
1437.451310,-9992.780217,-4519.963438,4219.173869
1437.451622,-8290.306550,-2068.457845,814.226536
1437.451933,-5181.441594,-766.095498,-1258.350101
1437.452245,-2664.741391,-1532.190996,-1036.288319
1437.452556,-4959.379811,-1302.362347,-0.000000
1437.452868,-9326.594869,536.266849,-1332.370696
1437.453179,-9992.780217,0.000000,-370.102971
1437.453491,-10214.842000,-1915.238745,1628.453072
1437.453802,-10955.047942,-3294.210641,2664.741391
1437.454114,-13397.727550,-1685.410096,518.144159
1437.454425,-12583.501014,842.705048,-888.247130
1437.454737,-10436.903782,459.657299,296.082377
1437.455048,-11843.295072,-306.438199,666.185348
1437.455360,-13989.892304,0.000000,1036.288319
1437.455671,-14063.912898,536.266849,222.061783
1437.455983,-11843.295072,306.438199,370.102971
1437.456295,-9622.677246,1149.143247,740.205942
1437.456606,-9474.636058,2298.286494,-2072.576638
1437.456918,-7772.162391,1685.410096,-3404.947333
1437.457229,-5773.606348,-153.219100,-1850.514855
1437.457541,-7846.182985,-1915.238745,222.061783
1437.457852,-11843.295072,0.000000,1184.329507
1437.458164,-14211.954086,1915.238745,2516.700203
1437.458475,-12213.398043,229.828649,4071.132681
1437.458787,-10362.883188,-995.924147,4293.194464
1437.459098,-9326.594869,1532.190996,1554.432478
1437.459410,-6957.935855,4673.182538,-2294.638420
1437.459721,-3849.070898,4290.134789,-2886.803174
1437.460033,-2368.659014,3753.867940,-2738.761985
1437.460344,-5625.565159,3294.210641,-1776.494261
1437.460656,-8142.265362,2604.724693,-814.226536
1437.460968,-8586.388927,612.876398,666.185348
1437.461279,-8216.285956,-919.314598,2516.700203
1437.461591,-8438.347739,-689.485948,2442.679609
1437.461902,-6291.750507,-229.828649,1258.350101
1437.462214,-4885.359217,-2528.115143,1036.288319
1437.462525,-5551.544565,-4136.915689,2516.700203
1437.462837,-7031.956449,-2911.162892,1998.556043
1437.463148,-8808.450710,-536.266849,1332.370696
1437.463460,-8068.244768,-153.219100,1554.432478
1437.463771,-7179.997637,-1608.800546,2368.659014
1437.464083,-5995.668130,-1608.800546,296.082377
1437.464394,-4589.276840,536.266849,-2590.720797
1437.464706,-3552.988522,-153.219100,-3404.947333
1437.465017,-5847.626942,-1455.581446,-1184.329507
1437.465329,-10732.986159,-1455.581446,888.247130
1437.465641,-14285.974681,-1072.533697,1110.308913
1437.465952,-14952.160028,-2068.457845,2960.823768
1437.466264,-14434.015869,-3064.381992,3997.112087
1437.466575,-12879.583391,-1225.752797,2590.720797
1437.466887,-10881.027347,383.047749,-1628.453072
1437.467198,-8068.244768,919.314598,-2664.741391
1437.467510,-7476.080014,-76.609550,-2220.617826
1437.467821,-9252.574275,306.438199,-1110.308913
1437.468133,-11843.295072,766.095498,-740.205942
1437.468444,-12139.377449,-459.657299,666.185348
1437.468756,-10955.047942,-2834.553343,2368.659014
1437.469067,-11547.212695,-2911.162892,2146.597232
1437.469379,-11843.295072,-689.485948,592.164754
1437.469690,-9622.677246,0.000000,-740.205942
1437.470002,-9252.574275,-536.266849,370.102971
1437.470314,-12879.583391,383.047749,444.123565
1437.470625,-14656.077652,3064.381992,592.164754
1437.470937,-13915.871710,3217.601092,-74.020594
1437.471248,-10955.047942,1838.629195,1554.432478
1437.471560,-7254.018232,1762.019645,1776.494261
1437.471871,-7179.997637,1455.581446,-1702.473667
1437.472183,-3478.967927,2681.334243,-2294.638420
1437.472494,-2442.679609,1378.971896,-1110.308913
1437.472806,-5033.400406,459.657299,1480.411884
1437.473117,-8364.327145,1072.533697,2516.700203
1437.473429,-9622.677246,536.266849,2664.741391
1437.473740,-6883.915261,0.000000,4737.318029
1437.474052,-6809.894666,-1378.971896,4071.132681
1437.474363,-5699.585753,76.609550,1036.288319
1437.474675,-3627.009116,1455.581446,-1480.411884
1437.474987,-3108.864956,0.000000,-1702.473667
1437.475298,-3997.112087,-689.485948,-370.102971
1437.475610,-8586.388927,153.219100,-888.247130
1437.475921,-10510.924376,306.438199,444.123565
1437.476233,-9252.574275,-1532.190996,2072.576638
1437.476544,-8956.491898,-2221.676944,3108.864956
1437.476856,-8142.265362,-2068.457845,2294.638420
1437.477167,-6735.874072,-2681.334243,444.123565
1437.477479,-5625.565159,-2528.115143,1184.329507
1437.477790,-6883.915261,-1838.629195,1702.473667
1437.478102,-9622.677246,0.000000,814.226536
1437.478413,-10658.965565,919.314598,962.267725
1437.478725,-10140.821405,-459.657299,1184.329507
1437.479036,-9474.636058,-1455.581446,74.020594
1437.479348,-9622.677246,1225.752797,-2294.638420
1437.479660,-10214.842000,2221.676944,-4959.379811
1437.479971,-9326.594869,1915.238745,-3034.844362
1437.480283,-11251.130318,383.047749,-666.185348
1437.480594,-15174.221811,0.000000,666.185348
1437.480906,-16580.613101,919.314598,1628.453072
1437.481217,-15322.262999,153.219100,3404.947333
1437.481529,-12879.583391,-153.219100,4145.153275
1437.481840,-11103.089130,0.000000,1110.308913
1437.482152,-10214.842000,1302.362347,-2738.761985
1437.482463,-7105.977043,2068.457845,-3478.967927
1437.482775,-6217.729913,612.876398,-2368.659014
1437.483086,-10066.800811,842.705048,-962.267725
1437.483398,-13027.624579,536.266849,-0.000000
1437.483709,-13027.624579,-536.266849,1554.432478
1437.484021,-11177.109724,-1072.533697,4145.153275
1437.484333,-9992.780217,-919.314598,3701.029710
1437.484644,-7698.141797,306.438199,962.267725
1437.484956,-3775.050304,1225.752797,-518.144159
1437.485267,-2960.823768,1302.362347,148.041188
1437.485579,-6291.750507,2068.457845,1406.391290
1437.485890,-9474.636058,2145.067394,-0.000000
1437.486202,-9104.533087,1685.410096,740.205942
1437.486513,-6661.853478,-306.438199,2516.700203
1437.486825,-5477.523971,-1608.800546,1776.494261
1437.487136,-5255.462188,-1838.629195,-518.144159
1437.487448,-3627.009116,-2604.724693,-814.226536
1437.487759,-3108.864956,-5056.230287,1406.391290
1437.488071,-5921.647536,-3907.087040,3108.864956
1437.488382,-9696.697840,-1072.533697,2516.700203
1437.488694,-11399.171507,-459.657299,3108.864956
1437.489006,-9622.677246,-2451.505594,3923.091493
1437.489317,-5995.668130,-842.705048,3034.844362
1437.489629,-5921.647536,229.828649,-1184.329507
1437.489940,-5181.441594,153.219100,-2738.761985
1437.490252,-4293.194464,0.000000,-1628.453072
1437.490563,-8068.244768,306.438199,-1036.288319
1437.490875,-12361.439231,1302.362347,-740.205942
1437.491186,-14285.974681,1685.410096,-740.205942
1437.491498,-13323.706956,153.219100,370.102971
1437.491809,-11325.150913,-383.047749,962.267725
1437.492121,-10732.986159,0.000000,-962.267725
1437.492432,-9474.636058,842.705048,-2294.638420
1437.492744,-8586.388927,229.828649,-74.020594
1437.493055,-10584.944971,-766.095498,1184.329507
1437.493367,-12805.562797,76.609550,1850.514855
1437.493679,-13693.809927,2451.505594,222.061783
1437.493990,-12139.377449,1915.238745,74.020594
1437.494302,-9548.656652,919.314598,-370.102971
1437.494613,-9548.656652,1991.848295,-1998.556043
1437.494925,-9400.615463,2374.896044,-3256.906145
1437.495236,-8290.306550,459.657299,-1850.514855
1437.495548,-10658.965565,-1302.362347,592.164754
1437.495859,-14137.933492,919.314598,2072.576638
1437.496171,-14285.974681,1378.971896,1924.535449
1437.496482,-11991.336260,-612.876398,2960.823768
1437.496794,-9178.553681,-1685.410096,3404.947333
1437.497105,-7031.956449,536.266849,740.205942
1437.497417,-5033.400406,2987.772442,-2220.617826
1437.497728,-2664.741391,2604.724693,-1628.453072
1437.498040,-4219.173869,766.095498,592.164754
1437.498352,-8660.409521,-612.876398,2368.659014
1437.498663,-8586.388927,229.828649,2664.741391
1437.498975,-8068.244768,-842.705048,3404.947333
1437.499286,-7031.956449,-2757.943793,4885.359217
1437.499598,-5847.626942,-1838.629195,2442.679609
1437.499909,-6291.750507,-306.438199,-666.185348
1437.500221,-4515.256246,0.000000,-1036.288319
1437.500532,-4663.297435,-1302.362347,1184.329507
1437.500844,-7105.977043,-1685.410096,740.205942
1437.501155,-10436.903782,-536.266849,444.123565
1437.501467,-9844.739029,-2834.553343,1998.556043
1437.501778,-7254.018232,-4366.744339,2812.782580
1437.502090,-6439.791695,-3217.601092,1480.411884
1437.502401,-5847.626942,-1762.019645,-1110.308913
1437.502713,-6587.832884,-2451.505594,-1776.494261
1437.503025,-7179.997637,-2987.772442,-222.061783
1437.503336,-10066.800811,-1149.143247,814.226536
1437.503648,-12879.583391,229.828649,666.185348
1437.503959,-12657.521608,919.314598,1776.494261
1437.504271,-12065.356855,0.000000,2146.597232
1437.504582,-10140.821405,-306.438199,592.164754
1437.504894,-8438.347739,1685.410096,-2220.617826
1437.505205,-6809.894666,3677.258390,-3330.926739
1437.505517,-6809.894666,2451.505594,-2442.679609
1437.505828,-11473.192101,536.266849,-1776.494261
1437.506140,-14730.098246,536.266849,-814.226536
1437.506451,-15544.324782,1532.190996,-148.041188
1437.506763,-13545.768739,919.314598,1406.391290
1437.507074,-13027.624579,0.000000,888.247130
1437.507386,-11843.295072,766.095498,-962.267725
1437.507697,-7920.203579,1685.410096,-1036.288319
1437.508009,-6661.853478,0.000000,592.164754
1437.508320,-8882.471304,766.095498,1850.514855
1437.508631,-11695.253884,2528.115143,1332.370696
1437.508943,-11547.212695,2757.943793,518.144159
1437.509254,-8734.430116,1455.581446,1924.535449
1437.509566,-7402.059420,766.095498,1110.308913
1437.509877,-6661.853478,1762.019645,-814.226536
1437.510188,-5033.400406,1302.362347,-2220.617826
1437.510500,-4737.318029,-153.219100,-74.020594
1437.510811,-7550.100608,-1072.533697,1480.411884
1437.511122,-10658.965565,536.266849,1998.556043
1437.511434,-11251.130318,995.924147,2368.659014
1437.511745,-9770.718434,-536.266849,3552.988522
1437.512056,-7179.997637,-1608.800546,3627.009116
1437.512368,-5625.565159,-383.047749,1184.329507
1437.512679,-3552.988522,229.828649,-370.102971
1437.512990,-1628.453072,-2451.505594,962.267725
1437.513302,-3478.967927,-5056.230287,1998.556043
1437.513613,-7105.977043,-3677.258390,1628.453072
1437.513925,-10510.924376,-2681.334243,2516.700203
1437.514236,-9918.759623,-3677.258390,3627.009116
1437.514547,-8290.306550,-4290.134789,3108.864956
1437.514859,-8438.347739,-3140.991542,1480.411884
1437.515170,-7254.018232,-1378.971896,-888.247130
1437.515481,-6069.688724,-1149.143247,-1110.308913
1437.515793,-7994.224174,-995.924147,-740.205942
1437.516104,-11325.150913,689.485948,-370.102971
1437.516415,-12435.459826,2145.067394,-962.267725
1437.516727,-12361.439231,1225.752797,-592.164754
1437.517038,-11029.068536,-306.438199,444.123565
1437.517350,-10658.965565,0.000000,-1406.391290
1437.517661,-9326.594869,1225.752797,-3182.885551
1437.517972,-7179.997637,766.095498,-2294.638420
1437.518284,-8512.368333,-1685.410096,-518.144159
1437.518595,-11843.295072,-536.266849,1628.453072
1437.518906,-14508.036463,1225.752797,592.164754
1437.519218,-13323.706956,689.485948,2146.597232
1437.519529,-11399.171507,-995.924147,2368.659014
1437.519840,-10436.903782,0.000000,444.123565
1437.520152,-7476.080014,1915.238745,-2220.617826
1437.520463,-7846.182985,383.047749,-3923.091493
1437.520774,-9696.697840,-766.095498,-1406.391290
1437.521086,-11769.274478,2298.286494,-296.082377
1437.521397,-15026.180623,3830.477490,-0.000000
1437.521709,-13471.748144,1915.238745,1850.514855
1437.522020,-10584.944971,-383.047749,2738.761985
1437.522331,-8512.368333,153.219100,3256.906145
1437.522643,-3404.947333,2451.505594,222.061783
1437.522954,-1702.473667,2068.457845,-2442.679609
1437.523265,-3256.906145,2681.334243,-370.102971
1437.523577,-5033.400406,2145.067394,1110.308913
1437.523888,-8290.306550,1685.410096,370.102971
1437.524199,-9474.636058,612.876398,1998.556043
1437.524511,-9844.739029,306.438199,3849.070898
1437.524822,-7402.059420,-995.924147,3775.050304
1437.525133,-6069.688724,-536.266849,-0.000000
1437.525445,-4515.256246,-689.485948,-74.020594
1437.525756,-2072.576638,-1838.629195,296.082377
1437.526068,-5477.523971,-1455.581446,1036.288319
1437.526379,-9474.636058,-766.095498,1998.556043
1437.526690,-10807.006753,-1838.629195,2220.617826
1437.527002,-10066.800811,-3677.258390,4441.235652
1437.527313,-8660.409521,-3753.867940,4071.132681
1437.527624,-7550.100608,-2834.553343,222.061783
1437.527936,-5847.626942,-2145.067394,-2220.617826
1437.528247,-6439.791695,-2757.943793,-740.205942
1437.528558,-7328.038826,-3217.601092,-222.061783
1437.528870,-10955.047942,-1915.238745,222.061783
1437.529181,-13471.748144,-766.095498,1554.432478
1437.529493,-12361.439231,-1608.800546,3034.844362
1437.529804,-10955.047942,-2757.943793,1924.535449
1437.530115,-10584.944971,-612.876398,-814.226536
1437.530427,-8586.388927,2681.334243,-2738.761985
1437.530738,-6957.935855,2604.724693,-3182.885551
1437.531049,-10066.800811,536.266849,-1628.453072
1437.531361,-13471.748144,919.314598,-296.082377
1437.531672,-14582.057057,2145.067394,-888.247130
1437.531983,-13397.727550,1685.410096,518.144159
1437.532295,-11769.274478,536.266849,740.205942
1437.532606,-11177.109724,229.828649,-1628.453072
1437.532917,-8882.471304,459.657299,-2886.803174
1437.533229,-6957.935855,0.000000,-2072.576638
1437.533540,-8660.409521,0.000000,222.061783
1437.533852,-12509.480420,842.705048,1184.329507
1437.534163,-14211.954086,1225.752797,1480.411884
1437.534474,-10732.986159,2068.457845,2738.761985
1437.534786,-9178.553681,1072.533697,2368.659014
1437.535097,-7031.956449,2987.772442,814.226536
1437.535408,-4071.132681,3064.381992,-2368.659014
1437.535720,-2960.823768,2681.334243,-1998.556043
1437.536031,-4441.235652,1685.410096,592.164754
1437.536342,-7920.203579,2451.505594,740.205942
1437.536654,-10140.821405,2987.772442,1332.370696
1437.536965,-9918.759623,459.657299,1998.556043
1437.537276,-7920.203579,-1378.971896,2960.823768
1437.537588,-5995.668130,-536.266849,1110.308913
1437.537899,-4441.235652,689.485948,-1258.350101
1437.538211,-3701.029710,-1149.143247,-222.061783
1437.538522,-4293.194464,-3524.039291,1702.473667
1437.538833,-8068.244768,-2528.115143,2220.617826
1437.539145,-10658.965565,-612.876398,3034.844362
1437.539456,-10140.821405,-1225.752797,3552.988522
1437.539767,-8586.388927,-2374.896044,4811.338623
1437.540079,-6291.750507,-1991.848295,2960.823768
1437.540390,-5255.462188,-536.266849,-444.123565
1437.540701,-4589.276840,-383.047749,-1110.308913
1437.541013,-5107.421000,-1685.410096,74.020594
1437.541324,-9474.636058,-1915.238745,296.082377
1437.541636,-12731.542202,-1072.533697,518.144159
1437.541947,-13915.871710,153.219100,296.082377
1437.542258,-12805.562797,0.000000,1332.370696
1437.542570,-11843.295072,306.438199,296.082377
1437.542881,-10881.027347,-153.219100,-2294.638420
1437.543192,-7772.162391,0.000000,-2368.659014
1437.543504,-8290.306550,0.000000,-1554.432478
1437.543815,-10955.047942,766.095498,222.061783
1437.544126,-12953.603985,2145.067394,666.185348
1437.544438,-13175.665768,306.438199,1702.473667
1437.544749,-9844.739029,-1302.362347,3478.967927
1437.545060,-9474.636058,-1762.019645,2072.576638
1437.545372,-9696.697840,1225.752797,-888.247130
1437.545683,-7772.162391,2145.067394,-3404.947333
1437.545995,-8882.471304,1149.143247,-3330.926739
1437.546306,-10732.986159,1838.629195,-666.185348
1437.546617,-14285.974681,1991.848295,-888.247130
1437.546929,-15174.221811,459.657299,-0.000000
1437.547240,-11621.233289,-919.314598,2590.720797
1437.547551,-9326.594869,-1532.190996,2368.659014
1437.547863,-7179.997637,-229.828649,888.247130
1437.548174,-2812.782580,842.705048,-888.247130
1437.548485,-3404.947333,-306.438199,-148.041188
1437.548797,-4589.276840,-995.924147,2590.720797
1437.549108,-5699.585753,919.314598,740.205942
1437.549419,-8364.327145,1838.629195,1480.411884
1437.549731,-10362.883188,0.000000,2368.659014
1437.550042,-8438.347739,0.000000,3182.885551
1437.550354,-6217.729913,2068.457845,-0.000000
1437.550665,-4737.318029,1838.629195,-1480.411884
1437.550976,-2812.782580,-766.095498,-814.226536
1437.551288,-5181.441594,-919.314598,-148.041188
1437.551599,-8512.368333,766.095498,1628.453072
1437.551910,-10436.903782,-383.047749,2294.638420
1437.552222,-11399.171507,-2604.724693,3627.009116
1437.552533,-10288.862594,-3217.601092,4145.153275
1437.552844,-7772.162391,-2834.553343,592.164754
1437.553156,-5255.462188,-1915.238745,-962.267725
1437.553467,-4885.359217,-2068.457845,-888.247130
1437.553778,-7254.018232,-1915.238745,-74.020594
1437.554090,-10362.883188,-1838.629195,592.164754
1437.554401,-14359.995275,-842.705048,-0.000000
1437.554713,-12657.521608,1455.581446,1998.556043
1437.555024,-11399.171507,1072.533697,1850.514855
1437.555335,-9696.697840,766.095498,-74.020594
1437.555647,-7624.121203,2298.286494,-2294.638420
1437.555958,-6365.771101,2145.067394,-2368.659014
1437.556269,-8512.368333,766.095498,-592.164754
1437.556581,-13323.706956,1072.533697,222.061783
1437.556892,-15618.345376,1915.238745,518.144159
1437.557203,-15544.324782,1378.971896,296.082377
1437.557515,-12435.459826,-153.219100,888.247130
1437.557826,-10807.006753,383.047749,-518.144159
1437.558138,-9178.553681,1608.800546,-2368.659014
1437.558449,-6217.729913,842.705048,-1998.556043
1437.558760,-6513.812290,-612.876398,962.267725
1437.559072,-9844.739029,-689.485948,2072.576638
1437.559383,-12287.418637,995.924147,2220.617826
1437.559694,-10955.047942,1072.533697,2664.741391
1437.560006,-8512.368333,-229.828649,2590.720797
1437.560317,-7550.100608,1149.143247,296.082377
1437.560628,-5699.585753,2987.772442,-2220.617826
1437.560940,-3182.885551,2221.676944,-3330.926739
1437.561251,-5699.585753,-689.485948,-592.164754
1437.561562,-9030.512492,-919.314598,1850.514855
1437.561874,-11843.295072,919.314598,1776.494261
1437.562185,-11103.089130,-76.609550,2960.823768
1437.562497,-8808.450710,-689.485948,3997.112087
1437.562808,-7624.121203,-766.095498,2294.638420
1437.563119,-4959.379811,76.609550,-148.041188
1437.563431,-2590.720797,0.000000,-740.205942
1437.563742,-1554.432478,-2757.943793,-0.000000
1437.564053,-5107.421000,-2298.286494,296.082377
1437.564365,-8956.491898,-1838.629195,2072.576638
1437.564676,-9696.697840,-3600.648841,2294.638420
1437.564987,-9474.636058,-4596.572988,3627.009116
1437.565299,-8808.450710,-3294.210641,2886.803174
1437.565610,-8882.471304,-1838.629195,-518.144159
1437.565921,-7105.977043,-1149.143247,-1776.494261
1437.566233,-7105.977043,-995.924147,-1258.350101
1437.566544,-8956.491898,-536.266849,-0.000000
1437.566856,-13175.665768,766.095498,-0.000000
1437.567167,-14656.077652,1685.410096,666.185348
1437.567478,-12213.398043,1302.362347,1850.514855
1437.567790,-10288.862594,0.000000,1480.411884
1437.568101,-9992.780217,76.609550,-1406.391290
1437.568412,-6661.853478,1149.143247,-3108.864956
1437.568724,-5699.585753,0.000000,-2738.761985
1437.569035,-8882.471304,-919.314598,-666.185348
1437.569346,-13841.851115,306.438199,-518.144159
1437.569658,-15766.386565,1302.362347,-148.041188
1437.569969,-13619.789333,689.485948,2516.700203
1437.570281,-11621.233289,-229.828649,2368.659014
1437.570592,-10658.965565,1378.971896,-0.000000
1437.570903,-7846.182985,2528.115143,-2146.597232
1437.571215,-5773.606348,1608.800546,-1924.535449
1437.571526,-7476.080014,1455.581446,-0.000000
1437.571837,-10955.047942,1762.019645,444.123565
1437.572149,-12583.501014,1302.362347,148.041188
1437.572460,-11547.212695,-1225.752797,2220.617826
1437.572771,-9252.574275,-995.924147,3108.864956
1437.573083,-7698.141797,919.314598,1332.370696
1437.573394,-5329.482782,1532.190996,-1702.473667
1437.573705,-3923.091493,76.609550,-1036.288319
1437.574017,-4367.215058,-842.705048,592.164754
1437.574328,-7328.038826,383.047749,1110.308913
1437.574640,-10584.944971,1302.362347,1406.391290
1437.574951,-9770.718434,612.876398,3034.844362
1437.575262,-7105.977043,-612.876398,3997.112087
1437.575574,-5403.503377,-689.485948,2590.720797
1437.575885,-3923.091493,-689.485948,-0.000000
1437.576196,-2368.659014,-2068.457845,-666.185348
1437.576508,-2812.782580,-3064.381992,888.247130
1437.576819,-6883.915261,-2298.286494,1332.370696
1437.577130,-10881.027347,-1149.143247,814.226536
1437.577442,-12065.356855,-2221.676944,1998.556043
1437.577753,-10732.986159,-2451.505594,2960.823768
1437.578064,-9252.574275,-2451.505594,1924.535449
1437.578376,-7476.080014,-1762.019645,-74.020594
1437.578687,-7031.956449,-2451.505594,-740.205942
1437.578999,-7550.100608,-3600.648841,222.061783
1437.579310,-9696.697840,-2451.505594,1184.329507
1437.579621,-11917.315666,153.219100,740.205942
1437.579933,-11621.233289,842.705048,1184.329507
1437.580244,-10362.883188,-536.266849,1924.535449
1437.580555,-8364.327145,0.000000,666.185348
1437.580867,-9474.636058,1302.362347,-2220.617826
1437.581178,-8364.327145,2528.115143,-2442.679609
1437.581489,-9326.594869,1685.410096,-2072.576638
1437.581801,-14878.139434,2298.286494,-1258.350101
1437.582112,-15840.407159,3677.258390,-370.102971
1437.582424,-14359.995275,2298.286494,-1702.473667
1437.582735,-12213.398043,383.047749,296.082377
1437.583046,-9992.780217,0.000000,148.041188
1437.583358,-9104.533087,689.485948,-1628.453072
1437.583669,-7105.977043,153.219100,-1924.535449
1437.583980,-7624.121203,-1915.238745,-0.000000
1437.584292,-10066.800811,-1302.362347,2220.617826
1437.584603,-11917.315666,1072.533697,1036.288319
1437.584914,-11843.295072,2451.505594,1110.308913
1437.585226,-9474.636058,1302.362347,2294.638420
1437.585537,-8142.265362,689.485948,1850.514855
1437.585848,-6809.894666,2757.943793,-666.185348
1437.586160,-3701.029710,3064.381992,-1850.514855
1437.586471,-3552.988522,766.095498,-1628.453072
1437.586783,-5477.523971,459.657299,1036.288319
1437.587094,-8142.265362,1302.362347,592.164754
1437.587405,-9326.594869,0.000000,888.247130
1437.587717,-8586.388927,-1991.848295,3182.885551
1437.588028,-7328.038826,-2528.115143,2960.823768
1437.588339,-5847.626942,-1991.848295,814.226536
1437.588651,-4367.215058,-2757.943793,-222.061783
1437.588962,-3256.906145,-4749.792088,296.082377
1437.589273,-5773.606348,-4366.744339,1480.411884
1437.589585,-9178.553681,-2604.724693,2368.659014
1437.589896,-10658.965565,-1838.629195,2294.638420
1437.590207,-11399.171507,-2221.676944,3330.926739
1437.590519,-9178.553681,-2528.115143,2664.741391
1437.590830,-8142.265362,-2451.505594,370.102971
1437.591142,-6069.688724,-1072.533697,-1258.350101
1437.591453,-4811.338623,-842.705048,-814.226536
1437.591764,-7105.977043,-2221.676944,-296.082377
1437.592076,-11399.171507,-2145.067394,-370.102971
1437.592387,-14508.036463,0.000000,-0.000000
1437.592698,-14063.912898,1225.752797,148.041188
1437.593010,-13545.768739,306.438199,1184.329507
1437.593321,-13471.748144,689.485948,-444.123565
1437.593632,-10955.047942,1072.533697,-1702.473667
1437.593944,-8586.388927,919.314598,-1184.329507
1437.594255,-7772.162391,153.219100,370.102971
1437.594567,-10066.800811,919.314598,1110.308913
1437.594878,-11769.274478,1762.019645,444.123565
1437.595189,-11177.109724,612.876398,1184.329507
1437.595501,-9474.636058,459.657299,1628.453072
1437.595812,-10658.965565,2221.676944,-1110.308913
1437.596123,-9770.718434,3064.381992,-2738.761985
1437.596435,-7772.162391,2068.457845,-2886.803174
1437.596746,-8586.388927,76.609550,-740.205942
1437.597057,-12509.480420,842.705048,1036.288319
1437.597369,-13841.851115,2374.896044,1036.288319
1437.597680,-11843.295072,2681.334243,1036.288319
1437.597991,-9400.615463,1532.190996,2590.720797
1437.598303,-7772.162391,995.924147,1850.514855
1437.598614,-5181.441594,1455.581446,-592.164754
1437.598926,-1850.514855,1915.238745,-1184.329507
1437.599237,-1924.535449,-306.438199,814.226536
1437.599548,-4515.256246,-842.705048,1924.535449
1437.599860,-8956.491898,383.047749,2368.659014
1437.600171,-10362.883188,-383.047749,2368.659014
1437.600482,-8142.265362,-1149.143247,2368.659014
1437.600794,-6217.729913,306.438199,1258.350101
1437.601105,-5181.441594,919.314598,-1406.391290
1437.601416,-3849.070898,-995.924147,-2072.576638
1437.601728,-3997.112087,-3524.039291,-148.041188
1437.602039,-7105.977043,-2451.505594,1406.391290
1437.602350,-10214.842000,-995.924147,1924.535449
1437.602662,-12213.398043,-2221.676944,1702.473667
1437.602973,-11177.109724,-3217.601092,4441.235652
1437.603285,-7994.224174,-4290.134789,2886.803174
1437.603596,-5921.647536,-2834.553343,-444.123565
1437.603907,-4737.318029,-2221.676944,-1332.370696
1437.604219,-6661.853478,-2528.115143,-1776.494261
1437.604530,-9844.739029,-2145.067394,148.041188
1437.604841,-13027.624579,-536.266849,148.041188
1437.605153,-14656.077652,306.438199,962.267725
1437.605464,-13989.892304,-229.828649,1406.391290
1437.605775,-12287.418637,-919.314598,1036.288319
1437.606087,-11029.068536,919.314598,-1258.350101
1437.606398,-7846.182985,2604.724693,-2960.823768
1437.606710,-7179.997637,1685.410096,-1554.432478
1437.607021,-10658.965565,76.609550,-740.205942
1437.607332,-13915.871710,1225.752797,-222.061783
1437.607644,-15544.324782,1149.143247,-0.000000
1437.607955,-13323.706956,1608.800546,1110.308913
1437.608266,-11843.295072,612.876398,1258.350101
1437.608578,-11769.274478,689.485948,-962.267725
1437.608889,-8068.244768,1149.143247,-2146.597232
1437.609200,-5255.462188,306.438199,-1480.411884
1437.609512,-6735.874072,153.219100,888.247130
1437.609823,-11103.089130,1455.581446,1110.308913
1437.610134,-11991.336260,2068.457845,1184.329507
1437.610446,-9548.656652,1838.629195,1998.556043
1437.610757,-6587.832884,1838.629195,3256.906145
1437.611069,-6069.688724,1838.629195,666.185348
1437.611380,-5255.462188,1302.362347,-1036.288319
1437.611691,-2368.659014,153.219100,-592.164754
1437.612003,-4293.194464,-383.047749,-296.082377
1437.612314,-8142.265362,2145.067394,444.123565
1437.612625,-10881.027347,2911.162892,592.164754
1437.612937,-10510.924376,995.924147,2294.638420
1437.613248,-6735.874072,-766.095498,3627.009116
1437.613560,-5995.668130,-689.485948,2220.617826
1437.613871,-5107.421000,76.609550,148.041188
1437.614182,-2886.803174,-995.924147,518.144159
1437.614494,-2590.720797,-3600.648841,1776.494261
1437.614805,-5329.482782,-3753.867940,2294.638420
1437.615116,-9326.594869,-3600.648841,1998.556043
1437.615428,-10807.006753,-2987.772442,1850.514855
1437.615739,-9770.718434,-2528.115143,2886.803174
1437.616051,-9622.677246,-1915.238745,1258.350101
1437.616362,-8808.450710,-1378.971896,-370.102971
1437.616673,-7254.018232,-2068.457845,-740.205942
1437.616985,-8438.347739,-2068.457845,-222.061783
1437.617296,-10807.006753,0.000000,740.205942
1437.617607,-12139.377449,2221.676944,-518.144159
1437.617919,-12287.418637,1378.971896,-0.000000
1437.618230,-11473.192101,-1149.143247,1702.473667
1437.618542,-10584.944971,-1455.581446,-0.000000
1437.618853,-10214.842000,689.485948,-2146.597232
1437.619164,-8216.285956,612.876398,-2146.597232
1437.619476,-9918.759623,-3064.381992,-814.226536
1437.619787,-11843.295072,-1532.190996,1258.350101
1437.620098,-15544.324782,459.657299,740.205942
1437.620410,-14730.098246,1149.143247,1776.494261
1437.620721,-11695.253884,76.609550,2368.659014
1437.621033,-11399.171507,689.485948,1184.329507
1437.621344,-8882.471304,3294.210641,-2146.597232
1437.621655,-5329.482782,3753.867940,-3775.050304
1437.621967,-5699.585753,3140.991542,-2072.576638
1437.622278,-9474.636058,1838.629195,-296.082377
1437.622589,-12287.418637,3064.381992,-222.061783
1437.622901,-12805.562797,2451.505594,518.144159
1437.623212,-9992.780217,995.924147,2368.659014
1437.623524,-8734.430116,229.828649,2220.617826
1437.623835,-8290.306550,0.000000,-222.061783
1437.624146,-4219.173869,919.314598,-2072.576638
1437.624458,-2220.617826,1685.410096,222.061783
1437.624769,-5033.400406,306.438199,1850.514855
1437.625080,-8512.368333,1685.410096,2590.720797
1437.625392,-10066.800811,995.924147,3404.947333
1437.625703,-7624.121203,-1072.533697,3849.070898
1437.626015,-4293.194464,-612.876398,4071.132681
1437.626326,-4663.297435,153.219100,-518.144159
1437.626637,-4515.256246,459.657299,-2368.659014
1437.626949,-3182.885551,-2834.553343,-814.226536
1437.627260,-5477.523971,-2911.162892,518.144159
1437.627571,-8660.409521,-919.314598,1628.453072
1437.627883,-11843.295072,-1532.190996,1924.535449
1437.628194,-12065.356855,-3600.648841,2812.782580
1437.628506,-9252.574275,-3447.429741,2886.803174
1437.628817,-7772.162391,-1532.190996,-370.102971
1437.629128,-6587.832884,-766.095498,-2368.659014
1437.629440,-6587.832884,-1685.410096,-1776.494261
1437.629751,-9474.636058,-2451.505594,222.061783
1437.630062,-10955.047942,-1608.800546,1184.329507
1437.630374,-13175.665768,0.000000,1332.370696
1437.630685,-12805.562797,-383.047749,2812.782580
1437.630997,-10881.027347,-1149.143247,2664.741391
1437.631308,-10362.883188,-766.095498,-592.164754
1437.631619,-8216.285956,1455.581446,-2220.617826
1437.631931,-7105.977043,1378.971896,-2590.720797
1437.632242,-9918.759623,536.266849,-888.247130
1437.632553,-13767.830521,1225.752797,-370.102971
1437.632865,-16136.489536,1762.019645,-370.102971
1437.633176,-14804.118840,766.095498,888.247130
1437.633488,-12583.501014,-153.219100,1776.494261
1437.633799,-11621.233289,229.828649,296.082377
1437.634110,-9918.759623,1149.143247,-2368.659014
1437.634422,-6143.709319,1072.533697,-814.226536
1437.634733,-5995.668130,0.000000,814.226536
1437.635044,-10510.924376,1225.752797,2442.679609
1437.635356,-12139.377449,1225.752797,2516.700203
1437.635667,-9622.677246,919.314598,1702.473667
1437.635979,-6957.935855,1302.362347,3034.844362
1437.636290,-6291.750507,1762.019645,962.267725
1437.636601,-5921.647536,2604.724693,-2516.700203
1437.636913,-4145.153275,1762.019645,-2368.659014
1437.637224,-4367.215058,0.000000,-0.000000
1437.637535,-6957.935855,919.314598,814.226536
1437.637847,-9844.739029,2604.724693,1332.370696
1437.638158,-10214.842000,689.485948,2738.761985
1437.638470,-7846.182985,-2604.724693,4441.235652
1437.638781,-5847.626942,-2451.505594,3404.947333
1437.639092,-5329.482782,689.485948,-0.000000
1437.639404,-4145.153275,0.000000,-444.123565
1437.639715,-4071.132681,-1532.190996,666.185348
1437.640026,-5551.544565,-1838.629195,962.267725
1437.640338,-7772.162391,-1072.533697,1184.329507
1437.640649,-9400.615463,-1762.019645,2220.617826
1437.640961,-9104.533087,-2528.115143,2886.803174
1437.641272,-8068.244768,-1608.800546,1998.556043
1437.641583,-7846.182985,-1608.800546,-666.185348
1437.641895,-7105.977043,-995.924147,-2368.659014
1437.642206,-7179.997637,-1838.629195,-666.185348
1437.642517,-9918.759623,-1838.629195,-74.020594
1437.642829,-13101.645173,-536.266849,-296.082377
1437.643140,-14137.933492,-153.219100,444.123565
1437.643452,-13027.624579,-383.047749,1258.350101
1437.643763,-11843.295072,-2145.067394,296.082377
1437.644074,-10881.027347,306.438199,-2368.659014
1437.644386,-8438.347739,1915.238745,-3034.844362
1437.644697,-8216.285956,689.485948,-2812.782580
1437.645008,-10881.027347,0.000000,-222.061783
1437.645320,-13915.871710,1302.362347,666.185348
1437.645631,-13915.871710,1302.362347,1036.288319
1437.645943,-10955.047942,0.000000,2738.761985
1437.646254,-10658.965565,-689.485948,1850.514855
1437.646565,-10658.965565,1149.143247,-1036.288319
1437.646877,-8068.244768,2451.505594,-2886.803174
1437.647188,-7031.956449,536.266849,-1998.556043
1437.647499,-10140.821405,153.219100,148.041188
1437.647811,-13323.706956,1608.800546,518.144159
1437.648122,-13323.706956,1838.629195,296.082377
1437.648434,-9400.615463,0.000000,2072.576638
1437.648745,-7698.141797,-919.314598,3034.844362
1437.649056,-7920.203579,-153.219100,370.102971
1437.649368,-4589.276840,1455.581446,-2220.617826
1437.649679,-2886.803174,1455.581446,-74.020594
1437.649990,-4811.338623,0.000000,2146.597232
1437.650302,-8438.347739,1378.971896,2072.576638
1437.650613,-10066.800811,1685.410096,2220.617826
1437.650924,-7402.059420,0.000000,3849.070898
1437.651236,-5181.441594,-1225.752797,4219.173869
1437.651547,-4737.318029,-536.266849,1776.494261
1437.651859,-5625.565159,383.047749,-740.205942
1437.652170,-3849.070898,-1685.410096,-0.000000
1437.652481,-5847.626942,-2145.067394,740.205942
1437.652793,-9696.697840,536.266849,1332.370696
1437.653104,-9622.677246,1302.362347,962.267725
1437.653415,-10214.842000,-1532.190996,1702.473667
1437.653727,-7402.059420,-3217.601092,3923.091493
1437.654038,-6661.853478,-3370.820191,1480.411884
1437.654350,-6883.915261,-3064.381992,-888.247130
1437.654661,-5255.462188,-1838.629195,-444.123565
1437.654972,-6439.791695,-1838.629195,666.185348
1437.655284,-10807.006753,-1608.800546,518.144159
1437.655595,-12657.521608,0.000000,370.102971
1437.655906,-12287.418637,0.000000,888.247130
1437.656218,-11991.336260,-842.705048,1554.432478
1437.656529,-10881.027347,-459.657299,-0.000000
1437.656841,-10732.986159,1302.362347,-2294.638420
1437.657152,-9178.553681,1072.533697,-2442.679609
1437.657463,-8660.409521,-536.266849,-444.123565
1437.657775,-11251.130318,612.876398,444.123565
1437.658086,-14434.015869,2451.505594,-1184.329507
1437.658397,-13397.727550,383.047749,-0.000000
1437.658709,-11473.192101,-1608.800546,1406.391290
1437.659020,-11695.253884,-1455.581446,814.226536
1437.659332,-11695.253884,919.314598,-2590.720797
1437.659643,-7624.121203,842.705048,-3478.967927
1437.659954,-6291.750507,0.000000,-962.267725
1437.660266,-9844.739029,0.000000,1036.288319
1437.660577,-11399.171507,1302.362347,814.226536
1437.660888,-11991.336260,2221.676944,1110.308913
1437.661200,-10362.883188,1072.533697,4219.173869
1437.661511,-8142.265362,1455.581446,3256.906145
1437.661823,-8956.491898,2604.724693,-1110.308913
1437.662134,-6069.688724,3830.477490,-2590.720797
1437.662445,-3330.926739,2451.505594,-444.123565
1437.662757,-4885.359217,1915.238745,-148.041188
1437.663068,-8660.409521,2604.724693,296.082377
1437.663379,-10807.006753,1302.362347,962.267725
1437.663691,-8586.388927,-1991.848295,3182.885551
1437.664002,-6291.750507,-2604.724693,3034.844362
1437.664314,-5329.482782,-383.047749,518.144159
1437.664625,-3552.988522,-306.438199,-1628.453072
1437.664936,-2812.782580,-2681.334243,370.102971
1437.665248,-4367.215058,-1991.848295,2368.659014
1437.665559,-9400.615463,-766.095498,1184.329507
1437.665870,-10955.047942,-229.828649,2812.782580
1437.666182,-9992.780217,-1685.410096,3627.009116
1437.666493,-8438.347739,-2834.553343,3552.988522
1437.666805,-7550.100608,-1225.752797,518.144159
1437.667116,-5625.565159,612.876398,-1776.494261
1437.667427,-4959.379811,-766.095498,-1184.329507
1437.667739,-7105.977043,-2145.067394,370.102971
1437.668050,-11473.192101,-842.705048,518.144159
1437.668361,-13693.809927,459.657299,-0.000000
1437.668673,-12361.439231,-919.314598,1258.350101
1437.668984,-11769.274478,-2298.286494,1776.494261
1437.669296,-10881.027347,-612.876398,-814.226536
1437.669607,-9104.533087,919.314598,-3182.885551
1437.669918,-8512.368333,-306.438199,-2590.720797
1437.670230,-9844.739029,-612.876398,148.041188
1437.670541,-12213.398043,1149.143247,1184.329507
1437.670852,-14582.057057,1149.143247,962.267725
1437.671164,-12583.501014,-383.047749,1924.535449
1437.671475,-10510.924376,-1455.581446,2072.576638
1437.671787,-9548.656652,1532.190996,518.144159
1437.672098,-7254.018232,3907.087040,-2442.679609
1437.672409,-7105.977043,2068.457845,-3701.029710
1437.672721,-8882.471304,842.705048,-0.000000
1437.673032,-12435.459826,1455.581446,592.164754
1437.673343,-15026.180623,1685.410096,148.041188
1437.673655,-13175.665768,229.828649,1628.453072
1437.673966,-9326.594869,-2374.896044,3034.844362
1437.674278,-8660.409521,-1838.629195,1110.308913
1437.674589,-6439.791695,229.828649,-666.185348
1437.674900,-3034.844362,536.266849,-888.247130
1437.675212,-4145.153275,-383.047749,1332.370696
1437.675523,-7328.038826,1378.971896,2442.679609
1437.675834,-9178.553681,3140.991542,1628.453072
1437.676146,-8438.347739,2068.457845,2590.720797
1437.676457,-5625.565159,0.000000,4145.153275
1437.676769,-4663.297435,-689.485948,2072.576638
1437.677080,-3849.070898,1762.019645,-1702.473667
1437.677391,-2960.823768,1991.848295,-2590.720797
1437.677703,-4737.318029,-842.705048,-888.247130
1437.678014,-7846.182985,-919.314598,1036.288319
1437.678325,-11843.295072,0.000000,1184.329507
1437.678637,-11843.295072,-1991.848295,2072.576638
1437.678948,-9918.759623,-4290.134789,4071.132681
1437.679260,-9030.512492,-3600.648841,3108.864956
1437.679571,-7254.018232,-1685.410096,-888.247130
1437.679882,-5255.462188,-995.924147,-1850.514855
1437.680194,-5773.606348,-2298.286494,-370.102971
1437.680505,-7550.100608,-919.314598,1036.288319
1437.680816,-11251.130318,-153.219100,1184.329507
1437.681128,-12435.459826,-766.095498,1850.514855
1437.681439,-11325.150913,-1991.848295,2516.700203
1437.681751,-9770.718434,-1378.971896,1184.329507
1437.682062,-9548.656652,383.047749,-1554.432478
1437.682373,-7772.162391,1225.752797,-3775.050304
1437.682685,-8364.327145,76.609550,-1924.535449
1437.682996,-12139.377449,-383.047749,-518.144159
1437.683307,-15248.242405,1302.362347,-0.000000
1437.683619,-16210.510130,689.485948,-0.000000
1437.683930,-14211.954086,-1762.019645,1554.432478
1437.684242,-12065.356855,-2604.724693,1702.473667
1437.684553,-9474.636058,536.266849,-1110.308913
1437.684864,-7105.977043,2451.505594,-3108.864956
1437.685176,-5847.626942,1378.971896,-1480.411884
1437.685487,-7476.080014,459.657299,962.267725
1437.685798,-12287.418637,1302.362347,666.185348
1437.686110,-12731.542202,2528.115143,1850.514855
1437.686421,-10140.821405,1378.971896,2146.597232
1437.686733,-9400.615463,1302.362347,1554.432478
1437.687044,-7476.080014,2145.067394,-888.247130
1437.687355,-5033.400406,1915.238745,-3552.988522
1437.687667,-4293.194464,689.485948,-888.247130
1437.687978,-6587.832884,-383.047749,1850.514855
1437.688289,-9992.780217,1302.362347,2220.617826
1437.688601,-11029.068536,1685.410096,2368.659014
1437.688912,-9474.636058,-536.266849,3849.070898
1437.689224,-6587.832884,-1532.190996,4515.256246
1437.689535,-4145.153275,0.000000,962.267725
1437.689846,-4071.132681,1378.971896,-1554.432478
1437.690158,-1850.514855,-536.266849,592.164754
1437.690469,-3775.050304,-2068.457845,1628.453072
1437.690780,-8586.388927,-383.047749,2738.761985
1437.691092,-11029.068536,-1149.143247,2294.638420
1437.691403,-9992.780217,-2068.457845,3701.029710
1437.691715,-8364.327145,-2374.896044,3923.091493
1437.692026,-8290.306550,-2068.457845,296.082377
1437.692337,-6735.874072,-153.219100,-1628.453072
1437.692649,-5181.441594,-919.314598,-1110.308913
1437.692960,-7105.977043,-1378.971896,888.247130
1437.693271,-10510.924376,-306.438199,1406.391290
1437.693583,-13027.624579,995.924147,370.102971
1437.693894,-13989.892304,459.657299,1850.514855
1437.694206,-9918.759623,-995.924147,3108.864956
1437.694517,-8660.409521,-1378.971896,-296.082377
1437.694828,-9178.553681,689.485948,-3478.967927
1437.695140,-6439.791695,689.485948,-3182.885551
1437.695451,-8290.306550,-1378.971896,-1702.473667
1437.695762,-11843.295072,-229.828649,-0.000000
1437.696074,-15026.180623,1302.362347,-222.061783
1437.696385,-14434.015869,-689.485948,1036.288319
1437.696697,-11991.336260,-2451.505594,2368.659014
1437.697008,-11547.212695,-842.705048,1110.308913
1437.697319,-9548.656652,1685.410096,-2146.597232
1437.697631,-6587.832884,2221.676944,-3182.885551
1437.697942,-6661.853478,995.924147,-666.185348
1437.698253,-9696.697840,1685.410096,1036.288319
1437.698565,-12731.542202,2451.505594,740.205942
1437.698876,-13693.809927,1455.581446,444.123565
1437.699188,-10955.047942,383.047749,1924.535449
1437.699499,-8290.306550,842.705048,1036.288319
1437.699810,-8512.368333,1072.533697,-2368.659014
1437.700122,-5255.462188,76.609550,-2664.741391
1437.700433,-3997.112087,-1149.143247,-1332.370696
1437.700744,-6883.915261,-459.657299,1480.411884
1437.701056,-9918.759623,1149.143247,1924.535449
1437.701367,-11843.295072,612.876398,2590.720797
1437.701679,-9104.533087,-1838.629195,4663.297435
1437.701990,-5847.626942,-1072.533697,4219.173869
1437.702301,-4441.235652,1072.533697,296.082377
1437.702613,-3627.009116,2298.286494,-2220.617826
1437.702924,-3034.844362,689.485948,-74.020594
1437.703235,-4589.276840,-612.876398,222.061783
1437.703547,-8882.471304,995.924147,222.061783
1437.703858,-11251.130318,995.924147,1184.329507
1437.704170,-10807.006753,-2298.286494,1850.514855
1437.704481,-10140.821405,-4213.525239,3256.906145
1437.704792,-7920.203579,-2604.724693,1480.411884
1437.705104,-5773.606348,-1302.362347,-666.185348
1437.705415,-5773.606348,-2987.772442,-0.000000
1437.705726,-8660.409521,-3140.991542,1332.370696
1437.706038,-10066.800811,-536.266849,888.247130
1437.706349,-10362.883188,1225.752797,962.267725
1437.706661,-11177.109724,-612.876398,2294.638420
1437.706972,-10140.821405,-1225.752797,2368.659014
1437.707283,-10066.800811,0.000000,-444.123565
1437.707595,-7846.182985,2451.505594,-2072.576638
1437.707906,-6365.771101,1838.629195,-2738.761985
1437.708217,-10584.944971,1225.752797,-1480.411884
1437.708529,-12953.603985,2451.505594,-0.000000
1437.708840,-14063.912898,2068.457845,-1110.308913
1437.709152,-14137.933492,-229.828649,962.267725
1437.709463,-13027.624579,-1072.533697,1998.556043
1437.709774,-11399.171507,229.828649,-148.041188
1437.710086,-8290.306550,0.000000,-1850.514855
1437.710397,-5921.647536,-1685.410096,-1110.308913
1437.710708,-7105.977043,-2604.724693,1110.308913
1437.711020,-11103.089130,-306.438199,1480.411884
1437.711331,-12509.480420,995.924147,1776.494261
1437.711643,-9770.718434,-306.438199,2146.597232
1437.711954,-8586.388927,-919.314598,2738.761985
1437.712265,-8808.450710,306.438199,1258.350101
1437.712577,-7031.956449,2145.067394,-1628.453072
1437.712888,-4071.132681,2834.553343,-1924.535449
1437.713199,-6069.688724,2451.505594,-1036.288319
1437.713511,-8586.388927,3753.867940,444.123565
1437.713822,-10807.006753,3524.039291,-518.144159
1437.714134,-11029.068536,842.705048,1998.556043
1437.714445,-8142.265362,-2298.286494,3701.029710
1437.714756,-6365.771101,-2451.505594,2368.659014
1437.715068,-5477.523971,-1225.752797,-444.123565
1437.715379,-3330.926739,-2374.896044,-518.144159
1437.715690,-3923.091493,-4060.306139,1036.288319
1437.716002,-7031.956449,-2604.724693,2294.638420
1437.716313,-8808.450710,-1225.752797,3256.906145
1437.716625,-9696.697840,-1915.238745,2960.823768
1437.716936,-9178.553681,-2451.505594,4367.215058
1437.717247,-7772.162391,-536.266849,2146.597232
1437.717559,-6365.771101,153.219100,-1036.288319
1437.717870,-4515.256246,306.438199,-1998.556043
1437.718181,-5477.523971,0.000000,-1184.329507
1437.718493,-9252.574275,766.095498,-888.247130
1437.718804,-12435.459826,1991.848295,-148.041188
1437.719116,-13915.871710,-689.485948,962.267725
1437.719427,-13027.624579,-1838.629195,2886.803174
1437.719738,-12213.398043,-1608.800546,1554.432478
1437.720050,-10955.047942,153.219100,-1628.453072
1437.720361,-7698.141797,919.314598,-2590.720797
1437.720672,-7031.956449,0.000000,-1924.535449
1437.720984,-8956.491898,0.000000,148.041188
1437.721295,-11917.315666,1225.752797,-296.082377
1437.721607,-11769.274478,306.438199,1406.391290
1437.721918,-11103.089130,-1378.971896,2960.823768
1437.722229,-12435.459826,-1149.143247,1480.411884
1437.722541,-9696.697840,2298.286494,-2072.576638
1437.722852,-7698.141797,2681.334243,-3997.112087
1437.723163,-7179.997637,612.876398,-2294.638420
1437.723475,-10066.800811,842.705048,-740.205942
1437.723786,-14582.057057,1991.848295,-592.164754
1437.724098,-14730.098246,2145.067394,740.205942
1437.724409,-12731.542202,612.876398,2738.761985
1437.724720,-9770.718434,306.438199,2664.741391
1437.725032,-7846.182985,1991.848295,370.102971
1437.725343,-4515.256246,1225.752797,-1036.288319
1437.725654,-1628.453072,-1225.752797,-222.061783
1437.725966,-2738.761985,459.657299,740.205942
1437.726277,-6439.791695,2145.067394,888.247130
1437.726589,-8586.388927,459.657299,1998.556043
1437.726900,-8512.368333,-1838.629195,3108.864956
1437.727211,-8290.306550,-2604.724693,3034.844362
1437.727523,-5773.606348,0.000000,222.061783
1437.727834,-5107.421000,0.000000,-2072.576638
1437.728145,-4959.379811,-919.314598,-444.123565
1437.728457,-6661.853478,-1685.410096,370.102971
1437.728768,-9696.697840,-1915.238745,1850.514855
1437.729080,-10732.986159,-612.876398,3034.844362
1437.729391,-11399.171507,-2528.115143,3108.864956
1437.729702,-9992.780217,-3830.477490,3256.906145
1437.730014,-7624.121203,-2451.505594,1850.514855
1437.730325,-5699.585753,-2451.505594,-518.144159
1437.730636,-4367.215058,-3064.381992,-0.000000
1437.730948,-7624.121203,-3447.429741,-0.000000
1437.731259,-10066.800811,-766.095498,814.226536
1437.731571,-13027.624579,306.438199,370.102971
1437.731882,-13175.665768,-459.657299,1554.432478
1437.732193,-11399.171507,-459.657299,1850.514855
1437.732505,-10436.903782,229.828649,-518.144159
1437.732816,-8290.306550,1838.629195,-2368.659014
1437.733127,-6513.812290,2068.457845,-2590.720797
1437.733439,-8290.306550,1991.848295,-888.247130
1437.733750,-12287.418637,1225.752797,148.041188
1437.734062,-13841.851115,1532.190996,-148.041188
1437.734373,-13767.830521,766.095498,666.185348
1437.734684,-12287.418637,306.438199,1554.432478
1437.734996,-10807.006753,689.485948,-148.041188
1437.735307,-9770.718434,536.266849,-2368.659014
1437.735618,-7105.977043,0.000000,-2220.617826
1437.735930,-7105.977043,-383.047749,-0.000000
1437.736241,-11547.212695,0.000000,1776.494261
1437.736553,-12805.562797,-76.609550,1776.494261
1437.736864,-10807.006753,1225.752797,2220.617826
1437.737175,-8364.327145,306.438199,3182.885551
1437.737487,-6439.791695,612.876398,1406.391290
1437.737798,-6587.832884,2374.896044,-1480.411884
1437.738109,-4293.194464,1991.848295,-2294.638420
1437.738421,-3923.091493,919.314598,-296.082377
1437.738732,-6439.791695,1455.581446,296.082377
1437.739044,-10955.047942,2298.286494,592.164754
1437.739355,-11473.192101,153.219100,2294.638420
1437.739666,-7846.182985,-2681.334243,3701.029710
1437.739978,-5255.462188,-2145.067394,2664.741391
1437.740289,-3775.050304,-306.438199,222.061783
1437.740600,-3404.947333,-612.876398,-1332.370696
1437.740912,-4663.297435,-1991.848295,-148.041188
1437.741223,-6661.853478,-1685.410096,1554.432478
1437.741535,-9104.533087,-612.876398,2294.638420
1437.741846,-10510.924376,-2451.505594,2590.720797
1437.742157,-10955.047942,-4903.011187,3849.070898
1437.742469,-9474.636058,-4213.525239,2812.782580
1437.742780,-7476.080014,-1532.190996,-296.082377
1437.743091,-6439.791695,0.000000,-1554.432478
1437.743403,-7624.121203,-1072.533697,-370.102971
1437.743714,-10436.903782,-1532.190996,-74.020594
1437.744026,-12731.542202,612.876398,-148.041188
1437.744337,-12657.521608,1149.143247,1110.308913
1437.744648,-11843.295072,-919.314598,1332.370696
1437.744960,-10584.944971,-2298.286494,1406.391290
1437.745271,-9252.574275,-1838.629195,-1554.432478
1437.745582,-6735.874072,-2298.286494,-2886.803174
1437.745894,-6217.729913,-3217.601092,-1998.556043
1437.746205,-9252.574275,-2604.724693,-740.205942
1437.746517,-13545.768739,-2145.067394,296.082377
1437.746828,-14137.933492,-2604.724693,1184.329507
1437.747139,-13323.706956,-2987.772442,2738.761985
1437.747451,-11473.192101,-2145.067394,2368.659014
1437.747762,-10362.883188,-459.657299,-518.144159
1437.748073,-7031.956449,153.219100,-2516.700203
1437.748385,-5403.503377,-919.314598,-2664.741391
1437.748696,-6883.915261,153.219100,-148.041188
1437.749008,-11473.192101,0.000000,-0.000000
1437.749319,-14285.974681,-229.828649,1184.329507
1437.749630,-13101.645173,-2068.457845,2294.638420
1437.749942,-9178.553681,-1608.800546,3404.947333
1437.750253,-7179.997637,-1838.629195,1036.288319
1437.750564,-6661.853478,-2604.724693,-1554.432478
1437.750876,-4145.153275,-3983.696590,-1924.535449
1437.751187,-1776.494261,-1608.800546,-370.102971
1437.751499,-4367.215058,-919.314598,1184.329507
1437.751810,-9178.553681,-2451.505594,2220.617826
1437.752121,-11399.171507,-5745.716235,3627.009116
1437.752433,-8290.306550,-4903.011187,4145.153275
1437.752744,-4737.318029,-2068.457845,3404.947333
1437.753055,-4959.379811,-3140.991542,-74.020594
1437.753367,-6513.812290,-4903.011187,-1258.350101
1437.753678,-4811.338623,-6435.202183,-666.185348
1437.753990,-3997.112087,-4519.963438,-518.144159
1437.754301,-6883.915261,-3677.258390,1406.391290
1437.754612,-12435.459826,-5822.325785,2368.659014
1437.754924,-15322.262999,-7737.564530,3182.885551
1437.755235,-11251.130318,-6052.154434,3478.967927
1437.755546,-7328.038826,-3677.258390,2368.659014
1437.755858,-7550.100608,-6052.154434,-518.144159
1437.756169,-7105.977043,-7584.345430,-1332.370696
1437.756481,-6513.812290,-5975.544884,-2664.741391
1437.756792,-6291.750507,-2757.943793,-1406.391290
1437.757103,-7920.203579,-1149.143247,-0.000000
1437.757415,-13101.645173,-3600.648841,1554.432478
1437.757726,-15396.283594,-5362.668486,2738.761985
1437.758037,-15248.242405,-3447.429741,2590.720797
1437.758349,-13249.686362,919.314598,370.102971
1437.758660,-12583.501014,4213.525239,-1184.329507
1437.758972,-10807.006753,1991.848295,-2516.700203
1437.759283,-7624.121203,-689.485948,-4293.194464
1437.759594,-6587.832884,-919.314598,-4367.215058
1437.759906,-6957.935855,1838.629195,-3923.091493
1437.760217,-9104.533087,1455.581446,-1406.391290
1437.760528,-10436.903782,-3140.991542,1776.494261
1437.760840,-11029.068536,-6511.811733,3997.112087
1437.761151,-12287.418637,-7354.516781,3849.070898
1437.761463,-12435.459826,-4826.401637,3478.967927
1437.761774,-12583.501014,-1762.019645,1998.556043
1437.762085,-9474.636058,-2451.505594,888.247130
1437.762397,-5107.421000,-3600.648841,-1406.391290
1437.762708,-2368.659014,-3447.429741,-1258.350101
1437.763019,-3404.947333,-4596.572988,-962.267725
1437.763331,-5921.647536,-3753.867940,888.247130
1437.763642,-6439.791695,-1149.143247,518.144159
1437.763954,-8364.327145,-153.219100,1258.350101
1437.764265,-9178.553681,-459.657299,2294.638420
1437.764576,-10881.027347,-306.438199,1628.453072
1437.764888,-11399.171507,-689.485948,2960.823768
1437.765199,-9252.574275,-842.705048,2368.659014
1437.765510,-7698.141797,-689.485948,2220.617826
1437.765822,-4811.338623,536.266849,-0.000000
1437.766133,-3404.947333,-536.266849,-0.000000
1437.766445,-2072.576638,-4443.353888,-592.164754
1437.766756,-2516.700203,-5515.887586,-1332.370696
1437.767067,-4811.338623,-2757.943793,-1258.350101
1437.767379,-9030.512492,-383.047749,-1036.288319
1437.767690,-12583.501014,-766.095498,666.185348
1437.768001,-13915.871710,-2221.676944,2664.741391
1437.768313,-13397.727550,-5132.839837,4737.318029
1437.768624,-12805.562797,-7124.688131,4885.359217
1437.768936,-10510.924376,-6128.763984,3997.112087
1437.769247,-8586.388927,-4903.011187,1184.329507
1437.769558,-6217.729913,-4979.620737,-222.061783
1437.769870,-4885.359217,-5745.716235,-1702.473667
1437.770181,-5181.441594,-5822.325785,-2294.638420
1437.770492,-6069.688724,-5515.887586,-1924.535449
1437.770804,-8142.265362,-5592.497135,-1406.391290
1437.771115,-10288.862594,-5056.230287,-0.000000
1437.771427,-12139.377449,-4903.011187,888.247130
1437.771738,-13471.748144,-4749.792088,2072.576638
1437.772049,-13767.830521,-4903.011187,2442.679609
1437.772361,-14656.077652,-4673.182538,2738.761985
1437.772672,-13249.686362,-3753.867940,1998.556043
1437.772983,-11621.233289,-2757.943793,1110.308913
1437.773295,-9696.697840,-3600.648841,666.185348
1437.773606,-7031.956449,-4903.011187,148.041188
1437.773918,-5847.626942,-5745.716235,-1184.329507
1437.774229,-5107.421000,-5056.230287,-2220.617826
1437.774540,-6439.791695,-2068.457845,-2812.782580
1437.774852,-8808.450710,0.000000,-2590.720797
1437.775163,-10510.924376,0.000000,-962.267725
1437.775474,-12657.521608,-689.485948,-0.000000
1437.775786,-12583.501014,-1072.533697,1110.308913
1437.776097,-11769.274478,-1455.581446,1258.350101
1437.776409,-10140.821405,-2221.676944,814.226536
1437.776720,-7031.956449,-3140.991542,592.164754
1437.777031,-5551.544565,-4060.306139,-148.041188
1437.777343,-8290.306550,-3600.648841,-444.123565
1437.777654,-6883.915261,-2221.676944,-0.000000
1437.777965,-6587.832884,536.266849,-1554.432478
1437.778277,-6143.709319,-229.828649,-666.185348
1437.778588,-4737.318029,-1302.362347,-962.267725
1437.778900,-3997.112087,-1991.848295,-0.000000
1437.779211,-4441.235652,-2834.553343,148.041188
1437.779522,-7179.997637,-4136.915689,1554.432478
1437.779834,-9992.780217,-5209.449386,2072.576638
1437.780145,-13027.624579,-3217.601092,2146.597232
1437.780456,-13989.892304,-2757.943793,2960.823768
1437.780768,-12065.356855,-3753.867940,2590.720797
1437.781079,-9622.677246,-3907.087040,2294.638420
1437.781391,-6883.915261,-3447.429741,1184.329507
1437.781702,-5329.482782,-4136.915689,-74.020594
1437.782013,-4663.297435,-3140.991542,-0.000000
1437.782325,-4293.194464,-1378.971896,-1036.288319
1437.782636,-4219.173869,-842.705048,-222.061783
1437.782947,-6439.791695,-2528.115143,-296.082377
1437.783259,-8364.327145,-2528.115143,-0.000000
1437.783570,-10510.924376,-2528.115143,666.185348
1437.783882,-12139.377449,-4290.134789,2516.700203
1437.784193,-13397.727550,-5209.449386,2886.803174
1437.784504,-13767.830521,-4366.744339,3034.844362
1437.784816,-13471.748144,-4213.525239,1776.494261
1437.785127,-12213.398043,-2451.505594,740.205942
1437.785438,-9844.739029,-153.219100,518.144159
1437.785750,-7624.121203,1455.581446,-296.082377
1437.786061,-6587.832884,459.657299,-296.082377
1437.786373,-5107.421000,0.000000,-370.102971
1437.786684,-5625.565159,-2298.286494,-0.000000
1437.786995,-6809.894666,-3753.867940,148.041188
1437.787307,-7772.162391,-5898.935335,518.144159
1437.787618,-11029.068536,-6205.373534,740.205942
1437.787929,-13693.809927,-7048.078582,2220.617826
1437.788241,-13989.892304,-7354.516781,1924.535449
1437.788552,-13323.706956,-6205.373534,2442.679609
1437.788864,-11991.336260,-6128.763984,2146.597232
1437.789175,-9918.759623,-5362.668486,1924.535449
1437.789486,-7179.997637,-3064.381992,592.164754
1437.789798,-4219.173869,-1225.752797,-222.061783
1437.790109,-3034.844362,-459.657299,-962.267725
1437.790420,-3256.906145,-689.485948,-1628.453072
1437.790732,-4959.379811,76.609550,-2072.576638
1437.791043,-7328.038826,383.047749,-1480.411884
1437.791355,-10140.821405,-1455.581446,-962.267725
1437.791666,-12065.356855,-2451.505594,444.123565
1437.791977,-11547.212695,-3217.601092,962.267725
1437.792289,-11991.336260,-3677.258390,666.185348
1437.792600,-9326.594869,-3830.477490,1554.432478
1437.792911,-7994.224174,-3753.867940,1036.288319
1437.793223,-7772.162391,-3140.991542,-0.000000
1437.793534,-4145.153275,-1608.800546,-148.041188
1437.793845,-4737.318029,-1225.752797,-1924.535449
1437.794157,-6069.688724,-2145.067394,-74.020594
1437.794468,-9696.697840,-3677.258390,-444.123565
1437.794780,-10732.986159,-2911.162892,592.164754
1437.795091,-11843.295072,-1838.629195,518.144159
1437.795402,-11769.274478,-2528.115143,1776.494261
1437.795714,-11843.295072,-4443.353888,1776.494261
1437.796025,-11177.109724,-4979.620737,1998.556043
1437.796336,-9548.656652,-3370.820191,2664.741391
1437.796648,-9030.512492,-2145.067394,1850.514855
1437.796959,-10214.842000,-306.438199,1924.535449
1437.797271,-10214.842000,766.095498,1406.391290
1437.797582,-8882.471304,0.000000,2146.597232
1437.797893,-7476.080014,-766.095498,1332.370696
1437.798205,-5699.585753,-76.609550,1924.535449
1437.798516,-7772.162391,-1072.533697,666.185348
1437.798827,-7254.018232,-2757.943793,2738.761985
1437.799139,-9770.718434,-4290.134789,3108.864956
1437.799450,-10066.800811,-2604.724693,5181.441594
1437.799762,-12731.542202,-2451.505594,5921.647536
1437.800073,-14063.912898,-2604.724693,7031.956449
1437.800384,-10955.047942,-1455.581446,6291.750507
1437.800696,-8438.347739,1149.143247,4441.235652
1437.801007,-6513.812290,2451.505594,4219.173869
1437.801318,-4811.338623,1455.581446,2368.659014
1437.801630,-5921.647536,76.609550,1480.411884
1437.801941,-4663.297435,1455.581446,3627.009116
1437.802253,-6513.812290,536.266849,2960.823768
1437.802564,-11029.068536,-459.657299,3997.112087
1437.802875,-11251.130318,-229.828649,6809.894666
1437.803187,-10658.965565,-1762.019645,6365.771101
1437.803498,-8290.306550,-1608.800546,7772.162391
1437.803809,-9104.533087,-1302.362347,5921.647536
1437.804121,-8142.265362,-536.266849,6217.729913
1437.804432,-6217.729913,459.657299,4219.173869
1437.804744,-5255.462188,1685.410096,3701.029710
1437.805055,-5329.482782,3447.429741,2960.823768
1437.805366,-7550.100608,3294.210641,3182.885551
1437.805678,-8216.285956,1762.019645,3701.029710
1437.805989,-7402.059420,842.705048,4219.173869
1437.806300,-7698.141797,-995.924147,4737.318029
1437.806612,-7994.224174,-2145.067394,5329.482782
1437.806923,-9252.574275,-3524.039291,5921.647536
1437.807235,-8438.347739,-3294.210641,5255.462188
1437.807546,-7920.203579,-995.924147,5921.647536
1437.807857,-8660.409521,536.266849,3849.070898
1437.808169,-9770.718434,1838.629195,4441.235652
1437.808480,-9918.759623,2528.115143,3034.844362
1437.808791,-8512.368333,3524.039291,2812.782580
1437.809103,-8216.285956,3140.991542,2220.617826
1437.809414,-7476.080014,1608.800546,2072.576638
1437.809726,-7328.038826,383.047749,1924.535449
1437.810037,-5995.668130,-459.657299,1924.535449
1437.810348,-6735.874072,-1608.800546,2516.700203
1437.810660,-8956.491898,-2528.115143,3256.906145
1437.810971,-10807.006753,-2298.286494,3997.112087
1437.811282,-12065.356855,-1608.800546,4219.173869
1437.811594,-12213.398043,-1225.752797,4515.256246
1437.811905,-12287.418637,153.219100,3627.009116
1437.812216,-11251.130318,766.095498,2368.659014
1437.812528,-9992.780217,1302.362347,1332.370696
1437.812839,-8438.347739,1838.629195,962.267725
1437.813150,-7920.203579,1685.410096,1110.308913
1437.813462,-9030.512492,229.828649,1850.514855
1437.813773,-10214.842000,-1532.190996,3330.926739
1437.814084,-10140.821405,-2528.115143,4737.318029
1437.814396,-10362.883188,-3064.381992,5477.523971
1437.814707,-9474.636058,-2604.724693,4885.359217
1437.815018,-8660.409521,-3294.210641,3701.029710
1437.815330,-7105.977043,-1225.752797,2294.638420
1437.815641,-5403.503377,229.828649,-0.000000
1437.815952,-5921.647536,1225.752797,-592.164754
1437.816264,-7624.121203,2451.505594,-592.164754
1437.816575,-10510.924376,3140.991542,518.144159
1437.816886,-12953.603985,2911.162892,2738.761985
1437.817198,-13841.851115,1378.971896,4663.297435
1437.817509,-13619.789333,-153.219100,5551.544565
1437.817820,-10436.903782,-1072.533697,5255.462188
1437.818132,-6957.935855,-1685.410096,4071.132681
1437.818443,-2590.720797,-2451.505594,1850.514855
1437.818754,-1258.350101,-2068.457845,888.247130
1437.819066,-3478.967927,-1532.190996,444.123565
1437.819377,-7179.997637,-153.219100,2072.576638
1437.819688,-11103.089130,1072.533697,3923.091493
1437.820000,-14434.015869,2298.286494,5551.544565
1437.820311,-15544.324782,1915.238745,6439.791695
1437.820622,-13175.665768,1378.971896,6365.771101
1437.820934,-9252.574275,76.609550,4293.194464
1437.821245,-4737.318029,0.000000,2886.803174
1437.821556,-2146.597232,-766.095498,1258.350101
1437.821868,-1850.514855,-1149.143247,370.102971
1437.822179,-3478.967927,-689.485948,1480.411884
1437.822490,-7476.080014,-383.047749,2664.741391
1437.822802,-11843.295072,842.705048,4737.318029
1437.823113,-15766.386565,1532.190996,6291.750507
1437.823424,-16062.468941,919.314598,7105.977043
1437.823736,-12879.583391,995.924147,6217.729913
1437.824047,-9474.636058,0.000000,4515.256246
1437.824358,-5995.668130,0.000000,3108.864956
1437.824670,-4293.194464,229.828649,3108.864956
1437.824981,-4737.318029,0.000000,3330.926739
1437.825292,-5921.647536,-459.657299,5255.462188
1437.825604,-9696.697840,-612.876398,6735.874072
1437.825915,-11843.295072,-459.657299,8734.430116
1437.826226,-12509.480420,-229.828649,8216.285956
1437.826538,-11103.089130,689.485948,7031.956449
1437.826849,-7772.162391,1915.238745,3849.070898
1437.827160,-5181.441594,2451.505594,1110.308913
1437.827472,-3330.926739,2604.724693,-0.000000
1437.827783,-4367.215058,2145.067394,-0.000000
1437.828094,-8068.244768,1685.410096,1702.473667
1437.828406,-11029.068536,0.000000,4811.338623
1437.828717,-13397.727550,-2145.067394,7476.080014
1437.829028,-14434.015869,-3217.601092,9770.718434
1437.829340,-13471.748144,-2681.334243,10140.821405
1437.829651,-10362.883188,-1685.410096,8882.471304
1437.829962,-6957.935855,-842.705048,6217.729913
1437.830274,-3997.112087,306.438199,2664.741391
1437.830585,-1406.391290,2451.505594,370.102971
1437.830896,-518.144159,3524.039291,-1184.329507
1437.831208,-3182.885551,3370.820191,-1554.432478
1437.831519,-6143.709319,3217.601092,-296.082377
1437.831830,-9104.533087,2068.457845,1406.391290
1437.832142,-12509.480420,-153.219100,4071.132681
1437.832453,-15840.407159,-995.924147,6513.812290
1437.832764,-16802.674883,-1838.629195,7402.059420
1437.833076,-15396.283594,-1149.143247,7031.956449
1437.833387,-12139.377449,-1149.143247,5699.585753
1437.833698,-8660.409521,-612.876398,4737.318029
1437.834010,-5255.462188,-612.876398,2960.823768
1437.834321,-1850.514855,-153.219100,1480.411884
1437.834632,-148.041188,-229.828649,296.082377
1437.834944,-1258.350101,153.219100,-370.102971
1437.835255,-3849.070898,919.314598,-148.041188
1437.835566,-7476.080014,459.657299,518.144159
1437.835878,-13027.624579,-842.705048,2146.597232
1437.836189,-17542.880825,-1149.143247,4737.318029
1437.836500,-20059.581028,-1225.752797,6365.771101
1437.836812,-19541.436869,-1225.752797,6661.853478
1437.837123,-15174.221811,-459.657299,7031.956449
1437.837434,-9844.739029,-689.485948,5921.647536
1437.837746,-4737.318029,-1302.362347,3627.009116
1437.838057,-296.082377,-1225.752797,1332.370696
1437.838368,962.267725,0.000000,-1332.370696
1437.838680,74.020594,1532.190996,-2886.803174
1437.838991,-3182.885551,1762.019645,-2664.741391
1437.839302,-8290.306550,1455.581446,-1776.494261
1437.839614,-12731.542202,76.609550,962.267725
1437.839925,-16950.716072,-1302.362347,4737.318029
1437.840236,-19911.539840,-1532.190996,7179.997637
1437.840548,-20059.581028,-1302.362347,8808.450710
1437.840859,-17320.819043,-1608.800546,8808.450710
1437.841170,-11843.295072,-1378.971896,7550.100608
1437.841482,-5625.565159,-459.657299,4515.256246
1437.841793,0.000000,919.314598,1036.288319
1437.842104,2960.823768,2681.334243,-2664.741391
1437.842416,2812.782580,4213.525239,-3552.988522
1437.842727,-2368.659014,3830.477490,-1850.514855
1437.843038,-9400.615463,2681.334243,-0.000000
1437.843350,-14285.974681,1991.848295,4071.132681
1437.843661,-18061.024985,229.828649,6587.832884
1437.843973,-17468.860231,-1225.752797,8660.409521
1437.844284,-13915.871710,-2145.067394,8216.285956
1437.844595,-9178.553681,-2757.943793,6661.853478
1437.844907,-4811.338623,-2145.067394,4145.153275
1437.845218,-2220.617826,-1532.190996,3034.844362
1437.845529,-1258.350101,153.219100,1850.514855
1437.845841,-3997.112087,842.705048,2220.617826
1437.846152,-8290.306550,919.314598,2146.597232
1437.846463,-10881.027347,842.705048,2886.803174
1437.846775,-10658.965565,1532.190996,3034.844362
1437.847086,-8882.471304,689.485948,2368.659014
1437.847397,-9326.594869,-1072.533697,1628.453072
1437.847709,-9252.574275,-2298.286494,2072.576638
1437.848020,-9474.636058,0.000000,3330.926739
1437.848331,-10658.965565,1302.362347,5181.441594
1437.848643,-13915.871710,1762.019645,7476.080014
1437.848954,-15470.304188,459.657299,8142.265362
1437.849265,-10732.986159,153.219100,6291.750507
1437.849577,-2664.741391,229.828649,1924.535449
1437.849888,3627.009116,2374.896044,-2368.659014
1437.850199,2812.782580,3447.429741,-4885.359217
1437.850511,-1110.308913,1302.362347,-6217.729913
1437.850822,-6217.729913,-153.219100,-3552.988522
1437.851133,-12657.521608,-1072.533697,1554.432478
1437.851445,-19467.416275,-1915.238745,6587.832884
1437.851756,-23168.445985,-2298.286494,9474.636058
1437.852067,-19911.539840,-4673.182538,9030.512492
1437.852379,-11547.212695,-4519.963438,7550.100608
1437.852690,-3849.070898,-3753.867940,2886.803174
1437.853001,370.102971,-1608.800546,-1554.432478
1437.853313,1702.473667,1072.533697,-6069.688724
1437.853624,888.247130,2911.162892,-6661.853478
1437.853935,-2368.659014,4903.011187,-6365.771101
1437.854247,-9178.553681,4903.011187,-4663.297435
1437.854558,-13989.892304,2528.115143,-962.267725
1437.854869,-15914.427753,-689.485948,1850.514855
1437.855181,-15322.262999,-2528.115143,2368.659014
1437.855492,-14582.057057,-2298.286494,2072.576638
1437.855803,-14137.933492,-2145.067394,1258.350101
1437.856115,-12287.418637,-2681.334243,666.185348
1437.856426,-10732.986159,-1915.238745,444.123565
1437.856737,-8956.491898,306.438199,-1036.288319
1437.857049,-7994.224174,919.314598,-1406.391290
1437.857360,-4885.359217,-153.219100,-1998.556043
1437.857671,-2590.720797,-1455.581446,-3775.050304
1437.857983,-2812.782580,-1302.362347,-4811.338623
1437.858294,-5773.606348,-1072.533697,-4367.215058
1437.858605,-11843.295072,-612.876398,-2590.720797
1437.858917,-16506.592507,459.657299,-296.082377
1437.859228,-19171.333898,-229.828649,2590.720797
1437.859539,-18505.148550,-766.095498,3701.029710
1437.859851,-15174.221811,-536.266849,3034.844362
1437.860162,-9918.759623,-995.924147,2368.659014
1437.860473,-3923.091493,-689.485948,-962.267725
1437.860785,-296.082377,229.828649,-3330.926739
1437.861096,74.020594,919.314598,-4811.338623
1437.861407,-1924.535449,2068.457845,-4737.318029
1437.861719,-4811.338623,2528.115143,-3997.112087
1437.862030,-8660.409521,1685.410096,-2146.597232
1437.862341,-10955.047942,-153.219100,-148.041188
1437.862653,-11621.233289,-3140.991542,2442.679609
1437.862964,-11917.315666,-5056.230287,3404.947333
1437.863275,-11843.295072,-4979.620737,3256.906145
1437.863587,-11695.253884,-4060.306139,3923.091493
1437.863898,-11177.109724,-2451.505594,3034.844362
1437.864209,-10658.965565,0.000000,3182.885551
1437.864521,-9474.636058,2145.067394,296.082377
1437.864832,-6735.874072,3140.991542,-518.144159
1437.865143,-3552.988522,3294.210641,-2442.679609
1437.865455,-2220.617826,2528.115143,-4145.153275
1437.865766,-2368.659014,2374.896044,-3775.050304
1437.866077,-4737.318029,1532.190996,-1998.556043
1437.866389,-10436.903782,0.000000,1924.535449
1437.866700,-14656.077652,-1532.190996,4367.215058
1437.867011,-17912.983796,-2604.724693,6661.853478
1437.867323,-16728.654289,-1991.848295,6661.853478
1437.867634,-12583.501014,-995.924147,5477.523971
1437.867945,-7846.182985,-1225.752797,3256.906145
1437.868257,-5033.400406,-459.657299,296.082377
1437.868568,-4515.256246,1915.238745,-1184.329507
1437.868879,-3849.070898,3983.696590,-1776.494261
1437.869191,-3478.967927,3294.210641,-1702.473667
1437.869502,-5033.400406,2451.505594,-1776.494261
1437.869813,-8142.265362,1915.238745,222.061783
1437.870125,-11177.109724,229.828649,2294.638420
1437.870436,-12805.562797,-2604.724693,3330.926739
1437.870747,-14359.995275,-3370.820191,4441.235652
1437.871059,-14285.974681,-4060.306139,4293.194464
1437.871370,-11991.336260,-3983.696590,4293.194464
1437.871681,-9252.574275,-1915.238745,3034.844362
1437.871993,-7994.224174,-689.485948,888.247130
1437.872304,-4367.215058,766.095498,-370.102971
1437.872615,-518.144159,1685.410096,-2146.597232
1437.872927,-518.144159,1991.848295,-3701.029710
1437.873238,-2590.720797,1685.410096,-3256.906145
1437.873549,-5921.647536,2374.896044,-2590.720797
1437.873861,-10732.986159,3753.867940,-518.144159
1437.874172,-13619.789333,1532.190996,1924.535449
1437.874483,-15396.283594,-842.705048,3256.906145
1437.874795,-14359.995275,-1302.362347,2960.823768
1437.875106,-11103.089130,-1455.581446,1998.556043
1437.875417,-6957.935855,-2221.676944,-222.061783
1437.875729,-4145.153275,-2757.943793,-3256.906145
1437.876040,-2886.803174,-229.828649,-5107.421000
1437.876351,-4811.338623,1455.581446,-4515.256246
1437.876663,-9622.677246,1072.533697,-2886.803174
1437.876974,-14656.077652,995.924147,-296.082377
1437.877285,-16654.633695,536.266849,1184.329507
1437.877597,-13989.892304,-2145.067394,1998.556043
1437.877908,-9104.533087,-4673.182538,1258.350101
1437.878219,-6365.771101,-5439.278036,-1406.391290
1437.878531,-5329.482782,-4749.792088,-1776.494261
1437.878842,-7179.997637,-2757.943793,-74.020594
1437.879153,-12287.418637,-766.095498,1332.370696
1437.879465,-15322.262999,612.876398,2442.679609
1437.879776,-16506.592507,1915.238745,2146.597232
1437.880087,-13027.624579,2681.334243,296.082377
1437.880399,-6587.832884,3370.820191,-2368.659014
1437.880710,-1998.556043,2834.553343,-5107.421000
1437.881021,-296.082377,2528.115143,-6439.791695
1437.881333,-2368.659014,1455.581446,-5329.482782
1437.881644,-8068.244768,229.828649,-1554.432478
1437.881955,-14063.912898,-612.876398,2812.782580
1437.882267,-17764.942608,-1762.019645,5033.400406
1437.882578,-17172.777854,-2374.896044,5921.647536
1437.882889,-12213.398043,-3064.381992,4737.318029
1437.883201,-7402.059420,-2834.553343,1702.473667
1437.883512,-4145.153275,-1225.752797,-1924.535449
1437.883823,-2442.679609,1149.143247,-3478.967927
1437.884135,-2960.823768,3370.820191,-3701.029710
1437.884446,-5625.565159,3907.087040,-2146.597232
1437.884757,-7846.182985,3217.601092,-222.061783
1437.885069,-8956.491898,1838.629195,370.102971
1437.885380,-9474.636058,76.609550,1776.494261
1437.885691,-9326.594869,-1762.019645,2368.659014
1437.886003,-10807.006753,-1532.190996,2442.679609
1437.886314,-12953.603985,536.266849,3330.926739
1437.886625,-14063.912898,-153.219100,3552.988522
1437.886937,-12657.521608,-1225.752797,3849.070898
1437.887248,-8512.368333,-995.924147,1554.432478
1437.887560,-3627.009116,919.314598,-296.082377
1437.887871,-962.267725,1302.362347,-592.164754
1437.888182,-2738.761985,0.000000,592.164754
1437.888494,-6883.915261,-2145.067394,962.267725
1437.888805,-10140.821405,-2068.457845,2516.700203
1437.889116,-12509.480420,-1685.410096,4071.132681
1437.889428,-13249.686362,-1532.190996,5181.441594
1437.889739,-13175.665768,-1072.533697,4293.194464
1437.890050,-11621.233289,-1455.581446,2738.761985
1437.890362,-7846.182985,-1915.238745,2368.659014
1437.890673,-6069.688724,-2145.067394,1184.329507
1437.890984,-6587.832884,536.266849,-222.061783
1437.891296,-7698.141797,3064.381992,-0.000000
1437.891607,-9400.615463,3217.601092,-296.082377
1437.891918,-10658.965565,4213.525239,370.102971
1437.892230,-9696.697840,5209.449386,814.226536
1437.892541,-7031.956449,3524.039291,814.226536
1437.892852,-4145.153275,1072.533697,1036.288319
1437.893164,-3404.947333,-1225.752797,-444.123565
1437.893475,-4515.256246,-2911.162892,-1628.453072
1437.893786,-6217.729913,-1608.800546,-370.102971
1437.894098,-9104.533087,229.828649,814.226536
1437.894409,-13619.789333,0.000000,1924.535449
1437.894720,-16210.510130,-229.828649,2516.700203
1437.895032,-15100.201217,612.876398,1998.556043
1437.895343,-10140.821405,1915.238745,-0.000000
1437.895654,-3923.091493,1532.190996,-2590.720797
1437.895966,-2146.597232,536.266849,-4737.318029
1437.896277,-2590.720797,-306.438199,-5033.400406
1437.896588,-5921.647536,-1149.143247,-3108.864956
1437.896900,-11029.068536,-689.485948,-0.000000
1437.897211,-15396.283594,-689.485948,3849.070898
1437.897522,-17764.942608,-1991.848295,5033.400406
1437.897834,-15692.365970,-3983.696590,4737.318029
1437.898145,-11177.109724,-4903.011187,2664.741391
1437.898456,-6365.771101,-2374.896044,-444.123565
1437.898768,-3404.947333,-1608.800546,-3478.967927
1437.899079,-3552.988522,229.828649,-4441.235652
1437.899390,-5477.523971,1685.410096,-3701.029710
1437.899702,-8734.430116,2145.067394,-2146.597232
1437.900013,-11769.274478,2374.896044,222.061783
1437.900324,-13471.748144,1838.629195,1924.535449
1437.900636,-13101.645173,-153.219100,2294.638420
1437.900947,-11769.274478,-1532.190996,1332.370696
1437.901258,-11103.089130,-1455.581446,222.061783
1437.901570,-9992.780217,-536.266849,-888.247130
1437.901881,-9178.553681,-536.266849,-222.061783
1437.902192,-9400.615463,0.000000,592.164754
1437.902504,-10066.800811,0.000000,2220.617826
1437.902815,-9252.574275,-1149.143247,2072.576638
1437.903126,-6661.853478,-1378.971896,1850.514855
1437.903438,-6143.709319,-1149.143247,1184.329507
1437.903749,-5107.421000,-306.438199,814.226536
1437.904060,-6513.812290,1072.533697,370.102971
1437.904372,-9252.574275,2068.457845,1628.453072
1437.904683,-9770.718434,1915.238745,2220.617826
1437.904994,-8216.285956,383.047749,1628.453072
1437.905306,-5699.585753,1378.971896,1850.514855
1437.905617,-5773.606348,1455.581446,2516.700203
1437.905928,-8586.388927,536.266849,2590.720797
1437.906240,-11177.109724,-153.219100,2886.803174
1437.906551,-11399.171507,842.705048,2294.638420
1437.906862,-9548.656652,2068.457845,1776.494261
1437.907174,-6809.894666,3140.991542,1332.370696
1437.907485,-6143.709319,2834.553343,-0.000000
1437.907796,-5921.647536,1072.533697,-444.123565
1437.908108,-4441.235652,-1225.752797,-0.000000
1437.908419,-4071.132681,-2987.772442,1258.350101
1437.908730,-6735.874072,-2221.676944,2072.576638
1437.909042,-10436.903782,-1455.581446,2812.782580
1437.909353,-12583.501014,-1608.800546,3404.947333
1437.909665,-13471.748144,-383.047749,3552.988522
1437.909976,-13249.686362,1915.238745,3330.926739
1437.910288,-10807.006753,2068.457845,1702.473667
1437.910599,-6883.915261,1302.362347,-1110.308913
1437.910910,-3256.906145,383.047749,-3478.967927
1437.911222,-3108.864956,1302.362347,-4441.235652
1437.911533,-6217.729913,1915.238745,-3256.906145
1437.911845,-10732.986159,1685.410096,-222.061783
1437.912156,-14952.160028,0.000000,1554.432478
1437.912468,-17616.901420,-1302.362347,4219.173869
1437.912779,-16654.633695,-1608.800546,4811.338623
1437.913091,-11917.315666,-1991.848295,2590.720797
1437.913402,-7846.182985,-2451.505594,518.144159
1437.913714,-4441.235652,-3370.820191,-1332.370696
1437.914025,-4145.153275,-3140.991542,-2664.741391
1437.914336,-6217.729913,-919.314598,-1924.535449
1437.914648,-9104.533087,995.924147,-0.000000
1437.914959,-12583.501014,1225.752797,1554.432478
1437.915271,-13397.727550,383.047749,1998.556043
1437.915582,-10658.965565,76.609550,1110.308913
1437.915894,-7698.141797,-689.485948,-370.102971
1437.916205,-6217.729913,-229.828649,-1554.432478
1437.916517,-6069.688724,153.219100,-1628.453072
1437.916828,-7476.080014,842.705048,-1184.329507
1437.917140,-9474.636058,842.705048,74.020594
1437.917451,-11621.233289,1072.533697,1702.473667
1437.917763,-12509.480420,1685.410096,2294.638420
1437.918074,-9992.780217,1378.971896,1998.556043
1437.918385,-7550.100608,0.000000,444.123565
1437.918697,-4885.359217,-536.266849,-1480.411884
1437.919008,-3182.885551,-153.219100,-2516.700203
1437.919320,-4515.256246,1302.362347,-3478.967927
1437.919631,-6735.874072,536.266849,-1776.494261
1437.919943,-9252.574275,1455.581446,518.144159
1437.920254,-12139.377449,1072.533697,2590.720797
1437.920566,-13175.665768,-383.047749,4145.153275
1437.920877,-11843.295072,-2451.505594,3404.947333
1437.921189,-9252.574275,-2681.334243,1258.350101
1437.921500,-7031.956449,-459.657299,222.061783
1437.921812,-5329.482782,1302.362347,-1850.514855
1437.922123,-5995.668130,1149.143247,-2368.659014
1437.922434,-8216.285956,-153.219100,-1628.453072
1437.922746,-10658.965565,306.438199,370.102971
1437.923057,-11547.212695,306.438199,1628.453072
1437.923369,-11695.253884,-612.876398,3034.844362
1437.923680,-10732.986159,-2604.724693,2368.659014
1437.923992,-9400.615463,-4673.182538,2368.659014
1437.924303,-7772.162391,-3294.210641,1036.288319
1437.924615,-7550.100608,-612.876398,222.061783
1437.924926,-8216.285956,1838.629195,444.123565
1437.925238,-10658.965565,1378.971896,666.185348
1437.925549,-12361.439231,459.657299,1110.308913
1437.925860,-10658.965565,-153.219100,888.247130
1437.926172,-8586.388927,-229.828649,-148.041188
1437.926483,-7476.080014,995.924147,-222.061783
1437.926795,-7698.141797,1455.581446,-444.123565
1437.927106,-8364.327145,0.000000,-740.205942
1437.927418,-8364.327145,-1915.238745,-0.000000
1437.927729,-9918.759623,-306.438199,1480.411884
1437.928041,-11399.171507,1225.752797,3034.844362
1437.928352,-11473.192101,995.924147,2664.741391
1437.928664,-10066.800811,-995.924147,1776.494261
1437.928975,-8216.285956,-1915.238745,1406.391290
1437.929287,-5699.585753,-689.485948,296.082377
1437.929598,-3775.050304,1378.971896,-1332.370696
1437.929909,-4515.256246,1072.533697,-2886.803174
1437.930221,-6661.853478,1072.533697,-2368.659014
1437.930532,-9030.512492,689.485948,-1258.350101
1437.930844,-10140.821405,766.095498,370.102971
1437.931155,-10807.006753,-229.828649,1110.308913
1437.931467,-10955.047942,-1378.971896,1554.432478
1437.931778,-9918.759623,-1225.752797,1036.288319
1437.932090,-8290.306550,-306.438199,-148.041188
1437.932401,-7179.997637,1302.362347,592.164754
1437.932713,-8290.306550,995.924147,814.226536
1437.933024,-9696.697840,1072.533697,-0.000000
1437.933336,-9474.636058,536.266849,-962.267725
1437.933647,-8734.430116,76.609550,-666.185348
1437.933958,-7624.121203,-612.876398,-1036.288319
1437.934270,-6661.853478,-1072.533697,-1332.370696
1437.934581,-6661.853478,-842.705048,-1184.329507
1437.934893,-8142.265362,-1608.800546,-962.267725
1437.935204,-10140.821405,-536.266849,888.247130
1437.935516,-11991.336260,0.000000,1998.556043
1437.935827,-12731.542202,-459.657299,1702.473667
1437.936139,-11547.212695,-1608.800546,1184.329507
1437.936450,-9178.553681,-842.705048,-0.000000
1437.936762,-7846.182985,612.876398,-1554.432478
1437.937073,-7772.162391,2145.067394,-2220.617826
1437.937384,-9474.636058,612.876398,-1554.432478
1437.937696,-11473.192101,383.047749,222.061783
1437.938007,-12657.521608,919.314598,1850.514855
1437.938319,-11917.315666,-306.438199,2812.782580
1437.938630,-9770.718434,-2221.676944,2516.700203
1437.938942,-6143.709319,-3524.039291,1480.411884
1437.939253,-3849.070898,-3064.381992,518.144159
1437.939565,-4737.318029,-2451.505594,296.082377
1437.939876,-7328.038826,-766.095498,592.164754
1437.940188,-10658.965565,919.314598,1406.391290
1437.940499,-13175.665768,995.924147,2664.741391
1437.940811,-13175.665768,0.000000,3849.070898
1437.941122,-9770.718434,-1149.143247,2442.679609
1437.941433,-6661.853478,-1685.410096,-444.123565
1437.941745,-4737.318029,-383.047749,-1184.329507
1437.942056,-4737.318029,-612.876398,-888.247130
1437.942368,-7920.203579,459.657299,370.102971
1437.942679,-10362.883188,766.095498,1776.494261
1437.942991,-12509.480420,612.876398,3404.947333
1437.943302,-12879.583391,689.485948,3701.029710
1437.943614,-9400.615463,1225.752797,3256.906145
1437.943925,-5847.626942,0.000000,962.267725
1437.944237,-3997.112087,0.000000,-962.267725
1437.944548,-4071.132681,766.095498,-2442.679609
1437.944860,-4589.276840,1608.800546,-2960.823768
1437.945171,-6513.812290,2068.457845,-2516.700203
1437.945482,-9178.553681,1378.971896,-1480.411884
1437.945794,-11325.150913,919.314598,370.102971
1437.946105,-12731.542202,919.314598,1628.453072
1437.946417,-13397.727550,-766.095498,1776.494261
1437.946728,-11843.295072,-919.314598,1406.391290
1437.947040,-9474.636058,153.219100,-0.000000
1437.947351,-7105.977043,842.705048,-1628.453072
1437.947663,-5329.482782,-459.657299,-3330.926739
1437.947974,-5847.626942,-306.438199,-3478.967927
1437.948286,-7920.203579,1762.019645,-1110.308913
1437.948597,-11251.130318,459.657299,-0.000000
1437.948908,-13397.727550,-3140.991542,1480.411884
1437.949220,-13027.624579,-4519.963438,2220.617826
1437.949531,-10658.965565,-4060.306139,1406.391290
1437.949843,-7846.182985,-2221.676944,-370.102971
1437.950154,-6809.894666,-689.485948,-1998.556043
1437.950466,-7550.100608,612.876398,-2146.597232
1437.950777,-8734.430116,1149.143247,-1036.288319
1437.951089,-10066.800811,153.219100,-0.000000
1437.951400,-11399.171507,153.219100,1184.329507
1437.951712,-11843.295072,0.000000,740.205942
1437.952023,-9770.718434,306.438199,370.102971
1437.952335,-8068.244768,1149.143247,-814.226536
1437.952646,-7402.059420,1225.752797,-666.185348
1437.952957,-8512.368333,153.219100,666.185348
1437.953269,-10140.821405,-1685.410096,1036.288319
1437.953580,-9474.636058,-612.876398,2294.638420
1437.953892,-9252.574275,-995.924147,1184.329507
1437.954203,-7328.038826,-1378.971896,1480.411884
1437.954515,-7105.977043,-995.924147,1628.453072
1437.954826,-7402.059420,-383.047749,814.226536
1437.955138,-8808.450710,995.924147,1258.350101
1437.955449,-10955.047942,2451.505594,2368.659014
1437.955761,-10658.965565,2221.676944,2516.700203
1437.956072,-9326.594869,842.705048,1332.370696
1437.956384,-6291.750507,76.609550,-0.000000
1437.956695,-4737.318029,459.657299,-444.123565
1437.957006,-3923.091493,-383.047749,-666.185348
1437.957318,-5477.523971,-229.828649,444.123565
1437.957629,-9474.636058,-306.438199,1480.411884
1437.957941,-11843.295072,-689.485948,3478.967927
1437.958252,-13027.624579,-383.047749,4663.297435
1437.958564,-11991.336260,842.705048,4663.297435
1437.958875,-8808.450710,0.000000,2368.659014
1437.959187,-5847.626942,-1378.971896,518.144159
1437.959498,-3330.926739,-842.705048,-1258.350101
1437.959810,-3552.988522,612.876398,-1184.329507
1437.960121,-6143.709319,842.705048,-814.226536
1437.960433,-9992.780217,842.705048,592.164754
1437.960744,-13249.686362,76.609550,1924.535449
1437.961055,-13323.706956,-459.657299,2072.576638
1437.961367,-11621.233289,-1225.752797,1628.453072
1437.961678,-8068.244768,-1532.190996,-0.000000
1437.961990,-6365.771101,-1302.362347,-1702.473667
1437.962301,-5921.647536,-842.705048,-2146.597232
1437.962613,-7994.224174,-306.438199,-1702.473667
1437.962924,-11473.192101,766.095498,-370.102971
1437.963236,-14804.118840,1532.190996,1776.494261
1437.963547,-15470.304188,1225.752797,3404.947333
1437.963859,-13323.706956,0.000000,2516.700203
1437.964170,-9030.512492,-1532.190996,518.144159
1437.964481,-4663.297435,-1149.143247,-1554.432478
1437.964793,-2738.761985,-612.876398,-3034.844362
1437.965104,-4515.256246,612.876398,-3034.844362
1437.965416,-8660.409521,1378.971896,-1110.308913
1437.965727,-13249.686362,1838.629195,1850.514855
1437.966039,-16654.633695,842.705048,4737.318029
1437.966350,-15914.427753,-1608.800546,4811.338623
1437.966662,-9696.697840,-2757.943793,1332.370696
1437.966973,-3478.967927,-1455.581446,-2294.638420
1437.967285,518.144159,0.000000,-3256.906145
1437.967596,-1998.556043,0.000000,-2442.679609
1437.967908,-8364.327145,-842.705048,-1036.288319
1437.968219,-14285.974681,153.219100,1850.514855
1437.968530,-16876.695478,1225.752797,4811.338623
1437.968842,-14582.057057,1915.238745,5699.585753
1437.969153,-9918.759623,229.828649,3034.844362
1437.969465,-4885.359217,-1685.410096,-74.020594
1437.969776,-1036.288319,-1302.362347,-2664.741391
1437.970088,-370.102971,2374.896044,-3108.864956
1437.970399,-4293.194464,4903.011187,-1998.556043
1437.970711,-10362.883188,2757.943793,-370.102971
1437.971022,-12879.583391,995.924147,1184.329507
1437.971334,-11843.295072,0.000000,2368.659014
1437.971645,-8364.327145,612.876398,1628.453072
1437.971957,-6217.729913,-689.485948,-222.061783
1437.972268,-5551.544565,-2145.067394,-1110.308913
1437.972579,-6291.750507,-1762.019645,-592.164754
1437.972891,-9622.677246,-1072.533697,296.082377
1437.973202,-13323.706956,0.000000,1554.432478
1437.973514,-14434.015869,536.266849,2886.803174
1437.973825,-11473.192101,-306.438199,2664.741391
1437.974137,-8142.265362,-1072.533697,1036.288319
1437.974448,-6587.832884,-1991.848295,370.102971
1437.974760,-6291.750507,-1455.581446,444.123565
1437.975071,-6883.915261,-842.705048,222.061783
1437.975383,-8956.491898,0.000000,-222.061783
1437.975694,-12213.398043,1072.533697,-518.144159
1437.976005,-12657.521608,1378.971896,1332.370696
1437.976317,-11399.171507,229.828649,2220.617826
1437.976628,-9178.553681,-919.314598,1924.535449
1437.976940,-8142.265362,-1838.629195,1554.432478
1437.977251,-8438.347739,-1225.752797,1924.535449
1437.977563,-9178.553681,-229.828649,1998.556043
1437.977874,-9474.636058,-689.485948,1998.556043
1437.978186,-10214.842000,-383.047749,1850.514855
1437.978497,-10510.924376,766.095498,2590.720797
1437.978809,-9770.718434,536.266849,3108.864956
1437.979120,-7179.997637,-766.095498,2072.576638
1437.979432,-5033.400406,-1762.019645,1258.350101
1437.979743,-4145.153275,-2221.676944,740.205942
1437.980054,-4959.379811,-1532.190996,-74.020594
1437.980366,-8216.285956,612.876398,592.164754
1437.980677,-10584.944971,3217.601092,1184.329507
1437.980989,-13101.645173,1532.190996,2368.659014
1437.981300,-13915.871710,1455.581446,2960.823768
1437.981612,-10510.924376,919.314598,2146.597232
1437.981923,-5921.647536,842.705048,-0.000000
1437.982235,-2590.720797,919.314598,-2072.576638
1437.982546,-2294.638420,842.705048,-2960.823768
1437.982858,-5847.626942,1532.190996,-2220.617826
1437.983169,-9474.636058,1302.362347,666.185348
1437.983481,-12139.377449,229.828649,1702.473667
1437.983792,-13323.706956,-306.438199,3404.947333
1437.984103,-11769.274478,-536.266849,2886.803174
1437.984415,-8586.388927,-1991.848295,1332.370696
1437.984726,-5847.626942,-2145.067394,222.061783
1437.985038,-4885.359217,-2987.772442,-1480.411884
1437.985349,-4959.379811,-1302.362347,-3256.906145
1437.985661,-7254.018232,0.000000,-2442.679609
1437.985972,-11029.068536,1455.581446,370.102971
1437.986284,-14730.098246,612.876398,1850.514855
1437.986595,-16210.510130,-919.314598,1776.494261
1437.986907,-13323.706956,-1072.533697,740.205942
1437.987218,-9178.553681,-995.924147,-592.164754
1437.987529,-5033.400406,383.047749,-1628.453072
1437.987841,-5477.523971,1072.533697,-3627.009116
1437.988152,-7254.018232,153.219100,-2960.823768
1437.988464,-9400.615463,0.000000,-1110.308913
1437.988775,-11843.295072,689.485948,1332.370696
1437.989087,-11621.233289,536.266849,2368.659014
1437.989398,-11547.212695,-1991.848295,740.205942
1437.989710,-9400.615463,-3064.381992,148.041188
1437.990021,-7105.977043,-919.314598,-888.247130
1437.990333,-7846.182985,766.095498,-1776.494261
1437.990644,-9474.636058,2145.067394,-1628.453072
1437.990956,-10584.944971,612.876398,148.041188
1437.991267,-10807.006753,306.438199,1184.329507
1437.991578,-10066.800811,306.438199,1332.370696
1437.991890,-8364.327145,76.609550,1184.329507
1437.992201,-7179.997637,-842.705048,370.102971
1437.992513,-6809.894666,-536.266849,-0.000000
1437.992824,-7476.080014,76.609550,-148.041188
1437.993136,-10362.883188,995.924147,444.123565
1437.993447,-11029.068536,383.047749,2294.638420
1437.993759,-10214.842000,306.438199,2072.576638
1437.994070,-7772.162391,76.609550,1702.473667
1437.994382,-5699.585753,-689.485948,1850.514855
1437.994693,-4589.276840,-1838.629195,1258.350101
1437.995005,-4737.318029,-2068.457845,1332.370696
1437.995316,-6957.935855,76.609550,1924.535449
1437.995627,-9178.553681,2451.505594,1998.556043
1437.995939,-11029.068536,2298.286494,1628.453072
1437.996250,-10510.924376,1455.581446,1628.453072
1437.996562,-9104.533087,306.438199,888.247130
1437.996873,-6513.812290,0.000000,370.102971
1437.997185,-4589.276840,-1225.752797,-1480.411884
1437.997496,-5995.668130,-1072.533697,-1258.350101
1437.997808,-8956.491898,-306.438199,-0.000000
1437.998119,-11917.315666,-766.095498,740.205942
1437.998431,-12879.583391,-229.828649,2220.617826
1437.998742,-13397.727550,76.609550,2960.823768
1437.999053,-11473.192101,-689.485948,2590.720797
1437.999365,-6883.915261,-1991.848295,148.041188
1437.999676,-4219.173869,-2451.505594,-1628.453072
1437.999988,-4367.215058,-1455.581446,-1850.514855
1438.000299,-7920.203579,229.828649,-1036.288319
1438.000611,-11325.150913,1378.971896,-74.020594
1438.000922,-14063.912898,1838.629195,962.267725
1438.001234,-14878.139434,689.485948,1850.514855
1438.001545,-13323.706956,0.000000,1406.391290
1438.001857,-8882.471304,153.219100,296.082377
1438.002168,-6143.709319,-1072.533697,-2368.659014
1438.002480,-5625.565159,-2298.286494,-2294.638420
1438.002791,-6735.874072,-919.314598,-1776.494261
1438.003102,-9622.677246,-306.438199,-148.041188
1438.003414,-11325.150913,-1072.533697,222.061783
1438.003725,-12065.356855,-1072.533697,1258.350101
1438.004037,-10881.027347,536.266849,2960.823768
1438.004348,-9696.697840,0.000000,2072.576638
1438.004660,-9030.512492,-2604.724693,814.226536
1438.004971,-7105.977043,-2374.896044,-518.144159
1438.005283,-6217.729913,612.876398,-740.205942
1438.005594,-5033.400406,2221.676944,-518.144159
1438.005906,-6513.812290,2298.286494,-1258.350101
1438.006217,-8068.244768,1378.971896,-370.102971
1438.006529,-8068.244768,1302.362347,-296.082377
1438.006840,-7994.224174,1302.362347,-0.000000
1438.007151,-8660.409521,1455.581446,296.082377
1438.007463,-9104.533087,919.314598,-592.164754
1438.007774,-8882.471304,-459.657299,-1554.432478
1438.008086,-8734.430116,536.266849,-1258.350101
1438.008397,-8216.285956,1762.019645,-888.247130
1438.008709,-8660.409521,1608.800546,-0.000000
1438.009020,-9178.553681,612.876398,1332.370696
1438.009332,-8956.491898,-1225.752797,1110.308913
1438.009643,-8808.450710,-2221.676944,1332.370696
1438.009955,-8142.265362,-2374.896044,1184.329507
1438.010266,-7402.059420,-995.924147,-0.000000
1438.010578,-8364.327145,229.828649,-1258.350101
1438.010889,-9400.615463,689.485948,-1036.288319
1438.011200,-10732.986159,76.609550,222.061783
1438.011512,-11029.068536,383.047749,1480.411884
1438.011823,-11473.192101,-153.219100,814.226536
1438.012135,-9918.759623,-689.485948,592.164754
1438.012446,-9178.553681,-1762.019645,518.144159
1438.012758,-8808.450710,-1455.581446,592.164754
1438.013069,-9696.697840,-612.876398,444.123565
1438.013381,-10214.842000,0.000000,666.185348
1438.013692,-10658.965565,0.000000,1110.308913
1438.014004,-11177.109724,306.438199,1850.514855
1438.014315,-9178.553681,-306.438199,1332.370696
1438.014627,-7328.038826,-1762.019645,666.185348
1438.014938,-5699.585753,-2834.553343,-0.000000
1438.015249,-7105.977043,-1685.410096,888.247130
1438.015561,-9548.656652,-689.485948,1258.350101
1438.015872,-10955.047942,919.314598,1554.432478
1438.016184,-11103.089130,1455.581446,2368.659014
1438.016495,-9474.636058,459.657299,2220.617826
1438.016807,-7846.182985,-153.219100,1110.308913
1438.017118,-6365.771101,-689.485948,148.041188
1438.017430,-6217.729913,0.000000,-0.000000
1438.017741,-7402.059420,0.000000,444.123565
1438.018053,-8808.450710,306.438199,1036.288319
1438.018364,-10881.027347,689.485948,888.247130
1438.018676,-10362.883188,306.438199,1628.453072
1438.018987,-8956.491898,612.876398,1850.514855
1438.019299,-7920.203579,842.705048,1924.535449
1438.019610,-7254.018232,229.828649,1406.391290
1438.019921,-6883.915261,-766.095498,1184.329507
1438.020233,-6069.688724,-2528.115143,1406.391290
1438.020544,-5773.606348,-2298.286494,-74.020594
1438.020856,-5995.668130,-459.657299,-1480.411884
1438.021167,-6439.791695,1455.581446,-740.205942
1438.021479,-8882.471304,1302.362347,-0.000000
1438.021790,-12139.377449,995.924147,666.185348
1438.022102,-13767.830521,0.000000,1776.494261
1438.022413,-13693.809927,-229.828649,1554.432478
1438.022725,-9622.677246,-153.219100,666.185348
1438.023036,-6587.832884,459.657299,-1998.556043
1438.023348,-5403.503377,689.485948,-3478.967927
1438.023659,-5699.585753,1072.533697,-2960.823768
1438.023971,-7476.080014,459.657299,-1406.391290
1438.024282,-11251.130318,76.609550,592.164754
1438.024593,-13175.665768,76.609550,2294.638420
1438.024905,-14137.933492,-2451.505594,1480.411884
1438.025216,-11251.130318,-2604.724693,592.164754
1438.025528,-7772.162391,-1072.533697,-1184.329507
1438.025839,-6735.874072,612.876398,-2368.659014
1438.026151,-7105.977043,612.876398,-1776.494261
1438.026462,-9104.533087,-153.219100,-1110.308913
1438.026774,-11029.068536,0.000000,962.267725
1438.027085,-12287.418637,306.438199,1554.432478
1438.027397,-11103.089130,76.609550,1850.514855
1438.027708,-9548.656652,0.000000,888.247130
1438.028020,-8882.471304,0.000000,666.185348
1438.028331,-8586.388927,0.000000,370.102971
1438.028642,-8068.244768,536.266849,-0.000000
1438.028954,-8660.409521,766.095498,1332.370696
1438.029265,-9474.636058,0.000000,2146.597232
1438.029577,-8364.327145,-1838.629195,2146.597232
1438.029888,-6809.894666,-2604.724693,2294.638420
1438.030200,-4959.379811,-2451.505594,1110.308913
1438.030511,-4885.359217,-2068.457845,1184.329507
1438.030823,-7624.121203,-383.047749,1628.453072
1438.031134,-8882.471304,919.314598,1554.432478
1438.031446,-9844.739029,1378.971896,1628.453072
1438.031757,-9918.759623,229.828649,2072.576638
1438.032069,-9104.533087,1608.800546,1184.329507
1438.032380,-7994.224174,2834.553343,-222.061783
1438.032692,-7402.059420,2451.505594,-296.082377
1438.033003,-8142.265362,1302.362347,296.082377
1438.033314,-9474.636058,995.924147,1184.329507
1438.033626,-9548.656652,842.705048,888.247130
1438.033937,-9178.553681,1302.362347,1110.308913
1438.034249,-8512.368333,1225.752797,1554.432478
1438.034560,-7994.224174,0.000000,1110.308913
1438.034872,-6883.915261,-1762.019645,666.185348
1438.035183,-6217.729913,-3140.991542,-148.041188
1438.035495,-7105.977043,-1762.019645,518.144159
1438.035806,-9030.512492,0.000000,444.123565
1438.036118,-10955.047942,1378.971896,592.164754
1438.036429,-12361.439231,383.047749,1554.432478
1438.036741,-12731.542202,76.609550,1406.391290
1438.037052,-11325.150913,306.438199,1628.453072
1438.037364,-9548.656652,689.485948,444.123565
1438.037675,-9030.512492,-229.828649,-222.061783
1438.037986,-7031.956449,-1991.848295,-814.226536
1438.038298,-5625.565159,-1838.629195,-2146.597232
1438.038609,-6661.853478,-766.095498,-1480.411884
1438.038921,-10214.842000,1225.752797,962.267725
1438.039232,-14804.118840,459.657299,2960.823768
1438.039544,-16062.468941,-1225.752797,4515.256246
1438.039855,-13101.645173,-2068.457845,3552.988522
1438.040167,-8660.409521,-2374.896044,2368.659014
1438.040478,-4219.173869,-1915.238745,592.164754
1438.040790,-1554.432478,-612.876398,-2294.638420
1438.041101,-2960.823768,459.657299,-3404.947333
1438.041413,-5847.626942,1225.752797,-1776.494261
1438.041724,-9622.677246,2068.457845,888.247130
1438.042036,-13323.706956,1072.533697,3182.885551
1438.042347,-14508.036463,-153.219100,3775.050304
1438.042658,-11547.212695,0.000000,1702.473667
1438.042970,-7772.162391,612.876398,-370.102971
1438.043281,-5329.482782,1378.971896,-1332.370696
1438.043593,-4367.215058,1072.533697,-1184.329507
1438.043904,-5773.606348,1378.971896,-1258.350101
1438.044216,-8512.368333,1378.971896,370.102971
1438.044527,-11547.212695,1072.533697,1480.411884
1438.044839,-11325.150913,766.095498,2886.803174
1438.045150,-9104.533087,-459.657299,1554.432478
1438.045462,-6291.750507,-1149.143247,666.185348
1438.045773,-5699.585753,-1072.533697,-74.020594
1438.046085,-7698.141797,-459.657299,-222.061783
1438.046396,-8290.306550,1838.629195,-666.185348
1438.046708,-8216.285956,2757.943793,-666.185348
1438.047019,-9770.718434,2068.457845,296.082377
1438.047330,-10955.047942,153.219100,814.226536
1438.047642,-10436.903782,-1072.533697,518.144159
1438.047953,-8734.430116,-919.314598,370.102971
1438.048265,-7624.121203,-919.314598,1110.308913
1438.048576,-9326.594869,-1225.752797,148.041188
1438.048888,-11547.212695,-383.047749,-370.102971
1438.049199,-12139.377449,-306.438199,592.164754
1438.049511,-11621.233289,-995.924147,1258.350101
1438.049822,-10066.800811,-842.705048,1554.432478
1438.050134,-8956.491898,-766.095498,666.185348
1438.050445,-7550.100608,-1685.410096,-0.000000
1438.050757,-5699.585753,-2145.067394,370.102971
1438.051068,-6735.874072,-995.924147,592.164754
1438.051380,-9252.574275,459.657299,-0.000000
1438.051691,-11621.233289,1378.971896,592.164754
1438.052002,-11621.233289,1225.752797,1702.473667
1438.052314,-10362.883188,153.219100,1036.288319
1438.052625,-8586.388927,0.000000,444.123565
1438.052937,-6809.894666,-1302.362347,-814.226536
1438.053248,-5847.626942,-612.876398,-888.247130
1438.053560,-6217.729913,-153.219100,-148.041188
1438.053871,-8734.430116,536.266849,-0.000000
1438.054183,-11547.212695,229.828649,2146.597232
1438.054494,-13915.871710,0.000000,2960.823768
1438.054806,-11843.295072,76.609550,3552.988522
1438.055117,-8660.409521,-229.828649,2368.659014
1438.055429,-6439.791695,-842.705048,1110.308913
1438.055740,-5625.565159,-2068.457845,-0.000000
1438.056051,-6069.688724,-459.657299,-0.000000
1438.056363,-6957.935855,612.876398,814.226536
1438.056674,-7772.162391,76.609550,888.247130
1438.056986,-8438.347739,-842.705048,-0.000000
1438.057297,-8290.306550,-612.876398,518.144159
1438.057609,-7476.080014,995.924147,666.185348
1438.057920,-8882.471304,1149.143247,-74.020594
1438.058232,-10140.821405,995.924147,-0.000000
1438.058543,-10732.986159,919.314598,962.267725
1438.058855,-11399.171507,1149.143247,1332.370696
1438.059166,-10066.800811,1685.410096,888.247130
1438.059478,-8216.285956,1378.971896,-0.000000
1438.059789,-7031.956449,766.095498,-222.061783
1438.060101,-6291.750507,0.000000,-1924.535449
1438.060412,-5699.585753,-1685.410096,-962.267725
1438.060723,-7105.977043,-2068.457845,-1036.288319
1438.061035,-9178.553681,-995.924147,370.102971
1438.061346,-11251.130318,-689.485948,-74.020594
1438.061658,-11621.233289,689.485948,-592.164754
1438.061969,-11621.233289,1455.581446,-0.000000
1438.062281,-10510.924376,383.047749,444.123565
1438.062592,-8512.368333,-919.314598,148.041188
1438.062904,-8364.327145,-919.314598,-1332.370696
1438.063215,-7994.224174,-689.485948,-1850.514855
1438.063527,-7624.121203,-383.047749,-1258.350101
1438.063838,-9844.739029,612.876398,-0.000000
1438.064150,-12065.356855,1149.143247,518.144159
1438.064461,-14359.995275,76.609550,1332.370696
1438.064773,-13175.665768,-842.705048,2368.659014
1438.065084,-9252.574275,-536.266849,1406.391290
1438.065395,-6883.915261,-1072.533697,592.164754
1438.065707,-4589.276840,-2451.505594,-0.000000
1438.066018,-5329.482782,-3064.381992,-962.267725
1438.066330,-6365.771101,-1378.971896,-444.123565
1438.066641,-8586.388927,919.314598,888.247130
1438.066953,-11991.336260,1378.971896,2664.741391
1438.067264,-14359.995275,689.485948,3701.029710
1438.067576,-12509.480420,-1302.362347,3701.029710
1438.067887,-8808.450710,-842.705048,1850.514855
1438.068199,-5625.565159,-689.485948,296.082377
1438.068510,-3256.906145,0.000000,-1258.350101
1438.068822,-2886.803174,383.047749,-3256.906145
1438.069133,-4959.379811,1685.410096,-2294.638420
1438.069445,-9696.697840,2681.334243,1110.308913
1438.069756,-15322.262999,2451.505594,3627.009116
1438.070067,-16580.613101,1455.581446,5033.400406
1438.070379,-12879.583391,76.609550,3627.009116
1438.070690,-7105.977043,-842.705048,888.247130
1438.071002,-1850.514855,-229.828649,-1480.411884
1438.071313,0.000000,229.828649,-3404.947333
1438.071625,-2442.679609,689.485948,-3701.029710
1438.071936,-7105.977043,536.266849,-740.205942
1438.072248,-12731.542202,689.485948,1924.535449
1438.072559,-15100.201217,76.609550,5107.421000
1438.072871,-14359.995275,-1685.410096,3923.091493
1438.073182,-11325.150913,-2374.896044,1110.308913
1438.073494,-7254.018232,-1072.533697,-296.082377
1438.073805,-4515.256246,229.828649,-1628.453072
1438.074117,-5551.544565,459.657299,-1110.308913
1438.074428,-9474.636058,-306.438199,1184.329507
1438.074739,-11621.233289,-2068.457845,1924.535449
1438.075051,-11029.068536,-2757.943793,1702.473667
1438.075362,-7846.182985,-1455.581446,1776.494261
1438.075674,-7031.956449,-919.314598,592.164754
1438.075985,-7772.162391,-2298.286494,-222.061783
1438.076297,-9844.739029,-2451.505594,-370.102971
1438.076608,-11399.171507,-766.095498,148.041188
1438.076920,-11843.295072,1302.362347,1110.308913
1438.077231,-11769.274478,1455.581446,1036.288319
1438.077543,-9770.718434,1302.362347,-370.102971
1438.077854,-6809.894666,0.000000,-1554.432478
1438.078166,-4515.256246,-919.314598,-1702.473667
1438.078477,-5625.565159,0.000000,-2146.597232
1438.078788,-8734.430116,1378.971896,-1110.308913
1438.079100,-11843.295072,536.266849,-148.041188
1438.079411,-13471.748144,153.219100,592.164754
1438.079723,-13693.809927,459.657299,1110.308913
1438.080034,-11399.171507,612.876398,1258.350101
1438.080346,-6661.853478,-383.047749,-814.226536
1438.080657,-4219.173869,-1455.581446,-1776.494261
1438.080969,-3923.091493,-1302.362347,-1332.370696
1438.081280,-6883.915261,-383.047749,-592.164754
1438.081592,-9992.780217,1225.752797,444.123565
1438.081903,-11991.336260,1532.190996,1184.329507
1438.082215,-12657.521608,1762.019645,1924.535449
1438.082526,-11177.109724,995.924147,1628.453072
1438.082838,-8142.265362,459.657299,370.102971
1438.083149,-5551.544565,-689.485948,-888.247130
1438.083460,-4737.318029,-612.876398,-1110.308913
1438.083772,-5625.565159,0.000000,-740.205942
1438.084083,-7994.224174,-153.219100,148.041188
1438.084395,-11029.068536,-919.314598,1924.535449
1438.084706,-11917.315666,-1149.143247,2960.823768
1438.085018,-11695.253884,0.000000,3108.864956
1438.085329,-9992.780217,76.609550,2886.803174
1438.085641,-8290.306550,-1608.800546,1628.453072
1438.085952,-8290.306550,-2987.772442,592.164754
1438.086264,-7105.977043,-1149.143247,-74.020594
1438.086575,-6439.791695,1608.800546,-518.144159
1438.086887,-7994.224174,1302.362347,-370.102971
1438.087198,-8734.430116,842.705048,666.185348
1438.087510,-9770.718434,-306.438199,1184.329507
1438.087821,-8290.306550,-1072.533697,1406.391290
1438.088132,-7772.162391,-1302.362347,518.144159
1438.088444,-8586.388927,-536.266849,74.020594
1438.088755,-9474.636058,306.438199,370.102971
1438.089067,-11177.109724,459.657299,592.164754
1438.089378,-12213.398043,919.314598,1036.288319
1438.089690,-12361.439231,1225.752797,1998.556043
1438.090001,-10955.047942,1149.143247,2368.659014
1438.090313,-7328.038826,306.438199,1850.514855
1438.090624,-5477.523971,-1225.752797,222.061783
1438.090936,-5403.503377,-1685.410096,-0.000000
1438.091247,-6735.874072,-842.705048,-0.000000
1438.091559,-9104.533087,536.266849,666.185348
1438.091870,-11251.130318,229.828649,1850.514855
1438.092182,-13397.727550,1685.410096,2812.782580
1438.092493,-13323.706956,612.876398,4071.132681
1438.092804,-9400.615463,-1762.019645,2146.597232
1438.093116,-3923.091493,-3370.820191,-296.082377
1438.093427,-1184.329507,-2298.286494,-1628.453072
1438.093739,-2738.761985,0.000000,-1480.411884
1438.094050,-7476.080014,0.000000,-74.020594
1438.094362,-13027.624579,-689.485948,1924.535449
1438.094673,-15766.386565,-306.438199,4367.215058
1438.094985,-15248.242405,153.219100,4737.318029
1438.095296,-10658.965565,1302.362347,2812.782580
1438.095608,-6069.688724,536.266849,-0.000000
1438.095919,-3034.844362,-1685.410096,-2220.617826
