#time,accel_x,accel_y,accel_z
1338.716865,-9030.512492,383.047749,222.061783
1338.717176,-8808.450710,0.000000,814.226536
1338.717487,-8660.409521,76.609550,296.082377
1338.717798,-8956.491898,0.000000,518.144159
1338.718110,-8882.471304,0.000000,592.164754
1338.718421,-9030.512492,-153.219100,370.102971
1338.718732,-9178.553681,76.609550,370.102971
1338.719043,-8660.409521,0.000000,444.123565
1338.719355,-9030.512492,-153.219100,222.061783
1338.719666,-8882.471304,76.609550,296.082377
1338.719977,-8882.471304,-612.876398,296.082377
1338.720288,-8956.491898,-229.828649,518.144159
1338.720600,-9030.512492,0.000000,592.164754
1338.720911,-8882.471304,-153.219100,518.144159
1338.721222,-8734.430116,0.000000,592.164754
1338.721533,-8882.471304,0.000000,222.061783
1338.721845,-8956.491898,383.047749,592.164754
1338.722156,-8956.491898,0.000000,370.102971
1338.722467,-8956.491898,0.000000,518.144159
1338.722779,-8956.491898,0.000000,592.164754
1338.723090,-9104.533087,-306.438199,444.123565
1338.723401,-8882.471304,0.000000,592.164754
1338.723712,-9178.553681,76.609550,518.144159
1338.724024,-8660.409521,0.000000,444.123565
1338.724335,-8586.388927,-306.438199,296.082377
1338.724646,-8586.388927,306.438199,592.164754
1338.724957,-8956.491898,0.000000,444.123565
1338.725269,-8660.409521,0.000000,592.164754
1338.725580,-8808.450710,0.000000,518.144159
1338.725891,-8882.471304,0.000000,592.164754
1338.726202,-9178.553681,0.000000,-0.000000
1338.726514,-8734.430116,0.000000,666.185348
1338.726825,-9178.553681,0.000000,222.061783
1338.727136,-8956.491898,-536.266849,592.164754
1338.727447,-8956.491898,-306.438199,592.164754
1338.727759,-8956.491898,76.609550,518.144159
1338.728070,-8956.491898,76.609550,518.144159
1338.728381,-9030.512492,0.000000,740.205942
1338.728692,-9104.533087,0.000000,370.102971
1338.729004,-8882.471304,0.000000,296.082377
1338.729315,-8660.409521,0.000000,-0.000000
1338.729626,-8512.368333,153.219100,666.185348
1338.729938,-8956.491898,0.000000,518.144159
1338.730249,-8956.491898,-306.438199,666.185348
1338.730560,-9030.512492,0.000000,518.144159
1338.730871,-9030.512492,0.000000,592.164754
1338.731183,-9030.512492,0.000000,592.164754
1338.731494,-8660.409521,-383.047749,740.205942
1338.731805,-8586.388927,76.609550,518.144159
1338.732116,-8808.450710,-383.047749,518.144159
1338.732428,-9104.533087,-229.828649,592.164754
1338.732739,-8956.491898,0.000000,592.164754
1338.733050,-8882.471304,-153.219100,666.185348
1338.733361,-8956.491898,-229.828649,370.102971
1338.733673,-8882.471304,-536.266849,370.102971
1338.733984,-8512.368333,229.828649,370.102971
1338.734295,-8734.430116,0.000000,444.123565
1338.734606,-8808.450710,0.000000,592.164754
1338.734918,-9104.533087,-229.828649,592.164754
1338.735229,-9030.512492,-229.828649,444.123565
1338.735540,-8956.491898,-229.828649,518.144159
1338.735851,-8512.368333,0.000000,518.144159
1338.736163,-9104.533087,-153.219100,-0.000000
1338.736474,-8956.491898,536.266849,222.061783
1338.736785,-9474.636058,0.000000,-0.000000
1338.737097,-9030.512492,-383.047749,444.123565
1338.737408,-9030.512492,0.000000,370.102971
1338.737719,-9104.533087,0.000000,444.123565
1338.738030,-8956.491898,0.000000,518.144159
1338.738342,-8956.491898,229.828649,370.102971
1338.738653,-8808.450710,153.219100,222.061783
1338.738964,-8586.388927,0.000000,444.123565
1338.739275,-8512.368333,0.000000,296.082377
1338.739587,-9030.512492,0.000000,592.164754
1338.739898,-9030.512492,0.000000,518.144159
1338.740209,-9030.512492,-229.828649,592.164754
1338.740520,-8956.491898,0.000000,518.144159
1338.740832,-8808.450710,153.219100,592.164754
1338.741143,-8660.409521,0.000000,666.185348
1338.741454,-8586.388927,0.000000,370.102971
1338.741765,-9178.553681,-459.657299,222.061783
1338.742077,-9104.533087,-153.219100,444.123565
1338.742388,-8956.491898,76.609550,518.144159
1338.742699,-9030.512492,-229.828649,592.164754
1338.743010,-9030.512492,153.219100,666.185348
1338.743322,-9178.553681,-536.266849,518.144159
1338.743633,-8808.450710,0.000000,-0.000000
1338.743944,-8956.491898,229.828649,370.102971
1338.744256,-8808.450710,0.000000,592.164754
1338.744567,-9030.512492,153.219100,518.144159
1338.744878,-9030.512492,0.000000,666.185348
1338.745189,-8882.471304,76.609550,666.185348
1338.745501,-8660.409521,-153.219100,444.123565
1338.745812,-8512.368333,229.828649,518.144159
1338.746123,-8734.430116,-459.657299,666.185348
1338.746434,-8586.388927,-459.657299,740.205942
1338.746746,-8956.491898,-153.219100,444.123565
1338.747057,-8956.491898,0.000000,592.164754
1338.747368,-9030.512492,0.000000,592.164754
1338.747679,-9030.512492,0.000000,592.164754
1338.747991,-9030.512492,76.609550,-0.000000
1338.748302,-9030.512492,0.000000,518.144159
1338.748613,-8586.388927,459.657299,444.123565
1338.748924,-8808.450710,0.000000,222.061783
1338.749236,-8734.430116,0.000000,592.164754
1338.749547,-8956.491898,-229.828649,592.164754
1338.749858,-8808.450710,-229.828649,592.164754
1338.750170,-8808.450710,306.438199,666.185348
1338.750481,-8660.409521,0.000000,814.226536
1338.750792,-8956.491898,0.000000,518.144159
1338.751103,-8956.491898,0.000000,222.061783
1338.751415,-8734.430116,0.000000,444.123565
1338.751726,-8956.491898,0.000000,666.185348
1338.752037,-8956.491898,0.000000,740.205942
1338.752348,-9400.615463,76.609550,592.164754
1338.752660,-11325.150913,842.705048,148.041188
1338.752971,-10807.006753,3600.648841,370.102971
1338.753282,-8512.368333,4979.620737,740.205942
1338.753593,-7624.121203,3370.820191,888.247130
1338.753905,-6661.853478,919.314598,1258.350101
1338.754216,-7105.977043,-1225.752797,-0.000000
1338.754527,-7254.018232,-919.314598,-74.020594
1338.754838,-7920.203579,-383.047749,-518.144159
1338.755150,-12139.377449,-766.095498,-1480.411884
1338.755461,-12065.356855,-229.828649,-222.061783
1338.755772,-9548.656652,842.705048,592.164754
1338.756083,-8882.471304,-459.657299,1998.556043
1338.756395,-9992.780217,-459.657299,2590.720797
1338.756706,-11843.295072,1302.362347,1406.391290
1338.757017,-7105.977043,4903.011187,2442.679609
1338.757329,-5255.462188,4749.792088,1776.494261
1338.757640,-7846.182985,3447.429741,592.164754
1338.757951,-7476.080014,2757.943793,-888.247130
1338.758262,-7402.059420,3524.039291,-1850.514855
1338.758574,-9178.553681,3370.820191,-1110.308913
1338.758885,-9252.574275,3447.429741,-444.123565
1338.759196,-13619.789333,1378.971896,-1332.370696
1338.759507,-12805.562797,-1149.143247,1776.494261
1338.759819,-8512.368333,-689.485948,2368.659014
1338.760130,-10362.883188,1608.800546,962.267725
1338.760441,-7698.141797,6818.249932,2812.782580
1338.760752,-8364.327145,5515.887586,740.205942
1338.761064,-6587.832884,3294.210641,2442.679609
1338.761375,-5773.606348,5362.668486,1628.453072
1338.761686,-7624.121203,7201.297681,-444.123565
1338.761997,-8290.306550,7124.688131,-1258.350101
1338.762309,-10955.047942,5745.716235,-518.144159
1338.762620,-9696.697840,4903.011187,-1776.494261
1338.762931,-10732.986159,5822.325785,-444.123565
1338.763242,-11473.192101,4290.134789,-0.000000
1338.763554,-9622.677246,4136.915689,1702.473667
1338.763865,-9992.780217,3907.087040,1776.494261
1338.764176,-8660.409521,4903.011187,2368.659014
1338.764488,-6809.894666,4903.011187,1628.453072
1338.764799,-6143.709319,5286.058936,518.144159
1338.765110,-5477.523971,5515.887586,814.226536
1338.765421,-5551.544565,4903.011187,-296.082377
1338.765733,-6439.791695,4366.744339,-1184.329507
1338.766044,-7994.224174,3907.087040,-666.185348
1338.766355,-8956.491898,2221.676944,-518.144159
1338.766666,-10510.924376,919.314598,296.082377
1338.766978,-11029.068536,153.219100,1332.370696
1338.767289,-11547.212695,-536.266849,1628.453072
1338.767600,-11399.171507,612.876398,1702.473667
1338.767911,-9252.574275,3447.429741,1850.514855
1338.768223,-7550.100608,4290.134789,888.247130
1338.768534,-6291.750507,3064.381992,370.102971
1338.768845,-6957.935855,2757.943793,-518.144159
1338.769156,-6809.894666,3370.820191,-666.185348
1338.769468,-6365.771101,3830.477490,-1258.350101
1338.769779,-7698.141797,1532.190996,-1628.453072
1338.770090,-9548.656652,-2068.457845,-888.247130
1338.770402,-11177.109724,-2068.457845,-0.000000
1338.770713,-12657.521608,-2298.286494,888.247130
1338.771024,-13989.892304,-1225.752797,1776.494261
1338.771335,-14285.974681,-383.047749,1924.535449
1338.771647,-12879.583391,919.314598,1258.350101
1338.771958,-10362.883188,2451.505594,518.144159
1338.772269,-7031.956449,4136.915689,222.061783
1338.772580,-5773.606348,4519.963438,-148.041188
1338.772892,-6365.771101,5745.716235,-0.000000
1338.773203,-7254.018232,5286.058936,-0.000000
1338.773514,-8660.409521,3217.601092,-444.123565
1338.773825,-10584.944971,1991.848295,222.061783
1338.774137,-12213.398043,1225.752797,-296.082377
1338.774448,-12657.521608,1225.752797,-666.185348
1338.774759,-13175.665768,459.657299,-296.082377
1338.775070,-12361.439231,1608.800546,814.226536
1338.775382,-10584.944971,2757.943793,888.247130
1338.775693,-9030.512492,4136.915689,1702.473667
1338.776004,-7476.080014,4749.792088,2220.617826
1338.776315,-4293.194464,5592.497135,1258.350101
1338.776627,-1924.535449,6588.421283,-0.000000
1338.776938,-1332.370696,6741.640382,-1406.391290
1338.777249,-3404.947333,4596.572988,-1258.350101
1338.777561,-7254.018232,2451.505594,-1036.288319
1338.777872,-11029.068536,2145.067394,296.082377
1338.778183,-14878.139434,2911.162892,1036.288319
1338.778494,-15988.448347,2757.943793,2886.803174
1338.778806,-14878.139434,2451.505594,3478.967927
1338.779117,-10732.986159,2834.553343,3108.864956
1338.779428,-5921.647536,3064.381992,1702.473667
1338.779739,-3034.844362,4749.792088,888.247130
1338.780051,-1924.535449,6128.763984,-740.205942
1338.780362,-2590.720797,6971.469032,-1628.453072
1338.780673,-4293.194464,6358.592633,-1332.370696
1338.780984,-7105.977043,3753.867940,-1184.329507
1338.781296,-9252.574275,1378.971896,222.061783
1338.781607,-10881.027347,0.000000,296.082377
1338.781918,-11769.274478,-2451.505594,962.267725
1338.782229,-12361.439231,-3447.429741,1258.350101
1338.782541,-12065.356855,-3294.210641,1924.535449
1338.782852,-12583.501014,-1915.238745,1628.453072
1338.783163,-12139.377449,766.095498,1998.556043
1338.783474,-10436.903782,3677.258390,1628.453072
1338.783786,-8734.430116,4979.620737,1406.391290
1338.784097,-6439.791695,4903.011187,1332.370696
1338.784408,-6365.771101,2145.067394,-148.041188
1338.784720,-5921.647536,766.095498,-666.185348
1338.785031,-7994.224174,2068.457845,-1998.556043
1338.785342,-9770.718434,2528.115143,-2220.617826
1338.785653,-11029.068536,1991.848295,-2368.659014
1338.785965,-11251.130318,612.876398,-370.102971
1338.786276,-11399.171507,-995.924147,444.123565
1338.786587,-11473.192101,-2374.896044,1850.514855
1338.786898,-10881.027347,-842.705048,1776.494261
1338.787210,-11029.068536,306.438199,1184.329507
1338.787521,-10807.006753,2681.334243,-222.061783
1338.787832,-8660.409521,3907.087040,-518.144159
1338.788143,-7031.956449,3600.648841,-1332.370696
1338.788455,-6587.832884,2374.896044,-888.247130
1338.788766,-5403.503377,1149.143247,370.102971
1338.789077,-6883.915261,0.000000,370.102971
1338.789388,-8660.409521,-1838.629195,1702.473667
1338.789700,-8956.491898,-3370.820191,1702.473667
1338.790011,-10510.924376,-2451.505594,1480.411884
1338.790322,-9992.780217,-1762.019645,1480.411884
1338.790633,-7846.182985,0.000000,444.123565
1338.790945,-7402.059420,766.095498,-518.144159
1338.791256,-8216.285956,1608.800546,-740.205942
1338.791567,-8882.471304,3217.601092,-1258.350101
1338.791879,-9326.594869,4290.134789,-1480.411884
1338.792190,-9178.553681,4673.182538,-814.226536
1338.792501,-8364.327145,3830.477490,592.164754
1338.792812,-7476.080014,1149.143247,1776.494261
1338.793124,-7031.956449,-1225.752797,2516.700203
1338.793435,-7402.059420,-2987.772442,4219.173869
1338.793746,-8956.491898,-2987.772442,3923.091493
1338.794057,-8586.388927,-2604.724693,2590.720797
1338.794369,-7624.121203,76.609550,-148.041188
1338.794680,-7402.059420,-536.266849,-1702.473667
1338.794991,-7698.141797,229.828649,-2368.659014
1338.795302,-8512.368333,919.314598,-2590.720797
1338.795614,-10436.903782,1455.581446,-1554.432478
1338.795925,-12805.562797,1072.533697,-0.000000
1338.796236,-14434.015869,1532.190996,1554.432478
1338.796547,-14434.015869,1685.410096,2368.659014
1338.796859,-11991.336260,-229.828649,3256.906145
1338.797170,-8956.491898,-2298.286494,3627.009116
1338.797481,-6957.935855,-3294.210641,4145.153275
1338.797792,-5181.441594,-3370.820191,3404.947333
1338.798104,-5995.668130,-2911.162892,1998.556043
1338.798415,-7254.018232,-1455.581446,518.144159
1338.798726,-5699.585753,612.876398,-2590.720797
1338.799037,-5699.585753,1838.629195,-3701.029710
1338.799349,-6809.894666,306.438199,-4145.153275
1338.799660,-9252.574275,-766.095498,-2960.823768
1338.799971,-11621.233289,-1225.752797,-518.144159
1338.800282,-14211.954086,-1915.238745,1184.329507
1338.800594,-14730.098246,-1455.581446,4071.132681
1338.800905,-13545.768739,-842.705048,3849.070898
1338.801216,-11251.130318,-229.828649,4441.235652
1338.801527,-8290.306550,-1225.752797,3404.947333
1338.801839,-5921.647536,-1608.800546,2516.700203
1338.802150,-4293.194464,-1302.362347,1998.556043
1338.802461,-3923.091493,-229.828649,-1628.453072
1338.802772,-4367.215058,1608.800546,-3182.885551
1338.803084,-5477.523971,2145.067394,-4589.276840
1338.803395,-6291.750507,2221.676944,-4737.318029
1338.803706,-9030.512492,995.924147,-3997.112087
1338.804017,-12583.501014,459.657299,-2146.597232
1338.804329,-15470.304188,0.000000,1332.370696
1338.804640,-15840.407159,76.609550,2960.823768
1338.804951,-15026.180623,-536.266849,3997.112087
1338.805262,-12213.398043,306.438199,5551.544565
1338.805574,-6661.853478,536.266849,5255.462188
1338.805885,-4515.256246,76.609550,2220.617826
1338.806196,-3256.906145,0.000000,-518.144159
1338.806507,-4367.215058,1532.190996,-3330.926739
1338.806819,-6513.812290,3294.210641,-5255.462188
1338.807130,-6587.832884,3217.601092,-5699.585753
1338.807441,-8586.388927,1378.971896,-4737.318029
1338.807752,-9252.574275,-1762.019645,-2072.576638
1338.808064,-10436.903782,-3294.210641,666.185348
1338.808375,-13027.624579,-3830.477490,3034.844362
1338.808686,-14878.139434,-2298.286494,4589.276840
1338.808997,-15544.324782,383.047749,5255.462188
1338.809309,-12435.459826,3217.601092,4293.194464
1338.809620,-8882.471304,2528.115143,4071.132681
1338.809931,-4959.379811,995.924147,1998.556043
1338.810243,-2886.803174,536.266849,-0.000000
1338.810554,-3849.070898,1149.143247,-1702.473667
1338.810865,-4737.318029,2451.505594,-2738.761985
1338.811176,-6957.935855,1455.581446,-2886.803174
1338.811488,-8586.388927,229.828649,-1036.288319
1338.811799,-8586.388927,-1685.410096,-1110.308913
1338.812110,-10436.903782,-1991.848295,148.041188
1338.812421,-12287.418637,-1302.362347,1924.535449
1338.812733,-13323.706956,0.000000,3404.947333
1338.813044,-13619.789333,766.095498,4441.235652
1338.813355,-13323.706956,612.876398,4515.256246
1338.813666,-9696.697840,536.266849,4367.215058
1338.813978,-5551.544565,76.609550,1924.535449
1338.814289,-2960.823768,306.438199,296.082377
1338.814600,-2886.803174,-689.485948,-962.267725
1338.814911,-4441.235652,-2298.286494,-1184.329507
1338.815223,-6291.750507,-1991.848295,-1184.329507
1338.815534,-7698.141797,-2068.457845,-592.164754
1338.815845,-9326.594869,-2911.162892,-222.061783
1338.816156,-10955.047942,-4136.915689,1184.329507
1338.816468,-11399.171507,-2681.334243,2072.576638
1338.816779,-11917.315666,-2987.772442,2220.617826
1338.817090,-13471.748144,-1915.238745,2590.720797
1338.817401,-13397.727550,689.485948,2590.720797
1338.817713,-11769.274478,2604.724693,1776.494261
1338.818024,-8660.409521,2451.505594,666.185348
1338.818335,-5921.647536,1072.533697,222.061783
1338.818646,-4589.276840,0.000000,-740.205942
1338.818958,-4663.297435,-1072.533697,-518.144159
1338.819269,-5107.421000,-1302.362347,-592.164754
1338.819580,-7179.997637,0.000000,-1332.370696
1338.819891,-8808.450710,0.000000,-1480.411884
1338.820203,-9326.594869,-306.438199,-1998.556043
1338.820514,-10510.924376,0.000000,-1480.411884
1338.820825,-11325.150913,1149.143247,-888.247130
1338.821136,-13323.706956,1225.752797,-666.185348
1338.821448,-13841.851115,2298.286494,444.123565
1338.821759,-12731.542202,842.705048,592.164754
1338.822070,-9770.718434,0.000000,1332.370696
1338.822381,-7031.956449,-536.266849,1480.411884
1338.822693,-5625.565159,-1455.581446,1036.288319
1338.823004,-6217.729913,-2604.724693,814.226536
1338.823315,-7105.977043,-3600.648841,962.267725
1338.823626,-8734.430116,-2987.772442,-222.061783
1338.823938,-8660.409521,-383.047749,-1406.391290
1338.824249,-8068.244768,153.219100,-2072.576638
1338.824560,-8438.347739,-229.828649,-1850.514855
1338.824871,-8734.430116,-459.657299,-962.267725
1338.825183,-9474.636058,-919.314598,-148.041188
1338.825494,-11029.068536,-306.438199,1184.329507
1338.825805,-12065.356855,1149.143247,1776.494261
1338.826116,-11473.192101,2374.896044,1850.514855
1338.826428,-9770.718434,1762.019645,1776.494261
1338.826739,-6587.832884,536.266849,2664.741391
1338.827050,-5847.626942,-766.095498,2146.597232
1338.827361,-6291.750507,-919.314598,1184.329507
1338.827673,-7105.977043,-229.828649,1184.329507
1338.827984,-8068.244768,1225.752797,222.061783
1338.828295,-8364.327145,1302.362347,-740.205942
1338.828606,-7846.182985,1378.971896,-1924.535449
1338.828918,-8364.327145,459.657299,-2590.720797
1338.829229,-9400.615463,842.705048,-1332.370696
1338.829540,-10881.027347,1149.143247,148.041188
1338.829851,-12509.480420,612.876398,1628.453072
1338.830163,-12953.603985,76.609550,3478.967927
1338.830474,-11991.336260,306.438199,4145.153275
1338.830785,-9104.533087,0.000000,4441.235652
1338.831096,-6365.771101,-459.657299,2886.803174
1338.831408,-5551.544565,-842.705048,1998.556043
1338.831719,-5403.503377,-919.314598,592.164754
1338.832030,-6291.750507,153.219100,-888.247130
1338.832341,-7476.080014,995.924147,-2072.576638
1338.832653,-7624.121203,766.095498,-1850.514855
1338.832964,-7698.141797,-229.828649,-1702.473667
1338.833275,-8142.265362,-1302.362347,-1110.308913
1338.833586,-8808.450710,-2145.067394,222.061783
1338.833898,-10584.944971,-1225.752797,1850.514855
1338.834209,-12583.501014,-919.314598,2442.679609
1338.834520,-13471.748144,229.828649,2960.823768
1338.834831,-11251.130318,2374.896044,3404.947333
1338.835143,-8438.347739,1378.971896,3478.967927
1338.835454,-6365.771101,-766.095498,2664.741391
1338.835765,-6439.791695,-689.485948,1184.329507
1338.836076,-6143.709319,-766.095498,-370.102971
1338.836388,-5551.544565,689.485948,-1702.473667
1338.836699,-5921.647536,1302.362347,-3256.906145
1338.837010,-7179.997637,1378.971896,-4071.132681
1338.837321,-8808.450710,612.876398,-3478.967927
1338.837633,-9474.636058,-153.219100,-1258.350101
1338.837944,-11843.295072,0.000000,222.061783
1338.838255,-14063.912898,0.000000,2368.659014
1338.838566,-13397.727550,0.000000,3330.926739
1338.838878,-12361.439231,-612.876398,3330.926739
1338.839189,-9474.636058,-383.047749,3108.864956
1338.839500,-6883.915261,76.609550,1924.535449
1338.839811,-6291.750507,-1149.143247,888.247130
1338.840123,-7105.977043,-2451.505594,222.061783
1338.840434,-8290.306550,-2757.943793,-518.144159
1338.840745,-8068.244768,-1991.848295,-1554.432478
1338.841056,-8438.347739,-1762.019645,-2072.576638
1338.841368,-8216.285956,-1915.238745,-2294.638420
1338.841679,-8364.327145,-2221.676944,-1480.411884
1338.841990,-9400.615463,-2145.067394,222.061783
1338.842301,-11325.150913,-1455.581446,1036.288319
1338.842613,-13545.768739,-153.219100,2738.761985
1338.842924,-14211.954086,995.924147,3849.070898
1338.843235,-11769.274478,2681.334243,3849.070898
1338.843546,-8660.409521,2451.505594,2368.659014
1338.843858,-6809.894666,1532.190996,1628.453072
1338.844169,-4737.318029,383.047749,740.205942
1338.844480,-4441.235652,-306.438199,-740.205942
1338.844791,-5255.462188,76.609550,-1184.329507
1338.845103,-6069.688724,229.828649,-2442.679609
1338.845414,-7698.141797,842.705048,-3034.844362
1338.845725,-8216.285956,612.876398,-1776.494261
1338.846036,-9474.636058,229.828649,-1406.391290
1338.846348,-10955.047942,306.438199,296.082377
1338.846659,-12287.418637,383.047749,2146.597232
1338.846970,-13397.727550,612.876398,3108.864956
1338.847281,-11917.315666,842.705048,3552.988522
1338.847593,-9770.718434,919.314598,2960.823768
1338.847904,-7105.977043,153.219100,2590.720797
1338.848215,-5477.523971,-459.657299,1332.370696
1338.848526,-5847.626942,-1225.752797,-0.000000
1338.848838,-6439.791695,-919.314598,-740.205942
1338.849149,-7920.203579,0.000000,-1702.473667
1338.849460,-7994.224174,536.266849,-1258.350101
1338.849771,-8882.471304,0.000000,-1702.473667
1338.850083,-9474.636058,0.000000,-1554.432478
1338.850394,-7698.141797,-766.095498,-0.000000
1338.850705,-10288.862594,-1225.752797,666.185348
1338.851017,-12213.398043,-459.657299,2368.659014
1338.851328,-12287.418637,383.047749,2368.659014
1338.851639,-13471.748144,919.314598,3182.885551
1338.851950,-9918.759623,1762.019645,4145.153275
1338.852262,-7550.100608,1302.362347,2368.659014
1338.852573,-6069.688724,995.924147,-0.000000
1338.852884,-5403.503377,306.438199,-296.082377
1338.853195,-5847.626942,842.705048,-2294.638420
1338.853507,-6587.832884,1991.848295,-3034.844362
1338.853818,-7476.080014,2987.772442,-3108.864956
1338.854129,-8438.347739,1072.533697,-2516.700203
1338.854440,-9178.553681,-229.828649,-888.247130
1338.854752,-10436.903782,-229.828649,296.082377
1338.855063,-11251.130318,0.000000,1258.350101
1338.855374,-12583.501014,229.828649,1554.432478
1338.855685,-11843.295072,383.047749,3330.926739
1338.855997,-9696.697840,459.657299,2812.782580
1338.856308,-7772.162391,-153.219100,3108.864956
1338.856619,-6883.915261,-689.485948,2886.803174
1338.856930,-6661.853478,-1838.629195,1776.494261
1338.857242,-7550.100608,-1302.362347,444.123565
1338.857553,-8956.491898,-229.828649,-0.000000
1338.857864,-8586.388927,689.485948,-1702.473667
1338.858175,-8142.265362,0.000000,-2294.638420
1338.858487,-8216.285956,-766.095498,-1776.494261
1338.858798,-7994.224174,-919.314598,-518.144159
1338.859109,-9400.615463,-1838.629195,666.185348
1338.859420,-11029.068536,-842.705048,2368.659014
1338.859732,-12287.418637,-459.657299,2886.803174
1338.860043,-11621.233289,1072.533697,3182.885551
1338.860354,-9918.759623,1608.800546,2590.720797
1338.860665,-7328.038826,1455.581446,2664.741391
1338.860977,-5773.606348,-459.657299,1702.473667
1338.861288,-5847.626942,-1225.752797,962.267725
1338.861599,-6513.812290,-1378.971896,148.041188
1338.861910,-6957.935855,306.438199,-1406.391290
1338.862222,-8068.244768,919.314598,-2368.659014
1338.862533,-9030.512492,536.266849,-2442.679609
1338.862844,-9104.533087,229.828649,-1702.473667
1338.863155,-9844.739029,-459.657299,-814.226536
1338.863467,-10807.006753,-383.047749,666.185348
1338.863778,-11843.295072,-689.485948,2146.597232
1338.864089,-12657.521608,-383.047749,2664.741391
1338.864400,-11695.253884,153.219100,3034.844362
1338.864712,-8216.285956,459.657299,2368.659014
1338.865023,-6513.812290,0.000000,2442.679609
1338.865334,-6143.709319,-1149.143247,2072.576638
1338.865645,-6587.832884,-2221.676944,814.226536
1338.865957,-7254.018232,-1685.410096,-0.000000
1338.866268,-7105.977043,-229.828649,-1480.411884
1338.866579,-7031.956449,766.095498,-3330.926739
1338.866890,-7328.038826,153.219100,-3775.050304
1338.867202,-6883.915261,0.000000,-2664.741391
1338.867513,-8734.430116,-1225.752797,-962.267725
1338.867824,-10955.047942,-1072.533697,1258.350101
1338.868135,-14137.933492,-153.219100,2886.803174
1338.868447,-14211.954086,76.609550,3775.050304
1338.868758,-12139.377449,76.609550,3849.070898
1338.869069,-9178.553681,153.219100,3404.947333
1338.869380,-5921.647536,0.000000,1998.556043
1338.869692,-6439.791695,-1072.533697,-518.144159
1338.870003,-7031.956449,-995.924147,-888.247130
1338.870314,-7328.038826,1302.362347,-1850.514855
1338.870625,-7624.121203,2681.334243,-2368.659014
1338.870937,-8216.285956,1608.800546,-2368.659014
1338.871248,-9178.553681,76.609550,-2146.597232
1338.871559,-9030.512492,1225.752797,-1554.432478
1338.871870,-9696.697840,1532.190996,74.020594
1338.872182,-11621.233289,1072.533697,1406.391290
1338.872493,-13175.665768,536.266849,2442.679609
1338.872804,-12287.418637,1378.971896,2738.761985
1338.873115,-10066.800811,1608.800546,2960.823768
1338.873427,-7994.224174,842.705048,2146.597232
1338.873738,-7031.956449,306.438199,962.267725
1338.874049,-6439.791695,-919.314598,444.123565
1338.874360,-7105.977043,-766.095498,-814.226536
1338.874672,-7105.977043,-306.438199,-814.226536
1338.874983,-7402.059420,536.266849,-1628.453072
1338.875294,-7402.059420,76.609550,-1776.494261
1338.875605,-6883.915261,-1532.190996,-1258.350101
1338.875917,-6809.894666,-1302.362347,370.102971
1338.876228,-8808.450710,-919.314598,1850.514855
1338.876539,-11547.212695,-1532.190996,2960.823768
1338.876850,-12805.562797,-1225.752797,3627.009116
1338.877162,-11695.253884,383.047749,3849.070898
1338.877473,-9844.739029,1072.533697,2812.782580
1338.877784,-7772.162391,76.609550,1850.514855
1338.878095,-6883.915261,-229.828649,222.061783
1338.878407,-6291.750507,0.000000,-222.061783
1338.878718,-5625.565159,612.876398,-1036.288319
1338.879029,-6809.894666,1072.533697,-1776.494261
1338.879340,-8142.265362,1302.362347,-1776.494261
1338.879652,-8660.409521,0.000000,-1184.329507
1338.879963,-8734.430116,0.000000,-666.185348
1338.880274,-9844.739029,0.000000,222.061783
1338.880585,-11251.130318,153.219100,1332.370696
1338.880897,-12583.501014,-383.047749,1554.432478
1338.881208,-12361.439231,459.657299,2294.638420
1338.881519,-10658.965565,842.705048,2294.638420
1338.881830,-8068.244768,-229.828649,2368.659014
1338.882142,-6883.915261,-1225.752797,1998.556043
1338.882453,-7328.038826,-2298.286494,1628.453072
1338.882764,-7550.100608,-2757.943793,592.164754
1338.883075,-7994.224174,-1838.629195,-444.123565
1338.883387,-8364.327145,-842.705048,-1036.288319
1338.883698,-7698.141797,-919.314598,-1406.391290
1338.884009,-8068.244768,-2068.457845,-1776.494261
1338.884320,-8290.306550,-1762.019645,-1036.288319
1338.884632,-10214.842000,-1838.629195,888.247130
1338.884943,-11473.192101,-1608.800546,1998.556043
1338.885254,-12213.398043,-766.095498,2590.720797
1338.885565,-12509.480420,-306.438199,2812.782580
1338.885877,-10214.842000,383.047749,3256.906145
1338.886188,-7402.059420,-459.657299,2368.659014
1338.886499,-6661.853478,-689.485948,1554.432478
1338.886810,-6735.874072,-2068.457845,296.082377
1338.887122,-6735.874072,-1685.410096,-0.000000
1338.887433,-6291.750507,0.000000,-1110.308913
1338.887744,-7105.977043,1302.362347,-2220.617826
1338.888055,-7328.038826,995.924147,-2072.576638
1338.888367,-7624.121203,-306.438199,-2294.638420
1338.888678,-9252.574275,612.876398,-740.205942
1338.888989,-10362.883188,766.095498,-0.000000
1338.889300,-12287.418637,766.095498,962.267725
1338.889612,-11843.295072,153.219100,2368.659014
1338.889923,-10807.006753,0.000000,2516.700203
1338.890234,-8808.450710,0.000000,2960.823768
1338.890545,-7328.038826,-383.047749,1702.473667
1338.890857,-7179.997637,-1302.362347,1258.350101
1338.891168,-7624.121203,-2451.505594,-0.000000
1338.891479,-8068.244768,-1685.410096,-814.226536
1338.891790,-8512.368333,-383.047749,-1998.556043
1338.892102,-8660.409521,536.266849,-2220.617826
1338.892413,-9252.574275,153.219100,-2516.700203
1338.892724,-8956.491898,229.828649,-1776.494261
1338.893036,-9030.512492,76.609550,-222.061783
1338.893347,-10214.842000,0.000000,814.226536
1338.893658,-12731.542202,0.000000,2294.638420
1338.893969,-13249.686362,1225.752797,2812.782580
1338.894281,-11621.233289,1532.190996,2442.679609
1338.894592,-8956.491898,1991.848295,1776.494261
1338.894903,-7624.121203,1378.971896,740.205942
1338.895214,-7550.100608,383.047749,-592.164754
1338.895526,-6883.915261,0.000000,-518.144159
1338.895837,-6217.729913,842.705048,-1036.288319
1338.896148,-6069.688724,1762.019645,-1480.411884
1338.896459,-6587.832884,229.828649,-1406.391290
1338.896771,-7920.203579,-919.314598,-1184.329507
1338.897082,-8290.306550,0.000000,-444.123565
1338.897393,-8660.409521,995.924147,222.061783
1338.897704,-10881.027347,1225.752797,962.267725
1338.898016,-11843.295072,689.485948,1998.556043
1338.898327,-11991.336260,536.266849,2442.679609
1338.898639,-10214.842000,0.000000,2516.700203
1338.898950,-7772.162391,0.000000,2812.782580
1338.899262,-7254.018232,-995.924147,1924.535449
1338.899573,-7328.038826,-2374.896044,1480.411884
1338.899885,-7254.018232,-2757.943793,222.061783
1338.900196,-6291.750507,-1915.238745,-666.185348
1338.900508,-6217.729913,-766.095498,-1332.370696
1338.900820,-6957.935855,-1302.362347,-1406.391290
1338.901131,-6291.750507,-1762.019645,-370.102971
1338.901443,-8586.388927,-3217.601092,296.082377
1338.901754,-11029.068536,-2681.334243,1998.556043
1338.902066,-13693.809927,-1072.533697,2664.741391
1338.902377,-14730.098246,842.705048,3627.009116
1338.902689,-13693.809927,1838.629195,3627.009116
1338.903001,-10732.986159,1302.362347,3404.947333
1338.903312,-7402.059420,612.876398,2368.659014
1338.903624,-6069.688724,153.219100,1258.350101
1338.903935,-5625.565159,-229.828649,-0.000000
1338.904247,-6439.791695,383.047749,-1110.308913
1338.904558,-6513.812290,2068.457845,-1998.556043
1338.904870,-7254.018232,2068.457845,-1998.556043
1338.905182,-8068.244768,766.095498,-1332.370696
1338.905493,-8068.244768,-153.219100,-740.205942
1338.905805,-9178.553681,-842.705048,370.102971
1338.906116,-10732.986159,-1225.752797,1480.411884
1338.906428,-12509.480420,-919.314598,2368.659014
1338.906739,-12435.459826,0.000000,2960.823768
1338.907051,-11029.068536,0.000000,2812.782580
1338.907363,-8512.368333,0.000000,2960.823768
1338.907674,-6513.812290,-536.266849,1776.494261
1338.907986,-6809.894666,-1762.019645,1332.370696
1338.908297,-6513.812290,-2451.505594,-444.123565
1338.908609,-6513.812290,-995.924147,-1554.432478
1338.908920,-7254.018232,0.000000,-2664.741391
1338.909232,-7328.038826,0.000000,-2886.803174
1338.909543,-8290.306550,-766.095498,-2886.803174
1338.909855,-8660.409521,-995.924147,-1480.411884
1338.910167,-9844.739029,-1302.362347,666.185348
1338.910478,-12657.521608,-1072.533697,1924.535449
1338.910790,-13397.727550,-383.047749,3404.947333
1338.911101,-12731.542202,383.047749,3034.844362
1338.911413,-9696.697840,1149.143247,2516.700203
1338.911724,-6439.791695,1685.410096,1406.391290
1338.912036,-5773.606348,1378.971896,-666.185348
1338.912348,-5181.441594,919.314598,-1554.432478
1338.912659,-6513.812290,842.705048,-2294.638420
1338.912971,-7179.997637,2068.457845,-1776.494261
1338.913282,-8142.265362,2374.896044,-2442.679609
1338.913594,-10214.842000,842.705048,-2368.659014
1338.913905,-11029.068536,0.000000,-1332.370696
1338.914217,-11547.212695,76.609550,-370.102971
1338.914529,-11991.336260,306.438199,1332.370696
1338.914840,-12361.439231,0.000000,2220.617826
1338.915152,-12657.521608,536.266849,2590.720797
1338.915463,-10288.862594,1532.190996,2664.741391
1338.915775,-7476.080014,2068.457845,2368.659014
1338.916086,-7031.956449,766.095498,1998.556043
1338.916398,-6069.688724,-766.095498,592.164754
1338.916710,-6513.812290,-842.705048,-518.144159
1338.917021,-7105.977043,-536.266849,-888.247130
1338.917333,-8438.347739,306.438199,-2072.576638
1338.917644,-9178.553681,383.047749,-1628.453072
1338.917956,-8956.491898,-383.047749,-1480.411884
1338.918267,-7624.121203,-1072.533697,148.041188
1338.918579,-8068.244768,-1532.190996,1406.391290
1338.918890,-10510.924376,-612.876398,2368.659014
1338.919202,-11991.336260,76.609550,3627.009116
1338.919514,-11843.295072,919.314598,3775.050304
1338.919825,-10066.800811,1685.410096,3627.009116
1338.920137,-7476.080014,2298.286494,2738.761985
1338.920448,-5773.606348,0.000000,1850.514855
1338.920760,-7105.977043,-1762.019645,518.144159
1338.921071,-5847.626942,-306.438199,518.144159
1338.921383,-6513.812290,229.828649,-814.226536
1338.921695,-7328.038826,0.000000,-518.144159
1338.922006,-7254.018232,-383.047749,-1036.288319
1338.922318,-8734.430116,-536.266849,-1110.308913
1338.922629,-7994.224174,0.000000,370.102971
1338.922941,-9474.636058,995.924147,370.102971
1338.923252,-11917.315666,1455.581446,814.226536
1338.923564,-12657.521608,1302.362347,2590.720797
1338.923876,-11547.212695,766.095498,2664.741391
1338.924187,-9326.594869,612.876398,2738.761985
1338.924499,-7698.141797,536.266849,1776.494261
1338.924810,-7031.956449,-229.828649,2294.638420
1338.925122,-7920.203579,-1762.019645,740.205942
1338.925433,-7846.182985,-1762.019645,-0.000000
1338.925745,-7328.038826,-1302.362347,-1258.350101
1338.926057,-7920.203579,-995.924147,-2368.659014
1338.926368,-8068.244768,-689.485948,-2220.617826
1338.926680,-8512.368333,-1149.143247,-2294.638420
1338.926991,-8290.306550,-842.705048,-0.000000
1338.927303,-10362.883188,-2451.505594,1628.453072
1338.927614,-12805.562797,-1991.848295,2516.700203
1338.927926,-13545.768739,-1225.752797,3256.906145
1338.928237,-12287.418637,0.000000,3330.926739
1338.928549,-9400.615463,842.705048,2442.679609
1338.928861,-7031.956449,76.609550,2072.576638
1338.929172,-5847.626942,-1838.629195,-0.000000
1338.929484,-6365.771101,-2221.676944,-740.205942
1338.929795,-6587.832884,-383.047749,-1406.391290
1338.930107,-6957.935855,842.705048,-1850.514855
1338.930418,-7920.203579,1149.143247,-2368.659014
1338.930730,-8364.327145,766.095498,-2516.700203
1338.931042,-8956.491898,459.657299,-2072.576638
1338.931353,-9844.739029,842.705048,-1036.288319
1338.931665,-11547.212695,995.924147,74.020594
1338.931976,-13323.706956,1225.752797,1554.432478
1338.932288,-12805.562797,1302.362347,2146.597232
1338.932599,-10881.027347,1149.143247,3034.844362
1338.932911,-8290.306550,76.609550,3404.947333
1338.933223,-6587.832884,-1608.800546,2664.741391
1338.933534,-5995.668130,-1991.848295,1110.308913
1338.933846,-6587.832884,-2068.457845,-888.247130
1338.934157,-7550.100608,306.438199,-1924.535449
1338.934469,-8068.244768,1378.971896,-3552.988522
1338.934780,-9178.553681,1762.019645,-3552.988522
1338.935092,-8882.471304,612.876398,-1850.514855
1338.935403,-8660.409521,-995.924147,-74.020594
1338.935715,-9992.780217,-1225.752797,1406.391290
1338.936027,-11473.192101,-842.705048,3552.988522
1338.936338,-12287.418637,0.000000,3923.091493
1338.936650,-11843.295072,229.828649,4737.318029
1338.936961,-9844.739029,1225.752797,3552.988522
1338.937273,-7328.038826,1685.410096,2072.576638
1338.937584,-6883.915261,842.705048,-0.000000
1338.937896,-6069.688724,919.314598,-592.164754
1338.938208,-5625.565159,689.485948,-666.185348
1338.938519,-6513.812290,842.705048,-1628.453072
1338.938831,-6883.915261,1378.971896,-1776.494261
1338.939142,-7772.162391,1149.143247,-1332.370696
1338.939454,-7994.224174,1915.238745,-1628.453072
1338.939765,-9104.533087,1608.800546,296.082377
1338.940077,-10658.965565,1225.752797,1332.370696
1338.940389,-11917.315666,229.828649,3034.844362
1338.940700,-11843.295072,459.657299,4145.153275
1338.941012,-10732.986159,536.266849,4367.215058
1338.941323,-8364.327145,459.657299,3997.112087
1338.941635,-6439.791695,-1455.581446,2590.720797
1338.941946,-6217.729913,-2374.896044,1110.308913
1338.942258,-5847.626942,-2374.896044,-444.123565
1338.942570,-6883.915261,-995.924147,-1480.411884
1338.942881,-7994.224174,-536.266849,-2294.638420
1338.943193,-8512.368333,-306.438199,-2072.576638
1338.943504,-9400.615463,-1455.581446,-1776.494261
1338.943816,-9474.636058,-1302.362347,-0.000000
1338.944127,-9696.697840,-1838.629195,1850.514855
1338.944439,-11399.171507,-1532.190996,2590.720797
1338.944750,-12583.501014,-1762.019645,3627.009116
1338.945062,-12065.356855,-383.047749,3108.864956
1338.945374,-10362.883188,459.657299,2738.761985
1338.945685,-8512.368333,689.485948,1628.453072
1338.945997,-7254.018232,76.609550,740.205942
1338.946308,-7031.956449,-1378.971896,-148.041188
1338.946620,-6809.894666,-1455.581446,-444.123565
1338.946931,-7105.977043,-1149.143247,-592.164754
1338.947243,-7402.059420,-229.828649,-1776.494261
1338.947555,-8364.327145,0.000000,-1628.453072
1338.947866,-9400.615463,-689.485948,-1480.411884
1338.948178,-10066.800811,0.000000,-962.267725
1338.948489,-11399.171507,612.876398,296.082377
1338.948801,-12583.501014,842.705048,1332.370696
1338.949112,-12139.377449,842.705048,2368.659014
1338.949424,-10881.027347,919.314598,2590.720797
1338.949736,-8142.265362,459.657299,3034.844362
1338.950047,-5699.585753,-612.876398,2294.638420
1338.950359,-4663.297435,-1991.848295,1332.370696
1338.950670,-5699.585753,-2757.943793,-370.102971
1338.950982,-7105.977043,-1991.848295,-1628.453072
1338.951293,-7994.224174,-459.657299,-3182.885551
1338.951605,-8216.285956,919.314598,-3108.864956
1338.951917,-9030.512492,-689.485948,-2072.576638
1338.952228,-9326.594869,-2451.505594,-962.267725
1338.952540,-9696.697840,-2757.943793,666.185348
1338.952851,-10807.006753,-2221.676944,2294.638420
1338.953163,-12287.418637,-1225.752797,2960.823768
1338.953474,-12805.562797,153.219100,2442.679609
1338.953786,-10881.027347,1225.752797,2664.741391
1338.954097,-7846.182985,2068.457845,592.164754
1338.954409,-6587.832884,766.095498,666.185348
1338.954721,-6587.832884,229.828649,-518.144159
1338.955032,-7772.162391,-229.828649,-592.164754
1338.955344,-8438.347739,383.047749,-1184.329507
1338.955655,-9030.512492,1685.410096,-1258.350101
1338.955967,-8882.471304,2451.505594,-1332.370696
1338.956278,-8808.450710,1991.848295,-1924.535449
1338.956590,-8364.327145,919.314598,-1258.350101
1338.956902,-8882.471304,1608.800546,-222.061783
1338.957213,-10362.883188,2145.067394,1036.288319
1338.957525,-11843.295072,1838.629195,2516.700203
1338.957836,-12139.377449,919.314598,3627.009116
1338.958148,-10288.862594,1149.143247,3552.988522
1338.958459,-7920.203579,689.485948,2516.700203
1338.958771,-6957.935855,-153.219100,1258.350101
1338.959083,-7698.141797,-1302.362347,-74.020594
1338.959394,-7105.977043,-1149.143247,-814.226536
1338.959706,-7402.059420,-766.095498,-1554.432478
1338.960017,-7994.224174,-229.828649,-1110.308913
1338.960329,-8438.347739,-536.266849,-962.267725
1338.960640,-8586.388927,-689.485948,-0.000000
1338.960952,-7920.203579,-1072.533697,1036.288319
1338.961264,-8438.347739,-995.924147,1406.391290
1338.961575,-10140.821405,229.828649,2220.617826
1338.961887,-11177.109724,306.438199,2738.761985
1338.962198,-10436.903782,306.438199,3108.864956
1338.962510,-8956.491898,459.657299,2146.597232
1338.962821,-7402.059420,229.828649,2442.679609
1338.963133,-6883.915261,-383.047749,1480.411884
1338.963444,-7624.121203,-2221.676944,962.267725
1338.963756,-7920.203579,-689.485948,222.061783
1338.964068,-7624.121203,995.924147,-888.247130
1338.964379,-8068.244768,1915.238745,-1998.556043
1338.964691,-8734.430116,1991.848295,-2220.617826
1338.965002,-7846.182985,1762.019645,-2294.638420
1338.965314,-7846.182985,919.314598,-1406.391290
1338.965625,-9474.636058,995.924147,-0.000000
1338.965937,-11621.233289,76.609550,1998.556043
1338.966249,-13249.686362,-919.314598,2442.679609
1338.966560,-12139.377449,-1072.533697,2960.823768
1338.966872,-9474.636058,-1149.143247,3256.906145
1338.967183,-7772.162391,-1838.629195,3330.926739
1338.967495,-6513.812290,-3064.381992,1998.556043
1338.967806,-6291.750507,-4443.353888,370.102971
1338.968118,-6365.771101,-2681.334243,-1332.370696
1338.968430,-8216.285956,-766.095498,-2146.597232
1338.968741,-9770.718434,306.438199,-3034.844362
1338.969053,-9992.780217,76.609550,-2368.659014
1338.969364,-10658.965565,-1455.581446,-444.123565
1338.969676,-10436.903782,-1838.629195,1184.329507
1338.969987,-11399.171507,-1991.848295,2146.597232
1338.970299,-12287.418637,-1608.800546,2738.761985
1338.970610,-11399.171507,-766.095498,2738.761985
1338.970922,-9696.697840,-383.047749,2294.638420
1338.971234,-7846.182985,995.924147,1406.391290
1338.971545,-7105.977043,1072.533697,370.102971
1338.971857,-6661.853478,-306.438199,-0.000000
1338.972168,-6735.874072,-459.657299,-592.164754
1338.972480,-6587.832884,766.095498,-1258.350101
1338.972791,-6365.771101,612.876398,-2442.679609
1338.973103,-6513.812290,1149.143247,-1924.535449
1338.973415,-7254.018232,306.438199,-2220.617826
1338.973726,-8438.347739,-306.438199,-1628.453072
1338.974038,-10288.862594,0.000000,-0.000000
1338.974349,-12583.501014,536.266849,1480.411884
1338.974661,-13693.809927,153.219100,3627.009116
1338.974972,-12657.521608,0.000000,3627.009116
1338.975284,-10807.006753,76.609550,3552.988522
1338.975596,-7550.100608,-919.314598,2368.659014
1338.975907,-5181.441594,-1532.190996,1184.329507
1338.976219,-5551.544565,-1532.190996,-1036.288319
1338.976530,-6291.750507,-612.876398,-1924.535449
1338.976842,-7476.080014,459.657299,-2368.659014
1338.977153,-8364.327145,842.705048,-2368.659014
1338.977465,-8956.491898,1455.581446,-1184.329507
1338.977777,-9474.636058,536.266849,-0.000000
1338.978088,-8956.491898,-153.219100,888.247130
1338.978400,-9844.739029,-995.924147,1332.370696
1338.978711,-11843.295072,153.219100,1850.514855
1338.979023,-12435.459826,1838.629195,2072.576638
1338.979334,-10658.965565,2757.943793,2146.597232
1338.979646,-8660.409521,2681.334243,1406.391290
1338.979957,-7624.121203,1991.848295,1036.288319
1338.980269,-7402.059420,842.705048,-0.000000
1338.980581,-7624.121203,229.828649,-0.000000
1338.980892,-8216.285956,229.828649,-444.123565
1338.981204,-7698.141797,1149.143247,-740.205942
1338.981515,-8438.347739,1225.752797,-1628.453072
1338.981827,-8290.306550,766.095498,-1332.370696
1338.982138,-8142.265362,383.047749,-666.185348
1338.982450,-8660.409521,536.266849,740.205942
1338.982762,-9918.759623,1225.752797,1776.494261
1338.983073,-12213.398043,536.266849,2146.597232
1338.983385,-12583.501014,612.876398,3108.864956
1338.983696,-10214.842000,842.705048,3330.926739
1338.984008,-7402.059420,459.657299,2368.659014
1338.984319,-6439.791695,-1378.971896,1406.391290
1338.984631,-6735.874072,-2528.115143,370.102971
1338.984943,-6439.791695,-1685.410096,-296.082377
1338.985254,-7698.141797,-995.924147,-1184.329507
1338.985566,-8734.430116,-459.657299,-1258.350101
1338.985877,-8734.430116,-766.095498,-814.226536
1338.986189,-8290.306550,-1455.581446,-148.041188
1338.986500,-7476.080014,-2221.676944,1110.308913
1338.986812,-8586.388927,-2451.505594,1332.370696
1338.987124,-10066.800811,-1608.800546,2368.659014
1338.987435,-11547.212695,-995.924147,2664.741391
1338.987747,-11103.089130,153.219100,2368.659014
1338.988058,-10140.821405,306.438199,1406.391290
1338.988370,-8438.347739,306.438199,1998.556043
1338.988681,-7920.203579,-1072.533697,1258.350101
1338.988993,-7550.100608,-2068.457845,1258.350101
1338.989304,-7550.100608,-1225.752797,148.041188
1338.989616,-7402.059420,0.000000,-592.164754
1338.989928,-7031.956449,536.266849,-1776.494261
1338.990239,-7772.162391,689.485948,-1998.556043
1338.990551,-8216.285956,689.485948,-1998.556043
1338.990862,-9030.512492,612.876398,-1554.432478
1338.991174,-11177.109724,842.705048,518.144159
1338.991485,-13397.727550,76.609550,1628.453072
1338.991797,-13471.748144,0.000000,2664.741391
1338.992109,-11991.336260,459.657299,2738.761985
1338.992420,-9622.677246,76.609550,2886.803174
1338.992732,-7031.956449,-153.219100,1702.473667
1338.993043,-6513.812290,-1225.752797,888.247130
1338.993355,-6883.915261,-1991.848295,-592.164754
1338.993666,-7105.977043,-1532.190996,-1480.411884
1338.993978,-7920.203579,-383.047749,-2072.576638
1338.994290,-8512.368333,459.657299,-2072.576638
1338.994601,-8586.388927,0.000000,-1406.391290
1338.994913,-8512.368333,-1608.800546,-814.226536
1338.995224,-8438.347739,-1838.629195,444.123565
1338.995536,-10140.821405,-1225.752797,962.267725
1338.995847,-12065.356855,-766.095498,1776.494261
1338.996159,-12361.439231,612.876398,1628.453072
1338.996471,-10732.986159,1838.629195,1554.432478
1338.996782,-8364.327145,2528.115143,1776.494261
1338.997094,-7105.977043,1149.143247,1258.350101
1338.997405,-6809.894666,-383.047749,444.123565
1338.997717,-6957.935855,-919.314598,-148.041188
1338.998028,-6661.853478,536.266849,-444.123565
1338.998340,-6439.791695,2221.676944,-2368.659014
1338.998651,-7772.162391,2451.505594,-2886.803174
1338.998963,-8142.265362,1532.190996,-2368.659014
1338.999275,-8142.265362,1608.800546,-1554.432478
1338.999586,-10066.800811,842.705048,518.144159
1338.999898,-12583.501014,1378.971896,1924.535449
1339.000209,-13841.851115,229.828649,3701.029710
1339.000521,-13175.665768,229.828649,4293.194464
1339.000832,-10584.944971,766.095498,3775.050304
1339.001144,-7328.038826,766.095498,2220.617826
1339.001456,-6439.791695,0.000000,814.226536
1339.001767,-5921.647536,-306.438199,-74.020594
1339.002079,-5699.585753,306.438199,-888.247130
1339.002390,-6809.894666,383.047749,-962.267725
1339.002702,-7328.038826,76.609550,-444.123565
1339.003013,-8216.285956,-306.438199,-592.164754
1339.003325,-8660.409521,-995.924147,-518.144159
1339.003636,-8882.471304,-1072.533697,592.164754
1339.003948,-9844.739029,-842.705048,1480.411884
1339.004260,-11621.233289,-153.219100,2442.679609
1339.004571,-13027.624579,612.876398,3256.906145
1339.004883,-10807.006753,1149.143247,4663.297435
1339.005194,-9326.594869,995.924147,2738.761985
1339.005506,-7624.121203,0.000000,2812.782580
1339.005817,-6587.832884,0.000000,1110.308913
1339.006129,-6217.729913,-229.828649,-0.000000
1339.006441,-6217.729913,229.828649,-814.226536
1339.006752,-6587.832884,919.314598,-1776.494261
1339.007064,-6513.812290,1455.581446,-1776.494261
1339.007375,-8216.285956,536.266849,-1776.494261
1339.007687,-8882.471304,0.000000,-370.102971
1339.007998,-10658.965565,-153.219100,222.061783
1339.008310,-12361.439231,0.000000,1406.391290
1339.008621,-13545.768739,-536.266849,2294.638420
1339.008933,-12657.521608,-229.828649,3108.864956
1339.009245,-10732.986159,459.657299,2738.761985
1339.009556,-7994.224174,0.000000,2368.659014
1339.009868,-6291.750507,-536.266849,1406.391290
1339.010179,-6809.894666,-1532.190996,-0.000000
1339.010491,-6143.709319,-1149.143247,-1184.329507
1339.010802,-6069.688724,-919.314598,-2368.659014
1339.011114,-6883.915261,-459.657299,-2516.700203
1339.011426,-7994.224174,-459.657299,-2146.597232
1339.011737,-9400.615463,-2221.676944,-1554.432478
1339.012049,-9770.718434,-2911.162892,296.082377
1339.012360,-10807.006753,-3677.258390,1702.473667
1339.012672,-12361.439231,-3753.867940,2368.659014
1339.012983,-13175.665768,-2604.724693,2590.720797
1339.013295,-12065.356855,-995.924147,2738.761985
1339.013607,-9178.553681,689.485948,1998.556043
1339.013918,-7254.018232,919.314598,1406.391290
1339.014230,-6587.832884,153.219100,592.164754
1339.014541,-6809.894666,0.000000,-222.061783
1339.014853,-6513.812290,-153.219100,-592.164754
1339.015164,-5773.606348,1225.752797,-1184.329507
1339.015476,-6513.812290,1378.971896,-2442.679609
1339.015787,-7698.141797,689.485948,-2368.659014
1339.016099,-8660.409521,76.609550,-1554.432478
1339.016411,-10658.965565,689.485948,-518.144159
1339.016722,-12583.501014,842.705048,666.185348
1339.017034,-14508.036463,1685.410096,2072.576638
1339.017345,-14137.933492,689.485948,2294.638420
1339.017657,-11473.192101,536.266849,2442.679609
1339.017968,-7550.100608,842.705048,2812.782580
1339.018280,-4515.256246,0.000000,2072.576638
1339.018592,-4737.318029,-1532.190996,1110.308913
1339.018903,-5551.544565,-1302.362347,-0.000000
1339.019215,-7105.977043,459.657299,-814.226536
1339.019526,-9104.533087,1149.143247,-2368.659014
1339.019838,-9030.512492,1532.190996,-1628.453072
1339.020149,-9844.739029,1072.533697,-1480.411884
1339.020461,-8586.388927,0.000000,-518.144159
1339.020772,-8882.471304,-919.314598,962.267725
1339.021084,-10140.821405,-1378.971896,2442.679609
1339.021396,-11547.212695,-76.609550,2664.741391
1339.021707,-11621.233289,842.705048,3256.906145
1339.022019,-9474.636058,1762.019645,3108.864956
1339.022330,-7698.141797,1455.581446,1924.535449
1339.022642,-7254.018232,306.438199,1702.473667
1339.022953,-6735.874072,612.876398,148.041188
1339.023265,-6217.729913,612.876398,-518.144159
1339.023577,-6365.771101,1608.800546,-1110.308913
1339.023888,-6735.874072,1685.410096,-1554.432478
1339.024200,-7402.059420,1608.800546,-2146.597232
1339.024511,-7994.224174,1072.533697,-1258.350101
1339.024823,-8660.409521,1608.800546,-518.144159
1339.025134,-10807.006753,1378.971896,518.144159
1339.025446,-12657.521608,1532.190996,1480.411884
1339.025757,-13027.624579,1149.143247,2812.782580
1339.026069,-11695.253884,842.705048,3034.844362
1339.026381,-8586.388927,-306.438199,3182.885551
1339.026692,-6809.894666,-1685.410096,2220.617826
1339.027004,-6143.709319,-3140.991542,962.267725
1339.027315,-6217.729913,-2911.162892,296.082377
1339.027627,-7328.038826,-2604.724693,-0.000000
1339.027938,-8734.430116,-2451.505594,-1184.329507
1339.028250,-8882.471304,-1838.629195,-1110.308913
1339.028562,-8882.471304,-2068.457845,-1554.432478
1339.028873,-8512.368333,-1532.190996,-666.185348
1339.029185,-8438.347739,-2068.457845,-0.000000
1339.029496,-10066.800811,-2987.772442,1184.329507
1339.029808,-12509.480420,-2604.724693,2368.659014
1339.030119,-13175.665768,-1149.143247,2812.782580
1339.030431,-12287.418637,306.438199,2738.761985
1339.030743,-9844.739029,1378.971896,2368.659014
1339.031054,-7402.059420,0.000000,1998.556043
1339.031366,-6957.935855,-1685.410096,370.102971
1339.031677,-6143.709319,-1225.752797,-296.082377
1339.031989,-5995.668130,229.828649,-1702.473667
1339.032300,-6809.894666,1302.362347,-2368.659014
1339.032612,-7920.203579,1532.190996,-2812.782580
1339.032923,-8882.471304,1225.752797,-2368.659014
1339.033235,-9474.636058,766.095498,-2146.597232
1339.033547,-10732.986159,1072.533697,-370.102971
1339.033858,-11843.295072,919.314598,1184.329507
1339.034170,-12953.603985,612.876398,1554.432478
1339.034481,-12879.583391,153.219100,2220.617826
1339.034793,-10436.903782,153.219100,2442.679609
1339.035104,-7105.977043,0.000000,2812.782580
1339.035416,-5181.441594,-1149.143247,2146.597232
1339.035728,-5403.503377,-2451.505594,1628.453072
1339.036039,-6217.729913,-3217.601092,148.041188
1339.036351,-7179.997637,-1608.800546,-1110.308913
1339.036662,-8364.327145,-383.047749,-2220.617826
1339.036974,-8290.306550,-153.219100,-2368.659014
1339.037285,-8586.388927,-1149.143247,-2368.659014
1339.037597,-7846.182985,-1532.190996,-592.164754
1339.037908,-9252.574275,-2374.896044,814.226536
1339.038220,-11843.295072,-2681.334243,2442.679609
1339.038532,-12953.603985,-459.657299,2960.823768
1339.038843,-12287.418637,766.095498,4515.256246
1339.039155,-10066.800811,1762.019645,3330.926739
1339.039466,-7920.203579,1455.581446,2146.597232
1339.039778,-6439.791695,1072.533697,740.205942
1339.040089,-5551.544565,306.438199,-592.164754
1339.040401,-5107.421000,689.485948,-1480.411884
1339.040713,-5329.482782,2451.505594,-2368.659014
1339.041024,-6809.894666,2068.457845,-2664.741391
1339.041336,-8734.430116,1455.581446,-2738.761985
1339.041647,-9400.615463,1225.752797,-1924.535449
1339.041959,-10955.047942,2298.286494,-1110.308913
1339.042270,-12805.562797,2298.286494,296.082377
1339.042582,-14952.160028,1532.190996,1850.514855
1339.042893,-14582.057057,1149.143247,3330.926739
1339.043205,-11029.068536,612.876398,3627.009116
1339.043517,-8142.265362,76.609550,3552.988522
1339.043828,-6439.791695,-1149.143247,2812.782580
1339.044140,-5255.462188,-1149.143247,740.205942
1339.044451,-5921.647536,-1838.629195,-518.144159
1339.044763,-6883.915261,-383.047749,-1258.350101
1339.045074,-7772.162391,995.924147,-2442.679609
1339.045386,-9696.697840,1072.533697,-2294.638420
1339.045698,-9252.574275,0.000000,-1110.308913
1339.046009,-8808.450710,-995.924147,-444.123565
1339.046321,-9622.677246,-1302.362347,1110.308913
1339.046632,-10732.986159,-1225.752797,2960.823768
1339.046944,-12361.439231,-459.657299,3256.906145
1339.047255,-11843.295072,1149.143247,3478.967927
1339.047567,-9252.574275,1915.238745,3552.988522
1339.047878,-6735.874072,1608.800546,2220.617826
1339.048190,-5995.668130,383.047749,1258.350101
1339.048502,-5477.523971,536.266849,-0.000000
1339.048813,-5329.482782,0.000000,-370.102971
1339.049125,-5551.544565,0.000000,-518.144159
1339.049436,-6809.894666,-153.219100,-888.247130
1339.049748,-7772.162391,-919.314598,-1258.350101
1339.050059,-9104.533087,-1302.362347,-666.185348
1339.050371,-10214.842000,76.609550,-148.041188
1339.050683,-11695.253884,689.485948,148.041188
1339.050994,-12731.542202,995.924147,1406.391290
1339.051306,-12953.603985,383.047749,2146.597232
1339.051617,-11029.068536,0.000000,1998.556043
1339.051929,-8290.306550,0.000000,2220.617826
1339.052240,-6735.874072,0.000000,1924.535449
1339.052552,-5181.441594,-1149.143247,1628.453072
1339.052864,-5699.585753,-2681.334243,148.041188
1339.053175,-6809.894666,-2528.115143,-296.082377
1339.053487,-7920.203579,-1455.581446,-1702.473667
1339.053798,-9252.574275,0.000000,-2294.638420
1339.054110,-10066.800811,-995.924147,-2146.597232
1339.054421,-10362.883188,-2374.896044,-1036.288319
1339.054733,-10881.027347,-3294.210641,148.041188
1339.055044,-12509.480420,-3294.210641,1554.432478
1339.055356,-13767.830521,-2298.286494,2516.700203
1339.055668,-13027.624579,383.047749,2146.597232
1339.055979,-11177.109724,1072.533697,2146.597232
1339.056291,-8290.306550,612.876398,1554.432478
1339.056602,-6365.771101,-306.438199,814.226536
1339.056914,-6069.688724,-995.924147,222.061783
1339.057225,-6439.791695,-1378.971896,-148.041188
1339.057537,-7031.956449,0.000000,-962.267725
1339.057849,-6957.935855,306.438199,-1628.453072
1339.058160,-7254.018232,995.924147,-2294.638420
1339.058472,-8364.327145,0.000000,-1258.350101
1339.058783,-8438.347739,-306.438199,-666.185348
1339.059095,-10362.883188,383.047749,-296.082377
1339.059406,-12361.439231,1302.362347,888.247130
1339.059718,-12509.480420,2221.676944,1850.514855
1339.060029,-12287.418637,1991.848295,1924.535449
1339.060341,-9992.780217,1608.800546,2812.782580
1339.060653,-6513.812290,1072.533697,3627.009116
1339.060964,-4293.194464,0.000000,2516.700203
1339.061276,-5033.400406,-536.266849,1554.432478
1339.061587,-7105.977043,-766.095498,-222.061783
1339.061899,-8512.368333,536.266849,-1480.411884
1339.062210,-8882.471304,2145.067394,-2220.617826
1339.062522,-8956.491898,1685.410096,-1776.494261
1339.062834,-8438.347739,766.095498,-592.164754
1339.063145,-8068.244768,0.000000,-0.000000
1339.063457,-9252.574275,-1991.848295,1776.494261
1339.063768,-10658.965565,-1225.752797,2886.803174
1339.064080,-11325.150913,766.095498,3256.906145
1339.064391,-11769.274478,1838.629195,3256.906145
1339.064703,-10436.903782,2298.286494,3182.885551
1339.065014,-7772.162391,1838.629195,1850.514855
1339.065326,-6291.750507,995.924147,740.205942
1339.065638,-6883.915261,0.000000,-370.102971
1339.065949,-7254.018232,76.609550,-1036.288319
1339.066261,-7920.203579,1991.848295,-1480.411884
1339.066572,-8068.244768,2374.896044,-1480.411884
1339.066884,-7698.141797,1302.362347,-1332.370696
1339.067195,-8216.285956,0.000000,-888.247130
1339.067507,-9178.553681,689.485948,-0.000000
1339.067819,-10881.027347,842.705048,666.185348
1339.068130,-11325.150913,1072.533697,2220.617826
1339.068442,-11251.130318,153.219100,3849.070898
1339.068753,-10658.965565,-919.314598,2886.803174
1339.069065,-8364.327145,-1072.533697,3108.864956
1339.069376,-7105.977043,-1225.752797,1702.473667
1339.069688,-6883.915261,-1225.752797,962.267725
1339.070000,-7031.956449,-1302.362347,-370.102971
1339.070311,-7402.059420,-995.924147,-1332.370696
1339.070623,-8142.265362,-766.095498,-1702.473667
1339.070934,-7624.121203,-306.438199,-2146.597232
1339.071246,-8142.265362,-1302.362347,-1702.473667
1339.071557,-8438.347739,-1838.629195,-518.144159
1339.071869,-9474.636058,-2374.896044,666.185348
1339.072180,-10807.006753,-2451.505594,2220.617826
1339.072492,-12731.542202,-2374.896044,3034.844362
1339.072804,-13101.645173,-1532.190996,3775.050304
1339.073115,-11547.212695,-1072.533697,2368.659014
1339.073427,-8956.491898,0.000000,2146.597232
1339.073738,-7105.977043,-689.485948,1110.308913
1339.074050,-6513.812290,-2068.457845,-444.123565
1339.074361,-6439.791695,-1838.629195,-888.247130
1339.074673,-6143.709319,-919.314598,-1406.391290
1339.074985,-6735.874072,153.219100,-1702.473667
1339.075296,-7624.121203,1225.752797,-2072.576638
1339.075608,-8734.430116,536.266849,-962.267725
1339.075919,-9770.718434,-766.095498,-0.000000
1339.076231,-11177.109724,-919.314598,1332.370696
1339.076542,-11917.315666,153.219100,2072.576638
1339.076854,-11917.315666,766.095498,1924.535449
1339.077165,-10807.006753,1302.362347,1628.453072
1339.077477,-8956.491898,306.438199,2812.782580
1339.077789,-7105.977043,-689.485948,1850.514855
1339.078100,-6883.915261,-766.095498,666.185348
1339.078412,-7476.080014,-689.485948,296.082377
1339.078723,-8068.244768,0.000000,-444.123565
1339.079035,-7624.121203,-229.828649,-1776.494261
1339.079346,-6291.750507,0.000000,-1924.535449
1339.079658,-6809.894666,-995.924147,-2220.617826
1339.079970,-7328.038826,-995.924147,-1110.308913
1339.080281,-8660.409521,-536.266849,592.164754
1339.080593,-11029.068536,-612.876398,1628.453072
1339.080904,-12731.542202,-995.924147,3627.009116
1339.081216,-12805.562797,-1149.143247,3775.050304
1339.081527,-11843.295072,0.000000,3182.885551
1339.081839,-9548.656652,919.314598,1924.535449
1339.082150,-6735.874072,1608.800546,962.267725
1339.082462,-6365.771101,919.314598,-444.123565
1339.082774,-6365.771101,766.095498,-1332.370696
1339.083085,-6883.915261,1149.143247,-1702.473667
1339.083397,-6809.894666,1991.848295,-2072.576638
1339.083708,-7105.977043,2987.772442,-1850.514855
1339.084020,-7846.182985,2757.943793,-1184.329507
1339.084331,-8364.327145,1608.800546,-740.205942
1339.084643,-9548.656652,766.095498,740.205942
1339.084955,-10732.986159,842.705048,1184.329507
1339.085266,-11991.336260,1608.800546,2146.597232
1339.085578,-12953.603985,1762.019645,2294.638420
1339.085889,-11251.130318,1378.971896,2220.617826
1339.086201,-8290.306550,995.924147,1702.473667
1339.086512,-7254.018232,-229.828649,1036.288319
1339.086824,-7550.100608,-1378.971896,222.061783
1339.087135,-7105.977043,-536.266849,-740.205942
1339.087447,-7402.059420,153.219100,-1628.453072
1339.087759,-7179.997637,612.876398,-1628.453072
1339.088070,-7328.038826,0.000000,-1406.391290
1339.088382,-8068.244768,-1225.752797,-740.205942
1339.088693,-8142.265362,-1378.971896,-0.000000
1339.089005,-9326.594869,-689.485948,1480.411884
1339.089316,-11251.130318,-1838.629195,2368.659014
1339.089628,-12509.480420,-1378.971896,3108.864956
1339.089940,-11843.295072,-689.485948,2812.782580
1339.090251,-10140.821405,-1072.533697,3330.926739
1339.090563,-7846.182985,-459.657299,2368.659014
1339.090874,-6957.935855,-995.924147,962.267725
1339.091186,-7105.977043,-1685.410096,-296.082377
1339.091497,-6661.853478,-1072.533697,-592.164754
1339.091809,-6217.729913,919.314598,-1258.350101
1339.092121,-7846.182985,1302.362347,-1554.432478
1339.092432,-8290.306550,306.438199,-222.061783
1339.092744,-9548.656652,-306.438199,-222.061783
1339.093055,-9844.739029,-229.828649,370.102971
1339.093367,-10658.965565,229.828649,814.226536
1339.093678,-11399.171507,459.657299,1480.411884
1339.093990,-11547.212695,306.438199,2294.638420
1339.094301,-10881.027347,0.000000,1036.288319
1339.094613,-8882.471304,383.047749,1776.494261
1339.094925,-7254.018232,76.609550,1184.329507
1339.095236,-7476.080014,-1149.143247,1850.514855
1339.095548,-6661.853478,-2221.676944,1184.329507
1339.095859,-7105.977043,-2834.553343,-444.123565
1339.096171,-7328.038826,-2145.067394,-1184.329507
1339.096482,-7105.977043,-919.314598,-1924.535449
1339.096794,-8290.306550,-1762.019645,-1998.556043
1339.097106,-8142.265362,-1532.190996,-592.164754
1339.097417,-9400.615463,-2681.334243,222.061783
1339.097729,-11843.295072,-3217.601092,1776.494261
1339.098040,-13767.830521,-2145.067394,2516.700203
1339.098352,-13027.624579,-306.438199,2886.803174
1339.098663,-11473.192101,459.657299,2442.679609
1339.098975,-9178.553681,153.219100,2368.659014
1339.099286,-7254.018232,0.000000,1184.329507
1339.099598,-6735.874072,-766.095498,-0.000000
1339.099909,-6217.729913,383.047749,-888.247130
1339.100221,-5995.668130,1225.752797,-1406.391290
1339.100532,-6513.812290,2068.457845,-2220.617826
1339.100843,-7698.141797,1915.238745,-2442.679609
1339.101155,-8512.368333,1532.190996,-1850.514855
1339.101466,-7994.224174,1762.019645,-962.267725
1339.101778,-10214.842000,1838.629195,-0.000000
1339.102089,-12139.377449,1149.143247,666.185348
1339.102401,-12731.542202,766.095498,962.267725
1339.102712,-12583.501014,383.047749,1184.329507
1339.103024,-9992.780217,919.314598,1480.411884
1339.103335,-7698.141797,459.657299,2146.597232
1339.103647,-7254.018232,-1685.410096,1702.473667
1339.103958,-6809.894666,-2451.505594,1998.556043
1339.104270,-7105.977043,-2145.067394,222.061783
1339.104581,-7254.018232,-1072.533697,-222.061783
1339.104892,-7254.018232,459.657299,-1036.288319
1339.105204,-7698.141797,459.657299,-1776.494261
1339.105515,-7994.224174,76.609550,-1332.370696
1339.105827,-9030.512492,0.000000,-0.000000
1339.106138,-10288.862594,0.000000,1480.411884
1339.106450,-11991.336260,153.219100,2368.659014
1339.106761,-13397.727550,1302.362347,3330.926739
1339.107073,-11843.295072,1838.629195,3108.864956
1339.107384,-9400.615463,2221.676944,2812.782580
1339.107696,-6883.915261,1532.190996,1332.370696
1339.108007,-5477.523971,689.485948,370.102971
1339.108319,-5551.544565,459.657299,-740.205942
1339.108630,-5699.585753,1225.752797,-666.185348
1339.108942,-6439.791695,2145.067394,-1628.453072
1339.109253,-7698.141797,1608.800546,-1184.329507
1339.109564,-8364.327145,612.876398,-444.123565
1339.109876,-8956.491898,-459.657299,-0.000000
1339.110187,-9474.636058,-689.485948,962.267725
1339.110499,-10732.986159,0.000000,1628.453072
1339.110810,-11991.336260,0.000000,2294.638420
1339.111122,-11843.295072,0.000000,2516.700203
1339.111433,-10510.924376,0.000000,2516.700203
1339.111745,-8956.491898,-306.438199,3108.864956
1339.112056,-7698.141797,-1762.019645,1924.535449
1339.112368,-7698.141797,-1608.800546,1554.432478
1339.112679,-7105.977043,-1302.362347,222.061783
1339.112991,-7254.018232,-689.485948,-740.205942
1339.113302,-6513.812290,-459.657299,-1776.494261
1339.113614,-6143.709319,229.828649,-2368.659014
1339.113925,-6809.894666,-612.876398,-1998.556043
1339.114236,-7179.997637,-1762.019645,-444.123565
1339.114548,-9474.636058,-1685.410096,814.226536
1339.114859,-12065.356855,-2834.553343,2146.597232
1339.115171,-14211.954086,-2145.067394,2738.761985
1339.115482,-13175.665768,-459.657299,3108.864956
1339.115794,-11769.274478,536.266849,1776.494261
1339.116105,-9252.574275,766.095498,1406.391290
1339.116417,-7105.977043,-536.266849,666.185348
1339.116728,-6883.915261,-1762.019645,-370.102971
1339.117040,-6587.832884,-1302.362347,-888.247130
1339.117351,-7105.977043,0.000000,-1554.432478
1339.117663,-7920.203579,842.705048,-1776.494261
1339.117974,-8882.471304,689.485948,-1702.473667
1339.118286,-9326.594869,76.609550,-962.267725
1339.118597,-9844.739029,-383.047749,-148.041188
1339.118908,-11029.068536,0.000000,444.123565
1339.119220,-11991.336260,229.828649,1554.432478
1339.119531,-12435.459826,383.047749,1628.453072
1339.119843,-10955.047942,766.095498,2294.638420
1339.120154,-8956.491898,536.266849,1776.494261
1339.120466,-6735.874072,76.609550,1554.432478
1339.120777,-6217.729913,-306.438199,962.267725
1339.121089,-5921.647536,-1225.752797,-148.041188
1339.121400,-6735.874072,-766.095498,-1036.288319
1339.121712,-6957.935855,-306.438199,-2368.659014
1339.122023,-6809.894666,0.000000,-2146.597232
1339.122335,-7698.141797,-612.876398,-1406.391290
1339.122646,-8734.430116,-1608.800546,-444.123565
1339.122958,-10510.924376,-1685.410096,1036.288319
1339.123269,-12657.521608,-1608.800546,2220.617826
1339.123580,-13767.830521,0.000000,3182.885551
1339.123892,-13397.727550,842.705048,3034.844362
1339.124203,-10955.047942,2145.067394,2960.823768
1339.124515,-7476.080014,1762.019645,1924.535449
1339.124826,-5699.585753,995.924147,666.185348
1339.125138,-4737.318029,689.485948,-370.102971
1339.125449,-5625.565159,689.485948,-1184.329507
1339.125761,-7254.018232,1455.581446,-1628.453072
1339.126072,-7179.997637,3064.381992,-1480.411884
1339.126384,-8438.347739,2374.896044,-1702.473667
1339.126695,-7994.224174,1455.581446,-1036.288319
1339.127007,-9104.533087,689.485948,-444.123565
1339.127318,-9770.718434,0.000000,814.226536
1339.127630,-12065.356855,383.047749,1998.556043
1339.127941,-12435.459826,536.266849,2738.761985
1339.128252,-11917.315666,1072.533697,2368.659014
1339.128564,-9992.780217,1608.800546,3182.885551
1339.128875,-8290.306550,766.095498,2294.638420
1339.129187,-7254.018232,-229.828649,1258.350101
1339.129498,-6661.853478,-689.485948,296.082377
1339.129810,-6291.750507,-383.047749,-518.144159
1339.130121,-6587.832884,-306.438199,-1628.453072
1339.130433,-7105.977043,536.266849,-1554.432478
1339.130744,-7772.162391,-689.485948,-1406.391290
1339.131056,-7846.182985,-1455.581446,-1036.288319
1339.131367,-8882.471304,-383.047749,592.164754
1339.131679,-10807.006753,-689.485948,1776.494261
1339.131990,-12953.603985,-383.047749,2812.782580
1339.132302,-13471.748144,0.000000,3552.988522
1339.132613,-11547.212695,766.095498,3627.009116
1339.132924,-8660.409521,1685.410096,2220.617826
1339.133236,-6069.688724,689.485948,1776.494261
1339.133547,-6069.688724,-383.047749,-74.020594
1339.133859,-6661.853478,-766.095498,-666.185348
1339.134170,-6587.832884,306.438199,-1184.329507
1339.134482,-7254.018232,1378.971896,-1628.453072
1339.134793,-8290.306550,689.485948,-1776.494261
1339.135105,-8882.471304,-995.924147,-1036.288319
1339.135416,-9474.636058,-1608.800546,-444.123565
1339.135728,-9696.697840,-1225.752797,740.205942
1339.136039,-11325.150913,229.828649,2146.597232
1339.136351,-13027.624579,-536.266849,2368.659014
1339.136662,-13249.686362,-306.438199,2516.700203
1339.136974,-9918.759623,459.657299,2368.659014
1339.137285,-7254.018232,306.438199,2368.659014
1339.137596,-5847.626942,-842.705048,1850.514855
1339.137908,-6735.874072,-2528.115143,740.205942
1339.138219,-7402.059420,-2681.334243,-370.102971
1339.138531,-7402.059420,-229.828649,-1480.411884
1339.138842,-7920.203579,612.876398,-2072.576638
1339.139154,-8216.285956,0.000000,-2220.617826
1339.139465,-7846.182985,-1149.143247,-1258.350101
1339.139777,-8956.491898,-2757.943793,-222.061783
1339.140088,-10584.944971,-2221.676944,1258.350101
1339.140400,-12287.418637,-536.266849,2368.659014
1339.140711,-12879.583391,689.485948,3034.844362
1339.141023,-12879.583391,229.828649,3330.926739
1339.141334,-9844.739029,306.438199,2886.803174
1339.141646,-7254.018232,459.657299,2294.638420
1339.141957,-6217.729913,459.657299,518.144159
1339.142268,-6217.729913,0.000000,-0.000000
1339.142580,-6291.750507,0.000000,-1406.391290
1339.142891,-6809.894666,1378.971896,-2072.576638
1339.143203,-6809.894666,766.095498,-2738.761985
1339.143514,-7254.018232,1072.533697,-2220.617826
1339.143826,-8734.430116,919.314598,-1702.473667
1339.144137,-9622.677246,536.266849,-444.123565
1339.144449,-10658.965565,0.000000,814.226536
1339.144760,-12657.521608,383.047749,2664.741391
1339.145072,-13619.789333,0.000000,3849.070898
1339.145383,-11399.171507,-306.438199,3256.906145
1339.145695,-8956.491898,-229.828649,2960.823768
1339.146006,-6439.791695,-689.485948,1702.473667
1339.146318,-6439.791695,-1225.752797,666.185348
1339.146629,-7031.956449,-1302.362347,-1036.288319
1339.146940,-7328.038826,0.000000,-1184.329507
1339.147252,-7476.080014,842.705048,-2812.782580
1339.147563,-7846.182985,1991.848295,-2590.720797
1339.147875,-8882.471304,1072.533697,-2812.782580
1339.148186,-8586.388927,0.000000,-1554.432478
1339.148498,-8734.430116,-536.266849,444.123565
1339.148809,-11029.068536,-1225.752797,1998.556043
1339.149121,-12805.562797,-306.438199,3034.844362
1339.149432,-12361.439231,919.314598,3404.947333
1339.149744,-10436.903782,1149.143247,3034.844362
1339.150055,-7772.162391,383.047749,2294.638420
1339.150367,-6735.874072,0.000000,666.185348
1339.150678,-6661.853478,-536.266849,-74.020594
1339.150989,-7254.018232,76.609550,-814.226536
1339.151301,-7254.018232,919.314598,-962.267725
1339.151612,-7550.100608,1378.971896,-1554.432478
1339.151924,-8216.285956,766.095498,-1184.329507
1339.152235,-8512.368333,536.266849,-1184.329507
1339.152547,-9992.780217,383.047749,-666.185348
1339.152858,-11177.109724,1378.971896,666.185348
1339.153170,-11917.315666,1685.410096,2368.659014
1339.153481,-12435.459826,689.485948,3923.091493
1339.153793,-11103.089130,612.876398,4367.215058
1339.154104,-8882.471304,306.438199,3552.988522
1339.154416,-6735.874072,536.266849,2368.659014
1339.154727,-6439.791695,-995.924147,740.205942
1339.155039,-5921.647536,-459.657299,-370.102971
1339.155350,-6291.750507,-919.314598,-1702.473667
1339.155661,-6809.894666,-766.095498,-2516.700203
1339.155973,-7105.977043,-383.047749,-1850.514855
1339.156284,-7994.224174,-1072.533697,-1332.370696
1339.156596,-8142.265362,-1915.238745,-0.000000
1339.156907,-9400.615463,-2604.724693,1554.432478
1339.157219,-10807.006753,-2298.286494,2590.720797
1339.157530,-12287.418637,-1762.019645,3478.967927
1339.157842,-12361.439231,-1072.533697,3552.988522
1339.158153,-10955.047942,76.609550,2960.823768
1339.158465,-9474.636058,153.219100,2368.659014
1339.158776,-7994.224174,0.000000,1406.391290
1339.159088,-7031.956449,-919.314598,592.164754
1339.159399,-6883.915261,-995.924147,-444.123565
1339.159711,-6809.894666,229.828649,-1258.350101
1339.160022,-6439.791695,153.219100,-2442.679609
1339.160333,-7328.038826,1455.581446,-2886.803174
1339.160645,-7402.059420,1072.533697,-2516.700203
1339.160956,-8734.430116,766.095498,-1628.453072
1339.161268,-9844.739029,383.047749,370.102971
1339.161579,-11769.274478,0.000000,1184.329507
1339.161891,-12435.459826,306.438199,2590.720797
1339.162202,-11621.233289,0.000000,2812.782580
1339.162514,-9844.739029,-1302.362347,2664.741391
1339.162825,-7624.121203,-2068.457845,2368.659014
1339.163137,-7624.121203,-3294.210641,740.205942
1339.163448,-7994.224174,-2681.334243,-370.102971
1339.163760,-8142.265362,-1762.019645,-1850.514855
1339.164071,-8512.368333,-1149.143247,-2664.741391
1339.164383,-8882.471304,-459.657299,-2738.761985
1339.164694,-8216.285956,-689.485948,-2368.659014
1339.165005,-8142.265362,-1915.238745,-592.164754
1339.165317,-8438.347739,-1991.848295,1184.329507
1339.165628,-10066.800811,-1378.971896,2072.576638
1339.165940,-12065.356855,-612.876398,2664.741391
1339.166251,-12583.501014,459.657299,2664.741391
1339.166563,-11251.130318,2068.457845,2220.617826
1339.166874,-9622.677246,2451.505594,1406.391290
1339.167186,-8068.244768,1685.410096,-0.000000
1339.167497,-7550.100608,995.924147,-444.123565
1339.167809,-7328.038826,995.924147,-814.226536
1339.168120,-7105.977043,1225.752797,-1406.391290
1339.168432,-7698.141797,1991.848295,-2294.638420
1339.168743,-8290.306550,2757.943793,-2072.576638
1339.169055,-8290.306550,2451.505594,-2146.597232
1339.169366,-8068.244768,1915.238745,-1480.411884
1339.169677,-9252.574275,1302.362347,-0.000000
1339.169989,-10140.821405,612.876398,1850.514855
1339.170300,-11917.315666,612.876398,2960.823768
1339.170612,-12287.418637,306.438199,3997.112087
1339.170923,-10881.027347,153.219100,3627.009116
1339.171235,-8586.388927,459.657299,2960.823768
1339.171546,-7179.997637,0.000000,2072.576638
1339.171858,-6365.771101,-1225.752797,296.082377
1339.172169,-6217.729913,-689.485948,-1110.308913
1339.172481,-5921.647536,0.000000,-1036.288319
1339.172792,-6661.853478,536.266849,-1776.494261
1339.173104,-7105.977043,689.485948,-888.247130
1339.173415,-7179.997637,0.000000,-296.082377
1339.173727,-7402.059420,-919.314598,666.185348
1339.174038,-8290.306550,-919.314598,1924.535449
1339.174349,-10510.924376,-689.485948,2812.782580
1339.174661,-12287.418637,-536.266849,3034.844362
1339.174972,-11769.274478,229.828649,3108.864956
1339.175284,-10066.800811,229.828649,2368.659014
1339.175595,-8734.430116,0.000000,2294.638420
1339.175907,-8142.265362,-1072.533697,1110.308913
1339.176218,-7698.141797,-1532.190996,666.185348
1339.176530,-7476.080014,-1225.752797,-518.144159
1339.176841,-7105.977043,536.266849,-444.123565
1339.177153,-7846.182985,-306.438199,-1406.391290
1339.177464,-8438.347739,-459.657299,-1554.432478
1339.177776,-8882.471304,0.000000,-1258.350101
1339.178087,-9474.636058,-459.657299,-962.267725
1339.178399,-10658.965565,0.000000,444.123565
1339.178710,-12361.439231,-383.047749,2072.576638
1339.179021,-12583.501014,-1608.800546,2886.803174
1339.179333,-11547.212695,-1915.238745,2886.803174
1339.179644,-9844.739029,-1378.971896,3034.844362
1339.179956,-7846.182985,-1072.533697,1998.556043
1339.180267,-8364.327145,-1685.410096,296.082377
1339.180579,-7624.121203,-1762.019645,-370.102971
1339.180890,-6957.935855,-1608.800546,-1776.494261
1339.181202,-7254.018232,-383.047749,-2220.617826
1339.181513,-7105.977043,459.657299,-2220.617826
1339.181825,-7920.203579,-459.657299,-1480.411884
1339.182136,-8512.368333,-3140.991542,-222.061783
1339.182448,-9178.553681,-2145.067394,888.247130
1339.182759,-10955.047942,-1608.800546,1332.370696
1339.183071,-12065.356855,-459.657299,2368.659014
1339.183382,-12065.356855,76.609550,2294.638420
1339.183693,-10510.924376,1225.752797,1850.514855
1339.184005,-8364.327145,1455.581446,1702.473667
1339.184316,-7846.182985,383.047749,666.185348
1339.184628,-7179.997637,612.876398,370.102971
1339.184939,-7550.100608,383.047749,-962.267725
1339.185251,-6957.935855,1608.800546,-1406.391290
1339.185562,-6513.812290,2451.505594,-2516.700203
1339.185874,-6439.791695,2451.505594,-2442.679609
1339.186185,-6735.874072,1915.238745,-2220.617826
1339.186497,-8364.327145,689.485948,-888.247130
1339.186808,-9696.697840,689.485948,888.247130
1339.187120,-11917.315666,153.219100,1998.556043
1339.187431,-12879.583391,153.219100,3330.926739
1339.187743,-11843.295072,0.000000,3404.947333
1339.188054,-9992.780217,-689.485948,2738.761985
1339.188365,-8364.327145,-919.314598,1998.556043
1339.188677,-7550.100608,-919.314598,518.144159
1339.188988,-7920.203579,-919.314598,-518.144159
1339.189300,-7105.977043,-689.485948,-518.144159
1339.189611,-7550.100608,-919.314598,-1184.329507
1339.189923,-7772.162391,-383.047749,-1702.473667
1339.190234,-7105.977043,229.828649,-1628.453072
1339.190546,-6883.915261,383.047749,-592.164754
1339.190857,-7476.080014,-306.438199,444.123565
1339.191169,-9844.739029,-1225.752797,1850.514855
1339.191480,-11843.295072,-153.219100,2590.720797
1339.191792,-13175.665768,-229.828649,2960.823768
1339.192103,-12287.418637,2451.505594,2886.803174
1339.192415,-9844.739029,2374.896044,1924.535449
1339.192726,-7994.224174,1532.190996,1628.453072
1339.193037,-7698.141797,-689.485948,740.205942
1339.193349,-7920.203579,-612.876398,370.102971
1339.193660,-7550.100608,1225.752797,-296.082377
1339.193972,-7105.977043,2451.505594,-1554.432478
1339.194283,-7105.977043,2987.772442,-2294.638420
1339.194595,-7105.977043,919.314598,-2072.576638
1339.194906,-6957.935855,306.438199,-1406.391290
1339.195218,-8216.285956,-153.219100,-74.020594
1339.195529,-10658.965565,-306.438199,1480.411884
1339.195841,-13471.748144,-383.047749,2886.803174
1339.196152,-13323.706956,-536.266849,3404.947333
1339.196464,-10955.047942,-459.657299,3552.988522
1339.196775,-7920.203579,-1991.848295,3404.947333
1339.197086,-6883.915261,-2145.067394,1924.535449
1339.197398,-6661.853478,-2451.505594,1258.350101
1339.197709,-6809.894666,-2221.676944,296.082377
1339.198021,-7624.121203,-1072.533697,-370.102971
1339.198332,-7328.038826,229.828649,-370.102971
1339.198644,-6883.915261,689.485948,-1406.391290
1339.198955,-7105.977043,-612.876398,-1332.370696
1339.199266,-7920.203579,-536.266849,-888.247130
1339.199578,-9104.533087,-306.438199,518.144159
1339.199889,-11103.089130,-842.705048,962.267725
1339.200201,-12805.562797,-459.657299,2294.638420
1339.200512,-12879.583391,76.609550,2516.700203
1339.200823,-10881.027347,1455.581446,2294.638420
1339.201135,-7846.182985,1225.752797,2146.597232
1339.201446,-6735.874072,0.000000,962.267725
1339.201758,-6661.853478,-1455.581446,518.144159
1339.202069,-7179.997637,-1378.971896,-222.061783
1339.202381,-7328.038826,612.876398,-1258.350101
1339.202692,-7105.977043,1608.800546,-1924.535449
1339.203003,-7994.224174,919.314598,-1480.411884
1339.203315,-8734.430116,-229.828649,-888.247130
1339.203626,-10214.842000,-1685.410096,-370.102971
1339.203938,-11769.274478,-1225.752797,1036.288319
1339.204249,-14211.954086,-842.705048,1850.514855
1339.204560,-14359.995275,0.000000,2886.803174
1339.204872,-12139.377449,153.219100,2738.761985
1339.205183,-8882.471304,-459.657299,2146.597232
1339.205495,-6069.688724,-689.485948,2220.617826
1339.205806,-5773.606348,-1225.752797,962.267725
1339.206118,-5477.523971,0.000000,-222.061783
1339.206429,-6513.812290,229.828649,-1332.370696
1339.206740,-6661.853478,842.705048,-1702.473667
1339.207052,-6587.832884,1838.629195,-1480.411884
1339.207363,-6439.791695,689.485948,-2072.576638
1339.207675,-6883.915261,-842.705048,-1184.329507
1339.207986,-8216.285956,-842.705048,-0.000000
1339.208297,-10881.027347,-1149.143247,1332.370696
1339.208609,-13101.645173,-995.924147,1998.556043
1339.208920,-13841.851115,-1608.800546,2960.823768
1339.209232,-12065.356855,-1072.533697,2812.782580
1339.209543,-10066.800811,-536.266849,2442.679609
1339.209855,-8512.368333,-306.438199,1628.453072
1339.210166,-8660.409521,-919.314598,444.123565
1339.210477,-8290.306550,-1149.143247,-74.020594
1339.210789,-7031.956449,1225.752797,-296.082377
1339.211100,-6587.832884,2374.896044,-2590.720797
1339.211412,-6365.771101,2221.676944,-3034.844362
1339.211723,-6883.915261,1608.800546,-2590.720797
1339.212034,-7476.080014,1072.533697,-2072.576638
1339.212346,-9918.759623,1532.190996,-296.082377
1339.212657,-12139.377449,1608.800546,1332.370696
1339.212969,-13841.851115,1302.362347,2590.720797
1339.213280,-13175.665768,153.219100,3182.885551
1339.213592,-10362.883188,306.438199,2368.659014
1339.213903,-8216.285956,995.924147,1628.453072
1339.214214,-7031.956449,612.876398,666.185348
1339.214526,-7328.038826,-459.657299,296.082377
1339.214837,-7476.080014,-1532.190996,-518.144159
1339.215149,-7920.203579,-689.485948,-444.123565
1339.215460,-7624.121203,383.047749,-1480.411884
1339.215771,-7328.038826,1149.143247,-1406.391290
1339.216083,-7772.162391,-153.219100,-666.185348
1339.216394,-7179.997637,-1685.410096,592.164754
1339.216706,-9474.636058,-2068.457845,1406.391290
1339.217017,-11621.233289,-995.924147,2590.720797
1339.217329,-12287.418637,1149.143247,2738.761985
1339.217640,-11621.233289,2528.115143,2516.700203
1339.217951,-9178.553681,2451.505594,1850.514855
1339.218263,-7105.977043,1378.971896,1480.411884
1339.218574,-6513.812290,306.438199,592.164754
1339.218886,-5921.647536,229.828649,444.123565
1339.219197,-5921.647536,919.314598,-518.144159
1339.219508,-6143.709319,1149.143247,-1480.411884
1339.219820,-7254.018232,459.657299,-1480.411884
1339.220131,-7698.141797,-919.314598,-1776.494261
1339.220443,-8734.430116,-1149.143247,-666.185348
1339.220754,-10362.883188,-1532.190996,962.267725
1339.221066,-12583.501014,-919.314598,1924.535449
1339.221377,-14359.995275,-1072.533697,2886.803174
1339.221688,-12953.603985,-1685.410096,3923.091493
1339.222000,-11621.233289,-1991.848295,3330.926739
1339.222311,-8438.347739,-1225.752797,2812.782580
1339.222623,-7105.977043,-1455.581446,1258.350101
1339.222934,-6513.812290,-1838.629195,888.247130
1339.223245,-5773.606348,-1302.362347,-444.123565
1339.223557,-6513.812290,-995.924147,-1184.329507
1339.223868,-6661.853478,-536.266849,-1998.556043
1339.224180,-7328.038826,-229.828649,-2072.576638
1339.224491,-8068.244768,-842.705048,-1924.535449
1339.224802,-8512.368333,-842.705048,-888.247130
1339.225114,-10066.800811,-1302.362347,-0.000000
1339.225425,-12213.398043,-1378.971896,1554.432478
1339.225737,-13841.851115,-1838.629195,2442.679609
1339.226048,-12805.562797,229.828649,2442.679609
1339.226360,-10807.006753,1838.629195,2442.679609
1339.226671,-8808.450710,1225.752797,1850.514855
1339.226982,-6735.874072,153.219100,1258.350101
1339.227294,-6069.688724,0.000000,518.144159
1339.227605,-6069.688724,-919.314598,-814.226536
1339.227917,-6217.729913,383.047749,-1406.391290
1339.228228,-6957.935855,1762.019645,-3182.885551
1339.228539,-7476.080014,1838.629195,-2516.700203
1339.228851,-8142.265362,919.314598,-2220.617826
1339.229162,-9844.739029,0.000000,-1110.308913
1339.229474,-11325.150913,0.000000,592.164754
1339.229785,-12731.542202,919.314598,1776.494261
1339.230097,-12361.439231,459.657299,2738.761985
1339.230408,-11177.109724,-229.828649,2590.720797
1339.230719,-9326.594869,-383.047749,2368.659014
1339.231031,-6439.791695,612.876398,1998.556043
1339.231342,-6735.874072,0.000000,666.185348
1339.231654,-7105.977043,-842.705048,-0.000000
1339.231965,-6809.894666,-689.485948,-1110.308913
1339.232276,-8142.265362,0.000000,-2368.659014
1339.232588,-7624.121203,842.705048,-1554.432478
1339.232899,-7624.121203,153.219100,-1628.453072
1339.233211,-8290.306550,-1149.143247,-888.247130
1339.233522,-8882.471304,-1149.143247,962.267725
1339.233834,-10732.986159,-1915.238745,2072.576638
1339.234145,-12509.480420,-1149.143247,2886.803174
1339.234456,-13027.624579,766.095498,3182.885551
1339.234768,-10955.047942,2528.115143,2812.782580
1339.235079,-9770.718434,1991.848295,1850.514855
1339.235391,-7994.224174,689.485948,1628.453072
1339.235702,-6883.915261,995.924147,370.102971
1339.236013,-6143.709319,536.266849,-444.123565
1339.236325,-5699.585753,919.314598,-666.185348
1339.236636,-5995.668130,842.705048,-1184.329507
1339.236948,-6957.935855,1149.143247,-1998.556043
1339.237259,-8142.265362,-383.047749,-1850.514855
1339.237571,-8660.409521,76.609550,-1036.288319
1339.237882,-10436.903782,612.876398,-74.020594
1339.238193,-13175.665768,0.000000,1702.473667
1339.238505,-14137.933492,-229.828649,3034.844362
1339.238816,-13249.686362,-689.485948,3701.029710
1339.239128,-9844.739029,-919.314598,4145.153275
1339.239439,-7476.080014,-689.485948,3552.988522
1339.239750,-6365.771101,-1149.143247,2072.576638
1339.240062,-5699.585753,-1532.190996,592.164754
1339.240373,-6291.750507,-459.657299,-1258.350101
1339.240685,-6217.729913,1302.362347,-2220.617826
1339.240996,-7179.997637,1455.581446,-3108.864956
1339.241308,-7698.141797,0.000000,-2220.617826
1339.241619,-7550.100608,-1915.238745,-1036.288319
1339.241930,-8438.347739,-2987.772442,-0.000000
1339.242242,-10881.027347,-2834.553343,1924.535449
1339.242553,-13767.830521,-2528.115143,1776.494261
1339.242865,-14137.933492,-1685.410096,2886.803174
1339.243176,-12213.398043,0.000000,3034.844362
1339.243487,-9400.615463,766.095498,2664.741391
1339.243799,-6883.915261,689.485948,3034.844362
1339.244110,-6143.709319,-842.705048,1850.514855
1339.244422,-5181.441594,-1532.190996,1110.308913
1339.244733,-4737.318029,229.828649,-222.061783
1339.245045,-6143.709319,1915.238745,-2220.617826
1339.245356,-7105.977043,2834.553343,-3330.926739
1339.245667,-8734.430116,1762.019645,-4145.153275
1339.245979,-10362.883188,1532.190996,-3552.988522
1339.246290,-11843.295072,1455.581446,-1776.494261
1339.246602,-13471.748144,995.924147,814.226536
1339.246913,-14063.912898,0.000000,4219.173869
1339.247224,-11473.192101,-2451.505594,6365.771101
1339.247536,-8808.450710,-3600.648841,6143.709319
1339.247847,-6513.812290,-3217.601092,4367.215058
1339.248159,-5847.626942,-1915.238745,1628.453072
1339.248470,-6143.709319,-459.657299,-1036.288319
1339.248781,-7402.059420,459.657299,-3034.844362
1339.249093,-8882.471304,842.705048,-3404.947333
1339.249404,-9326.594869,-612.876398,-3182.885551
1339.249716,-8586.388927,-1378.971896,-1258.350101
1339.250027,-8586.388927,-1991.848295,-148.041188
1339.250339,-8882.471304,-2757.943793,814.226536
1339.250650,-9918.759623,-2528.115143,1628.453072
1339.250961,-11177.109724,-1072.533697,1924.535449
1339.251273,-12065.356855,1149.143247,2146.597232
1339.251584,-10436.903782,3983.696590,1850.514855
1339.251896,-8808.450710,3064.381992,2072.576638
1339.252207,-7254.018232,1149.143247,1850.514855
1339.252518,-6735.874072,153.219100,2220.617826
1339.252830,-7624.121203,-306.438199,962.267725
1339.253141,-6513.812290,842.705048,-74.020594
1339.253453,-6957.935855,1685.410096,-1998.556043
1339.253764,-7105.977043,1915.238745,-3182.885551
1339.254076,-7550.100608,2221.676944,-4293.194464
1339.254387,-8364.327145,2145.067394,-3034.844362
1339.254698,-9918.759623,1915.238745,-1554.432478
1339.255010,-12435.459826,536.266849,1110.308913
1339.255321,-14582.057057,-306.438199,2590.720797
1339.255633,-13545.768739,-459.657299,3849.070898
1339.255944,-10362.883188,-842.705048,4145.153275
1339.256255,-7550.100608,-842.705048,3330.926739
1339.256567,-5551.544565,-306.438199,1850.514855
1339.256878,-5847.626942,0.000000,-296.082377
1339.257190,-6587.832884,-612.876398,-444.123565
1339.257501,-7846.182985,612.876398,-1628.453072
1339.257813,-8438.347739,612.876398,-2368.659014
1339.258124,-8586.388927,-306.438199,-2072.576638
1339.258435,-7550.100608,-1455.581446,-592.164754
1339.258747,-8216.285956,-1378.971896,-222.061783
1339.259058,-9622.677246,-1762.019645,1110.308913
1339.259370,-11843.295072,-1532.190996,2294.638420
1339.259681,-13397.727550,229.828649,2442.679609
1339.259992,-12805.562797,1225.752797,2738.761985
1339.260304,-10362.883188,2374.896044,2442.679609
1339.260615,-7920.203579,1608.800546,2516.700203
1339.260927,-6587.832884,0.000000,2368.659014
1339.261238,-5773.606348,-1532.190996,1628.453072
1339.261550,-5551.544565,-1455.581446,740.205942
1339.261861,-6217.729913,229.828649,-444.123565
1339.262172,-6661.853478,1378.971896,-1924.535449
1339.262484,-6883.915261,1838.629195,-2812.782580
1339.262795,-7846.182985,1915.238745,-3404.947333
1339.263107,-9178.553681,1302.362347,-2146.597232
1339.263418,-11251.130318,612.876398,-0.000000
1339.263729,-14211.954086,229.828649,1628.453072
1339.264041,-14285.974681,153.219100,2960.823768
1339.264352,-12213.398043,76.609550,2960.823768
1339.264664,-9770.718434,-612.876398,2590.720797
1339.264975,-6365.771101,-995.924147,4145.153275
1339.265287,-4663.297435,-2221.676944,2664.741391
1339.265598,-5033.400406,-2911.162892,1628.453072
1339.265909,-6587.832884,-2451.505594,518.144159
1339.266221,-7624.121203,-536.266849,-1036.288319
1339.266532,-9178.553681,229.828649,-2294.638420
1339.266844,-9770.718434,383.047749,-2294.638420
1339.267155,-9400.615463,-1532.190996,-1480.411884
1339.267466,-9474.636058,-1302.362347,-0.000000
1339.267778,-11177.109724,-2145.067394,1480.411884
1339.268089,-12731.542202,-2451.505594,2590.720797
1339.268401,-12879.583391,-1532.190996,3256.906145
1339.268712,-11177.109724,1149.143247,3404.947333
1339.269024,-7920.203579,1455.581446,2442.679609
1339.269335,-6365.771101,995.924147,1776.494261
1339.269646,-5995.668130,-306.438199,370.102971
1339.269958,-5255.462188,-766.095498,-0.000000
1339.270269,-5699.585753,306.438199,-666.185348
1339.270581,-6291.750507,1455.581446,-1480.411884
1339.270892,-7698.141797,1225.752797,-2738.761985
1339.271203,-8216.285956,0.000000,-3330.926739
1339.271515,-9104.533087,306.438199,-2442.679609
1339.271826,-10584.944971,536.266849,-1850.514855
1339.272138,-13027.624579,919.314598,-518.144159
1339.272449,-14804.118840,306.438199,1332.370696
1339.272760,-13693.809927,0.000000,2368.659014
1339.273072,-11547.212695,0.000000,3108.864956
1339.273383,-7846.182985,0.000000,3627.009116
1339.273695,-5773.606348,-2604.724693,2738.761985
1339.274006,-4959.379811,-2298.286494,1628.453072
1339.274318,-5181.441594,-1149.143247,-370.102971
1339.274629,-7254.018232,-153.219100,-1702.473667
1339.274940,-8438.347739,1072.533697,-2960.823768
1339.275252,-8734.430116,1455.581446,-3182.885551
1339.275563,-8364.327145,459.657299,-2368.659014
1339.275875,-9030.512492,-919.314598,-1258.350101
1339.276186,-10732.986159,-1532.190996,888.247130
1339.276497,-12731.542202,-2681.334243,2294.638420
1339.276809,-14211.954086,-1225.752797,3701.029710
1339.277120,-12805.562797,766.095498,4145.153275
1339.277432,-10658.965565,1991.848295,3330.926739
1339.277743,-7476.080014,2145.067394,2368.659014
1339.278055,-5329.482782,612.876398,888.247130
1339.278366,-5329.482782,383.047749,-814.226536
1339.278677,-5181.441594,919.314598,-814.226536
1339.278989,-5551.544565,1608.800546,-1332.370696
1339.279300,-7105.977043,1378.971896,-1554.432478
1339.279612,-8068.244768,536.266849,-1036.288319
1339.279923,-8808.450710,76.609550,-888.247130
1339.280234,-9400.615463,383.047749,-0.000000
1339.280546,-11325.150913,995.924147,1110.308913
1339.280857,-12953.603985,1072.533697,1554.432478
1339.281169,-12509.480420,766.095498,2146.597232
1339.281480,-10510.924376,1378.971896,2738.761985
1339.281792,-7698.141797,766.095498,3627.009116
1339.282103,-5921.647536,-306.438199,3108.864956
1339.282414,-5699.585753,-1685.410096,2368.659014
1339.282726,-6587.832884,-2145.067394,888.247130
1339.283037,-7105.977043,-995.924147,-74.020594
1339.283349,-7846.182985,383.047749,-2072.576638
1339.283660,-7550.100608,689.485948,-2368.659014
1339.283971,-7698.141797,-842.705048,-2294.638420
1339.284283,-8068.244768,-1991.848295,-888.247130
1339.284594,-9474.636058,-2451.505594,1036.288319
1339.284906,-11843.295072,-2757.943793,2368.659014
1339.285217,-14434.015869,-2528.115143,3256.906145
1339.285529,-13989.892304,0.000000,3330.926739
1339.285840,-11769.274478,1378.971896,2590.720797
1339.286151,-8364.327145,2834.553343,962.267725
1339.286463,-6143.709319,0.000000,296.082377
1339.286774,-5403.503377,-766.095498,-444.123565
1339.287086,-5699.585753,-1149.143247,-444.123565
1339.287397,-6365.771101,-306.438199,-222.061783
1339.287708,-7550.100608,-153.219100,-1110.308913
1339.288020,-8290.306550,-766.095498,-1628.453072
1339.288331,-8956.491898,-1378.971896,-1702.473667
1339.288643,-10214.842000,-842.705048,-1036.288319
1339.288954,-11621.233289,-459.657299,-148.041188
1339.289266,-13471.748144,229.828649,1110.308913
1339.289577,-13841.851115,0.000000,2220.617826
1339.289888,-12361.439231,0.000000,1924.535449
1339.290200,-9844.739029,383.047749,1850.514855
1339.290511,-6883.915261,919.314598,1628.453072
1339.290823,-4811.338623,-459.657299,1628.453072
1339.291134,-4219.173869,-1225.752797,1628.453072
1339.291445,-5921.647536,-1378.971896,370.102971
1339.291757,-7624.121203,-459.657299,-1702.473667
1339.292068,-7254.018232,1149.143247,-2146.597232
1339.292380,-7550.100608,1378.971896,-2812.782580
1339.292691,-7402.059420,0.000000,-2442.679609
1339.293003,-8438.347739,-1378.971896,-1110.308913
1339.293314,-10955.047942,-3294.210641,1998.556043
1339.293625,-13101.645173,-3217.601092,3849.070898
1339.293937,-14508.036463,-2604.724693,4737.318029
1339.294248,-13841.851115,-995.924147,3701.029710
1339.294560,-11399.171507,76.609550,2590.720797
1339.294871,-8512.368333,536.266849,518.144159
1339.295182,-6365.771101,919.314598,-296.082377
1339.295494,-5329.482782,383.047749,-2072.576638
1339.295805,-5403.503377,1225.752797,-1184.329507
1339.296117,-6365.771101,2221.676944,-1110.308913
1339.296428,-7402.059420,2528.115143,-1184.329507
1339.296739,-8290.306550,1915.238745,-1184.329507
1339.297051,-7994.224174,1302.362347,-814.226536
1339.297362,-8290.306550,2528.115143,-518.144159
1339.297674,-9992.780217,2757.943793,-444.123565
1339.297985,-11251.130318,3217.601092,296.082377
1339.298297,-11251.130318,2068.457845,1184.329507
1339.298608,-10436.903782,1302.362347,2368.659014
1339.298920,-9030.512492,842.705048,3478.967927
1339.299231,-8586.388927,0.000000,2664.741391
1339.299542,-8290.306550,-1149.143247,1702.473667
1339.299854,-8216.285956,-689.485948,370.102971
1339.300165,-7254.018232,306.438199,-1406.391290
1339.300477,-6735.874072,1302.362347,-2738.761985
1339.300788,-6661.853478,612.876398,-2368.659014
1339.301100,-7105.977043,-1532.190996,-1184.329507
1339.301411,-8068.244768,-2298.286494,-0.000000
1339.301722,-10066.800811,-2451.505594,1850.514855
1339.302034,-12509.480420,-2221.676944,2738.761985
1339.302345,-14137.933492,-1378.971896,3256.906145
1339.302657,-13249.686362,-153.219100,3330.926739
1339.302968,-10214.842000,919.314598,2146.597232
1339.303280,-7254.018232,1532.190996,888.247130
1339.303591,-5921.647536,0.000000,370.102971
1339.303903,-5699.585753,-919.314598,-444.123565
1339.304214,-5255.462188,-536.266849,296.082377
1339.304525,-6291.750507,0.000000,-296.082377
1339.304837,-7846.182985,76.609550,-740.205942
1339.305148,-8734.430116,306.438199,-1110.308913
1339.305460,-9400.615463,306.438199,-592.164754
1339.305771,-9992.780217,-383.047749,-222.061783
1339.306083,-11621.233289,-306.438199,592.164754
1339.306394,-13249.686362,-383.047749,1776.494261
1339.306706,-13175.665768,-383.047749,2072.576638
1339.307017,-11325.150913,-306.438199,2220.617826
1339.307328,-8734.430116,-229.828649,2590.720797
1339.307640,-7846.182985,153.219100,1924.535449
1339.307951,-6513.812290,0.000000,1776.494261
1339.308263,-5921.647536,-1378.971896,814.226536
1339.308574,-5403.503377,-689.485948,148.041188
1339.308886,-5107.421000,-306.438199,-1628.453072
1339.309197,-5921.647536,229.828649,-2442.679609
1339.309508,-6883.915261,229.828649,-2516.700203
1339.309820,-8142.265362,-536.266849,-1998.556043
1339.310131,-10807.006753,-1378.971896,296.082377
1339.310443,-13397.727550,-1915.238745,2072.576638
1339.310754,-15396.283594,-2374.896044,3034.844362
1339.311066,-13989.892304,-1532.190996,3923.091493
1339.311377,-11621.233289,-1608.800546,3849.070898
1339.311689,-8734.430116,-1225.752797,2960.823768
1339.312000,-7105.977043,-1685.410096,1702.473667
1339.312311,-5995.668130,-1302.362347,-0.000000
1339.312623,-5403.503377,536.266849,-740.205942
1339.312934,-6217.729913,919.314598,-1184.329507
1339.313246,-5847.626942,2068.457845,-1850.514855
1339.313557,-6513.812290,1991.848295,-2146.597232
1339.313869,-7105.977043,1302.362347,-1554.432478
1339.314180,-7846.182985,995.924147,-888.247130
1339.314491,-9548.656652,612.876398,-222.061783
1339.314803,-11843.295072,306.438199,814.226536
1339.315114,-12213.398043,995.924147,1554.432478
1339.315426,-12213.398043,1149.143247,592.164754
1339.315737,-10658.965565,1302.362347,1110.308913
1339.316049,-8512.368333,1149.143247,1702.473667
1339.316360,-7772.162391,0.000000,1776.494261
1339.316672,-7550.100608,-1302.362347,1406.391290
1339.316983,-6883.915261,-1149.143247,-0.000000
1339.317294,-7031.956449,-153.219100,-1184.329507
1339.317606,-7105.977043,-229.828649,-1998.556043
1339.317917,-7179.997637,229.828649,-2812.782580
1339.318229,-8734.430116,-536.266849,-2294.638420
1339.318540,-10066.800811,-536.266849,-518.144159
1339.318852,-12361.439231,-1072.533697,1406.391290
1339.319163,-14878.139434,-842.705048,2664.741391
1339.319474,-14211.954086,-1072.533697,3775.050304
1339.319786,-11917.315666,229.828649,3256.906145
1339.320097,-9474.636058,612.876398,2516.700203
1339.320409,-6291.750507,1532.190996,888.247130
1339.320720,-5329.482782,1532.190996,-518.144159
1339.321032,-5477.523971,1302.362347,-1554.432478
1339.321343,-5847.626942,1608.800546,-1628.453072
1339.321655,-6809.894666,2298.286494,-1924.535449
1339.321966,-7402.059420,2834.553343,-1628.453072
1339.322277,-8068.244768,1838.629195,-1258.350101
1339.322589,-8364.327145,153.219100,-296.082377
1339.322900,-9104.533087,-383.047749,888.247130
1339.323212,-10510.924376,-306.438199,1406.391290
1339.323523,-12139.377449,76.609550,2072.576638
1339.323835,-12805.562797,153.219100,2368.659014
1339.324146,-10658.965565,766.095498,2368.659014
1339.324457,-8882.471304,1072.533697,2812.782580
1339.324769,-7476.080014,-612.876398,2738.761985
1339.325080,-6513.812290,-1915.238745,2220.617826
1339.325392,-6439.791695,-2145.067394,814.226536
1339.325703,-6587.832884,-995.924147,-0.000000
1339.326015,-6069.688724,229.828649,-2146.597232
1339.326326,-6661.853478,842.705048,-2812.782580
1339.326638,-6735.874072,-229.828649,-1480.411884
1339.326949,-7772.162391,-1302.362347,-1036.288319
1339.327260,-9992.780217,-1991.848295,1332.370696
1339.327572,-13027.624579,-1378.971896,3108.864956
1339.327883,-14285.974681,-1225.752797,3997.112087
1339.328195,-13693.809927,-383.047749,3849.070898
1339.328506,-11621.233289,-306.438199,3108.864956
1339.328818,-8438.347739,-383.047749,1924.535449
1339.329129,-6587.832884,-1838.629195,740.205942
1339.329440,-5847.626942,-1455.581446,-0.000000
1339.329752,-5329.482782,-1225.752797,-74.020594
1339.330063,-7105.977043,-1149.143247,-444.123565
1339.330375,-7772.162391,-306.438199,-222.061783
1339.330686,-8512.368333,-689.485948,-1036.288319
1339.330998,-8734.430116,-229.828649,-740.205942
1339.331309,-9326.594869,0.000000,-666.185348
1339.331621,-10214.842000,842.705048,-666.185348
1339.331932,-12065.356855,0.000000,-148.041188
1339.332243,-12361.439231,459.657299,1184.329507
1339.332555,-11695.253884,1149.143247,1776.494261
1339.332866,-10140.821405,766.095498,1628.453072
1339.333178,-8216.285956,76.609550,2072.576638
1339.333489,-6957.935855,-1225.752797,1998.556043
1339.333801,-5847.626942,-2757.943793,1110.308913
1339.334112,-4885.359217,-1685.410096,370.102971
1339.334423,-5699.585753,-1225.752797,-1628.453072
1339.334735,-6587.832884,383.047749,-2146.597232
1339.335046,-7624.121203,0.000000,-2294.638420
1339.335358,-9030.512492,-153.219100,-1702.473667
1339.335669,-11029.068536,-766.095498,-370.102971
1339.335981,-13915.871710,-1608.800546,1332.370696
1339.336292,-15322.262999,-995.924147,2812.782580
1339.336604,-14211.954086,306.438199,2960.823768
1339.336915,-11547.212695,1072.533697,2220.617826
1339.337226,-8586.388927,1378.971896,1554.432478
1339.337538,-5847.626942,689.485948,444.123565
1339.337849,-3997.112087,689.485948,-0.000000
1339.338161,-4219.173869,536.266849,-888.247130
1339.338472,-5033.400406,1302.362347,-888.247130
1339.338784,-6587.832884,2987.772442,-1776.494261
1339.339095,-8216.285956,2068.457845,-1406.391290
1339.339406,-9548.656652,1302.362347,-1036.288319
1339.339718,-10362.883188,153.219100,-888.247130
1339.340029,-11325.150913,612.876398,296.082377
1339.340341,-13101.645173,612.876398,666.185348
1339.340652,-13545.768739,459.657299,1924.535449
1339.340964,-12287.418637,459.657299,2886.803174
1339.341275,-9252.574275,766.095498,2812.782580
1339.341587,-7328.038826,919.314598,3404.947333
1339.341898,-6069.688724,-229.828649,1998.556043
1339.342209,-5551.544565,-229.828649,814.226536
1339.342521,-5625.565159,229.828649,-592.164754
1339.342832,-5699.585753,1685.410096,-1776.494261
1339.343144,-5995.668130,2451.505594,-2590.720797
1339.343455,-6883.915261,1455.581446,-2516.700203
1339.343767,-7105.977043,383.047749,-1036.288319
1339.344078,-8586.388927,-1685.410096,-0.000000
1339.344389,-10658.965565,-1685.410096,2072.576638
1339.344701,-13249.686362,-1225.752797,3182.885551
1339.345012,-13249.686362,-842.705048,3478.967927
1339.345324,-11843.295072,-306.438199,3182.885551
1339.345635,-9030.512492,229.828649,2886.803174
1339.345947,-7031.956449,-536.266849,1776.494261
1339.346258,-6513.812290,-1532.190996,518.144159
1339.346570,-7031.956449,-1532.190996,-888.247130
1339.346881,-7624.121203,76.609550,-740.205942
1339.347192,-8068.244768,842.705048,-1110.308913
1339.347504,-8586.388927,229.828649,-1036.288319
1339.347815,-8882.471304,-1225.752797,-666.185348
1339.348127,-8586.388927,-1225.752797,-0.000000
1339.348438,-9844.739029,-1608.800546,666.185348
1339.348750,-11769.274478,-536.266849,1554.432478
1339.349061,-13175.665768,229.828649,1628.453072
1339.349373,-12731.542202,1378.971896,1776.494261
1339.349684,-10362.883188,1762.019645,1628.453072
1339.349995,-7772.162391,842.705048,1850.514855
1339.350307,-5921.647536,-842.705048,1406.391290
1339.350618,-6069.688724,-2221.676944,888.247130
1339.350930,-6439.791695,-1991.848295,222.061783
1339.351241,-7328.038826,-766.095498,-444.123565
1339.351553,-8068.244768,0.000000,-1554.432478
1339.351864,-8068.244768,-459.657299,-1776.494261
1339.352175,-8734.430116,-1608.800546,-1628.453072
1339.352487,-8290.306550,-1608.800546,-370.102971
1339.352798,-10214.842000,-995.924147,518.144159
1339.353110,-12583.501014,-1072.533697,2294.638420
1339.353421,-13767.830521,-1302.362347,3330.926739
1339.353733,-12139.377449,-383.047749,3404.947333
1339.354044,-9104.533087,536.266849,2368.659014
1339.354356,-7105.977043,766.095498,1184.329507
1339.354667,-5847.626942,153.219100,-74.020594
1339.354978,-5403.503377,-153.219100,-1332.370696
1339.355290,-5847.626942,153.219100,-1184.329507
1339.355601,-6217.729913,842.705048,-1776.494261
1339.355913,-7179.997637,1072.533697,-1998.556043
1339.356224,-8068.244768,459.657299,-1998.556043
1339.356536,-8364.327145,0.000000,-1258.350101
1339.356847,-9770.718434,0.000000,-666.185348
1339.357158,-11399.171507,919.314598,592.164754
1339.357470,-13323.706956,1149.143247,1480.411884
1339.357781,-13249.686362,229.828649,2220.617826
1339.358093,-11843.295072,0.000000,2368.659014
1339.358404,-9104.533087,1455.581446,2590.720797
1339.358716,-7476.080014,0.000000,2146.597232
1339.359027,-6587.832884,-1302.362347,1036.288319
1339.359339,-6809.894666,-1608.800546,148.041188
1339.359650,-6957.935855,229.828649,-1184.329507
1339.359961,-7476.080014,1685.410096,-2294.638420
1339.360273,-7920.203579,1838.629195,-2812.782580
1339.360584,-8142.265362,1225.752797,-2072.576638
1339.360896,-7846.182985,0.000000,-1036.288319
1339.361207,-9770.718434,-689.485948,444.123565
1339.361519,-11177.109724,-536.266849,2146.597232
1339.361830,-13471.748144,-459.657299,2812.782580
1339.362141,-12509.480420,612.876398,3404.947333
1339.362453,-10436.903782,995.924147,2960.823768
1339.362764,-8734.430116,919.314598,2220.617826
1339.363076,-7476.080014,0.000000,1110.308913
1339.363387,-7031.956449,0.000000,-370.102971
1339.363699,-6365.771101,459.657299,-148.041188
1339.364010,-6661.853478,612.876398,-296.082377
1339.364322,-7105.977043,689.485948,-888.247130
1339.364633,-7402.059420,153.219100,-962.267725
1339.364944,-7846.182985,0.000000,-0.000000
1339.365256,-8364.327145,76.609550,-74.020594
1339.365567,-9622.677246,76.609550,1036.288319
1339.365879,-11695.253884,0.000000,1850.514855
1339.366190,-12361.439231,-153.219100,2294.638420
1339.366502,-11325.150913,689.485948,2442.679609
1339.366813,-9178.553681,1302.362347,2738.761985
1339.367124,-7402.059420,306.438199,2590.720797
1339.367436,-6735.874072,-842.705048,1850.514855
1339.367747,-6661.853478,-842.705048,888.247130
1339.368059,-5625.565159,-229.828649,-148.041188
1339.368370,-5847.626942,153.219100,-2146.597232
1339.368682,-5773.606348,153.219100,-2072.576638
1339.368993,-7031.956449,-229.828649,-2220.617826
1339.369305,-8512.368333,-1302.362347,-1036.288319
1339.369616,-9992.780217,-1915.238745,518.144159
1339.369927,-11769.274478,-1838.629195,1850.514855
1339.370239,-13915.871710,-1915.238745,2738.761985
1339.370550,-14804.118840,-1915.238745,2738.761985
1339.370862,-12213.398043,-842.705048,2664.741391
1339.371173,-9474.636058,76.609550,1998.556043
1339.371485,-7254.018232,229.828649,1406.391290
1339.371796,-6661.853478,-766.095498,-0.000000
1339.372107,-7402.059420,-1072.533697,-888.247130
1339.372419,-6957.935855,766.095498,-1036.288319
1339.372730,-6661.853478,1685.410096,-2146.597232
1339.373042,-7402.059420,1072.533697,-1776.494261
1339.373353,-7772.162391,-306.438199,-1406.391290
1339.373665,-9104.533087,-1378.971896,-1480.411884
1339.373976,-9770.718434,-766.095498,222.061783
1339.374288,-11843.295072,-689.485948,1480.411884
1339.374599,-13175.665768,-1149.143247,2368.659014
1339.374910,-12509.480420,-919.314598,2368.659014
1339.375222,-11399.171507,-689.485948,1702.473667
1339.375533,-8438.347739,383.047749,2442.679609
1339.375845,-7105.977043,0.000000,1258.350101
1339.376156,-6365.771101,-1608.800546,1036.288319
1339.376468,-5921.647536,-1762.019645,-814.226536
1339.376779,-5625.565159,-1149.143247,-1702.473667
1339.377090,-5403.503377,536.266849,-3034.844362
1339.377402,-5921.647536,766.095498,-3034.844362
1339.377713,-7476.080014,-1685.410096,-2146.597232
1339.378025,-9400.615463,-2528.115143,-0.000000
1339.378336,-11843.295072,-2681.334243,1332.370696
1339.378648,-14063.912898,-2374.896044,2960.823768
1339.378959,-13989.892304,-1532.190996,3701.029710
1339.379271,-13397.727550,-612.876398,2812.782580
1339.379582,-10732.986159,919.314598,1702.473667
1339.379893,-7550.100608,1532.190996,592.164754
1339.380205,-5551.544565,1225.752797,1110.308913
1339.380516,-5255.462188,0.000000,296.082377
1339.380828,-7105.977043,536.266849,-1036.288319
1339.381139,-7772.162391,1762.019645,-1406.391290
1339.381451,-8438.347739,2681.334243,-1776.494261
1339.381762,-9326.594869,2834.553343,-1110.308913
1339.382073,-9548.656652,2298.286494,-1110.308913
1339.382385,-10510.924376,1378.971896,-370.102971
1339.382696,-11473.192101,689.485948,1332.370696
1339.383008,-13545.768739,842.705048,2368.659014
1339.383319,-11991.336260,842.705048,3182.885551
1339.383631,-10584.944971,919.314598,2590.720797
1339.383942,-7550.100608,919.314598,2590.720797
1339.384254,-4959.379811,766.095498,1628.453072
1339.384565,-5033.400406,76.609550,444.123565
1339.384876,-5403.503377,-383.047749,-444.123565
1339.385188,-6661.853478,1378.971896,-1258.350101
1339.385499,-7550.100608,2221.676944,-1332.370696
1339.385811,-7698.141797,1838.629195,-740.205942
1339.386122,-8364.327145,0.000000,-74.020594
1339.386434,-7920.203579,-1532.190996,666.185348
1339.386745,-9474.636058,-1532.190996,1554.432478
1339.387056,-10362.883188,-1149.143247,2368.659014
1339.387368,-11843.295072,-1072.533697,2886.803174
1339.387679,-11991.336260,0.000000,3108.864956
1339.387991,-10288.862594,76.609550,2812.782580
1339.388302,-7624.121203,76.609550,2146.597232
1339.388614,-6291.750507,0.000000,1036.288319
1339.388925,-6439.791695,-306.438199,222.061783
1339.389237,-6661.853478,153.219100,-518.144159
1339.389548,-6883.915261,1225.752797,-666.185348
1339.389859,-6883.915261,766.095498,-1036.288319
1339.390171,-7550.100608,229.828649,-1628.453072
1339.390482,-8216.285956,-1685.410096,-1110.308913
1339.390794,-9104.533087,-2451.505594,-444.123565
1339.391105,-10584.944971,-2604.724693,592.164754
1339.391417,-12213.398043,-2987.772442,1776.494261
1339.391728,-13471.748144,-3830.477490,2516.700203
1339.392039,-13471.748144,-3983.696590,2664.741391
1339.392351,-11177.109724,-2681.334243,2664.741391
1339.392662,-8808.450710,-3217.601092,1480.411884
1339.392974,-6661.853478,-3370.820191,222.061783
1339.393285,-5921.647536,-4366.744339,-0.000000
1339.393597,-5995.668130,-4673.182538,-370.102971
1339.393908,-5699.585753,-4366.744339,-888.247130
1339.394220,-6809.894666,-3753.867940,-1332.370696
1339.394531,-8734.430116,-2987.772442,-1332.370696
1339.394842,-10510.924376,-3140.991542,-592.164754
1339.395154,-10881.027347,-2987.772442,296.082377
1339.395465,-11473.192101,-3677.258390,888.247130
1339.395777,-11917.315666,-3600.648841,1702.473667
1339.396088,-11103.089130,-3983.696590,1258.350101
1339.396400,-9400.615463,-3753.867940,1110.308913
1339.396711,-7624.121203,-3294.210641,-0.000000
1339.397023,-7698.141797,-3064.381992,-148.041188
1339.397334,-8290.306550,-2374.896044,-592.164754
1339.397646,-8216.285956,-2834.553343,-0.000000
1339.397957,-8364.327145,-3907.087040,666.185348
1339.398269,-8216.285956,-4213.525239,370.102971
1339.398580,-8364.327145,-3907.087040,-666.185348
1339.398892,-8438.347739,-2757.943793,-1110.308913
1339.399203,-8808.450710,-2068.457845,-1258.350101
1339.399515,-9844.739029,-1225.752797,-296.082377
1339.399826,-11029.068536,-612.876398,370.102971
1339.400138,-11547.212695,-1455.581446,1036.288319
1339.400449,-10436.903782,-1915.238745,1776.494261
1339.400761,-7328.038826,-1991.848295,1332.370696
1339.401072,-5551.544565,-2221.676944,222.061783
1339.401384,-5403.503377,-2604.724693,-592.164754
1339.401695,-6883.915261,-2528.115143,-1258.350101
1339.402007,-8882.471304,-2298.286494,-296.082377
1339.402318,-10362.883188,-1455.581446,518.144159
1339.402630,-11547.212695,-1685.410096,962.267725
1339.402941,-11695.253884,-2528.115143,1702.473667
1339.403253,-9548.656652,-3064.381992,1776.494261
1339.403564,-7698.141797,-3447.429741,1554.432478
1339.403876,-5995.668130,-4366.744339,1332.370696
1339.404188,-5699.585753,-5209.449386,888.247130
1339.404499,-6661.853478,-5515.887586,888.247130
1339.404811,-8068.244768,-4673.182538,740.205942
1339.405122,-9030.512492,-3677.258390,1332.370696
1339.405434,-10955.047942,-2528.115143,1184.329507
1339.405745,-11843.295072,-1378.971896,962.267725
1339.406057,-11547.212695,-383.047749,444.123565
1339.406368,-10214.842000,612.876398,-0.000000
1339.406680,-8808.450710,536.266849,-74.020594
1339.406991,-6587.832884,-153.219100,-0.000000
1339.407303,-5921.647536,-459.657299,-296.082377
1339.407614,-5181.441594,-1149.143247,-0.000000
1339.407926,-6143.709319,-2834.553343,592.164754
1339.408237,-7402.059420,-4366.744339,666.185348
1339.408549,-8512.368333,-5515.887586,1406.391290
1339.408860,-9992.780217,-5975.544884,740.205942
1339.409172,-11103.089130,-6052.154434,1776.494261
1339.409483,-12065.356855,-5132.839837,1184.329507
1339.409795,-11843.295072,-4213.525239,1184.329507
1339.410106,-11621.233289,-2528.115143,1554.432478
1339.410418,-10658.965565,-1302.362347,1110.308913
1339.410729,-9622.677246,-306.438199,1184.329507
1339.411041,-7476.080014,-153.219100,962.267725
1339.411352,-5551.544565,-766.095498,592.164754
1339.411664,-5181.441594,-1685.410096,-0.000000
1339.411975,-5551.544565,-2604.724693,-148.041188
1339.412287,-7402.059420,-3677.258390,-814.226536
1339.412598,-8808.450710,-4443.353888,-740.205942
1339.412910,-10362.883188,-4519.963438,-518.144159
1339.413221,-11695.253884,-4979.620737,-370.102971
1339.413533,-11917.315666,-5975.544884,592.164754
1339.413844,-11695.253884,-6052.154434,1332.370696
1339.414156,-9992.780217,-5056.230287,1998.556043
1339.414467,-8364.327145,-3294.210641,1776.494261
1339.414779,-7179.997637,-2298.286494,444.123565
1339.415091,-6513.812290,-1915.238745,518.144159
1339.415402,-6291.750507,-1225.752797,-74.020594
1339.415714,-5921.647536,-995.924147,-370.102971
1339.416025,-7179.997637,-1532.190996,-666.185348
1339.416337,-9252.574275,-2681.334243,-444.123565
1339.416648,-10140.821405,-3217.601092,-296.082377
1339.416960,-11325.150913,-3064.381992,-444.123565
1339.417271,-10881.027347,-2911.162892,370.102971
1339.417583,-10658.965565,-3524.039291,296.082377
1339.417894,-11843.295072,-4673.182538,518.144159
1339.418206,-8808.450710,-3217.601092,1332.370696
1339.418517,-7698.141797,-3217.601092,-0.000000
1339.418829,-7698.141797,-4136.915689,1850.514855
1339.419140,-9474.636058,-4519.963438,1036.288319
1339.419452,-9474.636058,-3217.601092,1554.432478
1339.419763,-9178.553681,-919.314598,666.185348
1339.420075,-8512.368333,-1072.533697,1332.370696
1339.420386,-8660.409521,-2911.162892,888.247130
1339.420698,-8438.347739,-3830.477490,592.164754
1339.421009,-8438.347739,-3140.991542,1184.329507
1339.421321,-8882.471304,-2681.334243,1776.494261
1339.421632,-11473.192101,-995.924147,2590.720797
1339.421944,-12435.459826,-383.047749,2368.659014
1339.422255,-11103.089130,-842.705048,3256.906145
1339.422567,-8956.491898,-1149.143247,3182.885551
1339.422878,-5625.565159,0.000000,3330.926739
1339.423190,-6069.688724,-306.438199,1776.494261
1339.423501,-4811.338623,-2451.505594,2738.761985
1339.423813,-6661.853478,-3753.867940,2664.741391
1339.424124,-7624.121203,-1915.238745,3775.050304
1339.424436,-10288.862594,-612.876398,4293.194464
1339.424747,-12731.542202,-1378.971896,5033.400406
1339.425059,-10214.842000,-1455.581446,5107.421000
1339.425371,-8660.409521,153.219100,3775.050304
1339.425682,-7772.162391,1608.800546,3997.112087
1339.425994,-7105.977043,919.314598,3478.967927
1339.426305,-8734.430116,-229.828649,2294.638420
1339.426617,-6587.832884,1072.533697,4145.153275
1339.426928,-6217.729913,1149.143247,3552.988522
1339.427240,-9918.759623,76.609550,3627.009116
1339.427551,-10066.800811,306.438199,6069.688724
1339.427863,-9770.718434,-1302.362347,4959.379811
1339.428174,-8734.430116,-1685.410096,6069.688724
1339.428486,-9252.574275,-842.705048,4959.379811
1339.428797,-9178.553681,-766.095498,5033.400406
1339.429109,-7254.018232,-536.266849,4515.256246
1339.429420,-6809.894666,-459.657299,4367.215058
1339.429732,-7105.977043,842.705048,4293.194464
1339.430043,-8734.430116,1685.410096,4663.297435
1339.430355,-9400.615463,1302.362347,5255.462188
1339.430666,-8364.327145,-306.438199,5033.400406
1339.430978,-7476.080014,-229.828649,4737.318029
1339.431289,-7994.224174,-306.438199,3849.070898
1339.431601,-7994.224174,-1532.190996,4293.194464
1339.431912,-7994.224174,-1378.971896,3627.009116
1339.432224,-8808.450710,-153.219100,4885.359217
1339.432535,-9770.718434,76.609550,3849.070898
1339.432847,-11325.150913,842.705048,4737.318029
1339.433158,-10436.903782,1532.190996,4441.235652
1339.433470,-8290.306550,2298.286494,4293.194464
1339.433781,-7550.100608,2068.457845,3552.988522
1339.434093,-6513.812290,76.609550,3034.844362
1339.434404,-6217.729913,-306.438199,2516.700203
1339.434716,-5551.544565,-229.828649,2220.617826
1339.435027,-5995.668130,-612.876398,2368.659014
1339.435339,-7772.162391,-1532.190996,2294.638420
1339.435651,-9326.594869,-2757.943793,2960.823768
1339.435962,-10955.047942,-2528.115143,3404.947333
1339.436274,-10658.965565,-2298.286494,3997.112087
1339.436585,-11769.274478,-1225.752797,4737.318029
1339.436897,-12065.356855,-689.485948,3775.050304
1339.437208,-11325.150913,-153.219100,2738.761985
1339.437520,-9474.636058,842.705048,1850.514855
1339.437831,-8290.306550,2221.676944,2072.576638
1339.438143,-8808.450710,766.095498,1184.329507
1339.438454,-9104.533087,612.876398,2220.617826
1339.438766,-8956.491898,-689.485948,2738.761985
1339.439077,-9178.553681,-919.314598,3330.926739
1339.439389,-8290.306550,-995.924147,3108.864956
1339.439700,-8216.285956,-1608.800546,2664.741391
1339.440012,-7846.182985,-842.705048,2072.576638
1339.440323,-7254.018232,-153.219100,1110.308913
1339.440635,-7994.224174,536.266849,444.123565
1339.440946,-9474.636058,1532.190996,1184.329507
1339.441258,-11769.274478,1532.190996,1406.391290
1339.441569,-13027.624579,1072.533697,2812.782580
1339.441881,-12953.603985,842.705048,3775.050304
1339.442192,-11769.274478,459.657299,3923.091493
1339.442504,-9844.739029,-689.485948,4145.153275
1339.442815,-6957.935855,-1149.143247,3256.906145
1339.443127,-4219.173869,-2298.286494,2146.597232
1339.443438,-3108.864956,-2298.286494,1480.411884
1339.443750,-3923.091493,-1838.629195,1998.556043
1339.444061,-7476.080014,-919.314598,2368.659014
1339.444373,-10214.842000,76.609550,3849.070898
1339.444684,-12805.562797,1225.752797,5033.400406
1339.444996,-14137.933492,1225.752797,5847.626942
1339.445307,-13545.768739,1225.752797,5699.585753
1339.445619,-9548.656652,689.485948,4737.318029
1339.445931,-5921.647536,1149.143247,3256.906145
1339.446242,-3701.029710,842.705048,1924.535449
1339.446554,-2960.823768,76.609550,1184.329507
1339.446865,-3404.947333,536.266849,962.267725
1339.447177,-6365.771101,612.876398,2294.638420
1339.447488,-10658.965565,995.924147,4071.132681
1339.447800,-13693.809927,536.266849,5551.544565
1339.448111,-14508.036463,766.095498,6291.750507
1339.448423,-12065.356855,-612.876398,5773.606348
1339.448734,-8956.491898,-1072.533697,5181.441594
1339.449046,-7328.038826,-1225.752797,3997.112087
1339.449357,-5403.503377,-612.876398,3182.885551
1339.449669,-6143.709319,0.000000,3627.009116
1339.449980,-7846.182985,229.828649,4737.318029
1339.450292,-9622.677246,995.924147,5107.421000
1339.450603,-9918.759623,612.876398,5551.544565
1339.450915,-8956.491898,459.657299,5107.421000
1339.451226,-7476.080014,1149.143247,2812.782580
1339.451538,-5995.668130,2451.505594,888.247130
1339.451849,-5181.441594,2834.553343,-518.144159
1339.452161,-5921.647536,2221.676944,-666.185348
1339.452472,-7624.121203,1991.848295,518.144159
1339.452784,-9918.759623,995.924147,1924.535449
1339.453095,-12213.398043,153.219100,3182.885551
1339.453407,-13397.727550,-2068.457845,5033.400406
1339.453718,-11917.315666,-3600.648841,5477.523971
1339.454030,-8882.471304,-3524.039291,4737.318029
1339.454341,-6587.832884,-2604.724693,3404.947333
1339.454653,-5773.606348,-1685.410096,2072.576638
1339.454964,-6217.729913,-153.219100,370.102971
1339.455276,-6661.853478,1378.971896,-370.102971
1339.455587,-7179.997637,3217.601092,-814.226536
1339.455899,-7994.224174,2451.505594,-444.123565
1339.456211,-9178.553681,2145.067394,-370.102971
1339.456522,-9622.677246,1302.362347,-222.061783
1339.456834,-9844.739029,229.828649,-444.123565
1339.457145,-10436.903782,0.000000,-0.000000
1339.457457,-11029.068536,-995.924147,-0.000000
1339.457768,-11843.295072,-459.657299,-666.185348
1339.458080,-10881.027347,-766.095498,-74.020594
1339.458391,-10066.800811,-1378.971896,592.164754
1339.458703,-9548.656652,-995.924147,1036.288319
1339.459014,-9252.574275,-766.095498,1110.308913
1339.459326,-8882.471304,-919.314598,1554.432478
1339.459637,-8364.327145,-689.485948,1184.329507
1339.459949,-7550.100608,-153.219100,-296.082377
1339.460260,-6957.935855,536.266849,-1258.350101
1339.460572,-7105.977043,536.266849,-2072.576638
1339.460883,-8882.471304,612.876398,-2368.659014
1339.461195,-10140.821405,919.314598,-1406.391290
1339.461506,-11991.336260,1072.533697,-148.041188
1339.461818,-13471.748144,459.657299,1258.350101
1339.462129,-13841.851115,-612.876398,1702.473667
1339.462441,-12213.398043,-229.828649,1776.494261
1339.462752,-8808.450710,-153.219100,370.102971
1339.463064,-6883.915261,1225.752797,-222.061783
1339.463375,-7105.977043,2298.286494,-74.020594
1339.463687,-7846.182985,2145.067394,962.267725
1339.463998,-7920.203579,459.657299,1702.473667
1339.464310,-7105.977043,-383.047749,1554.432478
1339.464621,-5181.441594,-766.095498,814.226536
1339.464933,-2812.782580,-1302.362347,-74.020594
1339.465244,-2960.823768,-1838.629195,-1628.453072
1339.465556,-5181.441594,-2145.067394,-1924.535449
1339.465867,-8882.471304,-1608.800546,-666.185348
1339.466179,-13027.624579,-766.095498,962.267725
1339.466490,-16580.613101,0.000000,2516.700203
1339.466802,-17320.819043,1149.143247,2960.823768
1339.467114,-14582.057057,612.876398,3330.926739
1339.467425,-9844.739029,995.924147,2516.700203
1339.467737,-5551.544565,1455.581446,1776.494261
1339.468048,-3108.864956,0.000000,74.020594
1339.468360,-2294.638420,-459.657299,-814.226536
1339.468671,-2294.638420,229.828649,-1776.494261
1339.468983,-4071.132681,919.314598,-2368.659014
1339.469294,-6513.812290,689.485948,-2516.700203
1339.469606,-9252.574275,306.438199,-1554.432478
1339.469917,-12953.603985,536.266849,-1258.350101
1339.470229,-14878.139434,536.266849,740.205942
1339.470540,-16580.613101,-153.219100,2664.741391
1339.470852,-16062.468941,-995.924147,2368.659014
1339.471163,-13619.789333,-306.438199,2516.700203
1339.471475,-10362.883188,0.000000,1406.391290
1339.471786,-7624.121203,76.609550,1184.329507
1339.472098,-6587.832884,1762.019645,222.061783
1339.472409,-5107.421000,1302.362347,-0.000000
1339.472721,-4293.194464,76.609550,-296.082377
1339.473032,-4219.173869,-536.266849,-666.185348
1339.473344,-5847.626942,-229.828649,-666.185348
1339.473655,-7698.141797,153.219100,-1184.329507
1339.473967,-9474.636058,-689.485948,-814.226536
1339.474278,-11399.171507,-383.047749,370.102971
1339.474590,-13545.768739,-842.705048,1406.391290
1339.474901,-13989.892304,-229.828649,2812.782580
1339.475213,-12583.501014,-459.657299,2738.761985
1339.475524,-9992.780217,-612.876398,3404.947333
1339.475836,-7994.224174,-383.047749,2960.823768
1339.476147,-5625.565159,0.000000,2146.597232
1339.476459,-3923.091493,919.314598,888.247130
1339.476770,-3775.050304,153.219100,-148.041188
1339.477082,-3997.112087,689.485948,-814.226536
1339.477394,-6439.791695,612.876398,-1998.556043
1339.477705,-6809.894666,76.609550,-1776.494261
1339.478017,-7772.162391,76.609550,-1258.350101
1339.478328,-10362.883188,-766.095498,-0.000000
1339.478640,-12805.562797,-1378.971896,1554.432478
1339.478951,-13841.851115,-1608.800546,2812.782580
1339.479263,-14359.995275,-1378.971896,3478.967927
1339.479574,-12139.377449,-995.924147,4145.153275
