#time,accel_x,accel_y,accel_z
1478.538592,-8882.471304,0.000000,370.102971
1478.538903,-9030.512492,0.000000,444.123565
1478.539215,-9178.553681,0.000000,444.123565
1478.539527,-8882.471304,0.000000,518.144159
1478.539838,-8882.471304,0.000000,666.185348
1478.540150,-8734.430116,0.000000,518.144159
1478.540461,-8364.327145,153.219100,740.205942
1478.540773,-8734.430116,306.438199,592.164754
1478.541084,-8956.491898,153.219100,148.041188
1478.541396,-8882.471304,0.000000,444.123565
1478.541707,-9030.512492,-306.438199,592.164754
1478.542019,-8882.471304,-153.219100,592.164754
1478.542330,-8956.491898,0.000000,518.144159
1478.542642,-8956.491898,-153.219100,444.123565
1478.542953,-9030.512492,153.219100,518.144159
1478.543265,-8660.409521,0.000000,370.102971
1478.543576,-8882.471304,-229.828649,444.123565
1478.543888,-8882.471304,0.000000,666.185348
1478.544199,-9178.553681,0.000000,444.123565
1478.544511,-8808.450710,-76.609550,592.164754
1478.544822,-8808.450710,0.000000,518.144159
1478.545134,-9030.512492,-229.828649,370.102971
1478.545445,-8882.471304,0.000000,148.041188
1478.545757,-8808.450710,-229.828649,444.123565
1478.546068,-9252.574275,-76.609550,296.082377
1478.546380,-8734.430116,0.000000,592.164754
1478.546691,-9030.512492,0.000000,592.164754
1478.547003,-9030.512492,76.609550,370.102971
1478.547315,-8882.471304,76.609550,444.123565
1478.547626,-8734.430116,0.000000,592.164754
1478.547938,-9030.512492,459.657299,592.164754
1478.548249,-9030.512492,229.828649,814.226536
1478.548561,-8364.327145,-229.828649,592.164754
1478.548872,-8734.430116,0.000000,666.185348
1478.549184,-9030.512492,0.000000,592.164754
1478.549495,-8808.450710,76.609550,444.123565
1478.549807,-8808.450710,0.000000,666.185348
1478.550118,-9030.512492,76.609550,370.102971
1478.550430,-8660.409521,0.000000,370.102971
1478.550741,-8808.450710,229.828649,296.082377
1478.551053,-8808.450710,-459.657299,296.082377
1478.551364,-8956.491898,-153.219100,444.123565
1478.551676,-8956.491898,0.000000,592.164754
1478.551987,-8882.471304,0.000000,592.164754
1478.552299,-8734.430116,0.000000,592.164754
1478.552610,-8808.450710,76.609550,148.041188
1478.552922,-8586.388927,153.219100,370.102971
1478.553233,-8956.491898,0.000000,518.144159
1478.553545,-8956.491898,-153.219100,370.102971
1478.553856,-8956.491898,0.000000,444.123565
1478.554168,-8882.471304,0.000000,592.164754
1478.554479,-8956.491898,-306.438199,592.164754
1478.554791,-8956.491898,-153.219100,518.144159
1478.555103,-8660.409521,-383.047749,518.144159
1478.555414,-8660.409521,-229.828649,592.164754
1478.555726,-8808.450710,-383.047749,296.082377
1478.556037,-8808.450710,-306.438199,370.102971
1478.556349,-9030.512492,0.000000,444.123565
1478.556660,-8956.491898,-306.438199,666.185348
1478.556972,-8956.491898,0.000000,740.205942
1478.557283,-8956.491898,0.000000,592.164754
1478.557595,-8882.471304,76.609550,444.123565
1478.557906,-8882.471304,306.438199,296.082377
1478.558218,-8808.450710,76.609550,666.185348
1478.558529,-8808.450710,-153.219100,518.144159
1478.558841,-8882.471304,-153.219100,518.144159
1478.559152,-8956.491898,76.609550,666.185348
1478.559464,-8734.430116,-153.219100,518.144159
1478.559775,-9030.512492,0.000000,296.082377
1478.560087,-8808.450710,383.047749,370.102971
1478.560398,-8290.306550,-459.657299,518.144159
1478.560710,-8512.368333,0.000000,370.102971
1478.561021,-8956.491898,0.000000,370.102971
1478.561333,-8882.471304,-153.219100,518.144159
1478.561644,-8956.491898,-153.219100,518.144159
1478.561956,-9104.533087,0.000000,370.102971
1478.562267,-9030.512492,-229.828649,222.061783
1478.562579,-9104.533087,383.047749,296.082377
1478.562891,-8586.388927,0.000000,296.082377
1478.563202,-8956.491898,306.438199,296.082377
1478.563514,-9030.512492,0.000000,444.123565
1478.563825,-8956.491898,0.000000,518.144159
1478.564137,-8808.450710,-153.219100,444.123565
1478.564448,-8808.450710,0.000000,666.185348
1478.564760,-9178.553681,0.000000,888.247130
1478.565071,-8882.471304,0.000000,740.205942
1478.565383,-9030.512492,0.000000,296.082377
1478.565694,-8882.471304,-153.219100,592.164754
1478.566006,-8882.471304,0.000000,444.123565
1478.566317,-9030.512492,0.000000,592.164754
1478.566629,-8956.491898,0.000000,592.164754
1478.566940,-9030.512492,0.000000,518.144159
1478.567252,-9474.636058,459.657299,444.123565
1478.567563,-11547.212695,1378.971896,-0.000000
1478.567875,-10214.842000,3217.601092,740.205942
1478.568186,-8068.244768,5132.839837,518.144159
1478.568498,-7328.038826,3370.820191,1184.329507
1478.568809,-6365.771101,229.828649,1406.391290
1478.569121,-7328.038826,-1608.800546,-222.061783
1478.569432,-7031.956449,-612.876398,-74.020594
1478.569744,-8438.347739,-306.438199,-518.144159
1478.570055,-12583.501014,-1302.362347,-1554.432478
1478.570367,-11695.253884,0.000000,-0.000000
1478.570679,-9918.759623,459.657299,814.226536
1478.570990,-8660.409521,0.000000,2368.659014
1478.571302,-9844.739029,-459.657299,2812.782580
1478.571613,-11843.295072,1378.971896,1628.453072
1478.571925,-6883.915261,4979.620737,2590.720797
1478.572236,-4811.338623,5209.449386,1628.453072
1478.572548,-7698.141797,3294.210641,-74.020594
1478.572859,-7105.977043,3217.601092,-1332.370696
1478.573171,-7994.224174,3600.648841,-2294.638420
1478.573482,-9178.553681,3983.696590,-888.247130
1478.573794,-9252.574275,3983.696590,-444.123565
1478.574105,-14137.933492,1302.362347,-1036.288319
1478.574417,-12361.439231,-1072.533697,1702.473667
1478.574728,-8290.306550,-306.438199,2368.659014
1478.575040,-10436.903782,1762.019645,1332.370696
1478.575351,-8142.265362,6052.154434,2368.659014
1478.575663,-8216.285956,4443.353888,1036.288319
1478.575974,-6735.874072,2528.115143,2516.700203
1478.576286,-6365.771101,4903.011187,1850.514855
1478.576597,-8290.306550,6741.640382,-0.000000
1478.576909,-7994.224174,5975.544884,-1110.308913
1478.577220,-9844.739029,4596.572988,-1406.391290
1478.577532,-9770.718434,4826.401637,-1554.432478
1478.577843,-11251.130318,5592.497135,-222.061783
1478.578155,-12065.356855,5515.887586,444.123565
1478.578467,-11029.068536,4596.572988,1924.535449
1478.578778,-10140.821405,4136.915689,1776.494261
1478.579090,-7624.121203,6281.983084,2516.700203
1478.579401,-6069.688724,6128.763984,370.102971
1478.579713,-5403.503377,6128.763984,-0.000000
1478.580024,-4663.297435,5975.544884,296.082377
1478.580336,-6069.688724,5056.230287,-592.164754
1478.580647,-7328.038826,4596.572988,-740.205942
1478.580959,-8734.430116,3677.258390,-1184.329507
1478.581270,-9326.594869,2681.334243,-0.000000
1478.581582,-10436.903782,995.924147,888.247130
1478.581893,-10214.842000,0.000000,1332.370696
1478.582205,-11029.068536,0.000000,1184.329507
1478.582516,-10362.883188,1685.410096,2294.638420
1478.582828,-9474.636058,2604.724693,2294.638420
1478.583139,-7994.224174,3907.087040,1184.329507
1478.583451,-7105.977043,3524.039291,444.123565
1478.583762,-6883.915261,4443.353888,-518.144159
1478.584074,-6439.791695,4213.525239,-814.226536
1478.584385,-7105.977043,3524.039291,-1702.473667
1478.584697,-8216.285956,1608.800546,-1332.370696
1478.585008,-9400.615463,-1608.800546,-666.185348
1478.585320,-11399.171507,-2374.896044,962.267725
1478.585631,-12583.501014,-2374.896044,1702.473667
1478.585943,-12953.603985,-1455.581446,1924.535449
1478.586255,-12657.521608,-536.266849,1480.411884
1478.586566,-11621.233289,1685.410096,740.205942
1478.586878,-9696.697840,4290.134789,-296.082377
1478.587189,-7550.100608,4903.011187,-518.144159
1478.587501,-5995.668130,4903.011187,-0.000000
1478.587812,-5995.668130,4443.353888,518.144159
1478.588124,-6883.915261,3064.381992,1110.308913
1478.588435,-8882.471304,1762.019645,370.102971
1478.588747,-11473.192101,766.095498,148.041188
1478.589058,-12139.377449,383.047749,-0.000000
1478.589370,-13397.727550,0.000000,-0.000000
1478.589681,-13693.809927,-612.876398,-0.000000
1478.589993,-12805.562797,1455.581446,370.102971
1478.590304,-11177.109724,2528.115143,888.247130
1478.590616,-8660.409521,3370.820191,1702.473667
1478.590927,-6217.729913,4136.915689,2220.617826
1478.591239,-4071.132681,5515.887586,1480.411884
1478.591550,-1776.494261,6435.202183,-0.000000
1478.591862,-2220.617826,6358.592633,-1480.411884
1478.592173,-4293.194464,4749.792088,-1702.473667
1478.592485,-7846.182985,2987.772442,-1480.411884
1478.592796,-11843.295072,2987.772442,-740.205942
1478.593108,-15100.201217,3217.601092,814.226536
1478.593419,-16284.530724,3447.429741,2516.700203
1478.593731,-14359.995275,2604.724693,3182.885551
1478.594043,-10732.986159,3447.429741,3256.906145
1478.594354,-6217.729913,4136.915689,2368.659014
1478.594666,-3256.906145,4826.401637,1036.288319
1478.594977,-1776.494261,6588.421283,-222.061783
1478.595289,-2368.659014,7431.126331,-1924.535449
1478.595600,-4589.276840,6665.030833,-1998.556043
1478.595912,-7772.162391,4903.011187,-1998.556043
1478.596223,-9400.615463,2757.943793,-74.020594
1478.596535,-10807.006753,153.219100,518.144159
1478.596846,-11251.130318,-3600.648841,1776.494261
1478.597158,-12213.398043,-4060.306139,1924.535449
1478.597469,-12731.542202,-2221.676944,1924.535449
1478.597781,-13101.645173,766.095498,1406.391290
1478.598092,-12065.356855,3447.429741,2072.576638
1478.598404,-10288.862594,4903.011187,1776.494261
1478.598715,-8216.285956,6971.469032,1480.411884
1478.599027,-5625.565159,5975.544884,1702.473667
1478.599338,-6291.750507,3907.087040,-296.082377
1478.599650,-5625.565159,2604.724693,-518.144159
1478.599961,-7328.038826,2834.553343,-2294.638420
1478.600273,-9622.677246,3217.601092,-2368.659014
1478.600584,-11325.150913,3447.429741,-2294.638420
1478.600896,-12213.398043,2681.334243,-740.205942
1478.601207,-12361.439231,1455.581446,592.164754
1478.601519,-11843.295072,536.266849,2146.597232
1478.601831,-12435.459826,1532.190996,2886.803174
1478.602142,-11769.274478,3753.867940,2220.617826
1478.602454,-9548.656652,6665.030833,888.247130
1478.602765,-7179.997637,6665.030833,888.247130
1478.603077,-6143.709319,5056.230287,-814.226536
1478.603388,-5403.503377,3983.696590,-1110.308913
1478.603700,-7402.059420,1838.629195,-2072.576638
1478.604011,-8586.388927,2145.067394,-148.041188
1478.604323,-9030.512492,1225.752797,222.061783
1478.604634,-9548.656652,-306.438199,1110.308913
1478.604946,-8512.368333,-2451.505594,2368.659014
1478.605257,-8438.347739,-2987.772442,1776.494261
1478.605569,-9400.615463,383.047749,962.267725
1478.605880,-9548.656652,5822.325785,-296.082377
1478.606192,-10584.944971,9193.145976,-1110.308913
1478.606503,-10214.842000,10189.070123,-148.041188
1478.606815,-10066.800811,7048.078582,592.164754
1478.607126,-9178.553681,4366.744339,1110.308913
1478.607438,-7254.018232,2681.334243,1628.453072
1478.607749,-7105.977043,3370.820191,888.247130
1478.608061,-6735.874072,3677.258390,1184.329507
1478.608372,-4737.318029,2068.457845,592.164754
1478.608684,-5181.441594,-229.828649,222.061783
1478.608995,-6217.729913,-1762.019645,74.020594
1478.609307,-8290.306550,2068.457845,-1554.432478
1478.609619,-11621.233289,6358.592633,-1776.494261
1478.609930,-12731.542202,8656.879127,148.041188
1478.610242,-13989.892304,6052.154434,2220.617826
1478.610553,-14804.118840,2145.067394,3627.009116
1478.610865,-13027.624579,2221.676944,3923.091493
1478.611176,-8290.306550,3140.991542,3775.050304
1478.611488,-5699.585753,3064.381992,1776.494261
1478.611800,-4145.153275,153.219100,666.185348
1478.612111,-3552.988522,-3600.648841,-444.123565
1478.612423,-4737.318029,-5056.230287,-444.123565
1478.612734,-5033.400406,-1532.190996,370.102971
1478.613046,-8068.244768,3370.820191,-1332.370696
1478.613358,-12139.377449,5745.716235,-444.123565
1478.613669,-15618.345376,2834.553343,1110.308913
1478.613981,-17246.798449,2451.505594,1776.494261
1478.614292,-16136.489536,5592.497135,2960.823768
1478.614604,-11177.109724,8044.002729,2664.741391
1478.614916,-6291.750507,4903.011187,1480.411884
1478.615227,-2812.782580,-229.828649,518.144159
1478.615539,-518.144159,-1838.629195,-888.247130
1478.615850,0.000000,0.000000,-1332.370696
1478.616162,-3775.050304,3294.210641,-1036.288319
1478.616473,-11251.130318,3370.820191,-444.123565
1478.616785,-15544.324782,2298.286494,296.082377
1478.617097,-16728.654289,3294.210641,592.164754
1478.617408,-15100.201217,4903.011187,296.082377
1478.617720,-11843.295072,4596.572988,-222.061783
1478.618031,-10807.006753,2987.772442,-1924.535449
1478.618343,-8882.471304,2604.724693,-1850.514855
1478.618655,-5403.503377,3064.381992,-1776.494261
1478.618966,-5255.462188,2374.896044,814.226536
1478.619278,-6883.915261,1455.581446,2886.803174
1478.619589,-9178.553681,-1072.533697,3627.009116
1478.619901,-9474.636058,-1225.752797,3775.050304
1478.620213,-9252.574275,1685.410096,2220.617826
1478.620524,-9992.780217,6741.640382,-1554.432478
1478.620836,-9622.677246,8580.269578,-3849.070898
1478.621147,-8438.347739,7277.907231,-4959.379811
1478.621459,-6513.812290,6665.030833,-3627.009116
1478.621771,-9252.574275,7354.516781,-2590.720797
1478.622082,-14211.954086,7124.688131,-74.020594
1478.622394,-14211.954086,4443.353888,3923.091493
1478.622705,-11547.212695,383.047749,5403.503377
1478.623017,-8808.450710,-1455.581446,5033.400406
1478.623329,-5551.544565,76.609550,2516.700203
1478.623640,-3923.091493,1685.410096,-1110.308913
1478.623952,-1258.350101,2221.676944,-1702.473667
1478.624263,-3108.864956,5132.839837,-1924.535449
1478.624575,-10214.842000,6358.592633,-962.267725
1478.624886,-14730.098246,7201.297681,1110.308913
1478.625198,-14730.098246,6511.811733,3923.091493
1478.625510,-11399.171507,3830.477490,4737.318029
1478.625821,-8882.471304,2298.286494,1850.514855
1478.626133,-5921.647536,1302.362347,-444.123565
1478.626444,-3997.112087,919.314598,-2294.638420
1478.626756,-4293.194464,-153.219100,-148.041188
1478.627068,-7031.956449,-766.095498,962.267725
1478.627379,-9474.636058,-1072.533697,2516.700203
1478.627691,-11547.212695,-3217.601092,3923.091493
1478.628002,-11029.068536,-4673.182538,4145.153275
1478.628314,-8734.430116,-919.314598,2220.617826
1478.628626,-5921.647536,2374.896044,-1036.288319
1478.628937,-6143.709319,2757.943793,-1628.453072
1478.629249,-8216.285956,2298.286494,-1480.411884
1478.629560,-10436.903782,2987.772442,-518.144159
1478.629872,-11251.130318,3677.258390,1258.350101
1478.630184,-11547.212695,459.657299,2960.823768
1478.630495,-11991.336260,-1149.143247,2738.761985
1478.630807,-9548.656652,842.705048,1998.556043
1478.631118,-8512.368333,919.314598,-0.000000
1478.631430,-8068.244768,1149.143247,-814.226536
1478.631741,-8068.244768,3064.381992,-1036.288319
1478.632053,-10955.047942,5286.058936,-1924.535449
1478.632365,-11251.130318,5209.449386,-1850.514855
1478.632676,-10584.944971,3907.087040,-2442.679609
1478.632988,-9178.553681,5745.716235,-2368.659014
1478.633299,-9622.677246,4979.620737,-740.205942
1478.633611,-9474.636058,1915.238745,-518.144159
1478.633923,-9696.697840,-1532.190996,1110.308913
1478.634234,-10807.006753,-2528.115143,3330.926739
1478.634546,-10807.006753,-2221.676944,4367.215058
1478.634857,-9400.615463,-1838.629195,2072.576638
1478.635169,-7698.141797,-689.485948,-740.205942
1478.635481,-5699.585753,1455.581446,-1480.411884
1478.635792,-5477.523971,2757.943793,-2812.782580
1478.636104,-6809.894666,3370.820191,-2664.741391
1478.636415,-9326.594869,1915.238745,-740.205942
1478.636727,-10436.903782,-1149.143247,1258.350101
1478.637039,-10140.821405,-2374.896044,1628.453072
1478.637350,-9326.594869,-1378.971896,1554.432478
1478.637662,-7254.018232,-2221.676944,2368.659014
1478.637973,-7105.977043,-4136.915689,1554.432478
1478.638285,-7846.182985,-3370.820191,2368.659014
1478.638597,-8438.347739,-1991.848295,2664.741391
1478.638908,-8068.244768,-919.314598,2072.576638
1478.639220,-6143.709319,0.000000,962.267725
1478.639531,-4515.256246,612.876398,-444.123565
1478.639843,-4663.297435,612.876398,-1850.514855
1478.640154,-5477.523971,1608.800546,-1406.391290
1478.640466,-8364.327145,2604.724693,-1036.288319
1478.640778,-12731.542202,1455.581446,74.020594
1478.641089,-14211.954086,0.000000,1998.556043
1478.641401,-14211.954086,-1685.410096,1998.556043
1478.641712,-13027.624579,-2681.334243,2072.576638
1478.642024,-10066.800811,-1149.143247,1998.556043
1478.642336,-8734.430116,-306.438199,740.205942
1478.642647,-8882.471304,-229.828649,370.102971
1478.642959,-9326.594869,76.609550,740.205942
1478.643270,-7846.182985,995.924147,740.205942
1478.643582,-6069.688724,2221.676944,592.164754
1478.643894,-7254.018232,1378.971896,-370.102971
1478.644205,-8882.471304,306.438199,-2146.597232
1478.644517,-10288.862594,1915.238745,-2368.659014
1478.644828,-13027.624579,2298.286494,-962.267725
1478.645140,-13619.789333,612.876398,1332.370696
1478.645452,-14063.912898,-2987.772442,2294.638420
1478.645763,-12805.562797,-4749.792088,3404.947333
1478.646075,-9104.533087,-4903.011187,3849.070898
1478.646386,-8586.388927,-2834.553343,2516.700203
1478.646698,-7254.018232,1072.533697,1258.350101
1478.647009,-5847.626942,4136.915689,-666.185348
1478.647321,-5477.523971,4903.011187,-1184.329507
1478.647633,-3627.009116,5898.935335,-1924.535449
1478.647944,-4071.132681,4749.792088,-2368.659014
1478.648256,-5551.544565,3064.381992,-1406.391290
1478.648567,-6217.729913,919.314598,148.041188
1478.648879,-9326.594869,-229.828649,1184.329507
1478.649191,-11991.336260,-1225.752797,2368.659014
1478.649502,-11843.295072,-3064.381992,2812.782580
1478.649814,-9918.759623,-4290.134789,2072.576638
1478.650125,-8216.285956,-4060.306139,1110.308913
1478.650437,-7624.121203,-2451.505594,-296.082377
1478.650749,-6809.894666,-612.876398,-222.061783
1478.651060,-7254.018232,-306.438199,-518.144159
1478.651372,-8808.450710,0.000000,-296.082377
1478.651683,-6513.812290,1991.848295,1036.288319
1478.651995,-4219.173869,1149.143247,-148.041188
1478.652307,-6809.894666,0.000000,-148.041188
1478.652618,-7328.038826,-766.095498,-0.000000
1478.652930,-10066.800811,-919.314598,-370.102971
1478.653241,-13397.727550,-1455.581446,1332.370696
1478.653553,-15026.180623,-1991.848295,1924.535449
1478.653865,-14878.139434,-1991.848295,-296.082377
1478.654176,-12583.501014,-995.924147,-0.000000
1478.654488,-11103.089130,-1225.752797,-518.144159
1478.654799,-9918.759623,306.438199,-1554.432478
1478.655111,-9178.553681,2911.162892,-1184.329507
1478.655422,-9548.656652,3447.429741,-740.205942
1478.655734,-8882.471304,2604.724693,296.082377
1478.656046,-7254.018232,1915.238745,-592.164754
1478.656357,-6883.915261,612.876398,-444.123565
1478.656669,-6143.709319,0.000000,1332.370696
1478.656980,-7624.121203,-383.047749,2368.659014
1478.657292,-10658.965565,-1149.143247,3256.906145
1478.657604,-13841.851115,-2451.505594,2294.638420
1478.657915,-13915.871710,-2374.896044,2072.576638
1478.658227,-12361.439231,-459.657299,518.144159
1478.658538,-10214.842000,995.924147,-1406.391290
1478.658850,-8808.450710,1225.752797,-2590.720797
1478.659162,-7402.059420,459.657299,-2220.617826
1478.659473,-6661.853478,-153.219100,-0.000000
1478.659785,-6587.832884,-689.485948,1998.556043
1478.660096,-4515.256246,-1378.971896,3478.967927
1478.660408,-4293.194464,-2987.772442,4589.276840
1478.660720,-3552.988522,-4366.744339,5255.462188
1478.661031,-4145.153275,-4060.306139,3034.844362
1478.661343,-8142.265362,-2834.553343,1924.535449
1478.661654,-10066.800811,-1608.800546,666.185348
1478.661966,-11325.150913,383.047749,370.102971
1478.662278,-12065.356855,689.485948,-1110.308913
1478.662589,-11177.109724,995.924147,-1554.432478
1478.662901,-9918.759623,1072.533697,-1258.350101
1478.663212,-8808.450710,2681.334243,-1406.391290
1478.663524,-7846.182985,4673.182538,-74.020594
1478.663835,-7254.018232,3753.867940,740.205942
1478.664147,-6143.709319,919.314598,2664.741391
1478.664459,-3404.947333,383.047749,3182.885551
1478.664770,-2738.761985,-1915.238745,2072.576638
1478.665082,-5403.503377,-1685.410096,962.267725
1478.665393,-9918.759623,-842.705048,-666.185348
1478.665705,-13693.809927,612.876398,-1110.308913
1478.666017,-16432.571912,995.924147,-296.082377
1478.666328,-17246.798449,459.657299,-888.247130
1478.666640,-14878.139434,1225.752797,-2072.576638
1478.666951,-12805.562797,1991.848295,-2738.761985
1478.667263,-10955.047942,2834.553343,-1850.514855
1478.667575,-7476.080014,4290.134789,296.082377
1478.667886,-6439.791695,1225.752797,3256.906145
1478.668198,-5181.441594,-2757.943793,5699.585753
1478.668509,-3775.050304,-5439.278036,4959.379811
1478.668821,-6291.750507,-4290.134789,962.267725
1478.669133,-7328.038826,-1225.752797,-370.102971
1478.669444,-8512.368333,229.828649,-2368.659014
1478.669756,-11843.295072,-306.438199,-1998.556043
1478.670067,-13915.871710,-1608.800546,740.205942
1478.670379,-13915.871710,-2987.772442,444.123565
1478.670690,-12361.439231,-2681.334243,814.226536
1478.671002,-10955.047942,-766.095498,148.041188
1478.671314,-8216.285956,612.876398,-222.061783
1478.671625,-5551.544565,1915.238745,-74.020594
1478.671937,-3627.009116,2681.334243,1702.473667
1478.672248,-3034.844362,766.095498,3627.009116
1478.672560,-3034.844362,-2221.676944,3404.947333
1478.672872,-4293.194464,-1915.238745,2738.761985
1478.673183,-4663.297435,-1762.019645,2072.576638
1478.673495,-7772.162391,-1608.800546,-1036.288319
1478.673806,-10955.047942,306.438199,-1110.308913
1478.674118,-12509.480420,1455.581446,-2072.576638
1478.674430,-14804.118840,1685.410096,-2368.659014
1478.674741,-14063.912898,2221.676944,-666.185348
1478.675053,-13249.686362,2681.334243,-1184.329507
1478.675364,-11621.233289,1915.238745,370.102971
1478.675676,-8068.244768,76.609550,3034.844362
1478.675988,-6661.853478,-1532.190996,3182.885551
1478.676299,-4663.297435,0.000000,3256.906145
1478.676611,-3923.091493,0.000000,1998.556043
1478.676922,-5847.626942,-612.876398,296.082377
1478.677234,-9104.533087,229.828649,-2886.803174
1478.677546,-12361.439231,1072.533697,-2368.659014
1478.677857,-13841.851115,995.924147,-814.226536
1478.678169,-11843.295072,1072.533697,666.185348
1478.678480,-11695.253884,-1225.752797,518.144159
1478.678792,-11399.171507,-3983.696590,1554.432478
1478.679103,-7698.141797,-3064.381992,1554.432478
1478.679415,-6439.791695,-612.876398,296.082377
1478.679727,-7846.182985,1685.410096,-370.102971
1478.680038,-7476.080014,3677.258390,592.164754
1478.680350,-7846.182985,2528.115143,518.144159
1478.680661,-8660.409521,383.047749,1110.308913
1478.680973,-7550.100608,-1072.533697,1850.514855
1478.681285,-6513.812290,-1302.362347,740.205942
1478.681596,-6291.750507,-1072.533697,1184.329507
1478.681908,-7698.141797,-2145.067394,370.102971
1478.682219,-7550.100608,-1915.238745,-0.000000
1478.682531,-9030.512492,-1149.143247,-740.205942
1478.682843,-11029.068536,-536.266849,-370.102971
1478.683154,-9770.718434,1225.752797,-962.267725
1478.683466,-9770.718434,2451.505594,-1110.308913
1478.683777,-10214.842000,1225.752797,962.267725
1478.684089,-8512.368333,-842.705048,2368.659014
1478.684401,-9252.574275,-1072.533697,2368.659014
1478.684712,-9252.574275,842.705048,2368.659014
1478.685024,-7402.059420,1532.190996,2072.576638
1478.685335,-7698.141797,383.047749,518.144159
1478.685647,-5255.462188,689.485948,814.226536
1478.685958,-5625.565159,76.609550,-2146.597232
1478.686270,-10214.842000,-689.485948,-518.144159
1478.686582,-10362.883188,842.705048,-518.144159
1478.686893,-11917.315666,842.705048,-444.123565
1478.687205,-14656.077652,-1455.581446,1258.350101
1478.687516,-13323.706956,-3064.381992,2442.679609
1478.687828,-12213.398043,-2451.505594,1036.288319
1478.688140,-11547.212695,76.609550,814.226536
1478.688451,-8586.388927,1915.238745,2664.741391
1478.688763,-7994.224174,1532.190996,1036.288319
1478.689074,-6957.935855,1532.190996,1776.494261
1478.689386,-6513.812290,306.438199,2368.659014
1478.689698,-5699.585753,-919.314598,1480.411884
1478.690009,-4145.153275,995.924147,-296.082377
1478.690321,-4293.194464,2451.505594,-592.164754
1478.690632,-5403.503377,0.000000,-2072.576638
1478.690944,-7179.997637,-2145.067394,-1554.432478
1478.691256,-11177.109724,-2451.505594,-518.144159
1478.691567,-12435.459826,-2145.067394,518.144159
1478.691879,-12731.542202,-2374.896044,814.226536
1478.692190,-13027.624579,-1838.629195,222.061783
1478.692502,-11695.253884,-536.266849,888.247130
1478.692814,-8216.285956,689.485948,1554.432478
1478.693125,-7402.059420,76.609550,1998.556043
1478.693437,-7105.977043,-766.095498,3256.906145
1478.693748,-5329.482782,-1302.362347,1702.473667
1478.694060,-4663.297435,153.219100,-0.000000
1478.694371,-4811.338623,1455.581446,-1554.432478
1478.694683,-5773.606348,2374.896044,-2886.803174
1478.694995,-8512.368333,1608.800546,-3034.844362
1478.695306,-11473.192101,612.876398,-2664.741391
1478.695618,-15174.221811,-459.657299,-1406.391290
1478.695929,-15692.365970,306.438199,-0.000000
1478.696241,-14804.118840,1302.362347,888.247130
1478.696553,-13397.727550,306.438199,1110.308913
1478.696864,-9992.780217,306.438199,2294.638420
1478.697176,-7105.977043,1455.581446,1924.535449
1478.697487,-6365.771101,2757.943793,1850.514855
1478.697799,-6661.853478,2528.115143,2220.617826
1478.698111,-5773.606348,1915.238745,-222.061783
1478.698422,-4589.276840,2298.286494,-1332.370696
1478.698734,-5699.585753,1072.533697,-1036.288319
1478.699045,-7476.080014,-153.219100,-1184.329507
1478.699357,-10288.862594,-1149.143247,148.041188
1478.699669,-11991.336260,-2451.505594,1998.556043
1478.699980,-13693.809927,-3140.991542,2960.823768
1478.700292,-11473.192101,-1378.971896,3256.906145
1478.700603,-10362.883188,995.924147,1554.432478
1478.700915,-7550.100608,689.485948,2368.659014
1478.701226,-4737.318029,766.095498,740.205942
1478.701538,-4737.318029,1149.143247,2664.741391
1478.701850,-3404.947333,1455.581446,2294.638420
1478.702161,-3330.926739,-612.876398,2590.720797
1478.702473,-3478.967927,-3753.867940,1924.535449
1478.702784,-4515.256246,-4903.011187,148.041188
1478.703096,-6735.874072,-3600.648841,-444.123565
1478.703408,-7624.121203,-2374.896044,-814.226536
1478.703719,-12583.501014,-2451.505594,-444.123565
1478.704031,-15174.221811,-3447.429741,1702.473667
1478.704342,-15100.201217,-2681.334243,1776.494261
1478.704654,-14582.057057,-842.705048,1628.453072
1478.704966,-12731.542202,2604.724693,1850.514855
1478.705277,-10214.842000,4366.744339,296.082377
1478.705589,-6513.812290,5132.839837,-74.020594
1478.705900,-4293.194464,3447.429741,740.205942
1478.706212,-3108.864956,842.705048,888.247130
1478.706524,-4885.359217,-383.047749,-1628.453072
1478.706835,-7105.977043,689.485948,-2886.803174
1478.707147,-9548.656652,383.047749,-3404.947333
1478.707458,-13323.706956,-459.657299,-2072.576638
1478.707770,-14730.098246,-689.485948,-888.247130
1478.708082,-17468.860231,-2145.067394,-222.061783
1478.708393,-16654.633695,-1762.019645,1998.556043
1478.708705,-15100.201217,-1072.533697,1998.556043
1478.709016,-12731.542202,536.266849,444.123565
1478.709328,-7846.182985,2681.334243,148.041188
1478.709639,-5033.400406,2374.896044,-592.164754
1478.709951,-2590.720797,1532.190996,444.123565
1478.710262,-2294.638420,612.876398,1184.329507
1478.710574,-5699.585753,-1455.581446,1332.370696
1478.710885,-6439.791695,-2068.457845,222.061783
1478.711197,-7698.141797,-612.876398,-148.041188
1478.711508,-10066.800811,-153.219100,-444.123565
1478.711820,-10288.862594,229.828649,222.061783
1478.712131,-10362.883188,-689.485948,-222.061783
1478.712443,-10066.800811,-1072.533697,-0.000000
1478.712754,-7994.224174,689.485948,1850.514855
1478.713066,-6365.771101,-229.828649,518.144159
1478.713377,-6957.935855,-1532.190996,370.102971
1478.713688,-3997.112087,-459.657299,1850.514855
1478.714000,-4071.132681,-842.705048,1110.308913
1478.714311,-5255.462188,-1685.410096,2442.679609
1478.714623,-5847.626942,-1608.800546,2146.597232
1478.714934,-7920.203579,-2987.772442,1110.308913
1478.715246,-7920.203579,-612.876398,1702.473667
1478.715557,-10881.027347,-383.047749,592.164754
1478.715869,-13249.686362,1378.971896,-0.000000
1478.716180,-12657.521608,2681.334243,444.123565
1478.716492,-14063.912898,2221.676944,148.041188
1478.716803,-13027.624579,1378.971896,592.164754
1478.717114,-10214.842000,1378.971896,-740.205942
1478.717426,-8512.368333,1455.581446,-222.061783
1478.717737,-7402.059420,689.485948,592.164754
1478.718049,-6365.771101,-842.705048,148.041188
1478.718360,-9474.636058,-919.314598,666.185348
1478.718672,-10658.965565,919.314598,962.267725
1478.718983,-10881.027347,1302.362347,1332.370696
1478.719295,-11251.130318,459.657299,1924.535449
1478.719606,-10362.883188,766.095498,1332.370696
1478.719918,-9918.759623,995.924147,296.082377
1478.720229,-8882.471304,229.828649,-740.205942
1478.720540,-9474.636058,536.266849,-0.000000
1478.720852,-9474.636058,536.266849,444.123565
1478.721163,-7920.203579,0.000000,-444.123565
1478.721475,-7624.121203,-1608.800546,-148.041188
1478.721786,-8290.306550,-2604.724693,-0.000000
1478.722098,-7698.141797,-842.705048,740.205942
1478.722409,-7402.059420,536.266849,1332.370696
1478.722721,-9252.574275,-995.924147,2072.576638
1478.723032,-9326.594869,-2374.896044,3701.029710
1478.723344,-8068.244768,-689.485948,2368.659014
1478.723655,-6661.853478,612.876398,1554.432478
1478.723966,-5033.400406,0.000000,814.226536
1478.724278,-4293.194464,-383.047749,-518.144159
1478.724589,-3997.112087,383.047749,-1332.370696
1478.724901,-6217.729913,-995.924147,-1406.391290
1478.725212,-8956.491898,-3140.991542,-0.000000
1478.725524,-10140.821405,-2451.505594,296.082377
1478.725835,-10807.006753,-1072.533697,-370.102971
1478.726147,-12509.480420,0.000000,-222.061783
1478.726458,-11843.295072,919.314598,148.041188
1478.726770,-12583.501014,2528.115143,222.061783
1478.727081,-11177.109724,2298.286494,2664.741391
1478.727393,-8586.388927,2374.896044,2072.576638
1478.727704,-7624.121203,1532.190996,1110.308913
1478.728015,-6439.791695,1072.533697,-222.061783
1478.728327,-6365.771101,-306.438199,-1554.432478
1478.728638,-8512.368333,-536.266849,-2220.617826
1478.728950,-10658.965565,0.000000,-1628.453072
1478.729261,-13545.768739,-383.047749,-1184.329507
1478.729573,-15692.365970,-1532.190996,-1480.411884
1478.729884,-13989.892304,919.314598,-888.247130
1478.730196,-11769.274478,-459.657299,-370.102971
1478.730507,-10955.047942,-919.314598,888.247130
1478.730819,-9548.656652,-766.095498,2146.597232
1478.731130,-8512.368333,306.438199,3034.844362
1478.731441,-7698.141797,612.876398,4219.173869
1478.731753,-4663.297435,306.438199,2886.803174
1478.732064,-3849.070898,0.000000,666.185348
1478.732376,-5033.400406,-1302.362347,-0.000000
1478.732687,-4589.276840,-1455.581446,-1850.514855
1478.732999,-5847.626942,-1685.410096,-1258.350101
1478.733310,-9992.780217,-3677.258390,-74.020594
1478.733622,-11917.315666,-4903.011187,888.247130
1478.733933,-12731.542202,-3677.258390,814.226536
1478.734245,-12213.398043,-1225.752797,1332.370696
1478.734556,-11103.089130,1378.971896,2146.597232
1478.734867,-8290.306550,2374.896044,1480.411884
1478.735179,-6143.709319,2451.505594,1480.411884
1478.735490,-4885.359217,1685.410096,2442.679609
1478.735802,-2368.659014,306.438199,3997.112087
1478.736113,-1258.350101,536.266849,740.205942
1478.736425,-3108.864956,766.095498,-0.000000
1478.736736,-4959.379811,306.438199,-592.164754
1478.737048,-9252.574275,153.219100,-1924.535449
1478.737359,-14582.057057,689.485948,-962.267725
1478.737671,-17690.922014,0.000000,-222.061783
1478.737982,-17172.777854,-919.314598,962.267725
1478.738293,-16136.489536,76.609550,-0.000000
1478.738605,-12805.562797,1455.581446,1110.308913
1478.738916,-7920.203579,1915.238745,1628.453072
1478.739228,-5995.668130,1915.238745,1850.514855
1478.739539,-5181.441594,2681.334243,3034.844362
1478.739851,-4293.194464,1455.581446,2220.617826
1478.740162,-6735.874072,76.609550,-0.000000
1478.740474,-7550.100608,153.219100,-1628.453072
1478.740785,-7698.141797,1225.752797,-2516.700203
1478.741097,-9770.718434,536.266849,-2738.761985
1478.741408,-12361.439231,-76.609550,-1406.391290
1478.741720,-14508.036463,-1608.800546,1036.288319
1478.742031,-15026.180623,-2451.505594,2442.679609
1478.742342,-11917.315666,-306.438199,3330.926739
1478.742654,-9548.656652,306.438199,1998.556043
1478.742965,-6661.853478,1608.800546,-370.102971
1478.743277,-2812.782580,3140.991542,-1036.288319
1478.743588,-2664.741391,2298.286494,-1184.329507
1478.743900,-2294.638420,459.657299,666.185348
1478.744211,-3552.988522,-2374.896044,1184.329507
1478.744523,-7105.977043,-4290.134789,370.102971
1478.744834,-9104.533087,-4290.134789,2368.659014
1478.745146,-11399.171507,-4826.401637,2368.659014
1478.745457,-11843.295072,-2834.553343,814.226536
1478.745768,-12805.562797,-689.485948,-0.000000
1478.746080,-13471.748144,0.000000,-148.041188
1478.746391,-11769.274478,995.924147,518.144159
1478.746703,-9326.594869,1072.533697,-370.102971
1478.747014,-7105.977043,1302.362347,-296.082377
1478.747326,-5329.482782,1225.752797,592.164754
1478.747637,-4811.338623,1149.143247,222.061783
1478.747949,-4811.338623,1225.752797,222.061783
1478.748260,-5995.668130,229.828649,-222.061783
1478.748572,-7698.141797,-689.485948,148.041188
1478.748883,-11695.253884,-1072.533697,-518.144159
1478.749194,-14285.974681,-766.095498,-962.267725
1478.749506,-14508.036463,1072.533697,222.061783
1478.749817,-15470.304188,919.314598,296.082377
1478.750129,-14730.098246,306.438199,2516.700203
1478.750440,-12435.459826,-842.705048,1924.535449
1478.750752,-9474.636058,-612.876398,962.267725
1478.751063,-5403.503377,536.266849,296.082377
1478.751375,-3701.029710,0.000000,-1036.288319
1478.751686,-4959.379811,306.438199,-814.226536
1478.751998,-6735.874072,-229.828649,-444.123565
1478.752309,-8290.306550,-1149.143247,444.123565
1478.752621,-9696.697840,-383.047749,2516.700203
1478.752932,-11029.068536,153.219100,2294.638420
1478.753243,-11325.150913,-689.485948,1554.432478
1478.753555,-9622.677246,-842.705048,2072.576638
1478.753866,-7402.059420,-229.828649,740.205942
1478.754178,-5921.647536,1685.410096,370.102971
1478.754489,-7105.977043,995.924147,-962.267725
1478.754801,-6439.791695,306.438199,-1110.308913
1478.755112,-5773.606348,-536.266849,-1554.432478
1478.755424,-5329.482782,-1378.971896,-222.061783
1478.755735,-6069.688724,-2298.286494,1480.411884
1478.756047,-8586.388927,-3140.991542,1110.308913
1478.756358,-9622.677246,-3217.601092,2960.823768
1478.756669,-11029.068536,-3370.820191,3182.885551
1478.756981,-10288.862594,-1455.581446,2886.803174
1478.757292,-9548.656652,1149.143247,1702.473667
1478.757604,-9252.574275,2145.067394,-0.000000
1478.757915,-8216.285956,1915.238745,1332.370696
1478.758227,-9104.533087,1915.238745,-518.144159
1478.758538,-10658.965565,1838.629195,-1036.288319
1478.758850,-10510.924376,3447.429741,-296.082377
1478.759161,-9178.553681,1838.629195,-1628.453072
1478.759473,-9844.739029,-153.219100,-2072.576638
1478.759784,-9696.697840,-536.266849,-1184.329507
1478.760095,-9400.615463,459.657299,-370.102971
1478.760407,-10955.047942,842.705048,592.164754
1478.760718,-10658.965565,1532.190996,2368.659014
1478.761030,-11843.295072,153.219100,2368.659014
1478.761341,-9696.697840,153.219100,2220.617826
1478.761653,-6143.709319,1072.533697,1628.453072
1478.761964,-6513.812290,1532.190996,-1036.288319
1478.762276,-6661.853478,2451.505594,-962.267725
1478.762587,-9030.512492,306.438199,-1776.494261
1478.762899,-10807.006753,-842.705048,-1184.329507
1478.763210,-10214.842000,-536.266849,-0.000000
1478.763521,-10658.965565,-1072.533697,296.082377
1478.763833,-9918.759623,-3677.258390,1036.288319
1478.764144,-9844.739029,-3907.087040,888.247130
1478.764456,-8364.327145,-1532.190996,1480.411884
1478.764767,-7624.121203,689.485948,2220.617826
1478.765079,-7698.141797,-153.219100,3182.885551
1478.765390,-6217.729913,-1225.752797,2960.823768
1478.765702,-4885.359217,-2221.676944,1036.288319
1478.766013,-2368.659014,-306.438199,148.041188
1478.766325,-3404.947333,76.609550,-962.267725
1478.766636,-6735.874072,-1225.752797,-1924.535449
1478.766948,-8660.409521,-1608.800546,-518.144159
1478.767259,-11399.171507,-2757.943793,-0.000000
1478.767570,-13397.727550,-2604.724693,296.082377
1478.767882,-13323.706956,0.000000,444.123565
1478.768193,-13323.706956,1532.190996,222.061783
1478.768505,-10732.986159,1762.019645,2368.659014
1478.768816,-8438.347739,1302.362347,1924.535449
1478.769128,-9252.574275,1608.800546,2368.659014
1478.769439,-7772.162391,2068.457845,1998.556043
1478.769751,-5403.503377,1455.581446,-592.164754
1478.770062,-5625.565159,1072.533697,-2516.700203
1478.770374,-7105.977043,1302.362347,-3330.926739
1478.770685,-9474.636058,76.609550,-3552.988522
1478.770996,-12213.398043,-689.485948,-2072.576638
1478.771308,-15174.221811,-995.924147,814.226536
1478.771619,-15100.201217,-1378.971896,2516.700203
1478.771931,-14137.933492,-1685.410096,2442.679609
1478.772242,-12139.377449,-383.047749,2960.823768
1478.772554,-8290.306550,2451.505594,2516.700203
1478.772865,-5403.503377,4213.525239,814.226536
1478.773177,-5995.668130,4060.306139,1332.370696
1478.773488,-7105.977043,1532.190996,666.185348
1478.773800,-5033.400406,0.000000,-740.205942
1478.774111,-3701.029710,-689.485948,-1332.370696
1478.774422,-4441.235652,-2681.334243,-1850.514855
1478.774734,-7328.038826,-4060.306139,-1110.308913
1478.775045,-9770.718434,-3524.039291,444.123565
1478.775357,-12953.603985,-2911.162892,-0.000000
1478.775668,-14804.118840,-1608.800546,2960.823768
1478.775980,-12953.603985,383.047749,3256.906145
1478.776291,-12065.356855,0.000000,2220.617826
1478.776603,-7476.080014,689.485948,2442.679609
1478.776914,-3997.112087,2221.676944,962.267725
1478.777226,-3701.029710,2604.724693,1110.308913
1478.777537,-1110.308913,1302.362347,-0.000000
1478.777849,-2146.597232,-919.314598,-296.082377
1478.778160,-5625.565159,-2528.115143,-1110.308913
1478.778471,-7402.059420,-2221.676944,-962.267725
1478.778783,-10732.986159,-1225.752797,-2072.576638
1478.779094,-13175.665768,-1455.581446,-592.164754
1478.779406,-14508.036463,-842.705048,444.123565
1478.779717,-15988.448347,-383.047749,666.185348
1478.780029,-15396.283594,1455.581446,1480.411884
1478.780340,-12065.356855,2604.724693,2812.782580
1478.780652,-8882.471304,2451.505594,2146.597232
1478.780963,-6883.915261,2987.772442,1628.453072
1478.781275,-5255.462188,2145.067394,-370.102971
1478.781586,-4145.153275,1685.410096,-1184.329507
1478.781897,-6291.750507,1378.971896,-666.185348
1478.782209,-8438.347739,0.000000,-888.247130
1478.782520,-9178.553681,-995.924147,-2294.638420
1478.782832,-11917.315666,-1225.752797,-1110.308913
1478.783143,-12287.418637,-689.485948,1110.308913
1478.783455,-12879.583391,-612.876398,1332.370696
1478.783766,-13545.768739,-842.705048,2442.679609
1478.784078,-12509.480420,-995.924147,3108.864956
1478.784389,-9622.677246,306.438199,2146.597232
1478.784701,-6217.729913,2221.676944,740.205942
1478.785012,-6291.750507,1225.752797,-0.000000
1478.785323,-2960.823768,-459.657299,-0.000000
1478.785635,-3701.029710,-919.314598,-518.144159
1478.785946,-6217.729913,-1532.190996,1036.288319
1478.786258,-7402.059420,-1991.848295,1702.473667
1478.786569,-9400.615463,-3447.429741,1554.432478
1478.786881,-7994.224174,-3447.429741,2368.659014
1478.787192,-9178.553681,-3370.820191,962.267725
1478.787504,-9474.636058,-1532.190996,888.247130
1478.787815,-9030.512492,919.314598,666.185348
1478.788127,-9548.656652,1455.581446,370.102971
1478.788438,-8956.491898,229.828649,962.267725
1478.788749,-7550.100608,0.000000,-296.082377
1478.789061,-7402.059420,766.095498,-1332.370696
1478.789372,-6143.709319,1838.629195,444.123565
1478.789684,-5847.626942,-153.219100,518.144159
1478.789995,-9474.636058,-1149.143247,296.082377
1478.790307,-11103.089130,-919.314598,888.247130
1478.790618,-11251.130318,0.000000,888.247130
1478.790930,-11325.150913,1685.410096,296.082377
1478.791241,-10436.903782,2451.505594,-74.020594
1478.791553,-11325.150913,1225.752797,-888.247130
1478.791864,-10214.842000,459.657299,-370.102971
1478.792176,-10066.800811,995.924147,-518.144159
1478.792487,-11177.109724,1378.971896,-148.041188
1478.792798,-10510.924376,612.876398,-1406.391290
1478.793110,-10214.842000,0.000000,-1554.432478
1478.793421,-9400.615463,536.266849,-592.164754
1478.793733,-8438.347739,842.705048,444.123565
1478.794044,-9104.533087,306.438199,1554.432478
1478.794356,-11029.068536,-1455.581446,3108.864956
1478.794667,-10066.800811,-2298.286494,3849.070898
1478.794979,-8734.430116,-536.266849,1554.432478
1478.795290,-6883.915261,1378.971896,-74.020594
1478.795602,-5033.400406,2911.162892,-1406.391290
1478.795913,-4959.379811,1072.533697,-2590.720797
1478.796224,-5181.441594,-229.828649,-1406.391290
1478.796536,-7328.038826,-1685.410096,-592.164754
1478.796847,-9030.512492,-2834.553343,1480.411884
1478.797159,-10066.800811,-4136.915689,2146.597232
1478.797470,-11399.171507,-4596.572988,2442.679609
1478.797782,-10140.821405,-2451.505594,2664.741391
1478.798093,-7846.182985,-1532.190996,2886.803174
1478.798405,-9326.594869,612.876398,1924.535449
1478.798716,-9178.553681,1991.848295,1998.556043
1478.799028,-7402.059420,1838.629195,814.226536
1478.799339,-6439.791695,1455.581446,-0.000000
1478.799650,-4515.256246,1762.019645,-444.123565
1478.799962,-5033.400406,1532.190996,-2072.576638
1478.800273,-7550.100608,919.314598,-2516.700203
1478.800585,-8808.450710,1149.143247,-1480.411884
1478.800896,-12065.356855,-766.095498,-740.205942
1478.801208,-13545.768739,-2451.505594,740.205942
1478.801519,-12879.583391,-2068.457845,1628.453072
1478.801831,-13175.665768,-766.095498,1702.473667
1478.802142,-10362.883188,766.095498,2590.720797
1478.802454,-10140.821405,536.266849,1850.514855
1478.802765,-9474.636058,1532.190996,3256.906145
1478.803076,-8660.409521,1149.143247,2368.659014
1478.803388,-7254.018232,1149.143247,888.247130
1478.803699,-6661.853478,1532.190996,-962.267725
1478.804011,-6513.812290,1608.800546,-2294.638420
1478.804322,-5699.585753,-306.438199,-2516.700203
1478.804634,-8660.409521,-3370.820191,-2146.597232
1478.804945,-12213.398043,-3753.867940,-0.000000
1478.805257,-12731.542202,-2911.162892,1924.535449
1478.805568,-14508.036463,-1455.581446,2368.659014
1478.805880,-13619.789333,-153.219100,3330.926739
1478.806191,-10510.924376,229.828649,1998.556043
1478.806503,-6809.894666,2298.286494,1554.432478
1478.806814,-2738.761985,3064.381992,1924.535449
1478.807125,-3478.967927,1455.581446,1924.535449
1478.807437,-3923.091493,-383.047749,740.205942
1478.807748,-2664.741391,536.266849,-740.205942
1478.808060,-3034.844362,-1072.533697,-1480.411884
1478.808371,-4515.256246,-2681.334243,-1850.514855
1478.808683,-8438.347739,-1762.019645,-2220.617826
1478.808994,-12139.377449,-995.924147,-814.226536
1478.809306,-16358.551318,-2068.457845,1850.514855
1478.809617,-16802.674883,-1915.238745,3034.844362
1478.809929,-14952.160028,536.266849,1924.535449
1478.810240,-12657.521608,1455.581446,1998.556043
1478.810551,-6587.832884,1685.410096,1924.535449
1478.810863,-4293.194464,1991.848295,1480.411884
1478.811174,-3478.967927,1685.410096,962.267725
1478.811486,-3256.906145,2068.457845,222.061783
1478.811797,-5255.462188,0.000000,-1110.308913
1478.812109,-7328.038826,0.000000,-2294.638420
1478.812420,-10214.842000,612.876398,-3256.906145
1478.812732,-12213.398043,1149.143247,-2886.803174
1478.813043,-13471.748144,612.876398,-814.226536
1478.813354,-15026.180623,-459.657299,1036.288319
1478.813666,-16062.468941,-1072.533697,2368.659014
1478.813977,-14359.995275,536.266849,1332.370696
1478.814288,-9992.780217,2068.457845,1998.556043
1478.814600,-7105.977043,2068.457845,1554.432478
1478.814911,-5107.421000,2068.457845,-0.000000
1478.815223,-4885.359217,1991.848295,296.082377
1478.815534,-5329.482782,536.266849,666.185348
1478.815845,-5255.462188,-1378.971896,1184.329507
1478.816157,-7698.141797,-2298.286494,222.061783
1478.816468,-9030.512492,-2374.896044,148.041188
1478.816779,-10510.924376,-2757.943793,518.144159
1478.817091,-10214.842000,-2451.505594,1406.391290
1478.817402,-10881.027347,-919.314598,1406.391290
1478.817714,-11991.336260,-919.314598,1924.535449
1478.818025,-10214.842000,-459.657299,1702.473667
1478.818336,-9178.553681,0.000000,-0.000000
1478.818648,-6143.709319,919.314598,370.102971
1478.818959,-4367.215058,1149.143247,444.123565
1478.819270,-3627.009116,459.657299,-814.226536
1478.819582,-4663.297435,-1455.581446,-0.000000
1478.819893,-6291.750507,-2528.115143,1998.556043
1478.820205,-7105.977043,-1225.752797,1998.556043
1478.820516,-10140.821405,-689.485948,2072.576638
1478.820827,-10881.027347,-1762.019645,2220.617826
1478.821139,-11325.150913,-1915.238745,666.185348
1478.821450,-11917.315666,689.485948,148.041188
1478.821761,-12657.521608,1149.143247,-1258.350101
1478.822073,-14211.954086,919.314598,-1406.391290
1478.822384,-11103.089130,2068.457845,-1480.411884
1478.822695,-9030.512492,2681.334243,-888.247130
1478.823007,-7698.141797,1838.629195,222.061783
1478.823318,-5921.647536,0.000000,814.226536
1478.823630,-6217.729913,689.485948,1184.329507
1478.823941,-9030.512492,459.657299,1110.308913
1478.824252,-9696.697840,1225.752797,1998.556043
1478.824564,-9770.718434,2834.553343,-0.000000
1478.824875,-10732.986159,2298.286494,-0.000000
1478.825186,-10658.965565,1455.581446,-74.020594
1478.825498,-9252.574275,1991.848295,-888.247130
1478.825809,-9770.718434,2681.334243,-74.020594
1478.826121,-9844.739029,612.876398,1184.329507
1478.826432,-8660.409521,-2298.286494,222.061783
1478.826743,-7772.162391,-1455.581446,-1406.391290
1478.827055,-5921.647536,0.000000,-370.102971
1478.827366,-5403.503377,-383.047749,-296.082377
1478.827677,-7920.203579,-1838.629195,444.123565
1478.827989,-9548.656652,-919.314598,2368.659014
1478.828300,-8882.471304,-1608.800546,4145.153275
1478.828612,-9474.636058,-2604.724693,4959.379811
1478.828923,-10362.883188,-995.924147,3923.091493
1478.829234,-8216.285956,-689.485948,1480.411884
1478.829546,-5107.421000,-612.876398,-740.205942
1478.829857,-4515.256246,0.000000,-814.226536
1478.830168,-6069.688724,995.924147,-2294.638420
1478.830480,-8512.368333,306.438199,-1406.391290
1478.830791,-8734.430116,-2068.457845,-518.144159
1478.831103,-10288.862594,-2528.115143,-222.061783
1478.831414,-10066.800811,0.000000,-0.000000
1478.831725,-11103.089130,1838.629195,-296.082377
1478.832037,-12435.459826,1302.362347,1554.432478
1478.832348,-10881.027347,536.266849,2368.659014
1478.832659,-10214.842000,995.924147,2368.659014
1478.832971,-7402.059420,2221.676944,1776.494261
1478.833282,-5921.647536,1455.581446,666.185348
1478.833593,-6661.853478,1378.971896,-888.247130
1478.833905,-6957.935855,766.095498,-1702.473667
1478.834216,-8660.409521,-306.438199,-1998.556043
1478.834528,-12657.521608,-2145.067394,-1406.391290
1478.834839,-13989.892304,-1072.533697,-592.164754
1478.835150,-13915.871710,0.000000,-296.082377
1478.835462,-13101.645173,-1072.533697,1110.308913
1478.835773,-11843.295072,-1149.143247,1554.432478
1478.836084,-11547.212695,-383.047749,2220.617826
1478.836396,-7624.121203,1455.581446,3849.070898
1478.836707,-5551.544565,842.705048,3330.926739
1478.837019,-5329.482782,-306.438199,2516.700203
1478.837330,-3478.967927,612.876398,-666.185348
1478.837641,-3256.906145,1455.581446,-1406.391290
1478.837953,-4441.235652,383.047749,-2738.761985
1478.838264,-6883.915261,-306.438199,-2368.659014
1478.838575,-9992.780217,-1455.581446,-370.102971
1478.838887,-11843.295072,-2681.334243,1184.329507
1478.839198,-12953.603985,-3294.210641,1554.432478
1478.839510,-12361.439231,-2451.505594,1184.329507
1478.839821,-11103.089130,229.828649,962.267725
1478.840132,-8364.327145,2298.286494,1110.308913
1478.840444,-6883.915261,2451.505594,814.226536
1478.840755,-5403.503377,2604.724693,962.267725
1478.841066,-4737.318029,842.705048,1554.432478
1478.841378,-3034.844362,76.609550,1258.350101
1478.841689,-3034.844362,-1608.800546,518.144159
1478.842001,-5995.668130,-536.266849,-666.185348
1478.842312,-8734.430116,0.000000,-1554.432478
1478.842623,-12805.562797,0.000000,-296.082377
1478.842935,-16210.510130,-383.047749,-148.041188
1478.843246,-17246.798449,0.000000,444.123565
1478.843557,-15840.407159,842.705048,-518.144159
1478.843869,-12953.603985,0.000000,518.144159
1478.844180,-9030.512492,-842.705048,1628.453072
1478.844492,-7920.203579,-1762.019645,148.041188
1478.844803,-7031.956449,-229.828649,1036.288319
1478.845114,-6809.894666,1149.143247,1702.473667
1478.845426,-4737.318029,1762.019645,1924.535449
1478.845737,-4811.338623,1991.848295,-1406.391290
1478.846048,-7698.141797,842.705048,-1850.514855
1478.846360,-9548.656652,0.000000,-1258.350101
1478.846671,-11621.233289,0.000000,296.082377
1478.846982,-14137.933492,0.000000,1184.329507
1478.847294,-15766.386565,-689.485948,2072.576638
1478.847605,-13101.645173,-766.095498,1850.514855
1478.847917,-9696.697840,0.000000,-0.000000
1478.848228,-6069.688724,-306.438199,-148.041188
1478.848539,-3552.988522,383.047749,-888.247130
1478.848851,-3997.112087,0.000000,-444.123565
1478.849162,-4515.256246,153.219100,222.061783
1478.849473,-4737.318029,-842.705048,2442.679609
1478.849785,-5403.503377,-2451.505594,2812.782580
1478.850096,-5921.647536,-3064.381992,3034.844362
1478.850408,-7624.121203,-3753.867940,2960.823768
1478.850719,-9178.553681,-2987.772442,2146.597232
1478.851030,-10732.986159,-153.219100,1628.453072
1478.851342,-13323.706956,0.000000,666.185348
1478.851653,-12583.501014,229.828649,370.102971
1478.851964,-11029.068536,0.000000,-740.205942
1478.852276,-8882.471304,995.924147,-296.082377
1478.852587,-7476.080014,1915.238745,-1406.391290
1478.852899,-7402.059420,2068.457845,-2220.617826
1478.853210,-7550.100608,1838.629195,-666.185348
1478.853521,-7698.141797,1302.362347,222.061783
1478.853833,-6587.832884,689.485948,814.226536
1478.854144,-6661.853478,-306.438199,1184.329507
1478.854455,-7920.203579,-1532.190996,1998.556043
1478.854767,-11029.068536,-1991.848295,1184.329507
1478.855078,-12139.377449,229.828649,518.144159
1478.855390,-14137.933492,2145.067394,296.082377
1478.855701,-15322.262999,842.705048,1332.370696
1478.856012,-12139.377449,229.828649,-0.000000
1478.856324,-10584.944971,229.828649,-2294.638420
1478.856635,-7846.182985,229.828649,-1110.308913
1478.856946,-7624.121203,-153.219100,-1406.391290
1478.857258,-7994.224174,995.924147,-444.123565
1478.857569,-8290.306550,2068.457845,666.185348
1478.857881,-10066.800811,-536.266849,2368.659014
1478.858192,-7920.203579,-383.047749,2516.700203
1478.858503,-6883.915261,689.485948,1702.473667
1478.858815,-7105.977043,1072.533697,2146.597232
1478.859126,-5995.668130,-229.828649,1554.432478
1478.859437,-8290.306550,-689.485948,296.082377
1478.859749,-8438.347739,612.876398,222.061783
1478.860060,-7476.080014,0.000000,-74.020594
1478.860371,-7105.977043,-383.047749,-814.226536
1478.860683,-6883.915261,-536.266849,-1406.391290
1478.860994,-6735.874072,-1072.533697,-1850.514855
1478.861306,-6957.935855,-1149.143247,-370.102971
1478.861617,-9252.574275,-536.266849,962.267725
1478.861928,-11399.171507,-1072.533697,1998.556043
1478.862240,-11547.212695,-1072.533697,2072.576638
1478.862551,-9844.739029,0.000000,1850.514855
1478.862862,-7920.203579,689.485948,1776.494261
1478.863174,-6883.915261,1072.533697,1406.391290
1478.863485,-6217.729913,995.924147,1332.370696
1478.863797,-8882.471304,766.095498,-0.000000
1478.864108,-10214.842000,-153.219100,-0.000000
1478.864419,-9400.615463,689.485948,-1036.288319
1478.864731,-9326.594869,1378.971896,-2294.638420
1478.865042,-9548.656652,0.000000,-1480.411884
1478.865353,-10436.903782,-919.314598,-444.123565
1478.865665,-12065.356855,459.657299,222.061783
1478.865976,-12657.521608,383.047749,1924.535449
1478.866288,-11843.295072,-766.095498,2738.761985
1478.866599,-10140.821405,-1532.190996,1702.473667
1478.866910,-7476.080014,-459.657299,1184.329507
1478.867222,-5773.606348,-536.266849,-0.000000
1478.867533,-6291.750507,-536.266849,370.102971
1478.867844,-9030.512492,153.219100,148.041188
1478.868156,-11399.171507,536.266849,-222.061783
1478.868467,-11991.336260,306.438199,296.082377
1478.868779,-10584.944971,-919.314598,-74.020594
1478.869090,-10066.800811,-2757.943793,-148.041188
1478.869401,-9104.533087,-2451.505594,592.164754
1478.869713,-7105.977043,-459.657299,518.144159
1478.870024,-9474.636058,1532.190996,-0.000000
1478.870335,-10140.821405,1838.629195,1480.411884
1478.870647,-7550.100608,459.657299,2368.659014
1478.870958,-5329.482782,-612.876398,1184.329507
1478.871270,-2516.700203,0.000000,2146.597232
1478.871581,-2738.761985,0.000000,666.185348
1478.871892,-4737.318029,-842.705048,592.164754
1478.872204,-7328.038826,-1838.629195,1036.288319
1478.872515,-8808.450710,-2298.286494,1036.288319
1478.872826,-10288.862594,-1991.848295,740.205942
1478.873138,-11991.336260,-229.828649,518.144159
1478.873449,-11991.336260,229.828649,592.164754
1478.873760,-11177.109724,919.314598,-370.102971
1478.874072,-10658.965565,2681.334243,666.185348
1478.874383,-9178.553681,3140.991542,1110.308913
1478.874695,-8438.347739,2068.457845,1554.432478
1478.875006,-5329.482782,689.485948,2146.597232
1478.875317,-3923.091493,-612.876398,-0.000000
1478.875629,-4367.215058,-306.438199,-1110.308913
1478.875940,-7698.141797,536.266849,-2294.638420
1478.876251,-11251.130318,1762.019645,-2368.659014
1478.876563,-13619.789333,306.438199,-666.185348
1478.876874,-15692.365970,-1685.410096,962.267725
1478.877186,-15692.365970,-1072.533697,666.185348
1478.877497,-14656.077652,0.000000,-444.123565
1478.877808,-11843.295072,2145.067394,1480.411884
1478.878120,-9326.594869,2528.115143,1036.288319
1478.878431,-7179.997637,2068.457845,1258.350101
1478.878742,-6365.771101,689.485948,1332.370696
1478.879054,-4811.338623,76.609550,1258.350101
1478.879365,-3923.091493,-689.485948,-1184.329507
1478.879677,-4737.318029,-459.657299,-1554.432478
1478.879988,-6735.874072,-1225.752797,-148.041188
1478.880299,-9918.759623,-2604.724693,666.185348
1478.880611,-12139.377449,-3294.210641,2146.597232
1478.880922,-13989.892304,-2911.162892,3034.844362
1478.881233,-13693.809927,-3064.381992,2886.803174
1478.881545,-10732.986159,-2068.457845,1850.514855
1478.881856,-7994.224174,229.828649,370.102971
1478.882168,-6143.709319,2451.505594,-296.082377
1478.882479,-4145.153275,3830.477490,-740.205942
1478.882790,-4219.173869,1532.190996,444.123565
1478.883102,-3849.070898,-383.047749,1554.432478
1478.883413,-2812.782580,-2145.067394,1702.473667
1478.883724,-3256.906145,-3217.601092,592.164754
1478.884036,-5921.647536,-4060.306139,1110.308913
1478.884347,-9030.512492,-4136.915689,-0.000000
1478.884659,-12509.480420,-3600.648841,-518.144159
1478.884970,-14804.118840,-2298.286494,370.102971
1478.885281,-15766.386565,-2834.553343,1332.370696
1478.885593,-14211.954086,-3217.601092,1110.308913
1478.885904,-12139.377449,-3600.648841,1554.432478
1478.886215,-8956.491898,-3064.381992,2368.659014
1478.886527,-7254.018232,-3370.820191,666.185348
1478.886838,-6291.750507,-1685.410096,-0.000000
1478.887149,-4663.297435,-1072.533697,1036.288319
1478.887461,-4811.338623,-2681.334243,-0.000000
1478.887772,-5477.523971,-3140.991542,-0.000000
1478.888084,-7179.997637,-3064.381992,-1258.350101
1478.888395,-9918.759623,-2374.896044,-0.000000
1478.888706,-12879.583391,-1991.848295,-0.000000
1478.889018,-14063.912898,-2451.505594,518.144159
1478.889329,-14582.057057,-2528.115143,1110.308913
1478.889640,-13915.871710,-3140.991542,1258.350101
1478.889952,-11473.192101,-2681.334243,-296.082377
1478.890263,-8660.409521,-1685.410096,-1702.473667
1478.890575,-6661.853478,-1302.362347,-814.226536
1478.890886,-6291.750507,-2374.896044,-1776.494261
1478.891197,-6957.935855,-1608.800546,-1702.473667
1478.891509,-6809.894666,-153.219100,666.185348
1478.891820,-7179.997637,-4060.306139,2516.700203
1478.892131,-7772.162391,-7431.126331,2886.803174
1478.892443,-7402.059420,-6894.859482,2368.659014
1478.892754,-6587.832884,-4903.011187,1628.453072
1478.893066,-8512.368333,-4366.744339,518.144159
1478.893377,-11177.109724,-2757.943793,-0.000000
1478.893688,-11843.295072,-1225.752797,-222.061783
1478.894000,-10658.965565,-2834.553343,518.144159
1478.894311,-8734.430116,-4979.620737,1184.329507
1478.894622,-7846.182985,-4290.134789,-148.041188
1478.894934,-5995.668130,-2451.505594,-1110.308913
1478.895245,-4367.215058,-1991.848295,-518.144159
1478.895557,-5107.421000,-3677.258390,1036.288319
1478.895868,-7846.182985,-3600.648841,2368.659014
1478.896179,-10584.944971,-2451.505594,2368.659014
1478.896491,-10066.800811,-1838.629195,2072.576638
1478.896802,-10658.965565,-1838.629195,1702.473667
1478.897113,-11325.150913,-1685.410096,-0.000000
1478.897425,-8438.347739,76.609550,-2220.617826
1478.897736,-6735.874072,229.828649,-2072.576638
1478.898048,-8882.471304,-1762.019645,-814.226536
1478.898359,-11547.212695,-2068.457845,444.123565
1478.898670,-13323.706956,-1532.190996,444.123565
1478.898982,-11621.233289,-1762.019645,1702.473667
1478.899293,-8512.368333,-3140.991542,2516.700203
1478.899604,-7402.059420,-4213.525239,740.205942
1478.899916,-6661.853478,-2451.505594,-962.267725
1478.900227,-6069.688724,-2374.896044,-1184.329507
1478.900538,-7624.121203,-2068.457845,740.205942
1478.900850,-11325.150913,-1608.800546,2442.679609
1478.901161,-13693.809927,-2451.505594,3256.906145
1478.901473,-13101.645173,-4060.306139,3552.988522
1478.901784,-9548.656652,-4519.963438,3034.844362
1478.902095,-4737.318029,-2528.115143,888.247130
1478.902407,-3108.864956,-2681.334243,-1480.411884
1478.902718,-3256.906145,-5209.449386,-2590.720797
1478.903029,-2812.782580,-5898.935335,-1480.411884
1478.903341,-3997.112087,-4443.353888,962.267725
1478.903652,-8438.347739,-5286.058936,2368.659014
1478.903964,-13915.871710,-8733.488677,3182.885551
1478.904275,-13175.665768,-7201.297681,4219.173869
1478.904586,-10436.903782,-4136.915689,2960.823768
1478.904898,-7772.162391,-3370.820191,1628.453072
1478.905209,-7920.203579,-4903.011187,-740.205942
1478.905520,-7994.224174,-6128.763984,-1776.494261
1478.905832,-5847.626942,-5209.449386,-2368.659014
1478.906143,-5551.544565,-2145.067394,-1480.411884
1478.906455,-8438.347739,-459.657299,-296.082377
1478.906766,-12213.398043,-2757.943793,1628.453072
1478.907077,-13101.645173,-5592.497135,2738.761985
1478.907389,-12065.356855,-2834.553343,2368.659014
1478.907700,-11621.233289,2528.115143,666.185348
1478.908011,-10288.862594,2911.162892,-740.205942
1478.908323,-8956.491898,-306.438199,-2368.659014
1478.908634,-6365.771101,-1762.019645,-2886.803174
1478.908946,-7031.956449,0.000000,-4663.297435
1478.909257,-7624.121203,1915.238745,-2220.617826
1478.909568,-9770.718434,459.657299,-518.144159
1478.909880,-11177.109724,-2911.162892,2294.638420
1478.910191,-11325.150913,-6741.640382,3182.885551
1478.910502,-11399.171507,-7201.297681,2516.700203
1478.910814,-11325.150913,-4136.915689,1702.473667
1478.911125,-10658.965565,-2298.286494,1332.370696
1478.911437,-6957.935855,-2604.724693,-1036.288319
1478.911748,-5699.585753,-3907.087040,-1332.370696
1478.912059,-5403.503377,-4826.401637,-1184.329507
1478.912371,-6661.853478,-4213.525239,814.226536
1478.912682,-8734.430116,-3983.696590,1924.535449
1478.912993,-9252.574275,-2834.553343,1332.370696
1478.913305,-10214.842000,-1225.752797,1850.514855
1478.913616,-10436.903782,-1915.238745,1628.453072
1478.913928,-10807.006753,-1149.143247,1998.556043
1478.914239,-9400.615463,-1378.971896,1036.288319
1478.914551,-8364.327145,-612.876398,1628.453072
1478.914862,-6809.894666,-536.266849,592.164754
1478.915173,-4737.318029,-306.438199,-814.226536
1478.915485,-4145.153275,-1532.190996,-962.267725
1478.915796,-3404.947333,-4136.915689,-1554.432478
1478.916108,-4959.379811,-3753.867940,-1110.308913
1478.916419,-7624.121203,-2298.286494,-296.082377
1478.916730,-11177.109724,0.000000,-0.000000
1478.917042,-13323.706956,-1149.143247,2146.597232
1478.917353,-13323.706956,-3600.648841,3849.070898
1478.917665,-12139.377449,-6435.202183,4737.318029
1478.917976,-9474.636058,-6665.030833,4071.132681
1478.918288,-8438.347739,-5669.106685,2220.617826
1478.918599,-6513.812290,-5745.716235,1110.308913
1478.918910,-4959.379811,-5822.325785,-814.226536
1478.919222,-4293.194464,-6052.154434,-962.267725
1478.919533,-5255.462188,-5132.839837,-740.205942
1478.919845,-6587.832884,-5209.449386,-666.185348
1478.920156,-8660.409521,-5515.887586,-296.082377
1478.920467,-10658.965565,-5362.668486,518.144159
1478.920779,-11769.274478,-4366.744339,1258.350101
1478.921090,-13175.665768,-3907.087040,2072.576638
1478.921402,-14508.036463,-3753.867940,2516.700203
1478.921713,-14582.057057,-3140.991542,2072.576638
1478.922025,-12805.562797,-2221.676944,1628.453072
1478.922336,-10066.800811,-2221.676944,962.267725
1478.922647,-7920.203579,-3983.696590,222.061783
1478.922959,-5625.565159,-5745.716235,-1258.350101
1478.923270,-5181.441594,-4673.182538,-2590.720797
1478.923582,-5033.400406,-1915.238745,-2960.823768
1478.923893,-6291.750507,0.000000,-2664.741391
1478.924204,-9696.697840,-229.828649,-1776.494261
1478.924516,-11843.295072,-1378.971896,-0.000000
1478.924827,-13545.768739,-1762.019645,1332.370696
1478.925139,-13249.686362,-1532.190996,1776.494261
1478.925450,-12213.398043,-995.924147,1554.432478
1478.925762,-10066.800811,-1838.629195,888.247130
1478.926073,-7031.956449,-4443.353888,-518.144159
1478.926384,-6291.750507,-4443.353888,-666.185348
1478.926696,-6809.894666,-2757.943793,-148.041188
1478.927007,-5477.523971,-766.095498,-1406.391290
1478.927319,-6365.771101,0.000000,-814.226536
1478.927630,-6439.791695,-1838.629195,-370.102971
1478.927941,-4959.379811,-2604.724693,-0.000000
1478.928253,-5033.400406,-1915.238745,814.226536
1478.928564,-6217.729913,-3064.381992,888.247130
1478.928876,-8586.388927,-3830.477490,1480.411884
1478.929187,-11029.068536,-3677.258390,2072.576638
1478.929499,-13101.645173,-2451.505594,2146.597232
1478.929810,-12879.583391,-2911.162892,2368.659014
1478.930121,-11177.109724,-3907.087040,2220.617826
1478.930433,-8290.306550,-4136.915689,1628.453072
1478.930744,-5773.606348,-3983.696590,666.185348
1478.931056,-4737.318029,-4749.792088,-222.061783
1478.931367,-5107.421000,-3217.601092,-296.082377
1478.931678,-4959.379811,-1608.800546,-0.000000
1478.931990,-6143.709319,-2298.286494,-0.000000
1478.932301,-8364.327145,-3294.210641,222.061783
1478.932613,-9844.739029,-2604.724693,1110.308913
1478.932924,-11325.150913,-2987.772442,1776.494261
1478.933236,-12065.356855,-5056.230287,2664.741391
1478.933547,-12139.377449,-4979.620737,2960.823768
1478.933858,-13323.706956,-3830.477490,1924.535449
1478.934170,-12657.521608,-2374.896044,666.185348
1478.934481,-10807.006753,-383.047749,-222.061783
1478.934793,-8586.388927,1225.752797,-592.164754
1478.935104,-6735.874072,1302.362347,-1184.329507
1478.935415,-6291.750507,-459.657299,-962.267725
1478.935727,-6069.688724,-1685.410096,-296.082377
1478.936038,-7105.977043,-3217.601092,444.123565
1478.936350,-8364.327145,-4443.353888,1036.288319
1478.936661,-10288.862594,-5898.935335,814.226536
1478.936973,-11251.130318,-6358.592633,1702.473667
1478.937284,-13693.809927,-6665.030833,1258.350101
1478.937595,-13545.768739,-7048.078582,2294.638420
1478.937907,-12213.398043,-6205.373534,1406.391290
1478.938218,-10955.047942,-4596.572988,1702.473667
1478.938530,-7846.182985,-4596.572988,1332.370696
1478.938841,-5921.647536,-2757.943793,-0.000000
1478.939152,-4737.318029,-1225.752797,-296.082377
1478.939464,-4071.132681,-1149.143247,-370.102971
1478.939775,-4293.194464,-459.657299,-592.164754
1478.940087,-5551.544565,306.438199,-592.164754
1478.940398,-7846.182985,0.000000,-370.102971
1478.940710,-10214.842000,-2298.286494,-222.061783
1478.941021,-11473.192101,-3294.210641,1036.288319
1478.941332,-10510.924376,-2757.943793,1036.288319
1478.941644,-9918.759623,-2681.334243,370.102971
1478.941955,-7698.141797,-2451.505594,962.267725
1478.942267,-8364.327145,-2681.334243,-0.000000
1478.942578,-6661.853478,-2068.457845,-74.020594
1478.942889,-4441.235652,-1762.019645,-888.247130
1478.943201,-5995.668130,-2681.334243,-740.205942
1478.943512,-8438.347739,-2834.553343,-0.000000
1478.943824,-11251.130318,-3524.039291,518.144159
1478.944135,-11843.295072,-2757.943793,1184.329507
1478.944447,-11991.336260,-1838.629195,1702.473667
1478.944758,-11695.253884,-3064.381992,2590.720797
1478.945069,-11769.274478,-4826.401637,1554.432478
1478.945381,-10436.903782,-4596.572988,1702.473667
1478.945692,-9474.636058,-2298.286494,2368.659014
1478.946004,-9474.636058,-995.924147,1554.432478
1478.946315,-10955.047942,76.609550,1184.329507
1478.946626,-9622.677246,1225.752797,1628.453072
1478.946938,-8808.450710,612.876398,1036.288319
1478.947249,-6291.750507,153.219100,2294.638420
1478.947561,-6439.791695,-306.438199,1406.391290
1478.947872,-7994.224174,-1762.019645,2146.597232
1478.948184,-8660.409521,-4290.134789,3404.947333
1478.948495,-10288.862594,-3907.087040,4293.194464
1478.948806,-10436.903782,-1302.362347,6069.688724
1478.949118,-13101.645173,-2298.286494,5033.400406
1478.949429,-11621.233289,-1915.238745,6661.853478
1478.949741,-8142.265362,-383.047749,3849.070898
1478.950052,-6587.832884,2757.943793,3182.885551
1478.950363,-5773.606348,2374.896044,2738.761985
1478.950675,-5403.503377,153.219100,1924.535449
1478.950986,-6513.812290,-153.219100,2368.659014
1478.951298,-4737.318029,612.876398,4515.256246
1478.951609,-9474.636058,-919.314598,3182.885551
1478.951921,-10807.006753,-536.266849,5921.647536
1478.952232,-11103.089130,-1685.410096,6143.709319
1478.952543,-9326.594869,-2451.505594,6217.729913
1478.952855,-7772.162391,-1685.410096,6957.935855
1478.953166,-8956.491898,-689.485948,5181.441594
1478.953478,-7105.977043,459.657299,4959.379811
1478.953789,-5699.585753,919.314598,3182.885551
1478.954100,-4737.318029,2298.286494,3404.947333
1478.954412,-6883.915261,3064.381992,2146.597232
1478.954723,-8512.368333,2834.553343,3552.988522
1478.955035,-9178.553681,766.095498,4441.235652
1478.955346,-8364.327145,76.609550,4663.297435
1478.955658,-8808.450710,-1072.533697,5255.462188
1478.955969,-9770.718434,-2374.896044,5921.647536
1478.956280,-9622.677246,-3294.210641,6069.688724
1478.956592,-8660.409521,-995.924147,5847.626942
1478.956903,-8216.285956,229.828649,4959.379811
1478.957215,-9326.594869,2068.457845,3552.988522
1478.957526,-10066.800811,2451.505594,2960.823768
1478.957837,-8734.430116,3524.039291,2812.782580
1478.958149,-8216.285956,3370.820191,2738.761985
1478.958460,-8364.327145,1762.019645,2738.761985
1478.958772,-8216.285956,153.219100,2664.741391
1478.959083,-7846.182985,-919.314598,3034.844362
1478.959395,-6217.729913,-153.219100,3330.926739
1478.959706,-7476.080014,-2528.115143,3701.029710
1478.960017,-8660.409521,-2145.067394,4515.256246
1478.960329,-10362.883188,-2298.286494,3923.091493
1478.960640,-11177.109724,-919.314598,4293.194464
1478.960952,-10955.047942,459.657299,4071.132681
1478.961263,-11325.150913,1149.143247,3182.885551
1478.961574,-10362.883188,1685.410096,2294.638420
1478.961886,-9030.512492,1302.362347,1924.535449
1478.962197,-8068.244768,2068.457845,962.267725
1478.962509,-7550.100608,1302.362347,2072.576638
1478.962820,-8882.471304,-612.876398,2960.823768
1478.963132,-9548.656652,-2451.505594,4145.153275
1478.963443,-9844.739029,-2834.553343,4737.318029
1478.963754,-8882.471304,-2681.334243,5033.400406
1478.964066,-8142.265362,-2528.115143,4071.132681
1478.964377,-7402.059420,-2221.676944,2516.700203
1478.964689,-5995.668130,153.219100,1184.329507
1478.965000,-5995.668130,1838.629195,-740.205942
1478.965311,-6883.915261,1685.410096,-666.185348
1478.965623,-9400.615463,2528.115143,-0.000000
1478.965934,-11991.336260,2528.115143,1258.350101
1478.966246,-13175.665768,1915.238745,3404.947333
1478.966557,-13101.645173,612.876398,4219.173869
1478.966869,-11843.295072,-612.876398,4663.297435
1478.967180,-9474.636058,-1378.971896,4515.256246
1478.967491,-6513.812290,-2451.505594,2738.761985
1478.967803,-3997.112087,-2221.676944,1924.535449
1478.968114,-3923.091493,-1838.629195,666.185348
1478.968426,-6217.729913,-383.047749,814.226536
1478.968737,-8512.368333,459.657299,2368.659014
1478.969048,-11473.192101,1149.143247,3330.926739
1478.969360,-13767.830521,1149.143247,5181.441594
1478.969671,-14730.098246,1378.971896,5551.544565
1478.969983,-12805.562797,76.609550,5329.482782
1478.970294,-8882.471304,-459.657299,5181.441594
1478.970606,-5551.544565,-919.314598,3108.864956
1478.970917,-3923.091493,-919.314598,1998.556043
1478.971228,-3256.906145,-1072.533697,962.267725
1478.971540,-3775.050304,-383.047749,2146.597232
1478.971851,-7550.100608,536.266849,2516.700203
1478.972163,-11917.315666,306.438199,4737.318029
1478.972474,-14730.098246,766.095498,5773.606348
1478.972785,-14434.015869,766.095498,6217.729913
1478.973097,-10955.047942,229.828649,5107.421000
1478.973408,-7920.203579,-612.876398,3701.029710
1478.973720,-4885.359217,-383.047749,3108.864956
1478.974031,-4885.359217,0.000000,2886.803174
1478.974343,-5107.421000,0.000000,4219.173869
1478.974654,-8734.430116,-306.438199,5625.565159
1478.974965,-11843.295072,306.438199,7550.100608
1478.975277,-12287.418637,229.828649,7846.182985
1478.975588,-11251.130318,1072.533697,6661.853478
1478.975900,-7920.203579,2757.943793,4663.297435
1478.976211,-4737.318029,2834.553343,1554.432478
1478.976522,-3256.906145,2451.505594,-666.185348
1478.976834,-3775.050304,2451.505594,-74.020594
1478.977145,-7179.997637,842.705048,1258.350101
1478.977457,-11177.109724,0.000000,3552.988522
1478.977768,-14063.912898,-1378.971896,7031.956449
1478.978080,-15692.365970,-3600.648841,8956.491898
1478.978391,-14804.118840,-3830.477490,10140.821405
1478.978702,-11769.274478,-2834.553343,9400.615463
1478.979014,-8660.409521,-1455.581446,7476.080014
1478.979325,-5107.421000,-766.095498,4515.256246
1478.979637,-3404.947333,612.876398,1924.535449
1478.979948,-1554.432478,2681.334243,-74.020594
1478.980259,-1702.473667,3677.258390,-888.247130
1478.980571,-4959.379811,3447.429741,148.041188
1478.980882,-8068.244768,2528.115143,2146.597232
1478.981194,-11029.068536,842.705048,4219.173869
1478.981505,-13175.665768,-766.095498,5773.606348
1478.981817,-14730.098246,-1838.629195,7476.080014
1478.982128,-14211.954086,-2145.067394,7402.059420
1478.982439,-11399.171507,-1762.019645,6587.832884
1478.982751,-8586.388927,-842.705048,5181.441594
1478.983062,-7031.956449,-306.438199,4441.235652
1478.983374,-4885.359217,459.657299,4145.153275
1478.983685,-2960.823768,306.438199,2590.720797
1478.983996,-2146.597232,612.876398,1850.514855
1478.984308,-3552.988522,153.219100,592.164754
1478.984619,-4071.132681,383.047749,-0.000000
1478.984931,-6883.915261,-229.828649,-0.000000
1478.985242,-11399.171507,-1455.581446,1332.370696
1478.985554,-15174.221811,-1685.410096,4293.194464
1478.985865,-19097.313304,-1532.190996,5847.626942
1478.986176,-20503.704593,-383.047749,8068.244768
1478.986488,-17838.963202,0.000000,7846.182985
1478.986799,-12657.521608,-229.828649,7031.956449
1478.987111,-5699.585753,0.000000,4811.338623
1478.987422,148.041188,689.485948,1332.370696
1478.987733,3627.009116,459.657299,-2590.720797
1478.988045,5033.400406,689.485948,-5403.503377
1478.988356,2072.576638,383.047749,-6291.750507
1478.988668,-4663.297435,1302.362347,-3182.885551
1478.988979,-14730.098246,689.485948,2664.741391
1478.989291,-24500.816680,-1149.143247,7402.059420
1478.989602,-28645.969955,-2068.457845,10881.027347
1478.989913,-25315.043216,-1991.848295,11843.295072
1478.990225,-16802.674883,-1532.190996,9474.636058
1478.990536,-7846.182985,-919.314598,5477.523971
1478.990848,888.247130,-995.924147,-296.082377
1478.991159,7476.080014,0.000000,-5477.523971
1478.991470,8216.285956,1991.848295,-6661.853478
1478.991782,2516.700203,2987.772442,-4885.359217
1478.992093,-7105.977043,2757.943793,-1332.370696
1478.992405,-16210.510130,1302.362347,3108.864956
1478.992716,-21984.116477,766.095498,7105.977043
1478.993028,-22428.240043,-536.266849,8660.409521
1478.993339,-17394.839637,-1225.752797,7994.224174
1478.993650,-11029.068536,-2068.457845,5921.647536
1478.993962,-5255.462188,-2681.334243,2220.617826
1478.994273,296.082377,-1455.581446,814.226536
1478.994585,1332.370696,229.828649,-1406.391290
1478.994896,-740.205942,1225.752797,888.247130
1478.995207,-6365.771101,689.485948,1924.535449
1478.995519,-11473.192101,306.438199,3627.009116
1478.995830,-14211.954086,766.095498,4589.276840
1478.996142,-13471.748144,1915.238745,4737.318029
1478.996453,-12065.356855,229.828649,3849.070898
1478.996765,-10732.986159,-1915.238745,3404.947333
1478.997076,-9622.677246,-2757.943793,3330.926739
1478.997387,-8512.368333,-1762.019645,4219.173869
1478.997699,-8882.471304,0.000000,5625.565159
1478.998010,-9918.759623,459.657299,7179.997637
1478.998322,-11103.089130,229.828649,8660.409521
1478.998633,-9844.739029,-383.047749,8956.491898
1478.998944,-6513.812290,-459.657299,6587.832884
1478.999256,-3923.091493,842.705048,1850.514855
1478.999567,-1554.432478,3064.381992,-1184.329507
1478.999879,-1110.308913,3447.429741,-3108.864956
1479.000190,-4219.173869,2528.115143,-1036.288319
1479.000502,-10732.986159,612.876398,3108.864956
1479.000813,-17394.839637,-1302.362347,8068.244768
1479.001124,-19615.457463,-3064.381992,12287.418637
1479.001436,-16580.613101,-3983.696590,12435.459826
1479.001747,-12139.377449,-4136.915689,10436.903782
1479.002059,-7698.141797,-2221.676944,7179.997637
1479.002370,-2590.720797,229.828649,2886.803174
1479.002681,-222.061783,2757.943793,-740.205942
1479.002993,814.226536,4060.306139,-1998.556043
1479.003304,-1924.535449,4826.401637,-814.226536
1479.003616,-5625.565159,3524.039291,518.144159
1479.003927,-8956.491898,766.095498,2812.782580
1479.004239,-10510.924376,-842.705048,4737.318029
1479.004550,-11769.274478,-766.095498,7179.997637
1479.004861,-14582.057057,-1455.581446,8734.430116
1479.005173,-15988.448347,-3677.258390,8290.306550
1479.005484,-12287.418637,-3370.820191,6365.771101
1479.005796,-7698.141797,-1149.143247,3923.091493
1479.006107,-4293.194464,1149.143247,740.205942
1479.006418,-4737.318029,1838.629195,-296.082377
1479.006730,-6069.688724,842.705048,-1628.453072
1479.007041,-5773.606348,842.705048,-592.164754
1479.007353,-5033.400406,229.828649,-222.061783
1479.007664,-6661.853478,919.314598,370.102971
1479.007976,-9474.636058,-842.705048,-222.061783
1479.008287,-10807.006753,-1685.410096,740.205942
1479.008598,-10955.047942,-1762.019645,-370.102971
1479.008910,-12731.542202,0.000000,1406.391290
1479.009221,-15100.201217,229.828649,2146.597232
1479.009533,-16136.489536,-919.314598,2072.576638
1479.009844,-14211.954086,-536.266849,2442.679609
1479.010155,-10288.862594,76.609550,222.061783
1479.010467,-5921.647536,0.000000,-2368.659014
1479.010778,-2220.617826,536.266849,-4145.153275
1479.011090,814.226536,459.657299,-7179.997637
1479.011401,1258.350101,995.924147,-7105.977043
1479.011713,-3478.967927,1072.533697,-5699.585753
1479.012024,-9622.677246,229.828649,-1924.535449
1479.012335,-15396.283594,-1072.533697,1850.514855
1479.012646,-18653.189738,-2068.457845,4811.338623
1479.012958,-19023.292709,-3140.991542,4293.194464
1479.013269,-17246.798449,-2068.457845,2220.617826
1479.013580,-11991.336260,766.095498,-370.102971
1479.013892,-7624.121203,2451.505594,-3849.070898
1479.014203,-4293.194464,919.314598,-5181.441594
1479.014514,-2368.659014,-459.657299,-6069.688724
1479.014826,-4441.235652,76.609550,-5551.544565
1479.015137,-7328.038826,766.095498,-2368.659014
1479.015448,-9030.512492,-689.485948,592.164754
1479.015760,-13175.665768,-2604.724693,962.267725
1479.016071,-13619.789333,-1455.581446,3478.967927
1479.016382,-13397.727550,-1149.143247,3330.926739
1479.016693,-12287.418637,-1149.143247,2516.700203
1479.017005,-11029.068536,-612.876398,1110.308913
1479.017316,-10584.944971,229.828649,296.082377
1479.017627,-9770.718434,1532.190996,1332.370696
1479.017939,-10362.883188,2068.457845,-518.144159
1479.018250,-7698.141797,2145.067394,222.061783
1479.018561,-5773.606348,-383.047749,-1184.329507
1479.018873,-4367.215058,-2298.286494,-222.061783
1479.019184,-4145.153275,-1608.800546,-518.144159
1479.019495,-6735.874072,-306.438199,1184.329507
1479.019806,-11103.089130,995.924147,4145.153275
1479.020118,-14211.954086,536.266849,6069.688724
1479.020429,-13175.665768,0.000000,7476.080014
1479.020740,-9326.594869,-612.876398,6809.894666
1479.021052,-5329.482782,383.047749,5033.400406
1479.021363,-1998.556043,1378.971896,2664.741391
1479.021674,-1702.473667,1532.190996,-296.082377
1479.021986,-4367.215058,1915.238745,-1184.329507
1479.022297,-6291.750507,1991.848295,-444.123565
1479.022608,-7698.141797,1762.019645,-888.247130
1479.022920,-8364.327145,1608.800546,-222.061783
1479.023231,-8734.430116,1225.752797,666.185348
1479.023542,-9400.615463,0.000000,2294.638420
1479.023853,-9918.759623,-229.828649,4367.215058
1479.024165,-10510.924376,-1455.581446,6587.832884
1479.024476,-11917.315666,-1762.019645,6439.791695
1479.024787,-11103.089130,-383.047749,5255.462188
1479.025099,-9252.574275,612.876398,3330.926739
1479.025410,-6439.791695,-536.266849,-0.000000
1479.025721,-3182.885551,0.000000,-1924.535449
1479.026033,-4219.173869,-229.828649,-3923.091493
1479.026344,-5551.544565,0.000000,-3849.070898
1479.026655,-7105.977043,-229.828649,-1184.329507
1479.026967,-11769.274478,-1225.752797,1184.329507
1479.027278,-16210.510130,-1991.848295,3849.070898
1479.027589,-16802.674883,-2451.505594,4885.359217
1479.027900,-15396.283594,-689.485948,3552.988522
1479.028212,-10584.944971,919.314598,2072.576638
1479.028523,-6735.874072,1225.752797,370.102971
1479.028834,-4293.194464,842.705048,-3256.906145
1479.029146,-3256.906145,919.314598,-3627.009116
1479.029457,-4737.318029,536.266849,-3330.926739
1479.029768,-9918.759623,689.485948,-2886.803174
1479.030080,-13693.809927,153.219100,-1332.370696
1479.030391,-12065.356855,-1532.190996,-1480.411884
1479.030702,-9474.636058,-1072.533697,-2294.638420
1479.031014,-7254.018232,-612.876398,-2368.659014
1479.031325,-7846.182985,-689.485948,-2220.617826
1479.031636,-11177.109724,-1532.190996,-1036.288319
1479.031947,-13397.727550,-842.705048,888.247130
1479.032259,-14137.933492,306.438199,2664.741391
1479.032570,-10584.944971,919.314598,1702.473667
1479.032881,-6069.688724,306.438199,-518.144159
1479.033193,-2812.782580,-383.047749,-3997.112087
1479.033504,-740.205942,-995.924147,-5773.606348
1479.033815,-3108.864956,1225.752797,-5551.544565
1479.034127,-8142.265362,2451.505594,-2960.823768
1479.034438,-12065.356855,-766.095498,-1258.350101
1479.034749,-14211.954086,-2757.943793,-148.041188
1479.035061,-13619.789333,-1378.971896,1554.432478
1479.035372,-11621.233289,1072.533697,3701.029710
1479.035683,-11695.253884,383.047749,4219.173869
1479.035994,-13619.789333,-2298.286494,3552.988522
1479.036306,-11843.295072,-2374.896044,2812.782580
1479.036617,-8068.244768,689.485948,1406.391290
1479.036928,-3552.988522,2374.896044,-1258.350101
1479.037240,-1258.350101,612.876398,-4145.153275
1479.037551,-1480.411884,-842.705048,-5921.647536
1479.037862,-3034.844362,-1838.629195,-3923.091493
1479.038174,-7254.018232,-689.485948,-814.226536
1479.038485,-14952.160028,536.266849,2664.741391
1479.038796,-21762.054695,76.609550,6513.812290
1479.039108,-22280.198854,-842.705048,6291.750507
1479.039419,-17468.860231,0.000000,5403.503377
1479.039730,-9474.636058,2528.115143,2294.638420
1479.040041,-4589.276840,1762.019645,814.226536
1479.040353,-1258.350101,-459.657299,-1702.473667
1479.040664,1332.370696,-612.876398,-2886.803174
1479.040975,-666.185348,383.047749,-1850.514855
1479.041287,-5551.544565,536.266849,222.061783
1479.041598,-9252.574275,919.314598,2146.597232
1479.041909,-10807.006753,-995.924147,1184.329507
1479.042221,-11621.233289,-306.438199,2294.638420
1479.042532,-11473.192101,1225.752797,2886.803174
1479.042843,-12065.356855,2528.115143,3478.967927
1479.043155,-11399.171507,2528.115143,2960.823768
1479.043466,-9030.512492,306.438199,2590.720797
1479.043777,-6291.750507,536.266849,2664.741391
1479.044088,-5033.400406,1302.362347,1702.473667
1479.044400,-5181.441594,842.705048,1924.535449
1479.044711,-5255.462188,-2068.457845,-222.061783
1479.045022,-5699.585753,-2145.067394,-1036.288319
1479.045334,-4737.318029,-1302.362347,-888.247130
1479.045645,-5773.606348,-2145.067394,-1776.494261
1479.045956,-8438.347739,-2374.896044,-592.164754
1479.046268,-10288.862594,-2681.334243,1258.350101
1479.046579,-12435.459826,-1608.800546,3034.844362
1479.046890,-15100.201217,-612.876398,4663.297435
1479.047202,-17246.798449,612.876398,5551.544565
1479.047513,-15026.180623,0.000000,5329.482782
1479.047824,-10288.862594,0.000000,3108.864956
1479.048135,-6735.874072,153.219100,-222.061783
1479.048447,-4589.276840,766.095498,-3330.926739
1479.048758,-2516.700203,229.828649,-4737.318029
1479.049069,-2368.659014,76.609550,-5181.441594
1479.049381,-5477.523971,-689.485948,-3849.070898
1479.049692,-10658.965565,459.657299,-1184.329507
1479.050003,-15174.221811,842.705048,2368.659014
1479.050315,-16876.695478,0.000000,4885.359217
1479.050626,-16728.654289,153.219100,4811.338623
1479.050937,-14137.933492,1838.629195,4737.318029
1479.051249,-10066.800811,1378.971896,2886.803174
1479.051560,-4219.173869,612.876398,-1850.514855
1479.051871,444.123565,2068.457845,-4737.318029
1479.052182,222.061783,3140.991542,-4293.194464
1479.052494,-4293.194464,766.095498,-3108.864956
1479.052805,-9844.739029,-1608.800546,-2294.638420
1479.053116,-13989.892304,-1532.190996,-0.000000
1479.053428,-14508.036463,-1915.238745,1702.473667
1479.053739,-12065.356855,-1455.581446,1998.556043
1479.054050,-9770.718434,-1608.800546,740.205942
1479.054362,-9474.636058,-2145.067394,1702.473667
1479.054673,-5773.606348,-1455.581446,740.205942
1479.054984,-6217.729913,-1149.143247,1480.411884
1479.055295,-7550.100608,153.219100,1628.453072
1479.055607,-7624.121203,383.047749,1702.473667
1479.055918,-7920.203579,229.828649,518.144159
1479.056229,-7179.997637,689.485948,-740.205942
1479.056541,-7105.977043,76.609550,-1110.308913
1479.056852,-8142.265362,-2221.676944,-3034.844362
1479.057163,-9030.512492,-995.924147,-1480.411884
1479.057475,-9918.759623,-919.314598,-1036.288319
1479.057786,-10955.047942,-612.876398,-592.164754
1479.058097,-11325.150913,229.828649,1332.370696
1479.058409,-10807.006753,1532.190996,2072.576638
1479.058720,-10658.965565,689.485948,4441.235652
1479.059031,-11399.171507,76.609550,2738.761985
1479.059342,-10807.006753,383.047749,1850.514855
1479.059654,-7476.080014,689.485948,-666.185348
1479.059965,-5033.400406,1149.143247,-2368.659014
1479.060276,-5773.606348,1378.971896,-4293.194464
1479.060588,-7402.059420,76.609550,-3849.070898
1479.060899,-10362.883188,-1455.581446,-2368.659014
1479.061210,-13471.748144,-1685.410096,444.123565
1479.061522,-14730.098246,-689.485948,2664.741391
1479.061833,-13101.645173,0.000000,2812.782580
1479.062144,-11029.068536,-229.828649,2886.803174
1479.062456,-8290.306550,-459.657299,3108.864956
1479.062767,-4885.359217,76.609550,592.164754
1479.063078,-2442.679609,1455.581446,-296.082377
1479.063389,-3627.009116,919.314598,-2516.700203
1479.063701,-5329.482782,1072.533697,-1998.556043
1479.064012,-8364.327145,1685.410096,-1406.391290
1479.064323,-11325.150913,995.924147,-0.000000
1479.064635,-12879.583391,-995.924147,1110.308913
1479.064946,-13915.871710,-2604.724693,2590.720797
1479.065257,-13471.748144,-2298.286494,3701.029710
1479.065569,-11325.150913,-1149.143247,3997.112087
1479.065880,-9400.615463,-1072.533697,2664.741391
1479.066191,-6365.771101,536.266849,2368.659014
1479.066503,-3701.029710,1225.752797,1184.329507
1479.066814,-2442.679609,1302.362347,1480.411884
1479.067125,-3627.009116,-229.828649,740.205942
1479.067436,-5551.544565,-153.219100,962.267725
1479.067748,-8734.430116,76.609550,444.123565
1479.068059,-11399.171507,612.876398,1184.329507
1479.068370,-14285.974681,1225.752797,2294.638420
1479.068682,-16876.695478,766.095498,3330.926739
1479.068993,-14656.077652,-842.705048,4515.256246
1479.069304,-9844.739029,-2757.943793,1850.514855
1479.069616,-4737.318029,-1608.800546,888.247130
1479.069927,-2368.659014,919.314598,2072.576638
1479.070238,-4959.379811,842.705048,2072.576638
1479.070550,-8216.285956,612.876398,2368.659014
1479.070861,-9474.636058,306.438199,2294.638420
1479.071172,-8216.285956,-689.485948,1554.432478
1479.071483,-3849.070898,-153.219100,444.123565
1479.071795,-3330.926739,-383.047749,-2442.679609
1479.072106,-4515.256246,-1302.362347,-3478.967927
1479.072417,-6735.874072,-1991.848295,-3404.947333
1479.072729,-10066.800811,306.438199,-0.000000
1479.073040,-15396.283594,2451.505594,3849.070898
1479.073351,-19985.560434,1455.581446,5551.544565
1479.073663,-19097.313304,689.485948,4959.379811
1479.073974,-12731.542202,1455.581446,1406.391290
1479.074285,-2738.761985,3600.648841,-2590.720797
1479.074597,3849.070898,3983.696590,-6661.853478
1479.074908,3923.091493,2221.676944,-9622.677246
1479.075219,592.164754,383.047749,-7254.018232
1479.075530,-7105.977043,-1915.238745,-4145.153275
1479.075842,-15544.324782,-3064.381992,1554.432478
1479.076153,-21539.992912,-3140.991542,4811.338623
1479.076464,-21169.889941,-3064.381992,5551.544565
1479.076776,-17320.819043,-3983.696590,4219.173869
1479.077087,-12435.459826,-3064.381992,2146.597232
1479.077398,-7550.100608,-995.924147,-740.205942
1479.077710,-5551.544565,459.657299,-2368.659014
1479.078021,-5255.462188,1149.143247,-3775.050304
1479.078332,-7550.100608,689.485948,-2886.803174
1479.078644,-9030.512492,1685.410096,-1406.391290
1479.078955,-8882.471304,229.828649,-1036.288319
1479.079266,-7920.203579,76.609550,-1184.329507
1479.079577,-7772.162391,-1991.848295,-0.000000
1479.079889,-9474.636058,-3370.820191,1184.329507
1479.080200,-11769.274478,-3753.867940,888.247130
1479.080511,-14063.912898,-919.314598,2072.576638
1479.080823,-13693.809927,1149.143247,3256.906145
1479.081134,-11991.336260,1608.800546,2590.720797
1479.081445,-8956.491898,919.314598,2886.803174
1479.081757,-5847.626942,1685.410096,1184.329507
1479.082068,-4737.318029,1455.581446,666.185348
1479.082379,-4589.276840,766.095498,-962.267725
1479.082691,-4293.194464,1532.190996,-1776.494261
1479.083002,-5921.647536,1378.971896,-2812.782580
1479.083313,-6365.771101,1455.581446,-1036.288319
1479.083624,-7698.141797,612.876398,-962.267725
1479.083936,-10288.862594,-536.266849,888.247130
1479.084247,-11325.150913,-1149.143247,4071.132681
1479.084558,-11917.315666,-766.095498,5255.462188
1479.084870,-12435.459826,0.000000,4737.318029
1479.085181,-10510.924376,919.314598,4219.173869
1479.085492,-7920.203579,459.657299,1924.535449
1479.085804,-4515.256246,1608.800546,592.164754
1479.086115,-2368.659014,1455.581446,-740.205942
1479.086426,-2886.803174,-306.438199,-1628.453072
1479.086738,-4293.194464,-1685.410096,-1628.453072
1479.087049,-6291.750507,-1302.362347,-740.205942
1479.087360,-9252.574275,229.828649,962.267725
1479.087671,-13101.645173,0.000000,5181.441594
1479.087983,-16580.613101,-2451.505594,6735.874072
1479.088294,-15174.221811,-4673.182538,5773.606348
1479.088605,-10436.903782,-3907.087040,2368.659014
1479.088917,-5403.503377,459.657299,1628.453072
1479.089228,-4219.173869,2451.505594,296.082377
1479.089539,-7105.977043,459.657299,-1184.329507
1479.089851,-10214.842000,-1378.971896,-1850.514855
1479.090162,-9992.780217,-383.047749,-0.000000
1479.090473,-9992.780217,153.219100,888.247130
1479.090784,-10584.944971,689.485948,1406.391290
1479.091096,-11325.150913,-1225.752797,-592.164754
1479.091407,-10658.965565,-2145.067394,-0.000000
1479.091718,-8660.409521,76.609550,1332.370696
1479.092030,-8068.244768,1915.238745,666.185348
1479.092341,-9178.553681,1225.752797,-0.000000
1479.092652,-8808.450710,153.219100,-888.247130
1479.092964,-7698.141797,612.876398,-2220.617826
1479.093275,-7254.018232,2834.553343,-3775.050304
1479.093586,-6735.874072,3983.696590,-3182.885551
1479.093898,-8586.388927,2221.676944,-2886.803174
1479.094209,-10436.903782,-383.047749,-1924.535449
1479.094520,-11177.109724,-1838.629195,-1702.473667
1479.094831,-11177.109724,-153.219100,-1406.391290
1479.095143,-11843.295072,1608.800546,-296.082377
1479.095454,-11029.068536,459.657299,740.205942
1479.095765,-10140.821405,-612.876398,-444.123565
1479.096077,-8364.327145,-306.438199,740.205942
1479.096388,-7105.977043,229.828649,814.226536
1479.096699,-6143.709319,-612.876398,-0.000000
1479.097011,-5551.544565,-1762.019645,-1628.453072
1479.097322,-5033.400406,-1915.238745,-2442.679609
1479.097633,-6661.853478,-1762.019645,-2368.659014
1479.097945,-9104.533087,-1072.533697,-1110.308913
1479.098256,-12509.480420,0.000000,666.185348
1479.098567,-14211.954086,-1455.581446,3108.864956
1479.098878,-14211.954086,-3907.087040,4663.297435
1479.099190,-14137.933492,-3524.039291,4293.194464
1479.099501,-11843.295072,-612.876398,3182.885551
1479.099812,-8142.265362,842.705048,888.247130
1479.100124,-4959.379811,689.485948,-0.000000
1479.100435,-3108.864956,1378.971896,-1184.329507
1479.100746,-4663.297435,995.924147,-1702.473667
1479.101058,-5107.421000,689.485948,-1406.391290
1479.101369,-7402.059420,766.095498,-814.226536
1479.101680,-10288.862594,1302.362347,740.205942
1479.101992,-12731.542202,766.095498,2738.761985
1479.102303,-13693.809927,-1378.971896,3108.864956
1479.102614,-12139.377449,-1838.629195,4145.153275
1479.102925,-10584.944971,-919.314598,3849.070898
1479.103237,-9844.739029,689.485948,3404.947333
1479.103548,-10288.862594,1608.800546,2738.761985
1479.103859,-7772.162391,1149.143247,1184.329507
1479.104171,-3701.029710,995.924147,-592.164754
1479.104482,-370.102971,2528.115143,-1480.411884
1479.104793,-2220.617826,2911.162892,-1776.494261
1479.105105,-6217.729913,1532.190996,-888.247130
1479.105416,-9474.636058,0.000000,-444.123565
1479.105727,-11251.130318,153.219100,1480.411884
1479.106039,-11325.150913,-995.924147,3256.906145
1479.106350,-12139.377449,-1455.581446,3108.864956
1479.106661,-12509.480420,-1685.410096,3552.988522
1479.106972,-10362.883188,-1378.971896,2664.741391
1479.107284,-8734.430116,-1072.533697,2368.659014
1479.107595,-7328.038826,-689.485948,1924.535449
1479.107906,-7476.080014,-383.047749,-0.000000
1479.108218,-6587.832884,306.438199,-592.164754
1479.108529,-4515.256246,1302.362347,-1184.329507
1479.108840,-4071.132681,995.924147,-2294.638420
1479.109152,-6217.729913,-306.438199,-2516.700203
1479.109463,-8734.430116,-1378.971896,-1406.391290
1479.109774,-10214.842000,-1378.971896,740.205942
1479.110086,-13175.665768,-766.095498,1776.494261
1479.110397,-15914.427753,-229.828649,2442.679609
1479.110708,-17246.798449,-766.095498,3034.844362
1479.111019,-14285.974681,-766.095498,3256.906145
1479.111331,-10436.903782,-536.266849,1924.535449
1479.111642,-7698.141797,-229.828649,-370.102971
1479.111953,-5477.523971,229.828649,-1406.391290
1479.112265,-4145.153275,689.485948,-3552.988522
1479.112576,-2294.638420,1838.629195,-4293.194464
1479.112887,-3849.070898,1762.019645,-3108.864956
1479.113199,-8142.265362,0.000000,-1258.350101
1479.113510,-11843.295072,-1072.533697,-0.000000
1479.113821,-12731.542202,-153.219100,1184.329507
1479.114133,-13175.665768,1072.533697,1332.370696
1479.114444,-12879.583391,2374.896044,1776.494261
1479.114755,-11621.233289,536.266849,1258.350101
1479.115066,-9770.718434,-76.609550,148.041188
1479.115378,-5847.626942,229.828649,-666.185348
1479.115689,-4367.215058,1532.190996,-2368.659014
1479.116000,-4811.338623,1915.238745,-2664.741391
1479.116311,-5921.647536,1915.238745,-1924.535449
1479.116623,-8734.430116,0.000000,-814.226536
1479.116934,-9030.512492,-383.047749,740.205942
1479.117245,-8438.347739,-766.095498,1110.308913
1479.117557,-9622.677246,-1685.410096,1258.350101
1479.117868,-10955.047942,-2068.457845,2442.679609
1479.118179,-10732.986159,-1838.629195,2516.700203
1479.118490,-10807.006753,-1225.752797,2368.659014
1479.118802,-11325.150913,-229.828649,2812.782580
1479.119113,-12139.377449,919.314598,2516.700203
1479.119424,-11103.089130,612.876398,3404.947333
1479.119736,-6735.874072,-919.314598,1850.514855
1479.120047,-5033.400406,-2145.067394,-814.226536
1479.120358,-3997.112087,-1685.410096,-1702.473667
1479.120669,-5107.421000,612.876398,-0.000000
1479.120981,-8512.368333,153.219100,962.267725
1479.121292,-11473.192101,-766.095498,2442.679609
1479.121603,-14285.974681,-1455.581446,4145.153275
1479.121914,-13767.830521,-1302.362347,5551.544565
1479.122226,-9400.615463,-153.219100,4663.297435
1479.122537,-6365.771101,76.609550,1924.535449
1479.122848,-7105.977043,689.485948,-0.000000
1479.123160,-8216.285956,1302.362347,-148.041188
1479.123471,-7624.121203,766.095498,-962.267725
1479.123782,-6957.935855,919.314598,-1332.370696
1479.124093,-8734.430116,995.924147,-814.226536
1479.124405,-8882.471304,-306.438199,-518.144159
1479.124716,-8438.347739,229.828649,-1628.453072
1479.125027,-8734.430116,1378.971896,-296.082377
1479.125339,-8882.471304,1685.410096,1850.514855
1479.125650,-9770.718434,383.047749,2442.679609
1479.125961,-10955.047942,-153.219100,1924.535449
1479.126272,-10214.842000,995.924147,962.267725
1479.126584,-8438.347739,1838.629195,-296.082377
1479.126895,-4737.318029,2757.943793,-2368.659014
1479.127206,-3552.988522,2068.457845,-4071.132681
1479.127518,-5921.647536,536.266849,-3552.988522
1479.127829,-8956.491898,-1149.143247,-1332.370696
1479.128140,-10807.006753,-1532.190996,296.082377
1479.128451,-12509.480420,-1762.019645,1258.350101
1479.128763,-13323.706956,-2221.676944,2368.659014
1479.129074,-11251.130318,-2604.724693,2812.782580
1479.129385,-8734.430116,-1225.752797,1406.391290
1479.129696,-6143.709319,76.609550,-0.000000
1479.130008,-5477.523971,-612.876398,296.082377
1479.130319,-7105.977043,-1225.752797,-74.020594
1479.130630,-7772.162391,0.000000,-74.020594
1479.130942,-8956.491898,459.657299,-370.102971
1479.131253,-10510.924376,-459.657299,-222.061783
1479.131564,-11029.068536,-306.438199,296.082377
1479.131875,-10955.047942,-1149.143247,-296.082377
1479.132187,-10288.862594,-1685.410096,1480.411884
1479.132498,-10658.965565,-2451.505594,2886.803174
1479.132809,-11695.253884,-2911.162892,2072.576638
1479.133121,-11769.274478,-1608.800546,1924.535449
1479.133432,-9400.615463,229.828649,1776.494261
1479.133743,-8586.388927,2068.457845,1554.432478
1479.134054,-8142.265362,2911.162892,518.144159
1479.134366,-7105.977043,919.314598,-0.000000
1479.134677,-5551.544565,383.047749,-1332.370696
1479.134988,-5107.421000,1685.410096,-1184.329507
1479.135299,-6439.791695,2145.067394,-1628.453072
1479.135611,-9474.636058,1532.190996,-1702.473667
1479.135922,-13249.686362,1302.362347,1036.288319
1479.136233,-14656.077652,842.705048,2886.803174
1479.136545,-13471.748144,0.000000,4219.173869
1479.136856,-9992.780217,-1915.238745,3108.864956
1479.137167,-6291.750507,-2145.067394,296.082377
1479.137478,-2072.576638,383.047749,-148.041188
1479.137790,-1554.432478,2298.286494,-0.000000
1479.138101,-4959.379811,1838.629195,-74.020594
1479.138412,-9104.533087,-1072.533697,592.164754
1479.138724,-10584.944971,-2221.676944,1406.391290
1479.139035,-8290.306550,-1225.752797,666.185348
1479.139346,-7476.080014,229.828649,148.041188
1479.139657,-8734.430116,-1072.533697,-666.185348
1479.139969,-8956.491898,-2987.772442,-370.102971
1479.140280,-10288.862594,-3907.087040,518.144159
1479.140591,-12731.542202,-1991.848295,2590.720797
1479.140902,-15174.221811,0.000000,4737.318029
1479.141214,-15322.262999,-1302.362347,3034.844362
1479.141525,-11621.233289,-995.924147,2072.576638
1479.141836,-5329.482782,-459.657299,-666.185348
1479.142148,-1110.308913,842.705048,-2294.638420
1479.142459,-1628.453072,1378.971896,-2960.823768
1479.142770,-4145.153275,-153.219100,-2516.700203
1479.143081,-9104.533087,-1685.410096,-1480.411884
1479.143393,-12509.480420,-689.485948,148.041188
1479.143704,-14508.036463,1225.752797,2590.720797
1479.144015,-14878.139434,842.705048,1924.535449
1479.144327,-13101.645173,995.924147,1554.432478
1479.144638,-11547.212695,1072.533697,1110.308913
1479.144949,-9474.636058,1302.362347,740.205942
1479.145260,-8068.244768,689.485948,-0.000000
1479.145572,-6883.915261,842.705048,-1332.370696
1479.145883,-4219.173869,2068.457845,-2738.761985
1479.146194,-2738.761985,1838.629195,-3256.906145
1479.146505,-2812.782580,2451.505594,-3108.864956
1479.146817,-5477.523971,1072.533697,-370.102971
1479.147128,-9178.553681,-383.047749,1258.350101
1479.147439,-11843.295072,-1149.143247,2664.741391
1479.147751,-13693.809927,-1149.143247,3256.906145
1479.148062,-13397.727550,0.000000,3997.112087
1479.148373,-9474.636058,306.438199,1702.473667
1479.148684,-7179.997637,842.705048,-0.000000
1479.148996,-7105.977043,842.705048,962.267725
1479.149307,-7476.080014,-459.657299,592.164754
1479.149618,-9400.615463,-1378.971896,-74.020594
1479.149930,-8512.368333,-612.876398,-222.061783
1479.150241,-6217.729913,-1072.533697,-444.123565
1479.150552,-5773.606348,-689.485948,-592.164754
1479.150863,-8512.368333,-842.705048,-296.082377
1479.151175,-11991.336260,-1302.362347,1702.473667
1479.151486,-13175.665768,-1455.581446,4145.153275
1479.151797,-12731.542202,-1072.533697,6143.709319
1479.152108,-11621.233289,-1915.238745,4293.194464
1479.152420,-9696.697840,-612.876398,2442.679609
1479.152731,-8586.388927,1378.971896,1628.453072
1479.153042,-7105.977043,1302.362347,814.226536
1479.153354,-6365.771101,1225.752797,592.164754
1479.153665,-9030.512492,-689.485948,-666.185348
1479.153976,-8956.491898,-1608.800546,-444.123565
1479.154287,-5995.668130,-689.485948,-1924.535449
1479.154599,-5921.647536,-153.219100,-2220.617826
1479.154910,-6587.832884,919.314598,-1554.432478
1479.155221,-8068.244768,306.438199,-666.185348
1479.155533,-10955.047942,-536.266849,1702.473667
1479.155844,-14211.954086,995.924147,3552.988522
1479.156155,-15248.242405,1378.971896,3849.070898
1479.156466,-12509.480420,2451.505594,1332.370696
1479.156778,-8068.244768,3370.820191,-1480.411884
1479.157089,-4367.215058,2451.505594,-3330.926739
1479.157400,-2664.741391,689.485948,-3775.050304
1479.157711,-3701.029710,0.000000,-4367.215058
1479.158023,-6069.688724,-766.095498,-3330.926739
1479.158334,-8660.409521,-1455.581446,-1702.473667
1479.158645,-10436.903782,-459.657299,370.102971
1479.158957,-11103.089130,-153.219100,1184.329507
1479.159268,-11843.295072,-306.438199,1702.473667
1479.159579,-11325.150913,-995.924147,2368.659014
1479.159890,-9696.697840,-383.047749,2072.576638
1479.160202,-9178.553681,153.219100,666.185348
1479.160513,-7920.203579,-383.047749,-888.247130
1479.160824,-7402.059420,0.000000,-2146.597232
1479.161136,-6513.812290,536.266849,-2664.741391
1479.161447,-6735.874072,-153.219100,-1998.556043
1479.161758,-8586.388927,-1991.848295,-518.144159
1479.162069,-11917.315666,-2834.553343,666.185348
1479.162381,-13471.748144,-2528.115143,2368.659014
1479.162692,-13545.768739,-2145.067394,3627.009116
1479.163003,-12435.459826,-689.485948,4589.276840
1479.163314,-10288.862594,0.000000,2812.782580
1479.163626,-7328.038826,0.000000,1998.556043
1479.163937,-5181.441594,0.000000,1554.432478
1479.164248,-4293.194464,76.609550,-0.000000
1479.164560,-5255.462188,995.924147,-592.164754
1479.164871,-7105.977043,689.485948,-222.061783
1479.165182,-9770.718434,0.000000,518.144159
1479.165493,-12583.501014,1225.752797,1036.288319
1479.165805,-14211.954086,1762.019645,2294.638420
1479.166116,-13323.706956,-536.266849,3108.864956
1479.166427,-10510.924376,-2221.676944,2294.638420
1479.166739,-6291.750507,-1072.533697,296.082377
1479.167050,-2294.638420,919.314598,-666.185348
1479.167361,-3034.844362,2911.162892,592.164754
1479.167672,-6883.915261,2451.505594,1850.514855
1479.167984,-9696.697840,689.485948,2960.823768
1479.168295,-9548.656652,-383.047749,2590.720797
1479.168606,-8882.471304,306.438199,1332.370696
1479.168918,-6439.791695,1302.362347,-444.123565
1479.169229,-4589.276840,536.266849,-2960.823768
1479.169540,-5699.585753,0.000000,-3478.967927
1479.169851,-8068.244768,-612.876398,-2220.617826
1479.170163,-9770.718434,-229.828649,666.185348
1479.170474,-14434.015869,-306.438199,2590.720797
1479.170785,-16728.654289,-689.485948,3997.112087
1479.171096,-14211.954086,-383.047749,3034.844362
1479.171408,-9030.512492,-153.219100,592.164754
1479.171719,-3627.009116,689.485948,-1036.288319
1479.172030,-1702.473667,0.000000,-3627.009116
1479.172342,-1480.411884,-2528.115143,-3997.112087
1479.172653,-4293.194464,-2451.505594,-4293.194464
1479.172964,-9696.697840,-1915.238745,-2368.659014
1479.173275,-13915.871710,-1685.410096,1184.329507
1479.173587,-16728.654289,-1608.800546,2886.803174
1479.173898,-17690.922014,-1378.971896,2960.823768
1479.174209,-16432.571912,-1378.971896,3478.967927
1479.174521,-14211.954086,-1149.143247,2072.576638
1479.174832,-10436.903782,995.924147,-74.020594
1479.175143,-6883.915261,2757.943793,-2220.617826
1479.175454,-3404.947333,1302.362347,-3701.029710
1479.175766,-1332.370696,919.314598,-4441.235652
1479.176077,-1258.350101,766.095498,-5033.400406
1479.176388,-3256.906145,1455.581446,-3997.112087
1479.176699,-8882.471304,919.314598,-1036.288319
1479.177011,-14285.974681,-383.047749,1406.391290
1479.177322,-17468.860231,0.000000,2590.720797
1479.177633,-17616.901420,0.000000,3034.844362
1479.177945,-13693.809927,459.657299,3034.844362
1479.178256,-8660.409521,2068.457845,592.164754
1479.178567,-5477.523971,2068.457845,-222.061783
1479.178878,-4441.235652,995.924147,-740.205942
1479.179190,-4885.359217,-153.219100,370.102971
1479.179501,-6365.771101,229.828649,888.247130
1479.179812,-7550.100608,919.314598,1924.535449
1479.180124,-7994.224174,0.000000,1554.432478
1479.180435,-8734.430116,0.000000,1702.473667
1479.180746,-7328.038826,-2374.896044,1628.453072
1479.181057,-5699.585753,-4979.620737,814.226536
1479.181369,-5329.482782,-3294.210641,1258.350101
1479.181680,-7994.224174,-459.657299,3034.844362
1479.181991,-11843.295072,306.438199,4589.276840
1479.182302,-15692.365970,-1225.752797,5921.647536
1479.182614,-15840.407159,-919.314598,6439.791695
1479.182925,-10881.027347,-689.485948,5699.585753
1479.183236,-6069.688724,689.485948,2442.679609
1479.183548,-2220.617826,1225.752797,-962.267725
1479.183859,-1184.329507,-153.219100,-3108.864956
1479.184170,-666.185348,-919.314598,-3256.906145
1479.184481,-2516.700203,383.047749,-1850.514855
1479.184793,-9030.512492,536.266849,1036.288319
1479.185104,-14285.974681,-1762.019645,3627.009116
1479.185415,-16654.633695,-2681.334243,4737.318029
1479.185727,-17024.736666,-306.438199,4145.153275
1479.186038,-14508.036463,2681.334243,3552.988522
1479.186349,-11399.171507,3370.820191,1184.329507
1479.186660,-8586.388927,2221.676944,-888.247130
1479.186972,-5255.462188,995.924147,-3034.844362
1479.187283,-4293.194464,383.047749,-4145.153275
1479.187594,-5033.400406,1685.410096,-4219.173869
1479.187905,-5625.565159,2528.115143,-4071.132681
1479.188217,-7105.977043,842.705048,-2886.803174
1479.188528,-10436.903782,-1072.533697,-814.226536
1479.188839,-12805.562797,-1225.752797,962.267725
1479.189151,-14211.954086,-766.095498,1998.556043
1479.189462,-13545.768739,612.876398,2072.576638
1479.189773,-9992.780217,383.047749,1110.308913
1479.190084,-8586.388927,612.876398,-740.205942
1479.190396,-6513.812290,842.705048,-1702.473667
1479.190707,-6069.688724,1149.143247,-2220.617826
1479.191018,-5477.523971,1225.752797,-962.267725
1479.191330,-6587.832884,-229.828649,-518.144159
1479.191641,-9326.594869,-2451.505594,-222.061783
1479.191952,-8956.491898,-4290.134789,-518.144159
1479.192263,-6957.935855,-2987.772442,-2294.638420
1479.192575,-6809.894666,0.000000,-2220.617826
1479.192886,-9178.553681,1225.752797,-444.123565
1479.193197,-12731.542202,-995.924147,1554.432478
1479.193508,-13989.892304,-2374.896044,3034.844362
1479.193820,-13545.768739,-1608.800546,3256.906145
1479.194131,-11695.253884,1225.752797,3182.885551
1479.194442,-8586.388927,1991.848295,2738.761985
1479.194754,-7624.121203,153.219100,222.061783
1479.195065,-5625.565159,-2221.676944,-666.185348
1479.195376,-4145.153275,-2451.505594,-1776.494261
1479.195687,-6291.750507,-229.828649,814.226536
1479.195999,-10881.027347,612.876398,2072.576638
1479.196310,-15322.262999,-1225.752797,2146.597232
1479.196621,-14878.139434,-1225.752797,2960.823768
1479.196933,-10584.944971,459.657299,3701.029710
1479.197244,-5477.523971,1608.800546,2886.803174
1479.197555,-3552.988522,919.314598,1332.370696
1479.197866,-4663.297435,842.705048,-518.144159
1479.198178,-5107.421000,919.314598,-74.020594
1479.198489,-6513.812290,2374.896044,444.123565
1479.198800,-9474.636058,2604.724693,1258.350101
1479.199111,-11251.130318,1685.410096,1776.494261
1479.199423,-9844.739029,-1149.143247,666.185348
1479.199734,-7920.203579,-1378.971896,-222.061783
1479.200045,-7328.038826,0.000000,518.144159
1479.200357,-8438.347739,-306.438199,370.102971
1479.200668,-9548.656652,-919.314598,1480.411884
1479.200979,-9622.677246,0.000000,2442.679609
1479.201290,-9622.677246,842.705048,1998.556043
1479.201602,-9326.594869,1762.019645,1554.432478
1479.201913,-6957.935855,1838.629195,740.205942
1479.202224,-4811.338623,306.438199,-2294.638420
1479.202536,-4219.173869,-919.314598,-2738.761985
1479.202847,-6735.874072,-766.095498,-1850.514855
1479.203158,-10436.903782,-842.705048,-1110.308913
1479.203469,-12583.501014,-2451.505594,814.226536
1479.203781,-14063.912898,-3370.820191,2294.638420
1479.204092,-14211.954086,-2604.724693,2960.823768
1479.204403,-13397.727550,-766.095498,2960.823768
1479.204714,-11177.109724,459.657299,2072.576638
1479.205026,-8438.347739,766.095498,2146.597232
1479.205337,-6587.832884,536.266849,666.185348
1479.205648,-5181.441594,766.095498,-0.000000
1479.205960,-5181.441594,995.924147,-1924.535449
1479.206271,-4071.132681,0.000000,-2294.638420
1479.206582,-3849.070898,-1225.752797,-2590.720797
1479.206893,-7105.977043,-1608.800546,-3552.988522
1479.207205,-10436.903782,689.485948,-370.102971
1479.207516,-15840.407159,766.095498,2220.617826
1479.207827,-19319.375086,-306.438199,5033.400406
1479.208139,-19393.395680,-995.924147,5551.544565
1479.208450,-16136.489536,-842.705048,3849.070898
1479.208761,-8956.491898,1991.848295,2664.741391
1479.209072,-2368.659014,3294.210641,-296.082377
1479.209384,2368.659014,2451.505594,-3478.967927
1479.209695,3256.906145,383.047749,-6069.688724
1479.210006,-518.144159,995.924147,-2886.803174
1479.210318,-6661.853478,1455.581446,148.041188
1479.210629,-12435.459826,306.438199,2442.679609
1479.210940,-17098.757260,-536.266849,3404.947333
1479.211251,-17690.922014,-3370.820191,3997.112087
1479.211563,-13397.727550,-2068.457845,3923.091493
1479.211874,-9696.697840,-229.828649,1998.556043
1479.212185,-5995.668130,-306.438199,370.102971
1479.212496,-5181.441594,-1225.752797,-962.267725
1479.212808,-4959.379811,-995.924147,-1036.288319
1479.213119,-4515.256246,1762.019645,-444.123565
1479.213430,-5699.585753,2911.162892,-148.041188
1479.213742,-7772.162391,1302.362347,518.144159
1479.214053,-7179.997637,-1378.971896,-296.082377
1479.214364,-6365.771101,-2451.505594,-1258.350101
1479.214675,-6957.935855,-766.095498,-1184.329507
1479.214987,-7920.203579,-229.828649,-814.226536
1479.215298,-9548.656652,-1225.752797,-444.123565
1479.215609,-12287.418637,-1838.629195,592.164754
1479.215921,-15914.427753,-1838.629195,2220.617826
1479.216232,-15544.324782,-1762.019645,4367.215058
1479.216543,-14063.912898,229.828649,3256.906145
1479.216855,-11325.150913,383.047749,1184.329507
1479.217166,-8882.471304,-842.705048,-1480.411884
1479.217477,-5847.626942,459.657299,-3775.050304
1479.217789,-3182.885551,2451.505594,-5033.400406
1479.218100,-3330.926739,1685.410096,-3775.050304
1479.218411,-7920.203579,-689.485948,-1554.432478
1479.218723,-12657.521608,-1532.190996,666.185348
1479.219034,-14582.057057,-919.314598,2220.617826
1479.219345,-15692.365970,-229.828649,3627.009116
1479.219657,-14952.160028,1302.362347,4145.153275
1479.219968,-13397.727550,1225.752797,1776.494261
1479.220279,-11547.212695,919.314598,296.082377
1479.220591,-7550.100608,536.266849,-592.164754
1479.220902,-4737.318029,1762.019645,-1850.514855
1479.221213,-2072.576638,76.609550,-2590.720797
1479.221525,-1258.350101,-306.438199,-3923.091493
1479.221836,-3034.844362,-842.705048,-2516.700203
1479.222147,-6069.688724,0.000000,-370.102971
1479.222458,-11325.150913,842.705048,2738.761985
1479.222770,-16654.633695,-689.485948,4293.194464
1479.223081,-17987.004391,-1838.629195,6439.791695
1479.223392,-13693.809927,-1225.752797,5181.441594
1479.223704,-7624.121203,-153.219100,1554.432478
1479.224015,-1850.514855,0.000000,-518.144159
1479.224326,222.061783,-229.828649,-1554.432478
1479.224638,-1850.514855,-612.876398,148.041188
1479.224949,-5107.421000,-766.095498,2368.659014
1479.225260,-11325.150913,-2451.505594,3849.070898
1479.225572,-12213.398043,-2987.772442,4515.256246
1479.225883,-9770.718434,-919.314598,3627.009116
1479.226194,-7402.059420,-536.266849,2072.576638
1479.226506,-4885.359217,0.000000,1850.514855
1479.226817,-6069.688724,-306.438199,-222.061783
1479.227128,-5329.482782,229.828649,1554.432478
1479.227440,-7994.224174,842.705048,2368.659014
1479.227751,-11325.150913,1532.190996,2960.823768
1479.228062,-11917.315666,2681.334243,2886.803174
1479.228374,-11177.109724,2451.505594,1184.329507
1479.228685,-9918.759623,1532.190996,-148.041188
1479.228996,-8142.265362,536.266849,-666.185348
1479.229307,-6735.874072,153.219100,-2146.597232
1479.229619,-7105.977043,-229.828649,-2886.803174
1479.229930,-9104.533087,-1225.752797,-1924.535449
1479.230241,-10214.842000,-1608.800546,-0.000000
1479.230553,-10436.903782,76.609550,1332.370696
1479.230864,-12065.356855,459.657299,1924.535449
1479.231175,-12731.542202,-459.657299,2738.761985
1479.231487,-12953.603985,0.000000,1406.391290
1479.231798,-10658.965565,1378.971896,-1110.308913
1479.232109,-8808.450710,2528.115143,-3330.926739
1479.232421,-7254.018232,1685.410096,-4367.215058
1479.232732,-6587.832884,1762.019645,-4663.297435
1479.233043,-7105.977043,153.219100,-4515.256246
1479.233355,-8512.368333,-1455.581446,-2738.761985
1479.233666,-11177.109724,-2374.896044,1110.308913
1479.233977,-14137.933492,-1991.848295,3108.864956
1479.234289,-14656.077652,-1762.019645,4145.153275
1479.234600,-12657.521608,-2451.505594,3923.091493
1479.234911,-9030.512492,-1532.190996,2368.659014
1479.235223,-4737.318029,1149.143247,148.041188
1479.235534,-1332.370696,612.876398,-2072.576638
1479.235845,370.102971,-689.485948,-3552.988522
1479.236157,-592.164754,-459.657299,-4441.235652
1479.236468,-4293.194464,689.485948,-2368.659014
1479.236779,-11473.192101,1072.533697,444.123565
1479.237090,-17616.901420,76.609550,3330.926739
1479.237402,-18653.189738,-1225.752797,5403.503377
1479.237713,-16728.654289,-2604.724693,3849.070898
1479.238024,-10732.986159,-2528.115143,2146.597232
1479.238336,-4515.256246,-229.828649,-1702.473667
1479.238647,-592.164754,1225.752797,-2220.617826
1479.238958,-2368.659014,1149.143247,-1110.308913
1479.239270,-7254.018232,536.266849,1258.350101
1479.239581,-10955.047942,-612.876398,2812.782580
1479.239892,-11843.295072,-689.485948,4885.359217
1479.240204,-10436.903782,229.828649,3182.885551
1479.240515,-8216.285956,-229.828649,222.061783
1479.240826,-6661.853478,-1072.533697,-1110.308913
1479.241138,-6957.935855,-536.266849,-1924.535449
1479.241449,-9622.677246,459.657299,518.144159
1479.241760,-12731.542202,459.657299,1924.535449
1479.242072,-15396.283594,-689.485948,3034.844362
1479.242383,-14359.995275,153.219100,3701.029710
1479.242694,-9992.780217,1838.629195,1998.556043
1479.243006,-5107.421000,3524.039291,592.164754
1479.243317,-2442.679609,2757.943793,-1554.432478
1479.243628,-3775.050304,1302.362347,-1554.432478
1479.243940,-5329.482782,153.219100,-1332.370696
1479.244251,-7328.038826,-995.924147,-962.267725
1479.244562,-9252.574275,-612.876398,-296.082377
1479.244873,-10807.006753,-766.095498,1258.350101
1479.245185,-10510.924376,-2221.676944,1776.494261
1479.245496,-12435.459826,-3140.991542,2294.638420
1479.245807,-13175.665768,-1685.410096,3997.112087
1479.246119,-13027.624579,-1455.581446,3330.926739
1479.246430,-11843.295072,-689.485948,2886.803174
1479.246741,-8438.347739,-153.219100,814.226536
1479.247053,-5255.462188,1072.533697,-1850.514855
1479.247364,-1998.556043,1532.190996,-2960.823768
1479.247675,0.000000,1685.410096,-3552.988522
1479.247987,-2368.659014,1225.752797,-2590.720797
1479.248298,-8586.388927,-842.705048,-0.000000
1479.248609,-13101.645173,-1608.800546,3404.947333
1479.248921,-16432.571912,-1991.848295,3552.988522
1479.249232,-16876.695478,-1302.362347,3923.091493
1479.249543,-14211.954086,-459.657299,2664.741391
1479.249855,-8882.471304,0.000000,814.226536
1479.250166,-3552.988522,689.485948,296.082377
1479.250477,-2516.700203,536.266849,-1776.494261
1479.250789,-3034.844362,76.609550,-3034.844362
1479.251100,-4367.215058,1762.019645,-2442.679609
1479.251411,-7179.997637,2911.162892,-1110.308913
1479.251722,-11473.192101,2604.724693,-370.102971
1479.252034,-13323.706956,1455.581446,1184.329507
1479.252345,-11547.212695,-612.876398,-0.000000
1479.252656,-8364.327145,-1762.019645,-1924.535449
1479.252968,-7476.080014,1149.143247,-1776.494261
1479.253279,-9104.533087,2451.505594,-74.020594
1479.253590,-13323.706956,1685.410096,1406.391290
1479.253902,-16062.468941,-536.266849,3552.988522
1479.254213,-15248.242405,-1072.533697,5033.400406
1479.254524,-10732.986159,-766.095498,4145.153275
1479.254836,-5625.565159,-1915.238745,-74.020594
1479.255147,-3404.947333,-2221.676944,-2738.761985
1479.255458,-1184.329507,-2451.505594,-4367.215058
1479.255770,-296.082377,-2221.676944,-3627.009116
1479.256081,-4737.318029,-1225.752797,-1184.329507
1479.256392,-11769.274478,-2451.505594,1258.350101
1479.256704,-16580.613101,-2451.505594,5403.503377
1479.257015,-18505.148550,-229.828649,5551.544565
1479.257326,-16358.551318,2298.286494,5181.441594
1479.257638,-10807.006753,2757.943793,3775.050304
1479.257949,-7328.038826,2374.896044,-0.000000
1479.258260,-4737.318029,2604.724693,-814.226536
1479.258572,-2368.659014,2145.067394,-3034.844362
1479.258883,-3849.070898,1149.143247,-3108.864956
1479.259194,-6735.874072,536.266849,-2516.700203
1479.259505,-5477.523971,-919.314598,-1406.391290
1479.259817,-6143.709319,-3370.820191,-888.247130
1479.260128,-7179.997637,-1685.410096,740.205942
1479.260439,-8068.244768,-1225.752797,1258.350101
1479.260751,-10288.862594,-1455.581446,1258.350101
1479.261062,-11843.295072,-536.266849,1998.556043
1479.261373,-12879.583391,842.705048,444.123565
1479.261685,-12361.439231,1762.019645,518.144159
1479.261996,-10066.800811,3140.991542,-1998.556043
1479.262307,-7105.977043,3370.820191,-3478.967927
1479.262619,-4663.297435,2068.457845,-4737.318029
1479.262930,-5995.668130,306.438199,-4663.297435
1479.263241,-6809.894666,-1149.143247,-3849.070898
1479.263553,-8068.244768,-2757.943793,-4219.173869
1479.263864,-8882.471304,-2604.724693,-2590.720797
1479.264175,-9178.553681,-1225.752797,-2516.700203
1479.264487,-11103.089130,-919.314598,-1776.494261
1479.264798,-10510.924376,0.000000,444.123565
1479.265109,-10658.965565,-842.705048,-370.102971
1479.265421,-10214.842000,-536.266849,-740.205942
1479.265732,-9770.718434,0.000000,-3627.009116
1479.266043,-9844.739029,995.924147,-3997.112087
1479.266355,-9696.697840,1532.190996,-4219.173869
1479.266666,-9622.677246,76.609550,-5181.441594
1479.266977,-8068.244768,-2298.286494,-5847.626942
1479.267288,-7550.100608,-2068.457845,-6365.771101
1479.267600,-7772.162391,0.000000,-4737.318029
1479.267911,-10584.944971,229.828649,-3997.112087
1479.268222,-13915.871710,76.609550,-1924.535449
1479.268534,-17838.963202,-1149.143247,-0.000000
1479.268845,-17320.819043,0.000000,1776.494261
1479.269156,-12805.562797,1762.019645,1554.432478
1479.269468,-8882.471304,2298.286494,444.123565
1479.269779,-4885.359217,153.219100,-3627.009116
1479.270090,-2072.576638,0.000000,-4737.318029
1479.270402,370.102971,-229.828649,-5699.585753
1479.270713,-888.247130,0.000000,-5773.606348
1479.271024,-6291.750507,0.000000,-3849.070898
1479.271336,-12139.377449,-1378.971896,-2738.761985
1479.271647,-15988.448347,-766.095498,-1036.288319
1479.271958,-15988.448347,1608.800546,962.267725
1479.272270,-14878.139434,2987.772442,1924.535449
1479.272581,-13027.624579,1532.190996,222.061783
1479.272892,-8364.327145,0.000000,-1628.453072
1479.273204,-4737.318029,-536.266849,-2886.803174
1479.273515,-1036.288319,383.047749,-3552.988522
1479.273826,-1406.391290,1838.629195,-3997.112087
1479.274138,-2664.741391,-306.438199,-3404.947333
1479.274449,-5477.523971,-1915.238745,-1554.432478
1479.274760,-9030.512492,-2374.896044,-444.123565
1479.275071,-10807.006753,0.000000,518.144159
1479.275383,-11621.233289,0.000000,-1184.329507
1479.275694,-11695.253884,-766.095498,-2368.659014
1479.276005,-10436.903782,153.219100,-3330.926739
1479.276317,-9326.594869,2068.457845,-4811.338623
1479.276628,-8290.306550,3600.648841,-3552.988522
1479.276939,-9030.512492,2987.772442,-2072.576638
1479.277251,-10066.800811,919.314598,296.082377
1479.277562,-9844.739029,-919.314598,1110.308913
1479.277873,-9474.636058,-2604.724693,666.185348
1479.278185,-8438.347739,-3447.429741,-666.185348
1479.278496,-7846.182985,-3753.867940,-2738.761985
1479.278807,-6365.771101,-3217.601092,-4515.256246
1479.279119,-6661.853478,-2757.943793,-5033.400406
1479.279430,-9474.636058,-1838.629195,-4071.132681
1479.279741,-13027.624579,-459.657299,-1998.556043
1479.280053,-15692.365970,536.266849,-370.102971
1479.280364,-15322.262999,1685.410096,1406.391290
1479.280675,-12583.501014,1378.971896,1702.473667
1479.280987,-8438.347739,459.657299,-962.267725
1479.281298,-4293.194464,1225.752797,-4071.132681
1479.281609,-740.205942,2374.896044,-6735.874072
1479.281920,-666.185348,1685.410096,-7328.038826
1479.282232,-4737.318029,1225.752797,-6513.812290
1479.282543,-10807.006753,1225.752797,-4071.132681
1479.282854,-15396.283594,229.828649,-1554.432478
1479.283166,-17024.736666,-1455.581446,740.205942
1479.283477,-15026.180623,-2068.457845,1258.350101
1479.283788,-11621.233289,-2145.067394,-518.144159
1479.284100,-6291.750507,-1532.190996,-2664.741391
1479.284411,-1702.473667,-536.266849,-4589.276840
1479.284722,-1110.308913,536.266849,-6069.688724
1479.285034,-3330.926739,1762.019645,-5773.606348
1479.285345,-8660.409521,1838.629195,-3997.112087
1479.285656,-13545.768739,1302.362347,-1110.308913
1479.285968,-16432.571912,1072.533697,148.041188
1479.286279,-16506.592507,-229.828649,-222.061783
1479.286590,-11621.233289,-689.485948,-2442.679609
1479.286902,-6809.894666,-306.438199,-4737.318029
1479.287213,-2812.782580,153.219100,-5847.626942
1479.287524,-2368.659014,-76.609550,-5921.647536
1479.287836,-4737.318029,-229.828649,-5699.585753
1479.288147,-7550.100608,-842.705048,-3849.070898
1479.288458,-9844.739029,-995.924147,-1702.473667
1479.288770,-10510.924376,-2451.505594,-370.102971
1479.289081,-11917.315666,-1532.190996,-1036.288319
1479.289392,-13027.624579,-1838.629195,-2664.741391
1479.289703,-11917.315666,-536.266849,-2738.761985
1479.290015,-11177.109724,76.609550,-3330.926739
1479.290326,-9178.553681,-459.657299,-3182.885551
1479.290637,-8808.450710,-1532.190996,-3182.885551
1479.290949,-7624.121203,-1991.848295,-3256.906145
1479.291260,-5181.441594,229.828649,-3849.070898
1479.291571,-4515.256246,536.266849,-3997.112087
1479.291883,-5625.565159,536.266849,-3701.029710
1479.292194,-9326.594869,-612.876398,-4071.132681
1479.292505,-12361.439231,383.047749,-3552.988522
1479.292817,-14730.098246,1915.238745,-3182.885551
1479.293128,-16358.551318,2604.724693,-2072.576638
1479.293439,-15248.242405,2068.457845,-1406.391290
1479.293751,-13323.706956,995.924147,-888.247130
1479.294062,-9178.553681,-153.219100,-148.041188
1479.294373,-6439.791695,-536.266849,-1110.308913
1479.294685,-3997.112087,-306.438199,-1776.494261
1479.294996,-2146.597232,0.000000,-3034.844362
1479.295307,-2886.803174,-689.485948,-4515.256246
1479.295619,-4441.235652,-612.876398,-4959.379811
1479.295930,-7994.224174,76.609550,-5033.400406
1479.296241,-11103.089130,1302.362347,-4145.153275
1479.296553,-13989.892304,1072.533697,-2738.761985
1479.296864,-15988.448347,-612.876398,-370.102971
1479.297175,-15692.365970,-1302.362347,1554.432478
1479.297486,-13767.830521,-1991.848295,2442.679609
1479.297798,-10510.924376,-2374.896044,2738.761985
1479.298109,-7254.018232,-2451.505594,1850.514855
