#time,accel_x,accel_y,accel_z
1255.585627,-8882.471304,0.000000,592.164754
1255.585938,-8882.471304,-229.828649,296.082377
1255.586250,-8290.306550,-153.219100,444.123565
1255.586561,-8956.491898,76.609550,-0.000000
1255.586873,-8882.471304,383.047749,518.144159
1255.587184,-8956.491898,-229.828649,666.185348
1255.587496,-8956.491898,-153.219100,592.164754
1255.587807,-9104.533087,0.000000,444.123565
1255.588119,-8956.491898,76.609550,370.102971
1255.588430,-8882.471304,0.000000,370.102971
1255.588742,-8882.471304,-459.657299,444.123565
1255.589053,-8734.430116,0.000000,444.123565
1255.589365,-9030.512492,0.000000,148.041188
1255.589676,-9030.512492,0.000000,518.144159
1255.589988,-8956.491898,0.000000,592.164754
1255.590299,-8882.471304,0.000000,518.144159
1255.590611,-8956.491898,0.000000,296.082377
1255.590922,-8734.430116,0.000000,296.082377
1255.591234,-8734.430116,-306.438199,370.102971
1255.591545,-8882.471304,0.000000,444.123565
1255.591857,-9104.533087,-383.047749,370.102971
1255.592168,-8808.450710,0.000000,518.144159
1255.592480,-9030.512492,0.000000,518.144159
1255.592791,-8808.450710,153.219100,666.185348
1255.593103,-8882.471304,153.219100,370.102971
1255.593414,-8956.491898,0.000000,444.123565
1255.593726,-8808.450710,-229.828649,444.123565
1255.594037,-9178.553681,-306.438199,592.164754
1255.594349,-8734.430116,0.000000,666.185348
1255.594660,-8956.491898,0.000000,592.164754
1255.594972,-8882.471304,-306.438199,592.164754
1255.595283,-8808.450710,-153.219100,666.185348
1255.595595,-8882.471304,0.000000,518.144159
1255.595906,-8734.430116,459.657299,222.061783
1255.596218,-8734.430116,-306.438199,518.144159
1255.596529,-8512.368333,-306.438199,444.123565
1255.596840,-9178.553681,-153.219100,518.144159
1255.597152,-8956.491898,-306.438199,296.082377
1255.597463,-9030.512492,-153.219100,518.144159
1255.597775,-8956.491898,0.000000,370.102971
1255.598086,-9104.533087,0.000000,148.041188
1255.598398,-8808.450710,229.828649,518.144159
1255.598709,-8660.409521,0.000000,518.144159
1255.599021,-8882.471304,383.047749,518.144159
1255.599332,-9178.553681,0.000000,444.123565
1255.599644,-8882.471304,0.000000,592.164754
1255.599955,-9030.512492,-229.828649,592.164754
1255.600267,-8808.450710,-76.609550,666.185348
1255.600578,-8660.409521,229.828649,444.123565
1255.600890,-8734.430116,0.000000,370.102971
1255.601201,-8808.450710,-229.828649,444.123565
1255.601513,-8956.491898,-153.219100,-0.000000
1255.601824,-8956.491898,-229.828649,518.144159
1255.602136,-8882.471304,0.000000,370.102971
1255.602447,-8956.491898,-306.438199,592.164754
1255.602759,-8882.471304,0.000000,592.164754
1255.603070,-8956.491898,306.438199,370.102971
1255.603382,-8808.450710,76.609550,222.061783
1255.603693,-8808.450710,76.609550,370.102971
1255.604005,-9030.512492,306.438199,814.226536
1255.604316,-8956.491898,76.609550,296.082377
1255.604628,-9178.553681,0.000000,518.144159
1255.604939,-8808.450710,0.000000,666.185348
1255.605251,-9030.512492,306.438199,444.123565
1255.605562,-8586.388927,0.000000,518.144159
1255.605874,-8660.409521,-459.657299,666.185348
1255.606185,-8734.430116,-306.438199,370.102971
1255.606497,-8734.430116,-153.219100,740.205942
1255.606808,-8808.450710,0.000000,444.123565
1255.607120,-8882.471304,0.000000,444.123565
1255.607431,-9030.512492,-306.438199,518.144159
1255.607742,-9030.512492,0.000000,518.144159
1255.608054,-9252.574275,459.657299,370.102971
1255.608365,-8734.430116,0.000000,518.144159
1255.608677,-9104.533087,0.000000,370.102971
1255.608988,-8956.491898,0.000000,444.123565
1255.609300,-9178.553681,0.000000,518.144159
1255.609611,-9104.533087,76.609550,296.082377
1255.609923,-8808.450710,76.609550,666.185348
1255.610234,-9104.533087,0.000000,444.123565
1255.610546,-8956.491898,229.828649,740.205942
1255.610857,-8956.491898,0.000000,740.205942
1255.611169,-8660.409521,-459.657299,518.144159
1255.611480,-8734.430116,0.000000,740.205942
1255.611792,-8808.450710,0.000000,592.164754
1255.612103,-8882.471304,0.000000,518.144159
1255.612415,-9104.533087,-459.657299,666.185348
1255.612726,-8808.450710,0.000000,518.144159
1255.613038,-9104.533087,0.000000,296.082377
1255.613349,-8808.450710,76.609550,444.123565
1255.613661,-9104.533087,-306.438199,370.102971
1255.613972,-8956.491898,-229.828649,740.205942
1255.614284,-9030.512492,0.000000,518.144159
1255.614595,-8808.450710,0.000000,444.123565
1255.614907,-8808.450710,0.000000,444.123565
1255.615218,-8586.388927,153.219100,444.123565
1255.615530,-8956.491898,-306.438199,370.102971
1255.615841,-8882.471304,-229.828649,592.164754
1255.616153,-8882.471304,-306.438199,296.082377
1255.616464,-8808.450710,0.000000,666.185348
1255.616776,-8808.450710,-306.438199,592.164754
1255.617087,-9030.512492,0.000000,518.144159
1255.617399,-8660.409521,-229.828649,518.144159
1255.617710,-9252.574275,0.000000,-0.000000
1255.618021,-8882.471304,383.047749,444.123565
1255.618333,-9030.512492,-306.438199,370.102971
1255.618644,-9104.533087,76.609550,444.123565
1255.618956,-9030.512492,0.000000,666.185348
1255.619267,-8956.491898,0.000000,518.144159
1255.619579,-8882.471304,0.000000,444.123565
1255.619890,-8734.430116,76.609550,444.123565
1255.620202,-8660.409521,-306.438199,444.123565
1255.620513,-8882.471304,-306.438199,592.164754
1255.620825,-8956.491898,0.000000,370.102971
1255.621136,-8882.471304,0.000000,592.164754
1255.621448,-8734.430116,0.000000,518.144159
1255.621759,-8882.471304,-229.828649,740.205942
1255.622071,-9030.512492,0.000000,518.144159
1255.622382,-9104.533087,-229.828649,592.164754
1255.622694,-9030.512492,153.219100,814.226536
1255.623005,-9696.697840,0.000000,296.082377
1255.623317,-11325.150913,995.924147,-0.000000
1255.623628,-10955.047942,3294.210641,444.123565
1255.623940,-8438.347739,4903.011187,592.164754
1255.624251,-7179.997637,3294.210641,1110.308913
1255.624563,-6291.750507,612.876398,1332.370696
1255.624874,-7550.100608,-1455.581446,-74.020594
1255.625186,-7105.977043,-919.314598,-370.102971
1255.625497,-8068.244768,-459.657299,-888.247130
1255.625809,-12583.501014,-919.314598,-1332.370696
1255.626120,-12065.356855,306.438199,-0.000000
1255.626432,-9992.780217,459.657299,666.185348
1255.626743,-8586.388927,-229.828649,2220.617826
1255.627055,-9030.512492,-612.876398,2368.659014
1255.627366,-11103.089130,1685.410096,1554.432478
1255.627678,-7328.038826,5209.449386,2294.638420
1255.627989,-5477.523971,4903.011187,2146.597232
1255.628301,-7920.203579,2911.162892,740.205942
1255.628612,-7624.121203,3064.381992,-740.205942
1255.628923,-8142.265362,3294.210641,-2220.617826
1255.629235,-9178.553681,3064.381992,-1036.288319
1255.629546,-8290.306550,3830.477490,-888.247130
1255.629858,-12805.562797,1455.581446,-1258.350101
1255.630169,-12361.439231,-1378.971896,1850.514855
1255.630481,-9178.553681,-1302.362347,2072.576638
1255.630792,-10881.027347,2068.457845,1406.391290
1255.631104,-7772.162391,6741.640382,2960.823768
1255.631415,-8068.244768,5286.058936,1332.370696
1255.631727,-6661.853478,3524.039291,2368.659014
1255.632038,-5699.585753,5592.497135,1628.453072
1255.632350,-7698.141797,7354.516781,222.061783
1255.632661,-8438.347739,6511.811733,-740.205942
1255.632973,-10436.903782,5132.839837,-1184.329507
1255.633284,-9548.656652,4903.011187,-2072.576638
1255.633596,-10066.800811,5592.497135,-962.267725
1255.633907,-11103.089130,4673.182538,-444.123565
1255.634219,-11251.130318,4136.915689,1776.494261
1255.634530,-11251.130318,3524.039291,1776.494261
1255.634842,-8734.430116,4749.792088,3034.844362
1255.635153,-6883.915261,4519.963438,1776.494261
1255.635465,-6217.729913,5898.935335,962.267725
1255.635776,-5255.462188,4903.011187,888.247130
1255.636088,-4811.338623,5209.449386,-666.185348
1255.636399,-5921.647536,4519.963438,-740.205942
1255.636711,-8512.368333,3753.867940,-740.205942
1255.637022,-10066.800811,2757.943793,-444.123565
1255.637334,-10955.047942,1302.362347,1110.308913
1255.637645,-10807.006753,383.047749,962.267725
1255.637957,-10807.006753,0.000000,1702.473667
1255.638268,-10362.883188,1378.971896,1702.473667
1255.638580,-8956.491898,2834.553343,1998.556043
1255.638891,-7772.162391,4136.915689,1258.350101
1255.639202,-6291.750507,3294.210641,814.226536
1255.639514,-6661.853478,3524.039291,222.061783
1255.639825,-7179.997637,3370.820191,-518.144159
1255.640137,-6735.874072,2298.286494,-1406.391290
1255.640448,-7624.121203,536.266849,-1480.411884
1255.640760,-8734.430116,-1915.238745,-666.185348
1255.641071,-10362.883188,-3370.820191,-0.000000
1255.641383,-11621.233289,-3907.087040,1406.391290
1255.641694,-13397.727550,-3217.601092,1998.556043
1255.642006,-13545.768739,-2528.115143,1406.391290
1255.642317,-12065.356855,-766.095498,1332.370696
1255.642629,-10658.965565,1532.190996,148.041188
1255.642940,-7994.224174,2298.286494,-370.102971
1255.643252,-5847.626942,2834.553343,-518.144159
1255.643563,-6661.853478,3294.210641,-0.000000
1255.643875,-7105.977043,3064.381992,888.247130
1255.644186,-7846.182985,1225.752797,740.205942
1255.644498,-10362.883188,0.000000,518.144159
1255.644809,-11103.089130,-995.924147,222.061783
1255.645121,-11917.315666,-1685.410096,-296.082377
1255.645432,-12509.480420,-2681.334243,-148.041188
1255.645744,-12805.562797,-1378.971896,-0.000000
1255.646055,-12287.418637,0.000000,296.082377
1255.646367,-10807.006753,1532.190996,814.226536
1255.646678,-8438.347739,3600.648841,740.205942
1255.646990,-6735.874072,3217.601092,740.205942
1255.647301,-4293.194464,3524.039291,888.247130
1255.647613,-1998.556043,2834.553343,814.226536
1255.647924,-1998.556043,1838.629195,-148.041188
1255.648236,-4663.297435,153.219100,-0.000000
1255.648547,-8808.450710,-1608.800546,-0.000000
1255.648859,-11991.336260,-2757.943793,444.123565
1255.649170,-13767.830521,-2451.505594,1258.350101
1255.649482,-14285.974681,-1762.019645,2072.576638
1255.649793,-13249.686362,-842.705048,1628.453072
1255.650104,-11769.274478,766.095498,1036.288319
1255.650416,-8956.491898,2221.676944,592.164754
1255.650727,-6365.771101,4290.134789,518.144159
1255.651039,-3552.988522,5515.887586,296.082377
1255.651350,-1258.350101,5745.716235,-0.000000
1255.651662,-2072.576638,1762.019645,222.061783
1255.651973,-3923.091493,-306.438199,-0.000000
1255.652285,-7105.977043,-2451.505594,-0.000000
1255.652596,-10955.047942,-2834.553343,148.041188
1255.652908,-13915.871710,-3524.039291,962.267725
1255.653219,-15840.407159,-3370.820191,1258.350101
1255.653531,-15914.427753,-2298.286494,1258.350101
1255.653842,-13841.851115,-995.924147,666.185348
1255.654154,-10584.944971,1072.533697,814.226536
1255.654465,-7031.956449,2757.943793,-0.000000
1255.654777,-4293.194464,2987.772442,-296.082377
1255.655088,-3997.112087,2451.505594,-1406.391290
1255.655400,-3330.926739,842.705048,-0.000000
1255.655711,-4219.173869,-1149.143247,148.041188
1255.656023,-6957.935855,-3447.429741,-0.000000
1255.656334,-10881.027347,-3983.696590,296.082377
1255.656646,-14952.160028,-4366.744339,370.102971
1255.656957,-16580.613101,-2911.162892,1554.432478
1255.657269,-17246.798449,-1685.410096,1480.411884
1255.657580,-15618.345376,-536.266849,2368.659014
1255.657892,-11843.295072,842.705048,1628.453072
1255.658203,-7476.080014,2681.334243,1258.350101
1255.658515,-4071.132681,4519.963438,-222.061783
1255.658826,-1850.514855,4060.306139,-296.082377
1255.659138,-2072.576638,2451.505594,-814.226536
1255.659449,-3701.029710,153.219100,-814.226536
1255.659761,-7328.038826,-1532.190996,-1702.473667
1255.660072,-11029.068536,-1378.971896,-1332.370696
1255.660383,-13027.624579,-459.657299,-296.082377
1255.660695,-14434.015869,-842.705048,740.205942
1255.661006,-15692.365970,-1302.362347,2368.659014
1255.661318,-13767.830521,-995.924147,3552.988522
1255.661629,-9770.718434,1302.362347,3256.906145
1255.661941,-5847.626942,3217.601092,2516.700203
1255.662252,-3627.009116,4366.744339,962.267725
1255.662564,-222.061783,3294.210641,-74.020594
1255.662875,296.082377,2834.553343,-2812.782580
1255.663187,-2368.659014,1302.362347,-3034.844362
1255.663498,-6957.935855,0.000000,-3478.967927
1255.663810,-12509.480420,-306.438199,-1480.411884
1255.664121,-15914.427753,-1378.971896,888.247130
1255.664433,-16728.654289,-1838.629195,3701.029710
1255.664744,-15914.427753,-2911.162892,5181.441594
1255.665056,-12509.480420,-1685.410096,4885.359217
1255.665367,-7698.141797,1149.143247,3923.091493
1255.665679,-4737.318029,3447.429741,1998.556043
1255.665990,-1850.514855,4673.182538,-666.185348
1255.666302,-2886.803174,4136.915689,-2442.679609
1255.666613,-3627.009116,2068.457845,-3701.029710
1255.666925,-5847.626942,-689.485948,-2664.741391
1255.667236,-9622.677246,-2451.505594,-1332.370696
1255.667548,-12361.439231,-3140.991542,222.061783
1255.667859,-14434.015869,-4366.744339,1184.329507
1255.668170,-15692.365970,-4903.011187,3108.864956
1255.668482,-15248.242405,-4366.744339,4441.235652
1255.668793,-12287.418637,-1991.848295,4367.215058
1255.669105,-8808.450710,536.266849,2664.741391
1255.669416,-5699.585753,2451.505594,1036.288319
1255.669728,-2812.782580,2451.505594,-518.144159
1255.670039,-2442.679609,1915.238745,-2368.659014
1255.670350,-3552.988522,153.219100,-2812.782580
1255.670662,-6735.874072,-919.314598,-3256.906145
1255.670973,-10881.027347,-1685.410096,-2664.741391
1255.671285,-14285.974681,-1838.629195,-1702.473667
1255.671596,-16210.510130,-1149.143247,444.123565
1255.671907,-15100.201217,-2681.334243,3775.050304
1255.672219,-13693.809927,-3907.087040,5329.482782
1255.672530,-10732.986159,-2221.676944,5107.421000
1255.672842,-7624.121203,153.219100,3034.844362
1255.673153,-4737.318029,2451.505594,1480.411884
1255.673464,-3330.926739,1762.019645,-0.000000
1255.673776,-4737.318029,1302.362347,-2738.761985
1255.674087,-5625.565159,995.924147,-4737.318029
1255.674399,-8290.306550,0.000000,-4367.215058
1255.674710,-11251.130318,76.609550,-3108.864956
1255.675021,-13841.851115,-383.047749,-1110.308913
1255.675333,-15470.304188,-1225.752797,1332.370696
1255.675644,-14211.954086,-2681.334243,4885.359217
1255.675956,-11917.315666,-2068.457845,6217.729913
1255.676267,-9252.574275,-153.219100,5773.606348
1255.676578,-5255.462188,2221.676944,4145.153275
1255.676890,-1258.350101,3524.039291,1036.288319
1255.677201,-1480.411884,3983.696590,-2220.617826
1255.677513,-3701.029710,4443.353888,-5477.523971
1255.677824,-6069.688724,3524.039291,-6439.791695
1255.678136,-9326.594869,2451.505594,-4293.194464
1255.678447,-12287.418637,1302.362347,-2146.597232
1255.678758,-13101.645173,-919.314598,592.164754
1255.679070,-13989.892304,-3217.601092,4293.194464
1255.679381,-12509.480420,-3753.867940,6957.935855
1255.679693,-9622.677246,-2451.505594,7105.977043
1255.680004,-6587.832884,-306.438199,5551.544565
1255.680315,-3775.050304,1838.629195,3404.947333
1255.680627,-3330.926739,3370.820191,-814.226536
1255.680938,-4071.132681,2681.334243,-2738.761985
1255.681250,-6735.874072,1838.629195,-4737.318029
1255.681561,-9104.533087,229.828649,-3552.988522
1255.681872,-11695.253884,-1149.143247,-2368.659014
1255.682184,-12361.439231,-2451.505594,-296.082377
1255.682495,-12953.603985,-4749.792088,2072.576638
1255.682807,-12361.439231,-5592.497135,4367.215058
1255.683118,-10584.944971,-5132.839837,5699.585753
1255.683429,-8438.347739,-2681.334243,4515.256246
1255.683741,-6587.832884,0.000000,2960.823768
1255.684052,-5255.462188,1455.581446,2368.659014
1255.684364,-4367.215058,2068.457845,-518.144159
1255.684675,-5625.565159,1149.143247,-2368.659014
1255.684987,-7994.224174,229.828649,-3552.988522
1255.685298,-11029.068536,536.266849,-3627.009116
1255.685609,-13323.706956,842.705048,-3034.844362
1255.685921,-14730.098246,-153.219100,-1332.370696
1255.686232,-14359.995275,-2528.115143,814.226536
1255.686544,-12361.439231,-3677.258390,3627.009116
1255.686855,-9696.697840,-3064.381992,4515.256246
1255.687166,-7179.997637,-2068.457845,4441.235652
1255.687478,-4515.256246,-842.705048,4071.132681
1255.687789,-4515.256246,-306.438199,2368.659014
1255.688101,-5699.585753,0.000000,-370.102971
1255.688412,-7698.141797,689.485948,-3404.947333
1255.688723,-10732.986159,2068.457845,-4885.359217
1255.689035,-12139.377449,3140.991542,-4885.359217
1255.689346,-12879.583391,2068.457845,-4589.276840
1255.689658,-13249.686362,-306.438199,-1924.535449
1255.689969,-12213.398043,-1915.238745,1332.370696
1255.690280,-8956.491898,-2298.286494,4663.297435
1255.690592,-6661.853478,-1762.019645,5033.400406
1255.690903,-6217.729913,-1072.533697,5921.647536
1255.691215,-3404.947333,229.828649,4293.194464
1255.691526,-2368.659014,2298.286494,444.123565
1255.691837,-4071.132681,2834.553343,-2442.679609
1255.692149,-7920.203579,3370.820191,-5181.441594
1255.692460,-11325.150913,3600.648841,-4589.276840
1255.692772,-12879.583391,3140.991542,-3404.947333
1255.693083,-12879.583391,1455.581446,-1184.329507
1255.693395,-12435.459826,-2068.457845,666.185348
1255.693706,-10732.986159,-3140.991542,4293.194464
1255.694017,-8512.368333,-2298.286494,5699.585753
1255.694329,-5551.544565,-1608.800546,5255.462188
1255.694640,-3330.926739,536.266849,5107.421000
1255.694952,-3182.885551,1149.143247,1924.535449
1255.695263,-5107.421000,1455.581446,-1036.288319
1255.695574,-7994.224174,689.485948,-2960.823768
1255.695886,-10658.965565,1915.238745,-3997.112087
1255.696197,-12361.439231,2451.505594,-2442.679609
1255.696509,-13693.809927,536.266849,-1998.556043
1255.696820,-14137.933492,-2681.334243,-0.000000
1255.697131,-12213.398043,-3753.867940,2812.782580
1255.697443,-8956.491898,-3983.696590,4293.194464
1255.697754,-6735.874072,-2374.896044,4219.173869
1255.698066,-5847.626942,-459.657299,3849.070898
1255.698377,-4071.132681,306.438199,2590.720797
1255.698688,-3627.009116,1685.410096,1332.370696
1255.699000,-5699.585753,842.705048,-740.205942
1255.699311,-9178.553681,919.314598,-1850.514855
1255.699623,-12657.521608,1302.362347,-2072.576638
1255.699934,-14582.057057,2068.457845,-2664.741391
1255.700246,-14211.954086,766.095498,-1110.308913
1255.700557,-13471.748144,-1149.143247,-0.000000
1255.700868,-10510.924376,-2374.896044,2072.576638
1255.701180,-7105.977043,-3064.381992,3330.926739
1255.701491,-5699.585753,-1991.848295,3552.988522
1255.701803,-5625.565159,-1149.143247,4811.338623
1255.702114,-5033.400406,-995.924147,3182.885551
1255.702425,-6365.771101,153.219100,740.205942
1255.702737,-9030.512492,459.657299,-1776.494261
1255.703048,-11473.192101,1378.971896,-3775.050304
1255.703360,-13249.686362,3830.477490,-4293.194464
1255.703671,-12805.562797,3524.039291,-4071.132681
1255.703982,-12361.439231,842.705048,-2220.617826
1255.704294,-11399.171507,-2068.457845,962.267725
1255.704605,-8586.388927,-1455.581446,3330.926739
1255.704917,-5625.565159,-1532.190996,3923.091493
1255.705228,-4219.173869,-306.438199,3849.070898
1255.705539,-3849.070898,76.609550,3256.906145
1255.705851,-3997.112087,995.924147,296.082377
1255.706162,-5181.441594,1762.019645,-1036.288319
1255.706474,-9104.533087,1915.238745,-3849.070898
1255.706785,-12509.480420,2681.334243,-3552.988522
1255.707096,-14285.974681,3447.429741,-3256.906145
1255.707408,-13989.892304,995.924147,-1406.391290
1255.707719,-13027.624579,-1072.533697,370.102971
1255.708031,-9178.553681,-2834.553343,3256.906145
1255.708342,-6587.832884,-2374.896044,4367.215058
1255.708654,-4737.318029,-1762.019645,3849.070898
1255.708965,-3849.070898,-536.266849,3923.091493
1255.709276,-3108.864956,536.266849,2294.638420
1255.709588,-4959.379811,1302.362347,-74.020594
1255.709899,-8956.491898,-612.876398,-2368.659014
1255.710211,-12139.377449,459.657299,-2886.803174
1255.710522,-12657.521608,2451.505594,-2368.659014
1255.710833,-13915.871710,842.705048,-2146.597232
1255.711145,-13619.789333,-1991.848295,148.041188
1255.711456,-11843.295072,-3140.991542,2220.617826
1255.711768,-8142.265362,-3447.429741,3775.050304
1255.712079,-6365.771101,-3064.381992,3923.091493
1255.712390,-5107.421000,-1225.752797,3182.885551
1255.712702,-4515.256246,689.485948,2220.617826
1255.713013,-4515.256246,1455.581446,-0.000000
1255.713325,-6217.729913,76.609550,-444.123565
1255.713636,-9770.718434,153.219100,-1480.411884
1255.713947,-13397.727550,1378.971896,-962.267725
1255.714259,-14730.098246,2145.067394,-1776.494261
1255.714570,-14730.098246,536.266849,-148.041188
1255.714882,-12657.521608,-842.705048,1110.308913
1255.715193,-9844.739029,-2068.457845,2146.597232
1255.715505,-7179.997637,-2757.943793,3182.885551
1255.715816,-5477.523971,-1838.629195,3627.009116
1255.716127,-4811.338623,-229.828649,2812.782580
1255.716439,-3997.112087,766.095498,1406.391290
1255.716750,-5995.668130,919.314598,296.082377
1255.717062,-9474.636058,995.924147,-1924.535449
1255.717373,-11473.192101,2604.724693,-2368.659014
1255.717684,-12213.398043,3294.210641,-2738.761985
1255.717996,-13027.624579,2451.505594,-2072.576638
1255.718307,-12583.501014,536.266849,-592.164754
1255.718619,-10584.944971,-536.266849,1480.411884
1255.718930,-8142.265362,-1072.533697,3478.967927
1255.719241,-5773.606348,-1608.800546,3775.050304
1255.719553,-3627.009116,-459.657299,3701.029710
1255.719864,-2368.659014,-153.219100,2146.597232
1255.720176,-3404.947333,995.924147,-296.082377
1255.720487,-6661.853478,1072.533697,-2442.679609
1255.720798,-10584.944971,1762.019645,-3552.988522
1255.721110,-13027.624579,2987.772442,-2368.659014
1255.721421,-14434.015869,2757.943793,-1998.556043
1255.721733,-14211.954086,1838.629195,-74.020594
1255.722044,-12361.439231,-153.219100,1332.370696
1255.722355,-8808.450710,-2068.457845,2886.803174
1255.722667,-5699.585753,-1991.848295,3478.967927
1255.722978,-3849.070898,-306.438199,3404.947333
1255.723290,-3627.009116,0.000000,2072.576638
1255.723601,-3552.988522,0.000000,-0.000000
1255.723913,-5773.606348,-612.876398,-1184.329507
1255.724224,-9030.512492,76.609550,-2738.761985
1255.724535,-11621.233289,459.657299,-1702.473667
1255.724847,-13471.748144,766.095498,-1924.535449
1255.725158,-14656.077652,-1378.971896,-1332.370696
1255.725470,-14285.974681,-2451.505594,592.164754
1255.725781,-11991.336260,-2834.553343,2442.679609
1255.726092,-9178.553681,-3294.210641,3330.926739
1255.726404,-6069.688724,-2681.334243,3330.926739
1255.726715,-3775.050304,-1072.533697,2368.659014
1255.727027,-4219.173869,-766.095498,1258.350101
1255.727338,-4737.318029,76.609550,962.267725
1255.727649,-7179.997637,0.000000,-1406.391290
1255.727961,-10288.862594,0.000000,-1850.514855
1255.728272,-13323.706956,919.314598,-1554.432478
1255.728584,-14878.139434,1225.752797,-2220.617826
1255.728895,-14878.139434,1072.533697,-148.041188
1255.729206,-13545.768739,-689.485948,1184.329507
1255.729518,-10140.821405,-1608.800546,3182.885551
1255.729829,-7031.956449,-1608.800546,3034.844362
1255.730141,-4959.379811,-1072.533697,3182.885551
1255.730452,-4441.235652,-995.924147,3108.864956
1255.730764,-4145.153275,306.438199,1776.494261
1255.731075,-5773.606348,383.047749,-0.000000
1255.731386,-8808.450710,383.047749,-2072.576638
1255.731698,-11843.295072,1685.410096,-2220.617826
1255.732009,-13175.665768,3830.477490,-2812.782580
1255.732321,-12879.583391,2757.943793,-1702.473667
1255.732632,-12435.459826,1072.533697,-296.082377
1255.732943,-10658.965565,-306.438199,2146.597232
1255.733255,-8142.265362,-612.876398,3849.070898
1255.733566,-5329.482782,-919.314598,4367.215058
1255.733878,-2442.679609,0.000000,3849.070898
1255.734189,-2146.597232,689.485948,1998.556043
1255.734500,-3330.926739,1378.971896,-666.185348
1255.734812,-6735.874072,1532.190996,-3552.988522
1255.735123,-10288.862594,2221.676944,-3552.988522
1255.735435,-12361.439231,3064.381992,-2590.720797
1255.735746,-13915.871710,2451.505594,-1776.494261
1255.736057,-13471.748144,536.266849,592.164754
1255.736369,-13175.665768,-1532.190996,2220.617826
1255.736680,-9918.759623,-1838.629195,4219.173869
1255.736992,-6217.729913,-919.314598,4367.215058
1255.737303,-3701.029710,306.438199,4367.215058
1255.737614,-3330.926739,0.000000,2442.679609
1255.737926,-3627.009116,306.438199,-740.205942
1255.738237,-5995.668130,229.828649,-2146.597232
1255.738549,-8586.388927,612.876398,-2960.823768
1255.738860,-11399.171507,383.047749,-2220.617826
1255.739172,-13545.768739,229.828649,-2368.659014
1255.739483,-14582.057057,-612.876398,-1036.288319
1255.739794,-13841.851115,-2068.457845,740.205942
1255.740106,-12065.356855,-2987.772442,2664.741391
1255.740417,-9104.533087,-2528.115143,3330.926739
1255.740729,-6439.791695,-1685.410096,3182.885551
1255.741040,-4441.235652,-995.924147,2146.597232
1255.741351,-3701.029710,-612.876398,962.267725
1255.741663,-4441.235652,-1225.752797,444.123565
1255.741974,-7402.059420,-919.314598,-2146.597232
1255.742286,-11251.130318,-689.485948,-1998.556043
1255.742597,-14137.933492,689.485948,-1702.473667
1255.742908,-15470.304188,1149.143247,-1924.535449
1255.743220,-15396.283594,0.000000,148.041188
1255.743531,-13619.789333,-1762.019645,1554.432478
1255.743843,-10584.944971,-2681.334243,3256.906145
1255.744154,-7179.997637,-1455.581446,3627.009116
1255.744465,-4589.276840,-536.266849,3108.864956
1255.744777,-4663.297435,-689.485948,2886.803174
1255.745088,-4737.318029,-383.047749,1110.308913
1255.745400,-6365.771101,76.609550,-1184.329507
1255.745711,-9030.512492,1608.800546,-2812.782580
1255.746022,-11695.253884,2145.067394,-3108.864956
1255.746334,-12731.542202,3600.648841,-3330.926739
1255.746645,-12509.480420,1915.238745,-1480.411884
1255.746957,-12361.439231,-229.828649,296.082377
1255.747268,-10436.903782,-1685.410096,3404.947333
1255.747580,-7105.977043,-1378.971896,3923.091493
1255.747891,-4959.379811,-766.095498,4145.153275
1255.748202,-3256.906145,-459.657299,3108.864956
1255.748514,-1776.494261,612.876398,1184.329507
1255.748825,-3849.070898,1149.143247,-1258.350101
1255.749137,-7328.038826,2451.505594,-3627.009116
1255.749448,-10288.862594,2528.115143,-2738.761985
1255.749759,-12287.418637,2374.896044,-1998.556043
1255.750071,-13693.809927,1378.971896,-1184.329507
1255.750382,-13323.706956,-536.266849,1184.329507
1255.750694,-11695.253884,-1378.971896,2812.782580
1255.751005,-8512.368333,-1378.971896,4367.215058
1255.751316,-6513.812290,-1915.238745,4145.153275
1255.751628,-3627.009116,-919.314598,3923.091493
1255.751939,-2738.761985,-383.047749,2886.803174
1255.752251,-3997.112087,459.657299,-370.102971
1255.752562,-6365.771101,-766.095498,-2516.700203
1255.752873,-9918.759623,-306.438199,-2738.761985
1255.753185,-12805.562797,459.657299,-1702.473667
1255.753496,-13693.809927,536.266849,-1850.514855
1255.753808,-13915.871710,-842.705048,-148.041188
1255.754119,-13471.748144,-2145.067394,1406.391290
1255.754431,-11103.089130,-3447.429741,3478.967927
1255.754742,-8142.265362,-3294.210641,3997.112087
1255.755053,-6957.935855,-1532.190996,3627.009116
1255.755365,-5033.400406,0.000000,2294.638420
1255.755676,-3923.091493,766.095498,444.123565
1255.755988,-4589.276840,-766.095498,-296.082377
1255.756299,-8216.285956,229.828649,-2886.803174
1255.756610,-11473.192101,383.047749,-2294.638420
1255.756922,-14063.912898,1608.800546,-2146.597232
1255.757233,-14952.160028,1378.971896,-1110.308913
1255.757545,-14730.098246,-612.876398,296.082377
1255.757856,-12805.562797,-2528.115143,1850.514855
1255.758167,-8956.491898,-2451.505594,3627.009116
1255.758479,-6143.709319,-1072.533697,3108.864956
1255.758790,-5033.400406,-459.657299,3552.988522
1255.759102,-4811.338623,-1378.971896,2664.741391
1255.759413,-4737.318029,-459.657299,740.205942
1255.759724,-7179.997637,76.609550,-1998.556043
1255.760036,-9992.780217,1532.190996,-3034.844362
1255.760347,-11251.130318,2911.162892,-3256.906145
1255.760659,-12287.418637,2221.676944,-3256.906145
1255.760970,-11769.274478,383.047749,-592.164754
1255.761281,-11399.171507,-919.314598,592.164754
1255.761593,-9770.718434,-1915.238745,3330.926739
1255.761904,-7550.100608,-1685.410096,4441.235652
1255.762216,-5477.523971,-1608.800546,4145.153275
1255.762527,-3034.844362,-459.657299,2664.741391
1255.762839,-1998.556043,612.876398,-222.061783
1255.763150,-3997.112087,459.657299,-2146.597232
1255.763461,-8734.430116,1378.971896,-3923.091493
1255.763773,-11843.295072,2528.115143,-3182.885551
1255.764084,-13989.892304,3677.258390,-2738.761985
1255.764396,-14804.118840,2528.115143,-1332.370696
1255.764707,-14137.933492,383.047749,370.102971
1255.765018,-11991.336260,-1302.362347,2812.782580
1255.765330,-8734.430116,-1915.238745,4071.132681
1255.765641,-4737.318029,-919.314598,4885.359217
1255.765953,-2886.803174,0.000000,3775.050304
1255.766264,-3108.864956,-306.438199,1924.535449
1255.766575,-4737.318029,0.000000,-370.102971
1255.766887,-7624.121203,-536.266849,-2886.803174
1255.767198,-10140.821405,1149.143247,-2886.803174
1255.767510,-12287.418637,1685.410096,-2516.700203
1255.767821,-14359.995275,995.924147,-2516.700203
1255.768132,-14878.139434,-1149.143247,-148.041188
1255.768444,-13619.789333,-2604.724693,1702.473667
1255.768755,-10955.047942,-3064.381992,3701.029710
1255.769067,-7846.182985,-2528.115143,4219.173869
1255.769378,-5403.503377,-1225.752797,3404.947333
1255.769690,-3775.050304,-766.095498,3478.967927
1255.770001,-2442.679609,-306.438199,1850.514855
1255.770312,-4219.173869,-842.705048,296.082377
1255.770624,-7772.162391,919.314598,-1924.535449
1255.770935,-12139.377449,0.000000,-1406.391290
1255.771247,-14211.954086,1915.238745,-1184.329507
1255.771558,-14952.160028,1762.019645,-888.247130
1255.771870,-14211.954086,0.000000,518.144159
1255.772181,-11547.212695,-2298.286494,2146.597232
1255.772492,-8660.409521,-2221.676944,3404.947333
1255.772804,-5773.606348,-1532.190996,3849.070898
1255.773115,-4367.215058,-1072.533697,3404.947333
1255.773427,-4441.235652,-689.485948,3330.926739
1255.773738,-4737.318029,306.438199,1110.308913
1255.774049,-6661.853478,689.485948,-1554.432478
1255.774361,-9992.780217,1915.238745,-3034.844362
1255.774672,-12435.459826,3677.258390,-3108.864956
1255.774984,-13175.665768,4060.306139,-3404.947333
1255.775295,-12509.480420,3447.429741,-1184.329507
1255.775607,-11399.171507,536.266849,666.185348
1255.775918,-9622.677246,-1225.752797,3108.864956
1255.776229,-7105.977043,-1685.410096,4515.256246
1255.776541,-4663.297435,-1378.971896,4367.215058
1255.776852,-2886.803174,-229.828649,2738.761985
1255.777164,-3404.947333,612.876398,-666.185348
1255.777475,-5107.421000,1455.581446,-1332.370696
1255.777786,-9252.574275,1915.238745,-4441.235652
1255.778098,-12213.398043,2221.676944,-3552.988522
1255.778409,-14952.160028,3447.429741,-2738.761985
1255.778721,-15248.242405,2604.724693,-1036.288319
1255.779032,-14508.036463,689.485948,740.205942
1255.779344,-11621.233289,-689.485948,3330.926739
1255.779655,-7328.038826,-1302.362347,4367.215058
1255.779966,-3330.926739,-842.705048,4367.215058
1255.780278,-1702.473667,76.609550,2812.782580
1255.780589,-2516.700203,153.219100,962.267725
1255.780901,-3997.112087,383.047749,-1110.308913
1255.781212,-7846.182985,536.266849,-3849.070898
1255.781523,-11177.109724,612.876398,-3034.844362
1255.781835,-13989.892304,1149.143247,-2442.679609
1255.782146,-15248.242405,459.657299,-2368.659014
1255.782458,-15100.201217,-689.485948,-0.000000
1255.782769,-13619.789333,-1838.629195,1998.556043
1255.783081,-10362.883188,-2528.115143,3404.947333
1255.783392,-7179.997637,-2604.724693,4071.132681
1255.783703,-4589.276840,-1608.800546,3849.070898
1255.784015,-2738.761985,-1455.581446,3478.967927
1255.784326,-2368.659014,0.000000,1036.288319
1255.784638,-4219.173869,-995.924147,-370.102971
1255.784949,-7698.141797,-1149.143247,-2368.659014
1255.785260,-12953.603985,-689.485948,-1480.411884
1255.785572,-15100.201217,1762.019645,-2220.617826
1255.785883,-16062.468941,1225.752797,-888.247130
1255.786195,-14804.118840,-612.876398,296.082377
1255.786506,-11917.315666,-2604.724693,2294.638420
1255.786818,-8586.388927,-2757.943793,3108.864956
1255.787129,-5625.565159,-1608.800546,4293.194464
1255.787440,-3775.050304,-689.485948,4293.194464
1255.787752,-2368.659014,-306.438199,3330.926739
1255.788063,-3997.112087,-766.095498,740.205942
1255.788375,-7179.997637,-919.314598,-1628.453072
1255.788686,-10510.924376,1072.533697,-2664.741391
1255.788997,-13175.665768,3217.601092,-3034.844362
1255.789309,-14285.974681,2987.772442,-2590.720797
1255.789620,-14137.933492,2145.067394,-740.205942
1255.789932,-13175.665768,-1762.019645,1480.411884
1255.790243,-9474.636058,-1225.752797,3997.112087
1255.790555,-6735.874072,-1915.238745,4589.276840
1255.790866,-4071.132681,-766.095498,4959.379811
1255.791177,-1924.535449,153.219100,2812.782580
1255.791489,-1850.514855,1378.971896,-222.061783
1255.791800,-4737.318029,995.924147,-1776.494261
1255.792112,-8956.491898,1762.019645,-3923.091493
1255.792423,-12139.377449,3294.210641,-3404.947333
1255.792734,-14804.118840,4060.306139,-2812.782580
1255.793046,-15248.242405,2757.943793,-740.205942
1255.793357,-14211.954086,459.657299,1702.473667
1255.793669,-11029.068536,-1149.143247,3775.050304
1255.793980,-7031.956449,-1378.971896,4589.276840
1255.794292,-3034.844362,-766.095498,4441.235652
1255.794603,-1850.514855,0.000000,2220.617826
1255.794914,-2442.679609,459.657299,666.185348
1255.795226,-3997.112087,229.828649,-888.247130
1255.795537,-7476.080014,229.828649,-3701.029710
1255.795849,-10436.903782,766.095498,-2886.803174
1255.796160,-14137.933492,766.095498,-2812.782580
1255.796471,-15322.262999,0.000000,-1258.350101
1255.796783,-14878.139434,-1378.971896,888.247130
1255.797094,-13323.706956,-2834.553343,2516.700203
1255.797406,-9844.739029,-2221.676944,3775.050304
1255.797717,-7772.162391,-2068.457845,3478.967927
1255.798029,-4071.132681,-689.485948,2960.823768
1255.798340,-1554.432478,-459.657299,1702.473667
1255.798651,-1924.535449,0.000000,-74.020594
1255.798963,-5107.421000,-1378.971896,-1702.473667
1255.799274,-9178.553681,-1532.190996,-2368.659014
1255.799586,-14137.933492,-153.219100,-1924.535449
1255.799897,-15618.345376,2221.676944,-1924.535449
1255.800208,-16580.613101,842.705048,-1110.308913
1255.800520,-15766.386565,-1225.752797,-296.082377
1255.800831,-12435.459826,-2221.676944,1480.411884
1255.801143,-8882.471304,-1991.848295,2368.659014
1255.801454,-5995.668130,-612.876398,3404.947333
1255.801766,-4293.194464,-919.314598,3701.029710
1255.802077,-2590.720797,-1302.362347,2960.823768
1255.802388,-3478.967927,-1532.190996,1628.453072
1255.802700,-6809.894666,-842.705048,-1776.494261
1255.803011,-9918.759623,1225.752797,-3182.885551
1255.803323,-13323.706956,3983.696590,-4071.132681
1255.803634,-14359.995275,4366.744339,-3627.009116
1255.803945,-14211.954086,1838.629195,-888.247130
1255.804257,-13323.706956,-153.219100,1332.370696
1255.804568,-10140.821405,-1149.143247,4367.215058
1255.804880,-6735.874072,-2221.676944,5181.441594
1255.805191,-3478.967927,-1455.581446,5699.585753
1255.805503,-1776.494261,-919.314598,3182.885551
1255.805814,-2664.741391,76.609550,-222.061783
1255.806125,-5033.400406,1762.019645,-1850.514855
1255.806437,-8512.368333,3830.477490,-4071.132681
1255.806748,-11621.233289,3677.258390,-3627.009116
1255.807060,-14285.974681,3677.258390,-3256.906145
1255.807371,-13915.871710,2528.115143,-370.102971
1255.807683,-12657.521608,536.266849,2146.597232
1255.807994,-10510.924376,-1685.410096,4737.318029
1255.808305,-6661.853478,-2068.457845,5477.523971
1255.808617,-3330.926739,-1378.971896,4737.318029
1255.808928,-1480.411884,-306.438199,2516.700203
1255.809240,-2590.720797,689.485948,296.082377
1255.809551,-4737.318029,1455.581446,-1702.473667
1255.809862,-8808.450710,766.095498,-3627.009116
1255.810174,-11695.253884,536.266849,-2738.761985
1255.810485,-14063.912898,919.314598,-1628.453072
1255.810797,-15174.221811,0.000000,-1184.329507
1255.811108,-14804.118840,-1762.019645,888.247130
1255.811420,-11991.336260,-2834.553343,2738.761985
1255.811731,-8660.409521,-2528.115143,3627.009116
1255.812042,-5995.668130,-1378.971896,3182.885551
1255.812354,-3478.967927,-689.485948,3108.864956
1255.812665,-2886.803174,-919.314598,1998.556043
1255.812977,-3923.091493,-536.266849,-0.000000
1255.813288,-6661.853478,-1149.143247,-1184.329507
1255.813599,-10066.800811,-766.095498,-2812.782580
1255.813911,-13915.871710,536.266849,-1850.514855
1255.814222,-14952.160028,1838.629195,-2146.597232
1255.814534,-14952.160028,306.438199,-1554.432478
1255.814845,-14285.974681,-1149.143247,-74.020594
1255.815157,-11843.295072,-2298.286494,1480.411884
1255.815468,-8882.471304,-2451.505594,2590.720797
1255.815779,-6365.771101,-1149.143247,4219.173869
1255.816091,-4737.318029,-1302.362347,4441.235652
1255.816402,-3404.947333,-995.924147,2812.782580
1255.816714,-5403.503377,-1685.410096,814.226536
1255.817025,-8808.450710,-153.219100,-2664.741391
1255.817336,-11251.130318,2221.676944,-3997.112087
1255.817648,-13545.768739,4519.963438,-4219.173869
1255.817959,-14063.912898,3600.648841,-2960.823768
1255.818271,-12879.583391,1072.533697,-518.144159
1255.818582,-11991.336260,-1302.362347,1776.494261
1255.818894,-8290.306550,-1378.971896,4293.194464
1255.819205,-5773.606348,-1762.019645,5107.421000
1255.819516,-3552.988522,-919.314598,5403.503377
1255.819828,-2442.679609,-306.438199,2886.803174
1255.820139,-3256.906145,1072.533697,-888.247130
1255.820451,-5995.668130,1608.800546,-2516.700203
1255.820762,-10066.800811,2681.334243,-5107.421000
1255.821073,-11991.336260,4290.134789,-3997.112087
1255.821385,-13915.871710,3447.429741,-2664.741391
1255.821696,-14285.974681,1378.971896,740.205942
1255.822008,-13175.665768,-1225.752797,3034.844362
1255.822319,-10066.800811,-2528.115143,5847.626942
1255.822631,-5995.668130,-2451.505594,6439.791695
1255.822942,-2294.638420,-1532.190996,5255.462188
1255.823253,-1480.411884,-536.266849,2368.659014
1255.823565,-1924.535449,306.438199,-1184.329507
1255.823876,-3775.050304,1378.971896,-2442.679609
1255.824188,-8586.388927,842.705048,-4737.318029
1255.824499,-11843.295072,1378.971896,-2368.659014
1255.824810,-14508.036463,1302.362347,-1480.411884
1255.825122,-14952.160028,-766.095498,-518.144159
1255.825433,-14508.036463,-2221.676944,1998.556043
1255.825745,-12361.439231,-3064.381992,3034.844362
1255.826056,-8512.368333,-1302.362347,2960.823768
1255.826368,-6069.688724,-1762.019645,3256.906145
1255.826679,-2664.741391,-306.438199,3034.844362
1255.826990,-2146.597232,-919.314598,1998.556043
1255.827302,-4441.235652,-1225.752797,888.247130
1255.827613,-7179.997637,-1991.848295,-666.185348
1255.827925,-10510.924376,-919.314598,-1850.514855
1255.828236,-13323.706956,536.266849,-1702.473667
1255.828547,-15544.324782,766.095498,-2738.761985
1255.828859,-15322.262999,-612.876398,-1110.308913
1255.829170,-14211.954086,-1762.019645,-148.041188
1255.829482,-11325.150913,-2451.505594,2146.597232
1255.829793,-9030.512492,-2528.115143,2886.803174
1255.830105,-7179.997637,-1685.410096,4219.173869
1255.830416,-4663.297435,-1225.752797,4811.338623
1255.830727,-2590.720797,-1149.143247,2590.720797
1255.831039,-3923.091493,-1225.752797,222.061783
1255.831350,-7254.018232,459.657299,-3552.988522
1255.831662,-10362.883188,2757.943793,-4737.318029
1255.831973,-12731.542202,4366.744339,-4737.318029
1255.832284,-13619.789333,3217.601092,-3182.885551
1255.832596,-13693.809927,153.219100,-370.102971
1255.832907,-12139.377449,-2834.553343,2442.679609
1255.833219,-8660.409521,-3753.867940,4737.318029
1255.833530,-6661.853478,-2911.162892,5699.585753
1255.833842,-3108.864956,-1685.410096,4737.318029
1255.834153,-3256.906145,-919.314598,2368.659014
1255.834464,-4441.235652,995.924147,-1184.329507
1255.834776,-6291.750507,2451.505594,-3552.988522
1255.835087,-9622.677246,4366.744339,-5329.482782
1255.835399,-11843.295072,5515.887586,-4145.153275
1255.835710,-13619.789333,4673.182538,-2812.782580
1255.836021,-13027.624579,1762.019645,888.247130
1255.836333,-11917.315666,-1072.533697,2812.782580
1255.836644,-9400.615463,-2451.505594,5255.462188
1255.836956,-6143.709319,-1762.019645,5699.585753
1255.837267,-2664.741391,-612.876398,4219.173869
1255.837579,-2886.803174,0.000000,1480.411884
1255.837890,-3775.050304,766.095498,-1332.370696
1255.838201,-6143.709319,1991.848295,-2220.617826
1255.838513,-9474.636058,1225.752797,-4589.276840
1255.838824,-11695.253884,1378.971896,-1998.556043
1255.839136,-14285.974681,1378.971896,-1480.411884
1255.839447,-14285.974681,-459.657299,-0.000000
1255.839758,-13989.892304,-1915.238745,2072.576638
1255.840070,-11917.315666,-2145.067394,3627.009116
1255.840381,-8808.450710,-1455.581446,3701.029710
1255.840693,-5329.482782,-1149.143247,4441.235652
1255.841004,-1924.535449,0.000000,3182.885551
1255.841316,-2960.823768,-1149.143247,592.164754
1255.841627,-4219.173869,-612.876398,444.123565
1255.841938,-7402.059420,-689.485948,-2146.597232
1255.842250,-10732.986159,-383.047749,-1998.556043
1255.842561,-13693.809927,1225.752797,-1110.308913
1255.842873,-14804.118840,1378.971896,-2146.597232
1255.843184,-14211.954086,459.657299,-518.144159
1255.843496,-13471.748144,-919.314598,444.123565
1255.843807,-10436.903782,-1302.362347,1702.473667
1255.844118,-8068.244768,-383.047749,2738.761985
1255.844430,-5329.482782,0.000000,4367.215058
1255.844741,-3330.926739,-1991.848295,4737.318029
1255.845053,-2886.803174,-2221.676944,2220.617826
1255.845364,-5255.462188,-2374.896044,814.226536
1255.845675,-9400.615463,229.828649,-3330.926739
1255.845987,-12657.521608,2987.772442,-4071.132681
1255.846298,-14137.933492,4826.401637,-4145.153275
1255.846610,-13767.830521,3064.381992,-2590.720797
1255.846921,-12953.603985,-459.657299,-888.247130
1255.847233,-11103.089130,-2604.724693,2072.576638
1255.847544,-8216.285956,-3140.991542,4219.173869
1255.847855,-4959.379811,-2374.896044,5921.647536
1255.848167,-2664.741391,-1225.752797,5773.606348
1255.848478,-3182.885551,-1532.190996,3182.885551
1255.848790,-3849.070898,-153.219100,-518.144159
1255.849101,-6069.688724,1762.019645,-3108.864956
1255.849412,-9548.656652,3677.258390,-5181.441594
1255.849724,-13249.686362,4903.011187,-3997.112087
1255.850035,-15026.180623,3447.429741,-2886.803174
1255.850347,-14804.118840,1225.752797,592.164754
1255.850658,-12879.583391,-1608.800546,2368.659014
1255.850970,-9770.718434,-3140.991542,4959.379811
1255.851281,-6217.729913,-2681.334243,5403.503377
1255.851592,-2368.659014,-1915.238745,5255.462188
1255.851904,-2294.638420,-1838.629195,2590.720797
1255.852215,-2664.741391,-612.876398,-222.061783
1255.852527,-5995.668130,459.657299,-1924.535449
1255.852838,-10066.800811,1302.362347,-5181.441594
1255.853149,-12287.418637,2451.505594,-2664.741391
1255.853461,-14878.139434,3140.991542,-2442.679609
1255.853772,-14359.995275,1532.190996,-222.061783
1255.854084,-14211.954086,-1225.752797,1850.514855
1255.854395,-12213.398043,-1991.848295,3256.906145
1255.854707,-8216.285956,-995.924147,3256.906145
1255.855018,-5107.421000,0.000000,3182.885551
1255.855329,-2368.659014,153.219100,2442.679609
1255.855641,-2294.638420,-995.924147,592.164754
1255.855952,-3627.009116,-1455.581446,-740.205942
1255.856264,-8364.327145,-1378.971896,-1554.432478
1255.856575,-12805.562797,229.828649,-2220.617826
1255.856886,-15100.201217,2221.676944,-1110.308913
1255.857198,-15396.283594,1532.190996,-1332.370696
1255.857509,-14285.974681,-612.876398,444.123565
1255.857821,-12435.459826,-2451.505594,962.267725
1255.858132,-9030.512492,-2451.505594,3034.844362
1255.858444,-6957.935855,-1072.533697,3997.112087
1255.858755,-4515.256246,76.609550,5033.400406
1255.859066,-3627.009116,-1149.143247,3775.050304
1255.859378,-3330.926739,-1302.362347,1258.350101
1255.859689,-5921.647536,-459.657299,-592.164754
1255.860001,-9696.697840,1455.581446,-3923.091493
1255.860312,-11843.295072,4213.525239,-4293.194464
1255.860623,-13471.748144,4519.963438,-3849.070898
1255.860935,-13249.686362,1991.848295,-1776.494261
1255.861246,-12805.562797,-1072.533697,370.102971
1255.861558,-10732.986159,-2911.162892,3330.926739
1255.861869,-6957.935855,-3064.381992,4663.297435
1255.862181,-4441.235652,-2451.505594,5181.441594
1255.862492,-2294.638420,-1838.629195,4441.235652
1255.862803,-3034.844362,-1378.971896,1776.494261
1255.863115,-4811.338623,-459.657299,-518.144159
1255.863426,-8290.306550,1225.752797,-3256.906145
1255.863738,-11547.212695,2987.772442,-4145.153275
1255.864049,-14211.954086,4826.401637,-3256.906145
1255.864360,-15322.262999,3370.820191,-2960.823768
1255.864672,-13767.830521,536.266849,814.226536
1255.864983,-12435.459826,-1378.971896,2368.659014
1255.865295,-9030.512492,-2374.896044,4145.153275
1255.865606,-5477.523971,-1608.800546,4737.318029
1255.865918,-2590.720797,-1225.752797,4515.256246
1255.866229,-2960.823768,-1991.848295,2072.576638
1255.866540,-3404.947333,-536.266849,-740.205942
1255.866852,-5995.668130,-306.438199,-2442.679609
1255.867163,-10436.903782,383.047749,-4959.379811
1255.867475,-12731.542202,2221.676944,-3404.947333
1255.867786,-14656.077652,2374.896044,-2812.782580
1255.868097,-14730.098246,-536.266849,148.041188
1255.868409,-15026.180623,-3140.991542,2146.597232
1255.868720,-12287.418637,-2911.162892,3627.009116
1255.869032,-8068.244768,-1455.581446,3997.112087
1255.869343,-4663.297435,0.000000,4663.297435
1255.869655,-1480.411884,-995.924147,3108.864956
1255.869966,-1036.288319,-2068.457845,740.205942
1255.870277,-4071.132681,-1762.019645,-296.082377
1255.870589,-8808.450710,0.000000,-3182.885551
1255.870900,-11991.336260,2145.067394,-2590.720797
1255.871211,-14804.118840,3294.210641,-2442.679609
1255.871523,-15322.262999,1455.581446,-1702.473667
1255.871834,-13619.789333,-919.314598,888.247130
1255.872146,-12805.562797,-2298.286494,1702.473667
1255.872457,-9326.594869,-2221.676944,3404.947333
1255.872768,-6291.750507,-383.047749,3849.070898
1255.873080,-3997.112087,612.876398,4589.276840
1255.873391,-2590.720797,-919.314598,3775.050304
1255.873702,-2220.617826,-1149.143247,296.082377
1255.874014,-5921.647536,-766.095498,-1554.432478
1255.874325,-9400.615463,1532.190996,-3775.050304
1255.874637,-13101.645173,3753.867940,-3627.009116
1255.874948,-14804.118840,4596.572988,-3849.070898
1255.875259,-14804.118840,2068.457845,-592.164754
1255.875571,-13249.686362,-1225.752797,1184.329507
1255.875882,-9622.677246,-3064.381992,3849.070898
1255.876194,-6513.812290,-2374.896044,4441.235652
1255.876505,-3627.009116,-1302.362347,5329.482782
1255.876816,-2516.700203,-995.924147,3330.926739
1255.877128,-3182.885551,229.828649,1110.308913
1255.877439,-5551.544565,1225.752797,-962.267725
1255.877750,-8882.471304,2604.724693,-3997.112087
1255.878062,-10881.027347,4136.915689,-3627.009116
1255.878373,-13619.789333,4826.401637,-3478.967927
1255.878685,-14063.912898,3064.381992,-1998.556043
1255.878996,-13545.768739,-383.047749,1036.288319
1255.879307,-11843.295072,-2298.286494,3552.988522
1255.879619,-8364.327145,-2221.676944,4811.338623
1255.879930,-5477.523971,-1302.362347,4737.318029
1255.880241,-3478.967927,-153.219100,3552.988522
1255.880553,-4515.256246,-995.924147,1776.494261
1255.880864,-3775.050304,-536.266849,-888.247130
1255.881176,-7179.997637,76.609550,-2442.679609
1255.881487,-11399.171507,1149.143247,-4071.132681
1255.881798,-13915.871710,2221.676944,-2886.803174
1255.882110,-14137.933492,1225.752797,-2294.638420
1255.882421,-14063.912898,-383.047749,592.164754
1255.882732,-13915.871710,-2451.505594,1554.432478
1255.883044,-10955.047942,-2911.162892,3627.009116
1255.883355,-7476.080014,-2145.067394,3849.070898
1255.883667,-3775.050304,-1685.410096,4145.153275
1255.883978,-1702.473667,-1302.362347,2738.761985
1255.884289,-1702.473667,-1991.848295,592.164754
1255.884601,-3478.967927,-2068.457845,-666.185348
1255.884912,-7994.224174,-995.924147,-2812.782580
1255.885223,-11917.315666,306.438199,-1850.514855
1255.885535,-15618.345376,1991.848295,-2294.638420
1255.885846,-16210.510130,842.705048,-962.267725
1255.886158,-15544.324782,-536.266849,1184.329507
1255.886469,-13323.706956,-2528.115143,1776.494261
1255.886780,-9474.636058,-1991.848295,2886.803174
1255.887092,-6735.874072,-1532.190996,3701.029710
1255.887403,-3627.009116,-459.657299,4367.215058
1255.887714,-2442.679609,-919.314598,2812.782580
1255.888026,-3034.844362,-1149.143247,592.164754
1255.888337,-6513.812290,-689.485948,-2072.576638
1255.888649,-9992.780217,1225.752797,-3923.091493
1255.888960,-12583.501014,3907.087040,-3701.029710
1255.889271,-14582.057057,4136.915689,-3701.029710
1255.889583,-14434.015869,1455.581446,-1110.308913
1255.889894,-13767.830521,-1378.971896,1036.288319
1255.890205,-10140.821405,-2681.334243,3627.009116
1255.890517,-7328.038826,-2681.334243,3997.112087
1255.890828,-4071.132681,-842.705048,4959.379811
1255.891140,-2220.617826,-995.924147,3182.885551
1255.891451,-2886.803174,842.705048,814.226536
1255.891762,-4663.297435,153.219100,-1036.288319
1255.892074,-8808.450710,2298.286494,-3997.112087
1255.892385,-11547.212695,3753.867940,-3627.009116
1255.892696,-13767.830521,4290.134789,-3108.864956
1255.893008,-14137.933492,2374.896044,-1110.308913
1255.893319,-12583.501014,-383.047749,1776.494261
1255.893631,-11325.150913,-2068.457845,4071.132681
1255.893942,-7402.059420,-2451.505594,5033.400406
1255.894253,-4885.359217,-1915.238745,4885.359217
1255.894565,-3552.988522,-842.705048,3256.906145
1255.894876,-3404.947333,-842.705048,1110.308913
1255.895187,-4737.318029,-229.828649,-2368.659014
1255.895499,-7994.224174,536.266849,-3182.885551
1255.895810,-10436.903782,1762.019645,-3923.091493
1255.896122,-12435.459826,3447.429741,-2886.803174
1255.896433,-14137.933492,1225.752797,-1554.432478
1255.896744,-14285.974681,-1302.362347,1110.308913
1255.897056,-13323.706956,-2834.553343,2368.659014
1255.897367,-10436.903782,-2451.505594,4219.173869
1255.897678,-7254.018232,-1915.238745,4145.153275
1255.897990,-3923.091493,-612.876398,4145.153275
1255.898301,-3034.844362,-919.314598,2294.638420
1255.898613,-1332.370696,-995.924147,370.102971
1255.898924,-4219.173869,-1991.848295,-1184.329507
1255.899235,-9030.512492,-919.314598,-2886.803174
1255.899547,-13397.727550,459.657299,-2072.576638
1255.899858,-14730.098246,2068.457845,-2146.597232
1255.900169,-15100.201217,689.485948,-888.247130
1255.900481,-14508.036463,-842.705048,222.061783
1255.900792,-12139.377449,-2451.505594,1702.473667
1255.901104,-8586.388927,-1991.848295,3775.050304
1255.901415,-5921.647536,-1225.752797,4515.256246
1255.901726,-3775.050304,-1378.971896,4441.235652
1255.902038,-3034.844362,-1991.848295,2886.803174
1255.902349,-3701.029710,-2528.115143,666.185348
1255.902661,-6661.853478,-995.924147,-2516.700203
1255.902972,-10510.924376,2068.457845,-4071.132681
1255.903283,-13545.768739,3677.258390,-4145.153275
1255.903595,-14434.015869,3217.601092,-3478.967927
1255.903906,-14211.954086,766.095498,-592.164754
1255.904217,-13619.789333,-1685.410096,1258.350101
1255.904529,-9918.759623,-2298.286494,3182.885551
1255.904840,-6809.894666,-1685.410096,3701.029710
1255.905152,-4293.194464,-689.485948,4441.235652
1255.905463,-2368.659014,-536.266849,2664.741391
1255.905774,-2294.638420,995.924147,222.061783
1255.906086,-5699.585753,1685.410096,-1776.494261
1255.906397,-9770.718434,2374.896044,-4293.194464
1255.906708,-12805.562797,4673.182538,-3849.070898
1255.907020,-13693.809927,5362.668486,-3404.947333
1255.907331,-13619.789333,3140.991542,-1184.329507
1255.907643,-12805.562797,-536.266849,1110.308913
1255.907954,-9992.780217,-1915.238745,3404.947333
1255.908265,-6439.791695,-1762.019645,5107.421000
1255.908577,-4737.318029,-1532.190996,4515.256246
1255.908888,-3849.070898,-689.485948,2960.823768
1255.909199,-4441.235652,-536.266849,962.267725
1255.909511,-5773.606348,689.485948,-1924.535449
1255.909822,-8808.450710,995.924147,-3182.885551
1255.910134,-11251.130318,2451.505594,-3478.967927
1255.910445,-12657.521608,2681.334243,-2220.617826
1255.910756,-13767.830521,1378.971896,-1332.370696
1255.911068,-13397.727550,-919.314598,1776.494261
1255.911379,-12731.542202,-2528.115143,2886.803174
1255.911690,-9474.636058,-2221.676944,4293.194464
1255.912002,-6217.729913,-1685.410096,4219.173869
1255.912313,-3330.926739,-766.095498,3849.070898
1255.912625,-2812.782580,-842.705048,1702.473667
1255.912936,-1554.432478,-459.657299,-296.082377
1255.913247,-5329.482782,-995.924147,-962.267725
1255.913559,-9548.656652,-229.828649,-2368.659014
1255.913870,-13693.809927,1378.971896,-1258.350101
1255.914181,-15174.221811,2374.896044,-1332.370696
1255.914493,-15840.407159,612.876398,-222.061783
1255.914804,-14508.036463,-612.876398,814.226536
1255.915116,-11177.109724,-1302.362347,2072.576638
1255.915427,-8068.244768,-995.924147,2812.782580
1255.915738,-5329.482782,-919.314598,4367.215058
1255.916050,-3701.029710,-1302.362347,3997.112087
1255.916361,-2664.741391,-1991.848295,3330.926739
1255.916672,-3849.070898,-2145.067394,1110.308913
1255.916984,-7254.018232,-842.705048,-2516.700203
1255.917295,-10732.986159,1532.190996,-3404.947333
1255.917607,-13101.645173,3983.696590,-3923.091493
1255.917918,-14434.015869,3677.258390,-3627.009116
1255.918229,-14434.015869,1072.533697,-592.164754
1255.918541,-13249.686362,-1532.190996,2146.597232
1255.918852,-9992.780217,-2145.067394,4441.235652
1255.919163,-6661.853478,-2451.505594,4959.379811
1255.919475,-3701.029710,-1302.362347,4959.379811
1255.919786,-2738.761985,-1532.190996,2516.700203
1255.920098,-2960.823768,689.485948,-1110.308913
1255.920409,-6069.688724,2145.067394,-3552.988522
1255.920720,-8882.471304,3524.039291,-5403.503377
1255.921032,-12213.398043,4290.134789,-4145.153275
1255.921343,-13693.809927,4060.306139,-2664.741391
1255.921654,-14359.995275,1532.190996,444.123565
1255.921966,-13693.809927,-1378.971896,2368.659014
1255.922277,-11473.192101,-2068.457845,4219.173869
1255.922589,-7031.956449,-766.095498,5329.482782
1255.922900,-3997.112087,0.000000,4589.276840
1255.923211,-2146.597232,153.219100,2294.638420
1255.923523,-2812.782580,-383.047749,-592.164754
1255.923834,-4885.359217,0.000000,-1850.514855
1255.924145,-8660.409521,919.314598,-4367.215058
1255.924457,-10881.027347,2068.457845,-3108.864956
1255.924768,-14211.954086,2221.676944,-2442.679609
1255.925080,-14434.015869,306.438199,-444.123565
1255.925391,-14063.912898,-1915.238745,1332.370696
1255.925702,-13545.768739,-2681.334243,2812.782580
1255.926014,-9400.615463,-1838.629195,3997.112087
1255.926325,-6513.812290,-1378.971896,4145.153275
1255.926636,-2886.803174,-1455.581446,3701.029710
1255.926948,-1702.473667,-2604.724693,1924.535449
1255.927259,-2664.741391,-2681.334243,-0.000000
1255.927571,-6957.935855,-1915.238745,-1998.556043
1255.927882,-10436.903782,153.219100,-2516.700203
1255.928193,-13175.665768,2145.067394,-1628.453072
1255.928505,-15618.345376,1762.019645,-1554.432478
1255.928816,-15248.242405,0.000000,-0.000000
1255.929127,-14137.933492,-1225.752797,962.267725
1255.929439,-11029.068536,-1455.581446,2368.659014
1255.929750,-8512.368333,-536.266849,3108.864956
1255.930062,-5551.544565,766.095498,4441.235652
1255.930373,-3256.906145,-689.485948,4589.276840
1255.930684,-1850.514855,-1685.410096,2886.803174
1255.930996,-3923.091493,-2298.286494,666.185348
1255.931307,-7846.182985,-536.266849,-3182.885551
1255.931619,-11399.171507,2221.676944,-3552.988522
1255.931930,-13027.624579,4596.572988,-3404.947333
1255.932241,-13915.871710,2528.115143,-2368.659014
1255.932553,-14063.912898,-536.266849,-222.061783
1255.932864,-12731.542202,-1991.848295,2516.700203
1255.933175,-9326.594869,-2451.505594,4071.132681
1255.933487,-6365.771101,-1608.800546,5181.441594
1255.933798,-3997.112087,-842.705048,4737.318029
1255.934110,-3701.029710,-1225.752797,2664.741391
1255.934421,-3627.009116,229.828649,-666.185348
1255.934732,-6513.812290,1225.752797,-2664.741391
1255.935044,-9696.697840,3524.039291,-5107.421000
1255.935355,-12139.377449,4673.182538,-4145.153275
1255.935666,-13323.706956,3294.210641,-2960.823768
1255.935978,-13027.624579,689.485948,296.082377
1255.936289,-11917.315666,-1455.581446,2368.659014
1255.936601,-9622.677246,-2604.724693,4219.173869
1255.936912,-7328.038826,-2145.067394,4441.235652
1255.937223,-4589.276840,-1072.533697,3849.070898
1255.937535,-3849.070898,0.000000,1924.535449
1255.937846,-3701.029710,-76.609550,-740.205942
1255.938157,-5403.503377,0.000000,-1998.556043
1255.938469,-9104.533087,383.047749,-4219.173869
1255.938780,-10881.027347,1838.629195,-2664.741391
1255.939092,-13471.748144,2298.286494,-2220.617826
1255.939403,-13545.768739,-153.219100,-592.164754
1255.939714,-13471.748144,-2298.286494,1850.514855
1255.940026,-12361.439231,-2834.553343,3108.864956
1255.940337,-8882.471304,-2068.457845,3256.906145
1255.940648,-6661.853478,-612.876398,3034.844362
1255.940960,-3775.050304,0.000000,2294.638420
1255.941271,-2886.803174,-689.485948,296.082377
1255.941583,-4219.173869,-612.876398,-370.102971
1255.941894,-6957.935855,-1532.190996,-2072.576638
1255.942205,-10732.986159,0.000000,-2294.638420
1255.942517,-13693.809927,3140.991542,-1850.514855
1255.942828,-15174.221811,2451.505594,-1850.514855
1255.943139,-15026.180623,766.095498,-370.102971
1255.943451,-13989.892304,-919.314598,814.226536
1255.943762,-10955.047942,-1378.971896,2664.741391
1255.944074,-7624.121203,-766.095498,3701.029710
1255.944385,-5329.482782,-1072.533697,4663.297435
1255.944696,-3923.091493,-2374.896044,4071.132681
1255.945008,-3923.091493,-2681.334243,1406.391290
1255.945319,-5847.626942,-1915.238745,-74.020594
1255.945630,-8734.430116,536.266849,-2812.782580
1255.945942,-11843.295072,2451.505594,-3256.906145
1255.946253,-13323.706956,3753.867940,-3182.885551
1255.946565,-13249.686362,2528.115143,-1850.514855
1255.946876,-12805.562797,306.438199,-0.000000
1255.947187,-9992.780217,-229.828649,2886.803174
1255.947499,-6661.853478,-1532.190996,4071.132681
1255.947810,-4737.318029,-1225.752797,5181.441594
1255.948121,-2664.741391,0.000000,3849.070898
1255.948433,-3034.844362,459.657299,1480.411884
1255.948744,-4515.256246,995.924147,-444.123565
1255.949056,-7105.977043,2374.896044,-3034.844362
1255.949367,-9992.780217,2911.162892,-3701.029710
1255.949678,-12583.501014,3600.648841,-2590.720797
1255.949990,-13915.871710,2068.457845,-1628.453072
1255.950301,-13693.809927,0.000000,666.185348
1255.950612,-12509.480420,-1838.629195,2960.823768
1255.950924,-9622.677246,-2374.896044,4737.318029
1255.951235,-6143.709319,-1991.848295,4663.297435
1255.951547,-3923.091493,-766.095498,4145.153275
1255.951858,-3849.070898,-842.705048,2072.576638
1255.952169,-3256.906145,-995.924147,-1036.288319
1255.952481,-6587.832884,-612.876398,-2294.638420
1255.952792,-10288.862594,612.876398,-3330.926739
1255.953103,-12805.562797,1838.629195,-2368.659014
1255.953415,-14656.077652,1455.581446,-1924.535449
1255.953726,-14508.036463,306.438199,-0.000000
1255.954038,-14063.912898,-1608.800546,962.267725
1255.954349,-11547.212695,-2221.676944,2812.782580
1255.954660,-7846.182985,-1762.019645,2812.782580
1255.954972,-4737.318029,-995.924147,3108.864956
1255.955283,-2146.597232,-995.924147,2590.720797
1255.955594,-1628.453072,-1149.143247,1258.350101
1255.955906,-2812.782580,-1685.410096,296.082377
1255.956217,-6809.894666,-1762.019645,-1776.494261
1255.956529,-10955.047942,0.000000,-1628.453072
1255.956840,-13915.871710,1685.410096,-1258.350101
1255.957151,-16580.613101,766.095498,-1554.432478
1255.957463,-16062.468941,689.485948,222.061783
1255.957774,-14211.954086,-536.266849,1036.288319
1255.958085,-9992.780217,-689.485948,1924.535449
1255.958397,-7105.977043,-306.438199,3108.864956
1255.958708,-4515.256246,-612.876398,4219.173869
1255.959020,-2516.700203,-1072.533697,3775.050304
1255.959331,-3034.844362,-1378.971896,1850.514855
1255.959642,-4959.379811,-995.924147,-370.102971
1255.959954,-8512.368333,459.657299,-3034.844362
1255.960265,-11695.253884,2681.334243,-3478.967927
1255.960577,-13397.727550,4060.306139,-3701.029710
1255.960888,-14359.995275,2068.457845,-2072.576638
1255.961199,-13841.851115,153.219100,222.061783
1255.961511,-11769.274478,-1685.410096,2590.720797
1255.961822,-8068.244768,-1685.410096,4219.173869
1255.962133,-5329.482782,-1378.971896,4737.318029
1255.962445,-2368.659014,-842.705048,3849.070898
1255.962756,-1554.432478,-229.828649,1406.391290
1255.963068,-3478.967927,0.000000,-888.247130
1255.963379,-7624.121203,1378.971896,-3478.967927
1255.963690,-11029.068536,1991.848295,-3775.050304
1255.964002,-13545.768739,3294.210641,-2590.720797
1255.964313,-14878.139434,2221.676944,-1554.432478
1255.964624,-14359.995275,0.000000,888.247130
1255.964936,-13027.624579,-2298.286494,2590.720797
1255.965247,-8882.471304,-2374.896044,4293.194464
1255.965559,-5773.606348,-1149.143247,3627.009116
1255.965870,-3627.009116,0.000000,2960.823768
1255.966181,-2960.823768,306.438199,1184.329507
1255.966493,-2146.597232,0.000000,-1184.329507
1255.966804,-5477.523971,-842.705048,-1554.432478
1255.967115,-9622.677246,-306.438199,-2590.720797
1255.967427,-12361.439231,229.828649,-1628.453072
1255.967738,-14952.160028,766.095498,-1702.473667
1255.968050,-15248.242405,-153.219100,666.185348
1255.968361,-14878.139434,-1915.238745,1184.329507
1255.968672,-12435.459826,-2528.115143,2516.700203
1255.968984,-9178.553681,-1991.848295,2738.761985
1255.969295,-5921.647536,-2145.067394,2368.659014
1255.969606,-2664.741391,-689.485948,2368.659014
1255.969921,-1850.514855,-1378.971896,1554.432478
1255.970232,-3256.906145,-2604.724693,740.205942
1255.970544,-7254.018232,-1608.800546,-1480.411884
1255.970855,-11177.109724,-536.266849,-1480.411884
1255.971167,-13767.830521,1685.410096,-1850.514855
1255.971478,-15174.221811,1915.238745,-1554.432478
1255.971790,-15100.201217,689.485948,222.061783
1255.972101,-13471.748144,-1532.190996,1184.329507
1255.972413,-9696.697840,-1762.019645,2960.823768
1255.972724,-6883.915261,-1149.143247,3404.947333
1255.973036,-4737.318029,-459.657299,4145.153275
1255.973347,-3701.029710,-1455.581446,2886.803174
1255.973658,-4145.153275,229.828649,962.267725
1255.973970,-5847.626942,383.047749,-1110.308913
1255.974281,-8956.491898,1378.971896,-3552.988522
1255.974593,-12065.356855,2834.553343,-3478.967927
1255.974904,-13989.892304,3600.648841,-3701.029710
1255.975216,-14211.954086,2221.676944,-1406.391290
1255.975527,-13249.686362,76.609550,888.247130
1255.975839,-10732.986159,-1915.238745,3330.926739
1255.976150,-7402.059420,-2528.115143,4367.215058
1255.976462,-4367.215058,-1225.752797,4589.276840
1255.976773,-2072.576638,-689.485948,3182.885551
1255.977085,-2294.638420,612.876398,740.205942
1255.977396,-4219.173869,919.314598,-1480.411884
1255.977707,-8290.306550,1838.629195,-4219.173869
1255.978019,-10807.006753,2987.772442,-3701.029710
1255.978330,-12879.583391,3370.820191,-2960.823768
1255.978642,-14211.954086,2528.115143,-2368.659014
1255.978953,-13989.892304,-766.095498,666.185348
1255.979265,-12361.439231,-2451.505594,2664.741391
1255.979576,-9030.512492,-2068.457845,4071.132681
1255.979888,-6587.832884,-1149.143247,4589.276840
1255.980199,-4367.215058,-612.876398,3627.009116
1255.980511,-3404.947333,-842.705048,2368.659014
1255.980822,-3330.926739,-612.876398,-222.061783
1255.981134,-6365.771101,-153.219100,-2146.597232
1255.981445,-9696.697840,1072.533697,-2812.782580
1255.981756,-13101.645173,2145.067394,-2072.576638
1255.982068,-14656.077652,1915.238745,-2146.597232
1255.982379,-14656.077652,536.266849,-222.061783
1255.982691,-13989.892304,0.000000,740.205942
1255.983002,-11325.150913,-1915.238745,2960.823768
1255.983314,-8586.388927,-1455.581446,2812.782580
1255.983625,-5773.606348,-612.876398,3034.844362
1255.983937,-3775.050304,-689.485948,2294.638420
1255.984248,-2368.659014,-689.485948,1702.473667
1255.984560,-3849.070898,-1455.581446,592.164754
1255.984871,-7920.203579,-1072.533697,-1702.473667
1255.985182,-11177.109724,689.485948,-1554.432478
1255.985494,-12953.603985,2528.115143,-1850.514855
1255.985805,-14582.057057,1685.410096,-1554.432478
1255.986117,-14211.954086,1072.533697,-0.000000
1255.986428,-12731.542202,-1608.800546,1924.535449
1255.986740,-8882.471304,-1915.238745,3108.864956
1255.987051,-6513.812290,-1838.629195,4367.215058
1255.987363,-4515.256246,-1838.629195,5033.400406
1255.987674,-3849.070898,-2221.676944,4219.173869
1255.987986,-4811.338623,-1455.581446,1184.329507
1255.988297,-6735.874072,-229.828649,-1406.391290
1255.988609,-9474.636058,1838.629195,-3627.009116
1255.988920,-11843.295072,3983.696590,-3330.926739
1255.989231,-12953.603985,3907.087040,-3627.009116
1255.989543,-13175.665768,1685.410096,-1628.453072
1255.989854,-12139.377449,-306.438199,888.247130
1255.990166,-9918.759623,-1455.581446,3034.844362
1255.990477,-7402.059420,-1455.581446,4293.194464
1255.990789,-4663.297435,-1302.362347,4885.359217
1255.991100,-2664.741391,-536.266849,2664.741391
1255.991412,-2738.761985,689.485948,1332.370696
1255.991723,-4219.173869,612.876398,-592.164754
1255.992035,-8660.409521,919.314598,-3775.050304
1255.992346,-11547.212695,2604.724693,-3034.844362
1255.992657,-14211.954086,3983.696590,-3256.906145
1255.992969,-14582.057057,2681.334243,-1924.535449
1255.993280,-13989.892304,0.000000,962.267725
1255.993592,-13101.645173,-2451.505594,2368.659014
1255.993903,-8808.450710,-2528.115143,3775.050304
1255.994215,-6291.750507,-1149.143247,4145.153275
1255.994526,-4367.215058,-689.485948,3627.009116
1255.994838,-3997.112087,-1608.800546,1702.473667
1255.995149,-4293.194464,-536.266849,-666.185348
1255.995461,-7179.997637,383.047749,-2146.597232
1255.995772,-10140.821405,1455.581446,-2960.823768
1255.996084,-12731.542202,2834.553343,-2368.659014
1255.996395,-14656.077652,2221.676944,-2368.659014
1255.996706,-13545.768739,0.000000,-0.000000
1255.997018,-12583.501014,-2145.067394,814.226536
1255.997329,-10288.862594,-2221.676944,2442.679609
1255.997641,-7550.100608,-2221.676944,2664.741391
1255.997952,-4737.318029,-1608.800546,2960.823768
1255.998264,-4071.132681,-1455.581446,2442.679609
1255.998575,-3034.844362,-1072.533697,1702.473667
1255.998887,-4959.379811,-1455.581446,740.205942
1255.999198,-9326.594869,-842.705048,-1998.556043
1255.999510,-12583.501014,612.876398,-1406.391290
1255.999821,-13915.871710,2834.553343,-1924.535449
1256.000132,-14063.912898,1915.238745,-1554.432478
1256.000444,-13249.686362,0.000000,370.102971
1256.000755,-11473.192101,-2068.457845,1776.494261
1256.001067,-7846.182985,-1991.848295,3627.009116
1256.001378,-5995.668130,-1685.410096,4441.235652
1256.001690,-4071.132681,-919.314598,4441.235652
1256.002001,-3997.112087,-1302.362347,2664.741391
1256.002313,-4589.276840,-689.485948,518.144159
1256.002624,-7031.956449,-383.047749,-1850.514855
1256.002936,-10140.821405,1225.752797,-3552.988522
1256.003247,-12657.521608,3677.258390,-2812.782580
1256.003559,-13767.830521,2834.553343,-2516.700203
1256.003870,-13545.768739,689.485948,-74.020594
1256.004181,-12731.542202,-1608.800546,1702.473667
1256.004493,-9622.677246,-2298.286494,3701.029710
1256.004804,-7105.977043,-1838.629195,3923.091493
1256.005116,-3997.112087,153.219100,4367.215058
1256.005427,-3404.947333,-229.828649,1924.535449
1256.005739,-2590.720797,459.657299,222.061783
1256.006050,-5255.462188,306.438199,-666.185348
1256.006362,-9030.512492,1378.971896,-2590.720797
1256.006673,-12065.356855,2528.115143,-1998.556043
1256.006985,-14063.912898,3447.429741,-2072.576638
1256.007296,-14211.954086,2298.286494,-666.185348
1256.007607,-12879.583391,306.438199,222.061783
1256.007919,-10658.965565,-1378.971896,2294.638420
1256.008230,-7846.182985,-1378.971896,2886.803174
1256.008542,-5403.503377,-383.047749,3552.988522
1256.008853,-4071.132681,-229.828649,2442.679609
1256.009165,-3923.091493,-306.438199,1332.370696
1256.009476,-4737.318029,-383.047749,-0.000000
1256.009788,-7476.080014,-306.438199,-2664.741391
1256.010099,-9474.636058,1072.533697,-2664.741391
1256.010411,-12657.521608,2298.286494,-2294.638420
1256.010722,-13693.809927,1072.533697,-1480.411884
1256.011034,-13175.665768,-766.095498,148.041188
1256.011345,-13027.624579,-2528.115143,1406.391290
1256.011656,-10362.883188,-3294.210641,2664.741391
1256.011968,-7994.224174,-2451.505594,2516.700203
1256.012279,-5551.544565,-1685.410096,2738.761985
1256.012591,-4219.173869,-2068.457845,2442.679609
1256.012902,-3849.070898,-2451.505594,888.247130
1256.013214,-6069.688724,-2374.896044,-296.082377
1256.013525,-9474.636058,-689.485948,-2072.576638
1256.013837,-12213.398043,1378.971896,-1924.535449
1256.014148,-13545.768739,2834.553343,-1998.556043
1256.014460,-13841.851115,2451.505594,-1406.391290
1256.014771,-13027.624579,229.828649,-0.000000
1256.015083,-10955.047942,-919.314598,2146.597232
1256.015394,-8882.471304,-1608.800546,2886.803174
1256.015705,-6513.812290,-612.876398,4219.173869
1256.016017,-4663.297435,-995.924147,3849.070898
1256.016328,-4071.132681,-1455.581446,2146.597232
1256.016640,-4885.359217,-842.705048,370.102971
1256.016951,-7402.059420,153.219100,-2516.700203
1256.017263,-10658.965565,2145.067394,-4367.215058
1256.017574,-12287.418637,4213.525239,-2960.823768
1256.017886,-14063.912898,3217.601092,-2368.659014
1256.018197,-13545.768739,1072.533697,-0.000000
1256.018509,-12213.398043,-995.924147,2960.823768
1256.018820,-9400.615463,-2145.067394,4663.297435
1256.019131,-6957.935855,-1378.971896,4663.297435
1256.019443,-3701.029710,-612.876398,4293.194464
1256.019754,-2368.659014,536.266849,1850.514855
1256.020066,-4219.173869,1762.019645,-1406.391290
1256.020377,-6439.791695,1685.410096,-2442.679609
1256.020689,-9548.656652,2757.943793,-3775.050304
1256.021000,-11695.253884,3370.820191,-2664.741391
1256.021312,-13101.645173,2987.772442,-1776.494261
1256.021623,-13397.727550,1072.533697,-0.000000
1256.021935,-12287.418637,-1225.752797,2146.597232
1256.022246,-10066.800811,-2298.286494,3404.947333
1256.022558,-7031.956449,-1225.752797,4293.194464
1256.022869,-4737.318029,76.609550,4145.153275
1256.023180,-4219.173869,0.000000,2368.659014
1256.023492,-3404.947333,689.485948,370.102971
1256.023803,-5255.462188,76.609550,-814.226536
1256.024115,-8956.491898,842.705048,-3627.009116
1256.024426,-11473.192101,1149.143247,-1924.535449
1256.024738,-12657.521608,1378.971896,-1628.453072
1256.025049,-13027.624579,-536.266849,-370.102971
1256.025361,-13249.686362,-1762.019645,-0.000000
1256.025672,-12065.356855,-2528.115143,1332.370696
1256.025984,-9474.636058,-2068.457845,2072.576638
1256.026295,-7031.956449,-1455.581446,2146.597232
1256.026606,-4885.359217,-1072.533697,2664.741391
1256.026918,-3330.926739,-1685.410096,3330.926739
1256.027229,-3256.906145,-1838.629195,2442.679609
1256.027541,-5403.503377,-2911.162892,518.144159
1256.027852,-9474.636058,-1838.629195,-1036.288319
1256.028164,-12065.356855,1149.143247,-1110.308913
1256.028475,-13915.871710,2528.115143,-2294.638420
1256.028787,-14656.077652,2068.457845,-1332.370696
1256.029098,-13841.851115,-383.047749,-888.247130
1256.029410,-11177.109724,-1378.971896,1406.391290
1256.029721,-8956.491898,-1991.848295,2146.597232
1256.030033,-8068.244768,-1915.238745,3330.926739
1256.030344,-5773.606348,-2068.457845,3997.112087
1256.030655,-4219.173869,-1608.800546,3034.844362
1256.030967,-5181.441594,-1608.800546,1406.391290
1256.031278,-6069.688724,-306.438199,-1776.494261
1256.031590,-9474.636058,2757.943793,-4071.132681
1256.031901,-11991.336260,4213.525239,-3478.967927
1256.032213,-11843.295072,3907.087040,-3034.844362
1256.032524,-13101.645173,1762.019645,-962.267725
1256.032836,-12287.418637,-383.047749,1406.391290
1256.033147,-9622.677246,-1532.190996,3701.029710
1256.033459,-6735.874072,-1685.410096,4293.194464
1256.033770,-4219.173869,-612.876398,3923.091493
1256.034081,-4071.132681,-229.828649,1258.350101
1256.034393,-4293.194464,0.000000,-740.205942
1256.034704,-6809.894666,842.705048,-2146.597232
1256.035016,-9992.780217,2451.505594,-3701.029710
1256.035327,-12287.418637,2911.162892,-2368.659014
1256.035639,-14137.933492,2681.334243,-1332.370696
1256.035950,-13323.706956,612.876398,1406.391290
1256.036262,-11769.274478,-1608.800546,2516.700203
1256.036573,-9474.636058,-2451.505594,4737.318029
1256.036885,-6143.709319,-1225.752797,4145.153275
1256.037196,-4293.194464,0.000000,2516.700203
1256.037508,-3330.926739,1072.533697,962.267725
1256.037819,-3108.864956,1302.362347,-1110.308913
1256.038130,-4663.297435,995.924147,-1406.391290
1256.038442,-8808.450710,1455.581446,-3404.947333
1256.038753,-10955.047942,1149.143247,-1036.288319
1256.039065,-12879.583391,459.657299,-888.247130
1256.039376,-12657.521608,-1072.533697,592.164754
1256.039688,-13471.748144,-2298.286494,740.205942
1256.039999,-11769.274478,-2987.772442,2072.576638
1256.040311,-9178.553681,-2451.505594,2738.761985
1256.040622,-6957.935855,-1762.019645,1998.556043
1256.040934,-5107.421000,-995.924147,1480.411884
1256.041245,-3849.070898,-1302.362347,1776.494261
1256.041556,-4737.318029,-1608.800546,1406.391290
1256.041868,-7105.977043,-1991.848295,-0.000000
1256.042179,-10214.842000,-1225.752797,-518.144159
1256.042491,-12879.583391,459.657299,-666.185348
1256.042802,-14137.933492,2451.505594,-1480.411884
1256.043114,-14285.974681,2068.457845,-1258.350101
1256.043425,-13101.645173,0.000000,-592.164754
1256.043737,-10066.800811,-1685.410096,1184.329507
1256.044048,-7846.182985,-1532.190996,2442.679609
1256.044360,-6291.750507,-1072.533697,3775.050304
1256.044671,-5625.565159,-1685.410096,3701.029710
1256.044983,-4885.359217,-1378.971896,2368.659014
1256.045294,-5551.544565,-1608.800546,814.226536
1256.045605,-7772.162391,-153.219100,-1998.556043
1256.045917,-10732.986159,1608.800546,-3108.864956
1256.046228,-12879.583391,3830.477490,-3701.029710
1256.046540,-13989.892304,3600.648841,-2664.741391
1256.046851,-13323.706956,1302.362347,-962.267725
1256.047163,-11843.295072,-1225.752797,2072.576638
1256.047474,-8660.409521,-2451.505594,3701.029710
1256.047786,-5107.421000,-1991.848295,4367.215058
1256.048097,-3108.864956,-842.705048,4293.194464
1256.048409,-2442.679609,-459.657299,2590.720797
1256.048720,-4441.235652,766.095498,-518.144159
1256.049032,-6883.915261,1838.629195,-2368.659014
1256.049343,-10436.903782,3370.820191,-3923.091493
1256.049654,-12139.377449,4060.306139,-2886.803174
1256.049966,-13323.706956,3370.820191,-2590.720797
1256.050277,-13471.748144,1608.800546,-0.000000
1256.050589,-11547.212695,-383.047749,1850.514855
1256.050900,-9104.533087,-1302.362347,3478.967927
1256.051212,-6809.894666,-919.314598,3997.112087
1256.051523,-3923.091493,0.000000,3849.070898
1256.051835,-3182.885551,-306.438199,1924.535449
1256.052146,-2738.761985,153.219100,-148.041188
1256.052458,-5255.462188,-306.438199,-1554.432478
1256.052769,-9400.615463,306.438199,-3256.906145
1256.053080,-11991.336260,1225.752797,-2146.597232
1256.053392,-14508.036463,1225.752797,-1850.514855
1256.053703,-14359.995275,-306.438199,222.061783
1256.054015,-13915.871710,-2068.457845,1480.411884
1256.054326,-12287.418637,-2757.943793,2368.659014
1256.054638,-8882.471304,-1685.410096,2590.720797
1256.054949,-5995.668130,-459.657299,2220.617826
1256.055261,-3478.967927,0.000000,2220.617826
1256.055572,-2664.741391,-1072.533697,962.267725
1256.055884,-4219.173869,-919.314598,1110.308913
1256.056195,-7698.141797,-1225.752797,-1110.308913
1256.056507,-10584.944971,536.266849,-962.267725
1256.056818,-13397.727550,1685.410096,-740.205942
1256.057129,-14804.118840,1685.410096,-1184.329507
1256.057441,-14211.954086,842.705048,-666.185348
1256.057752,-12731.542202,0.000000,148.041188
1256.058064,-10140.821405,-1072.533697,1406.391290
1256.058375,-8586.388927,-842.705048,2146.597232
1256.058687,-6069.688724,-459.657299,3849.070898
1256.058998,-4663.297435,-2145.067394,4737.318029
1256.059310,-4441.235652,-1991.848295,2812.782580
1256.059621,-5699.585753,-2221.676944,1036.288319
1256.059933,-8438.347739,-383.047749,-1850.514855
1256.060244,-11325.150913,2145.067394,-3108.864956
1256.060555,-12361.439231,4519.963438,-3923.091493
1256.060867,-13175.665768,4213.525239,-3108.864956
1256.061178,-13249.686362,919.314598,-962.267725
1256.061490,-11029.068536,-1149.143247,2146.597232
1256.061801,-8142.265362,-1991.848295,3701.029710
1256.062113,-5403.503377,-1225.752797,5181.441594
1256.062424,-3182.885551,-1225.752797,4589.276840
1256.062736,-2812.782580,-919.314598,2960.823768
1256.063047,-3923.091493,306.438199,-296.082377
1256.063359,-6217.729913,1532.190996,-2220.617826
1256.063670,-9474.636058,3140.991542,-4293.194464
1256.063982,-12361.439231,4060.306139,-3478.967927
1256.064293,-14063.912898,3064.381992,-2516.700203
1256.064604,-13989.892304,842.705048,296.082377
1256.064916,-13175.665768,-1608.800546,2368.659014
1256.065227,-10510.924376,-2298.286494,4589.276840
1256.065539,-7031.956449,-1072.533697,4737.318029
1256.065850,-4663.297435,-459.657299,3478.967927
1256.066162,-2812.782580,0.000000,1702.473667
1256.066473,-2072.576638,0.000000,-518.144159
1256.066785,-4959.379811,-842.705048,-1776.494261
1256.067096,-9104.533087,229.828649,-3552.988522
1256.067408,-11695.253884,1072.533697,-1776.494261
1256.067719,-14285.974681,1225.752797,-1924.535449
1256.068030,-14878.139434,-306.438199,-296.082377
1256.068342,-14359.995275,-2834.553343,1258.350101
1256.068653,-12139.377449,-3217.601092,2516.700203
1256.068965,-8956.491898,-1762.019645,2664.741391
1256.069276,-6587.832884,-766.095498,1480.411884
1256.069588,-4367.215058,-536.266849,1850.514855
1256.069899,-2812.782580,-919.314598,1702.473667
1256.070211,-3034.844362,-1838.629195,1628.453072
1256.070522,-6661.853478,-2221.676944,-666.185348
1256.070834,-10881.027347,-1072.533697,-740.205942
1256.071145,-13249.686362,1608.800546,-444.123565
1256.071457,-14730.098246,2068.457845,-1628.453072
1256.071768,-14285.974681,1072.533697,-814.226536
1256.072080,-13323.706956,-919.314598,296.082377
1256.072391,-9474.636058,-1685.410096,1628.453072
1256.072702,-7994.224174,-1378.971896,1998.556043
1256.073014,-6069.688724,-229.828649,3552.988522
1256.073325,-4737.318029,-1302.362347,4219.173869
1256.073637,-4441.235652,-1685.410096,2516.700203
1256.073948,-5699.585753,-1378.971896,962.267725
1256.074260,-8364.327145,229.828649,-2294.638420
1256.074571,-11029.068536,2145.067394,-2960.823768
1256.074883,-12435.459826,4366.744339,-3552.988522
1256.075194,-13841.851115,3294.210641,-2442.679609
1256.075506,-13249.686362,766.095498,-370.102971
1256.075817,-10955.047942,-995.924147,2812.782580
1256.076129,-8068.244768,-2145.067394,4663.297435
1256.076440,-5033.400406,-1762.019645,5551.544565
1256.076752,-2738.761985,-1072.533697,4737.318029
1256.077063,-2738.761985,-536.266849,1850.514855
1256.077375,-4663.297435,229.828649,-962.267725
1256.077686,-7476.080014,2221.676944,-3849.070898
1256.077998,-10140.821405,3983.696590,-4367.215058
1256.078309,-12361.439231,4519.963438,-2960.823768
1256.078620,-13693.809927,2987.772442,-1702.473667
1256.078932,-12805.562797,-229.828649,1110.308913
1256.079243,-11769.274478,-2298.286494,2738.761985
1256.079555,-9030.512492,-2221.676944,4737.318029
1256.079866,-5403.503377,-689.485948,4441.235652
1256.080178,-4071.132681,0.000000,3108.864956
1256.080489,-3478.967927,229.828649,1258.350101
1256.080801,-2590.720797,0.000000,-1480.411884
1256.081112,-6291.750507,-536.266849,-2516.700203
1256.081424,-9770.718434,153.219100,-3182.885551
1256.081735,-12657.521608,153.219100,-1480.411884
1256.082047,-14211.954086,-306.438199,-1036.288319
1256.082358,-14137.933492,-2374.896044,296.082377
1256.082670,-14063.912898,-2834.553343,888.247130
1256.082981,-11843.295072,-3447.429741,2294.638420
1256.083293,-8808.450710,-1532.190996,1776.494261
1256.083604,-6661.853478,-612.876398,1702.473667
1256.083915,-5255.462188,-153.219100,1406.391290
1256.084227,-3330.926739,-229.828649,1184.329507
1256.084538,-3478.967927,-1149.143247,1258.350101
1256.084850,-7994.224174,-1991.848295,-888.247130
1256.085161,-10510.924376,-1608.800546,-148.041188
1256.085473,-13175.665768,1378.971896,-1998.556043
1256.085784,-15174.221811,2145.067394,-2146.597232
1256.086096,-15100.201217,1608.800546,-814.226536
1256.086407,-13693.809927,0.000000,-518.144159
1256.086719,-10140.821405,-766.095498,1110.308913
1256.087030,-7920.203579,-1378.971896,2368.659014
1256.087342,-5921.647536,-1225.752797,3849.070898
1256.087653,-4515.256246,-1608.800546,4737.318029
1256.087965,-4589.276840,-766.095498,2960.823768
1256.088276,-6217.729913,-1225.752797,518.144159
1256.088588,-9474.636058,459.657299,-2886.803174
1256.088899,-11399.171507,3524.039291,-3923.091493
1256.089210,-11991.336260,5132.839837,-4145.153275
1256.089522,-12213.398043,3753.867940,-2442.679609
1256.089833,-11843.295072,383.047749,-0.000000
1256.090145,-9918.759623,-2298.286494,3552.988522
1256.090456,-7105.977043,-2987.772442,4959.379811
1256.090768,-4367.215058,-1455.581446,5847.626942
1256.091079,-3182.885551,0.000000,3775.050304
1256.091391,-3330.926739,1149.143247,814.226536
1256.091702,-5329.482782,2374.896044,-2294.638420
1256.092014,-7846.182985,2681.334243,-3997.112087
1256.092325,-10140.821405,3140.991542,-4219.173869
1256.092637,-11843.295072,3370.820191,-1924.535449
1256.092948,-13397.727550,2068.457845,-888.247130
1256.093260,-13101.645173,-689.485948,1998.556043
1256.093571,-11843.295072,-2451.505594,3478.967927
1256.093883,-8586.388927,-2221.676944,4885.359217
1256.094194,-6069.688724,-536.266849,4441.235652
1256.094505,-4367.215058,1302.362347,2960.823768
1256.094817,-4515.256246,1072.533697,444.123565
1256.095128,-4959.379811,1532.190996,-1850.514855
1256.095440,-7476.080014,76.609550,-2368.659014
1256.095751,-10214.842000,306.438199,-2516.700203
1256.096063,-12583.501014,153.219100,-888.247130
1256.096374,-13841.851115,0.000000,-518.144159
1256.096686,-13915.871710,-2451.505594,592.164754
1256.096997,-13101.645173,-3064.381992,888.247130
1256.097309,-10658.965565,-3140.991542,2146.597232
1256.097620,-7994.224174,-1608.800546,1924.535449
1256.097932,-6735.874072,-919.314598,1850.514855
1256.098243,-5255.462188,-766.095498,1924.535449
1256.098555,-4219.173869,-459.657299,1258.350101
1256.098866,-5181.441594,-1608.800546,1332.370696
1256.099178,-8216.285956,-1685.410096,-444.123565
1256.099489,-11177.109724,-306.438199,-148.041188
1256.099800,-13101.645173,1762.019645,-1628.453072
1256.100112,-13693.809927,1149.143247,-1406.391290
1256.100423,-13471.748144,0.000000,-962.267725
1256.100735,-11991.336260,-1149.143247,-370.102971
1256.101046,-8882.471304,-1532.190996,1850.514855
1256.101358,-7105.977043,-1915.238745,2738.761985
1256.101669,-6439.791695,-1685.410096,3627.009116
1256.101981,-5699.585753,-1915.238745,3404.947333
1256.102292,-5477.523971,-1225.752797,2368.659014
1256.102604,-6587.832884,-536.266849,-444.123565
1256.102915,-9474.636058,995.924147,-3182.885551
1256.103227,-11103.089130,2681.334243,-3923.091493
1256.103538,-11769.274478,3830.477490,-3849.070898
1256.103850,-12139.377449,2528.115143,-1702.473667
1256.104161,-11769.274478,-153.219100,148.041188
1256.104473,-9696.697840,-2374.896044,3256.906145
1256.104784,-7550.100608,-3064.381992,4145.153275
1256.105095,-5403.503377,-1072.533697,5033.400406
1256.105407,-3404.947333,0.000000,2368.659014
1256.105718,-3552.988522,995.924147,-0.000000
1256.106030,-5329.482782,1225.752797,-2072.576638
1256.106341,-8216.285956,2221.676944,-4663.297435
1256.106653,-10584.944971,3064.381992,-4219.173869
1256.106964,-13101.645173,3830.477490,-2738.761985
1256.107276,-14211.954086,2374.896044,-1110.308913
1256.107587,-13323.706956,-612.876398,1776.494261
1256.107899,-11621.233289,-2757.943793,4145.153275
1256.108210,-8512.368333,-3294.210641,5181.441594
1256.108522,-5403.503377,-2145.067394,4811.338623
1256.108833,-2960.823768,-306.438199,3478.967927
1256.109145,-2590.720797,229.828649,1554.432478
1256.109456,-4071.132681,0.000000,-962.267725
1256.109768,-7179.997637,-919.314598,-2368.659014
1256.110079,-10436.903782,536.266849,-1850.514855
1256.110390,-12731.542202,995.924147,-592.164754
1256.110702,-14656.077652,0.000000,-74.020594
1256.111013,-14656.077652,-1532.190996,1332.370696
1256.111325,-13175.665768,-2834.553343,2220.617826
1256.111636,-10214.842000,-2528.115143,3256.906145
1256.111948,-7476.080014,-1608.800546,2664.741391
1256.112259,-4737.318029,-229.828649,2294.638420
1256.112571,-3627.009116,153.219100,2368.659014
1256.112882,-2812.782580,229.828649,1332.370696
1256.113194,-4219.173869,-919.314598,1110.308913
1256.113505,-7846.182985,-459.657299,-888.247130
1256.113817,-11621.233289,1072.533697,-814.226536
1256.114128,-14434.015869,2221.676944,-1776.494261
1256.114440,-14359.995275,2374.896044,-1406.391290
1256.114751,-13101.645173,459.657299,-444.123565
1256.115063,-11621.233289,-1915.238745,666.185348
1256.115374,-8438.347739,-2834.553343,2442.679609
1256.115685,-6883.915261,-2451.505594,3404.947333
1256.115997,-5773.606348,-1762.019645,3923.091493
1256.116308,-4737.318029,-2145.067394,3330.926739
1256.116620,-5625.565159,-1915.238745,1924.535449
1256.116931,-7179.997637,-842.705048,-1110.308913
1256.117243,-10214.842000,766.095498,-3478.967927
1256.117554,-11991.336260,2987.772442,-3330.926739
1256.117866,-12953.603985,3983.696590,-3627.009116
1256.118177,-12583.501014,2528.115143,-1702.473667
1256.118489,-11547.212695,0.000000,666.185348
1256.118800,-9252.574275,-1838.629195,2886.803174
1256.119112,-5995.668130,-1532.190996,3552.988522
1256.119423,-3330.926739,0.000000,3775.050304
1256.119735,-3330.926739,229.828649,1332.370696
1256.120046,-4071.132681,1302.362347,-222.061783
1256.120358,-5773.606348,1838.629195,-1776.494261
1256.120669,-9548.656652,1838.629195,-3775.050304
1256.120980,-11547.212695,1915.238745,-3478.967927
1256.121292,-13397.727550,2374.896044,-2886.803174
1256.121603,-13323.706956,2068.457845,-1258.350101
1256.121915,-13027.624579,-1378.971896,518.144159
1256.122226,-12139.377449,-2451.505594,3108.864956
1256.122538,-8808.450710,-2145.067394,4071.132681
1256.122849,-6365.771101,-919.314598,3775.050304
1256.123161,-4589.276840,-76.609550,2960.823768
1256.123472,-4515.256246,76.609550,1258.350101
1256.123784,-5847.626942,229.828649,-1036.288319
1256.124095,-7846.182985,689.485948,-3404.947333
1256.124407,-9548.656652,1072.533697,-2368.659014
1256.124718,-11991.336260,1762.019645,-2220.617826
1256.125030,-13545.768739,1072.533697,-1480.411884
1256.125341,-13249.686362,-689.485948,666.185348
1256.125653,-12805.562797,-2451.505594,1924.535449
1256.125964,-10214.842000,-2374.896044,3478.967927
1256.126275,-7476.080014,-1532.190996,3701.029710
1256.126587,-6291.750507,-612.876398,2960.823768
1256.126898,-4811.338623,-383.047749,2442.679609
1256.127210,-3997.112087,459.657299,1184.329507
1256.127521,-6069.688724,-536.266849,370.102971
1256.127833,-9178.553681,-229.828649,-814.226536
1256.128144,-12435.459826,766.095498,-888.247130
1256.128456,-12583.501014,2145.067394,-1258.350101
1256.128767,-13175.665768,1149.143247,-296.082377
1256.129079,-12879.583391,0.000000,-0.000000
1256.129390,-10732.986159,-2068.457845,2072.576638
1256.129702,-7698.141797,-2068.457845,3182.885551
1256.130013,-5995.668130,-1378.971896,4219.173869
1256.130325,-4737.318029,-842.705048,4071.132681
1256.130636,-4219.173869,-1302.362347,3108.864956
1256.130948,-5255.462188,-1302.362347,1332.370696
1256.131259,-7031.956449,153.219100,-1628.453072
1256.131570,-9252.574275,1608.800546,-2812.782580
1256.131882,-11547.212695,3600.648841,-3256.906145
1256.132193,-12583.501014,3217.601092,-3404.947333
1256.132505,-12731.542202,1072.533697,-962.267725
1256.132816,-11917.315666,-612.876398,1406.391290
1256.133128,-9252.574275,-2221.676944,3330.926739
1256.133439,-6365.771101,-1915.238745,4219.173869
1256.133751,-3849.070898,-1378.971896,4515.256246
1256.134062,-3997.112087,-1149.143247,2368.659014
1256.134374,-4219.173869,612.876398,-370.102971
1256.134685,-6661.853478,1302.362347,-2294.638420
1256.134997,-9622.677246,2374.896044,-4145.153275
1256.135308,-12805.562797,3294.210641,-3478.967927
1256.135620,-14211.954086,3600.648841,-2516.700203
1256.135931,-14211.954086,1532.190996,-592.164754
1256.136243,-13323.706956,-766.095498,1036.288319
1256.136554,-10658.965565,-1838.629195,3108.864956
1256.136865,-7698.141797,-1455.581446,3923.091493
1256.137177,-4885.359217,-306.438199,3330.926739
1256.137488,-3849.070898,0.000000,1998.556043
1256.137800,-3108.864956,383.047749,444.123565
1256.138111,-4367.215058,612.876398,-1406.391290
1256.138423,-8882.471304,-995.924147,-3627.009116
1256.138734,-10658.965565,536.266849,-2368.659014
1256.139046,-13323.706956,842.705048,-1850.514855
1256.139357,-14656.077652,-306.438199,-518.144159
1256.139669,-14434.015869,-2145.067394,1110.308913
1256.139980,-13545.768739,-3217.601092,2368.659014
1256.140292,-9622.677246,-2604.724693,3182.885551
1256.140603,-7105.977043,-1455.581446,2516.700203
1256.140915,-4219.173869,0.000000,2664.741391
1256.141226,-2886.803174,-306.438199,1998.556043
1256.141538,-3182.885551,-306.438199,1406.391290
1256.141849,-5551.544565,-995.924147,-370.102971
1256.142160,-8956.491898,-306.438199,-1554.432478
1256.142472,-11547.212695,1072.533697,-1184.329507
1256.142783,-13619.789333,1838.629195,-1924.535449
1256.143095,-13249.686362,919.314598,-296.082377
1256.143406,-13101.645173,-1302.362347,592.164754
1256.143718,-10807.006753,-2221.676944,2368.659014
1256.144029,-8068.244768,-2145.067394,3182.885551
1256.144341,-6365.771101,-1302.362347,3849.070898
1256.144652,-5033.400406,-1149.143247,3923.091493
1256.144964,-4145.153275,-842.705048,2664.741391
1256.145275,-4663.297435,-1455.581446,1702.473667
1256.145587,-7105.977043,306.438199,-2146.597232
1256.145898,-9474.636058,1455.581446,-2738.761985
1256.146210,-12065.356855,2911.162892,-3256.906145
1256.146521,-13101.645173,2911.162892,-2220.617826
1256.146833,-13027.624579,689.485948,-74.020594
1256.147144,-11769.274478,-1225.752797,2146.597232
1256.147455,-9326.594869,-2451.505594,3849.070898
1256.147767,-6587.832884,-2068.457845,4219.173869
1256.148078,-4811.338623,-689.485948,3330.926739
1256.148390,-3256.906145,229.828649,2368.659014
1256.148701,-4441.235652,1685.410096,-740.205942
1256.149013,-6439.791695,1762.019645,-2368.659014
1256.149324,-10066.800811,1991.848295,-3701.029710
1256.149636,-12509.480420,2604.724693,-2738.761985
1256.149947,-13767.830521,2987.772442,-2368.659014
1256.150259,-13915.871710,612.876398,148.041188
1256.150570,-12435.459826,-1685.410096,1110.308913
1256.150882,-10584.944971,-2757.943793,3404.947333
1256.151193,-7402.059420,-2221.676944,4071.132681
1256.151505,-4885.359217,-842.705048,3849.070898
1256.151816,-4515.256246,0.000000,1850.514855
1256.152128,-3627.009116,306.438199,-0.000000
1256.152439,-4441.235652,229.828649,-1554.432478
1256.152750,-8290.306550,1072.533697,-3404.947333
1256.153062,-10732.986159,1072.533697,-2664.741391
1256.153373,-12879.583391,1455.581446,-2442.679609
1256.153685,-13767.830521,229.828649,-740.205942
1256.153996,-13915.871710,-1455.581446,592.164754
1256.154308,-12805.562797,-2374.896044,2368.659014
1256.154619,-9548.656652,-1302.362347,3034.844362
1256.154931,-6883.915261,-995.924147,1850.514855
1256.155242,-3849.070898,-459.657299,1998.556043
1256.155554,-3404.947333,-612.876398,1480.411884
1256.155865,-3552.988522,0.000000,740.205942
1256.156177,-7105.977043,-919.314598,-1628.453072
1256.156488,-10214.842000,-536.266849,-1702.473667
1256.156800,-12583.501014,689.485948,-1406.391290
1256.157111,-13989.892304,1225.752797,-1776.494261
1256.157423,-13915.871710,0.000000,-814.226536
1256.157734,-13767.830521,-1762.019645,518.144159
1256.158045,-10510.924376,-1532.190996,2368.659014
1256.158357,-8438.347739,-1302.362347,3182.885551
1256.158668,-6809.894666,-842.705048,4071.132681
1256.158980,-5107.421000,-459.657299,3997.112087
1256.159291,-4589.276840,0.000000,2220.617826
1256.159603,-5551.544565,0.000000,370.102971
1256.159914,-7920.203579,459.657299,-2738.761985
1256.160226,-10066.800811,2911.162892,-3330.926739
1256.160537,-11917.315666,4213.525239,-3478.967927
1256.160849,-11917.315666,2987.772442,-2294.638420
1256.161160,-11991.336260,306.438199,-296.082377
1256.161472,-10955.047942,-2068.457845,2516.700203
1256.161783,-8808.450710,-2451.505594,4219.173869
1256.162095,-6069.688724,-919.314598,4885.359217
1256.162406,-4071.132681,995.924147,4145.153275
1256.162718,-4071.132681,0.000000,2664.741391
1256.163029,-4219.173869,689.485948,-740.205942
1256.163340,-7179.997637,1838.629195,-2812.782580
1256.163652,-9622.677246,2528.115143,-3997.112087
1256.163963,-11917.315666,3294.210641,-2812.782580
1256.164275,-13323.706956,2911.162892,-1776.494261
1256.164586,-13471.748144,689.485948,370.102971
1256.164898,-12509.480420,-1838.629195,1924.535449
1256.165209,-9770.718434,-2528.115143,4071.132681
1256.165521,-6883.915261,-1838.629195,4293.194464
1256.165832,-5033.400406,-306.438199,3997.112087
1256.166144,-4737.318029,-306.438199,2368.659014
1256.166455,-4663.297435,-153.219100,-0.000000
1256.166767,-6143.709319,-153.219100,-888.247130
1256.167078,-9178.553681,0.000000,-3404.947333
1256.167390,-11251.130318,919.314598,-2146.597232
1256.167701,-12287.418637,766.095498,-1776.494261
1256.168013,-12731.542202,-689.485948,-444.123565
1256.168324,-13175.665768,-2757.943793,814.226536
1256.168636,-11991.336260,-2911.162892,2738.761985
1256.168947,-9400.615463,-1762.019645,3108.864956
1256.169258,-7402.059420,-919.314598,2442.679609
1256.169570,-4811.338623,-153.219100,1924.535449
1256.169881,-3404.947333,-842.705048,1332.370696
1256.170193,-3330.926739,-383.047749,1036.288319
1256.170504,-7105.977043,-1378.971896,-1628.453072
1256.170816,-10436.903782,-842.705048,-1258.350101
1256.171127,-11991.336260,689.485948,-1332.370696
1256.171439,-13989.892304,919.314598,-1924.535449
1256.171750,-13915.871710,-842.705048,-1036.288319
1256.172062,-12361.439231,-1762.019645,592.164754
1256.172373,-9918.759623,-1838.629195,2220.617826
1256.172685,-7772.162391,-1838.629195,2812.782580
1256.172996,-7179.997637,-842.705048,3849.070898
1256.173308,-6217.729913,-536.266849,3627.009116
1256.173619,-5773.606348,0.000000,2146.597232
1256.173931,-6365.771101,153.219100,-0.000000
1256.174242,-7698.141797,2068.457845,-2886.803174
1256.174554,-10658.965565,3447.429741,-3256.906145
1256.174865,-11399.171507,4136.915689,-3701.029710
1256.175176,-12213.398043,2221.676944,-1850.514855
1256.175488,-11843.295072,-383.047749,-0.000000
1256.175799,-10510.924376,-2298.286494,3330.926739
1256.176111,-8734.430116,-3140.991542,4145.153275
1256.176422,-6217.729913,-2068.457845,4737.318029
1256.176734,-4441.235652,-536.266849,3552.988522
1256.177045,-3404.947333,1149.143247,1332.370696
1256.177357,-4441.235652,2298.286494,-1184.329507
1256.177668,-7772.162391,2834.553343,-3478.967927
1256.177980,-10140.821405,2681.334243,-3330.926739
1256.178291,-12213.398043,2987.772442,-2146.597232
1256.178603,-13027.624579,2298.286494,-1110.308913
1256.178914,-12805.562797,383.047749,1036.288319
1256.179226,-11695.253884,-1762.019645,3108.864956
1256.179537,-9400.615463,-2528.115143,4071.132681
1256.179849,-5699.585753,-1915.238745,4663.297435
1256.180160,-5033.400406,-536.266849,3034.844362
1256.180472,-4885.359217,0.000000,2072.576638
1256.180783,-4589.276840,842.705048,-1110.308913
1256.181095,-6143.709319,0.000000,-2072.576638
1256.181406,-8660.409521,76.609550,-2590.720797
1256.181718,-11325.150913,536.266849,-1628.453072
1256.182029,-13249.686362,995.924147,-1110.308913
1256.182341,-14063.912898,-1991.848295,444.123565
1256.182652,-13767.830521,-2221.676944,1036.288319
1256.182963,-12139.377449,-2834.553343,2442.679609
1256.183275,-8364.327145,-1762.019645,2516.700203
1256.183586,-5921.647536,-919.314598,1924.535449
1256.183898,-4589.276840,-612.876398,1776.494261
1256.184209,-2368.659014,-459.657299,1110.308913
1256.184521,-3478.967927,-2374.896044,740.205942
1256.184832,-7402.059420,-1455.581446,-1406.391290
1256.185144,-11177.109724,-1532.190996,-740.205942
1256.185455,-13767.830521,459.657299,-1332.370696
1256.185767,-14804.118840,459.657299,-814.226536
1256.186078,-14137.933492,229.828649,-592.164754
1256.186390,-12583.501014,-1915.238745,-0.000000
1256.186701,-10214.842000,-2757.943793,2146.597232
1256.187013,-7105.977043,-1302.362347,3108.864956
1256.187324,-6143.709319,-1225.752797,3627.009116
1256.187636,-5329.482782,-766.095498,3997.112087
1256.187947,-4885.359217,76.609550,2294.638420
1256.188259,-6661.853478,612.876398,-296.082377
1256.188570,-8808.450710,2451.505594,-2886.803174
1256.188882,-10732.986159,4519.963438,-3478.967927
1256.189193,-12509.480420,4979.620737,-4145.153275
1256.189505,-13397.727550,3600.648841,-1998.556043
1256.189816,-12583.501014,0.000000,-0.000000
1256.190128,-10955.047942,-2145.067394,2960.823768
1256.190439,-8438.347739,-2604.724693,4293.194464
1256.190750,-5847.626942,-1762.019645,4441.235652
1256.191062,-3923.091493,-995.924147,2738.761985
1256.191373,-3256.906145,766.095498,740.205942
1256.191685,-4515.256246,766.095498,-444.123565
1256.191996,-7179.997637,1991.848295,-3034.844362
1256.192308,-10140.821405,3217.601092,-3478.967927
1256.192619,-12287.418637,3830.477490,-2294.638420
1256.192931,-13101.645173,2681.334243,-1406.391290
1256.193242,-12435.459826,612.876398,1184.329507
1256.193554,-11843.295072,-1532.190996,3034.844362
1256.193865,-8660.409521,-2221.676944,4441.235652
1256.194177,-5847.626942,-1072.533697,4145.153275
1256.194488,-4663.297435,-229.828649,3182.885551
1256.194800,-4515.256246,536.266849,1554.432478
1256.195111,-4663.297435,1455.581446,-1258.350101
1256.195423,-6291.750507,229.828649,-2664.741391
1256.195734,-8290.306550,689.485948,-2960.823768
1256.196046,-10732.986159,995.924147,-2294.638420
1256.196357,-12657.521608,919.314598,-1628.453072
1256.196669,-12731.542202,-229.828649,518.144159
1256.196980,-12657.521608,-2374.896044,1258.350101
1256.197292,-11029.068536,-2604.724693,2886.803174
1256.197603,-8808.450710,-2068.457845,3330.926739
1256.197914,-6809.894666,-1455.581446,2664.741391
1256.198226,-5699.585753,-536.266849,1924.535449
1256.198537,-4441.235652,-459.657299,962.267725
1256.198849,-5329.482782,-1685.410096,-0.000000
1256.199160,-8438.347739,-995.924147,-1554.432478
1256.199472,-11917.315666,-995.924147,-1776.494261
1256.199783,-13249.686362,1072.533697,-1998.556043
1256.200095,-13915.871710,919.314598,-1184.329507
1256.200406,-13471.748144,0.000000,-666.185348
1256.200718,-12509.480420,-1455.581446,888.247130
1256.201029,-9696.697840,-1685.410096,2738.761985
1256.201341,-7402.059420,-919.314598,3182.885551
1256.201652,-5625.565159,-689.485948,4219.173869
1256.201964,-4811.338623,-1149.143247,3627.009116
1256.202275,-5477.523971,-766.095498,2146.597232
1256.202587,-7105.977043,0.000000,-1110.308913
1256.202898,-9474.636058,1302.362347,-2960.823768
1256.203210,-11399.171507,2757.943793,-3478.967927
1256.203521,-12361.439231,3294.210641,-3849.070898
1256.203833,-12509.480420,2068.457845,-1406.391290
1256.204144,-11695.253884,-766.095498,296.082377
1256.204456,-9844.739029,-2068.457845,3256.906145
1256.204767,-7328.038826,-2374.896044,4145.153275
1256.205079,-5329.482782,-1072.533697,4737.318029
1256.205390,-4219.173869,-459.657299,2960.823768
1256.205701,-4515.256246,1149.143247,962.267725
1256.206013,-4885.359217,1915.238745,-74.020594
1256.206324,-7846.182985,2451.505594,-3256.906145
1256.206636,-10362.883188,2834.553343,-2590.720797
1256.206947,-11991.336260,3600.648841,-2590.720797
1256.207259,-12657.521608,2451.505594,-1258.350101
1256.207570,-12213.398043,0.000000,1036.288319
1256.207882,-11177.109724,-1532.190996,3256.906145
1256.208193,-7698.141797,-1838.629195,4145.153275
1256.208505,-5329.482782,-1838.629195,4071.132681
1256.208816,-4071.132681,-536.266849,3182.885551
1256.209128,-4367.215058,-689.485948,1628.453072
1256.209439,-5847.626942,229.828649,-962.267725
1256.209751,-7920.203579,-383.047749,-2294.638420
1256.210062,-10807.006753,0.000000,-2368.659014
1256.210374,-12879.583391,76.609550,-1628.453072
1256.210685,-13767.830521,-612.876398,-1628.453072
1256.210997,-13101.645173,-1378.971896,814.226536
1256.211308,-12065.356855,-2757.943793,1628.453072
1256.211620,-10066.800811,-2451.505594,2812.782580
1256.211931,-7698.141797,-1608.800546,3182.885551
1256.212243,-5403.503377,-612.876398,2738.761985
1256.212554,-4589.276840,0.000000,2072.576638
1256.212866,-3849.070898,536.266849,444.123565
1256.213177,-5625.565159,0.000000,-592.164754
1256.213488,-9030.512492,0.000000,-1998.556043
1256.213800,-12361.439231,76.609550,-962.267725
1256.214111,-14211.954086,1532.190996,-1628.453072
1256.214423,-14656.077652,612.876398,-444.123565
1256.214734,-13619.789333,-842.705048,-0.000000
1256.215046,-11843.295072,-1991.848295,1480.411884
1256.215357,-8660.409521,-1915.238745,2738.761985
1256.215669,-5921.647536,-1149.143247,3256.906145
1256.215980,-4737.318029,-383.047749,3256.906145
1256.216292,-4219.173869,306.438199,2220.617826
1256.216603,-5181.441594,-612.876398,1258.350101
1256.216915,-7624.121203,0.000000,-1554.432478
1256.217226,-10362.883188,1455.581446,-2664.741391
1256.217538,-12213.398043,2451.505594,-2516.700203
1256.217849,-12435.459826,2221.676944,-2590.720797
1256.218161,-12583.501014,536.266849,-222.061783
1256.218472,-11695.253884,-1838.629195,1480.411884
1256.218784,-9104.533087,-3753.867940,3552.988522
1256.219095,-6957.935855,-2681.334243,4145.153275
1256.219407,-4737.318029,-689.485948,3849.070898
1256.219718,-3849.070898,306.438199,2072.576638
1256.220030,-3923.091493,2068.457845,-222.061783
1256.220341,-6069.688724,2681.334243,-1628.453072
1256.220653,-8660.409521,2451.505594,-3552.988522
1256.220964,-11621.233289,2757.943793,-2590.720797
1256.221275,-13027.624579,3140.991542,-1998.556043
1256.221587,-13027.624579,1685.410096,148.041188
1256.221898,-11991.336260,-766.095498,1406.391290
1256.222210,-9992.780217,-2757.943793,3182.885551
1256.222521,-7031.956449,-1532.190996,3552.988522
1256.222833,-4293.194464,-1608.800546,3701.029710
1256.223144,-3775.050304,229.828649,1850.514855
1256.223456,-4293.194464,0.000000,-0.000000
1256.223767,-5625.565159,-229.828649,-1258.350101
1256.224079,-8586.388927,229.828649,-2738.761985
1256.224390,-11251.130318,459.657299,-2220.617826
1256.224702,-13027.624579,536.266849,-1776.494261
1256.225013,-14582.057057,-689.485948,-1184.329507
1256.225325,-13397.727550,-1608.800546,1036.288319
1256.225636,-13175.665768,-2911.162892,2294.638420
1256.225948,-10140.821405,-2451.505594,3108.864956
1256.226259,-8068.244768,-1915.238745,2590.720797
1256.226571,-5181.441594,-842.705048,2664.741391
1256.226882,-3256.906145,0.000000,1184.329507
1256.227194,-4293.194464,612.876398,-0.000000
1256.227505,-5921.647536,153.219100,-1036.288319
1256.227817,-9622.677246,306.438199,-2886.803174
1256.228128,-12361.439231,842.705048,-1480.411884
1256.228440,-13619.789333,1378.971896,-1702.473667
1256.228751,-14211.954086,536.266849,-666.185348
1256.229062,-13693.809927,-766.095498,296.082377
1256.229374,-11399.171507,-2145.067394,2072.576638
1256.229685,-8808.450710,-1915.238745,3330.926739
1256.229997,-6809.894666,-459.657299,4219.173869
1256.230308,-4959.379811,0.000000,3478.967927
1256.230620,-3997.112087,0.000000,2368.659014
1256.230931,-4589.276840,-919.314598,1332.370696
1256.231243,-6883.915261,306.438199,-2442.679609
1256.231554,-9992.780217,1762.019645,-3404.947333
1256.231866,-12139.377449,3370.820191,-3404.947333
1256.232177,-12213.398043,2451.505594,-2220.617826
1256.232489,-11991.336260,229.828649,-74.020594
1256.232800,-11325.150913,-2221.676944,2442.679609
1256.233112,-8882.471304,-2528.115143,4367.215058
1256.233423,-6513.812290,-2834.553343,4663.297435
1256.233735,-4293.194464,0.000000,4219.173869
1256.234046,-3849.070898,1455.581446,2072.576638
1256.234358,-4071.132681,2528.115143,-1036.288319
1256.234669,-6217.729913,2834.553343,-2812.782580
1256.234981,-8660.409521,2757.943793,-3997.112087
1256.235292,-11177.109724,2911.162892,-3182.885551
1256.235604,-12879.583391,2451.505594,-2146.597232
1256.235915,-12731.542202,459.657299,814.226536
1256.236227,-13101.645173,-1838.629195,2294.638420
1256.236538,-10658.965565,-3294.210641,4737.318029
1256.236849,-7624.121203,-2451.505594,4959.379811
1256.237161,-5107.421000,-842.705048,4145.153275
1256.237472,-4737.318029,0.000000,1554.432478
1256.237784,-4663.297435,459.657299,-444.123565
1256.238095,-5995.668130,766.095498,-1850.514855
1256.238407,-9548.656652,842.705048,-3552.988522
1256.238718,-11695.253884,1455.581446,-2442.679609
1256.239030,-13397.727550,1225.752797,-2442.679609
1256.239341,-13471.748144,459.657299,-1036.288319
1256.239653,-13101.645173,-1072.533697,444.123565
1256.239964,-12213.398043,-2451.505594,2664.741391
1256.240276,-9770.718434,-2221.676944,3478.967927
1256.240587,-7698.141797,-2221.676944,3552.988522
1256.240899,-4441.235652,-689.485948,3330.926739
1256.241210,-2960.823768,-766.095498,1998.556043
1256.241522,-3997.112087,-459.657299,370.102971
1256.241833,-6587.832884,-995.924147,-2146.597232
1256.242145,-9844.739029,-766.095498,-2960.823768
1256.242456,-12065.356855,995.924147,-2590.720797
1256.242768,-13471.748144,1532.190996,-2294.638420
1256.243079,-14063.912898,-459.657299,-296.082377
1256.243391,-13693.809927,-2068.457845,1480.411884
1256.243702,-10881.027347,-2681.334243,3182.885551
1256.244013,-7920.203579,-2068.457845,4737.318029
1256.244325,-5847.626942,-1225.752797,5329.482782
1256.244636,-4071.132681,-612.876398,4219.173869
1256.244948,-4589.276840,0.000000,962.267725
1256.245259,-5255.462188,-459.657299,-666.185348
1256.245571,-7550.100608,1225.752797,-3775.050304
1256.245882,-10140.821405,2757.943793,-4145.153275
1256.246194,-12139.377449,3447.429741,-3849.070898
1256.246505,-12583.501014,1225.752797,-1924.535449
1256.246817,-12953.603985,-1225.752797,222.061783
1256.247128,-11695.253884,-2451.505594,3330.926739
1256.247440,-8956.491898,-2528.115143,4441.235652
1256.247751,-6069.688724,-1991.848295,4737.318029
1256.248063,-4071.132681,-306.438199,4293.194464
1256.248374,-3552.988522,229.828649,2368.659014
1256.248686,-3849.070898,1685.410096,-814.226536
1256.248997,-6439.791695,2068.457845,-2812.782580
1256.249309,-9474.636058,2604.724693,-3701.029710
1256.249620,-12065.356855,3753.867940,-2960.823768
1256.249932,-13915.871710,1838.629195,-2442.679609
1256.250243,-14434.015869,76.609550,444.123565
1256.250555,-13175.665768,-1991.848295,1850.514855
1256.250866,-10362.883188,-2681.334243,3997.112087
1256.251178,-7476.080014,-2068.457845,4737.318029
1256.251489,-5033.400406,-1225.752797,4219.173869
1256.251800,-4663.297435,-842.705048,2368.659014
1256.252112,-4145.153275,229.828649,-296.082377
1256.252423,-5699.585753,842.705048,-1258.350101
1256.252735,-9326.594869,1149.143247,-3775.050304
1256.253046,-11325.150913,1991.848295,-2886.803174
1256.253358,-13249.686362,2068.457845,-2738.761985
1256.253669,-13693.809927,0.000000,-814.226536
1256.253981,-13175.665768,-1915.238745,1036.288319
1256.254292,-12805.562797,-3064.381992,3108.864956
1256.254604,-9252.574275,-1532.190996,4071.132681
1256.254915,-6291.750507,-2681.334243,3701.029710
1256.255227,-3627.009116,-1072.533697,2960.823768
1256.255538,-2960.823768,-689.485948,1628.453072
1256.255850,-3997.112087,0.000000,-74.020594
1256.256161,-6735.874072,0.000000,-2368.659014
1256.256473,-10288.862594,153.219100,-2294.638420
1256.256784,-12139.377449,1838.629195,-1702.473667
1256.257096,-13101.645173,1455.581446,-1110.308913
1256.257407,-13693.809927,-229.828649,444.123565
1256.257719,-12731.542202,-2068.457845,1480.411884
1256.258030,-10140.821405,-1991.848295,2590.720797
1256.258342,-7402.059420,-919.314598,3627.009116
1256.258653,-5625.565159,383.047749,4293.194464
1256.258965,-4293.194464,153.219100,3478.967927
1256.259276,-3775.050304,-229.828649,888.247130
1256.259587,-5033.400406,-536.266849,-592.164754
1256.259899,-7698.141797,842.705048,-3182.885551
1256.260210,-11621.233289,2374.896044,-3478.967927
1256.260522,-13101.645173,3140.991542,-3552.988522
1256.260833,-13545.768739,1149.143247,-1850.514855
1256.261145,-13397.727550,-1532.190996,-0.000000
1256.261456,-11843.295072,-1991.848295,2220.617826
1256.261768,-8290.306550,-2221.676944,3849.070898
1256.262079,-5477.523971,-1762.019645,4515.256246
1256.262391,-3923.091493,-1225.752797,3701.029710
1256.262702,-3552.988522,-919.314598,2146.597232
1256.263014,-4293.194464,1072.533697,-444.123565
1256.263325,-7328.038826,2374.896044,-2886.803174
1256.263637,-10510.924376,2987.772442,-2960.823768
1256.263948,-12583.501014,2911.162892,-2590.720797
1256.264260,-14063.912898,1915.238745,-2368.659014
1256.264571,-13471.748144,766.095498,222.061783
1256.264883,-12435.459826,-1532.190996,1554.432478
1256.265194,-10066.800811,-1991.848295,3404.947333
1256.265506,-7402.059420,-1915.238745,3849.070898
1256.265817,-4959.379811,-612.876398,4145.153275
1256.266129,-4589.276840,-766.095498,2442.679609
1256.266440,-4441.235652,459.657299,444.123565
1256.266752,-5625.565159,459.657299,-1110.308913
1256.267063,-8882.471304,689.485948,-3256.906145
1256.267374,-10955.047942,1838.629195,-2738.761985
1256.267686,-12805.562797,2221.676944,-2590.720797
1256.267997,-13323.706956,919.314598,-1036.288319
1256.268309,-13175.665768,-1378.971896,1406.391290
1256.268620,-12065.356855,-2757.943793,3256.906145
1256.268932,-9178.553681,-2757.943793,4219.173869
1256.269243,-6513.812290,-1915.238745,3997.112087
1256.269555,-4219.173869,-1455.581446,2664.741391
1256.269866,-2886.803174,-536.266849,1406.391290
1256.270178,-4219.173869,-153.219100,-0.000000
1256.270489,-7476.080014,76.609550,-2516.700203
1256.270801,-10510.924376,1302.362347,-2664.741391
1256.271112,-12657.521608,2145.067394,-2220.617826
1256.271424,-12879.583391,1149.143247,-1406.391290
1256.271735,-13471.748144,153.219100,-0.000000
1256.272047,-13027.624579,-2911.162892,2072.576638
1256.272358,-9770.718434,-2068.457845,3478.967927
1256.272669,-7031.956449,-995.924147,4515.256246
1256.272981,-4737.318029,153.219100,4663.297435
1256.273292,-4367.215058,-76.609550,2886.803174
1256.273603,-4589.276840,0.000000,148.041188
1256.273915,-5995.668130,1225.752797,-1110.308913
1256.274226,-8586.388927,2221.676944,-3849.070898
1256.274538,-11843.295072,2451.505594,-3849.070898
1256.274849,-13545.768739,2757.943793,-3034.844362
1256.275160,-13175.665768,536.266849,-1184.329507
1256.275472,-12657.521608,-1685.410096,444.123565
1256.275783,-10881.027347,-2604.724693,2886.803174
1256.276094,-8660.409521,-2451.505594,3923.091493
1256.276406,-5921.647536,-1149.143247,4367.215058
1256.276717,-3627.009116,-536.266849,3108.864956
1256.277029,-2738.761985,459.657299,1110.308913
1256.277340,-4219.173869,995.924147,-370.102971
1256.277651,-8068.244768,1532.190996,-3034.844362
1256.277963,-10658.965565,2145.067394,-3034.844362
1256.278274,-12953.603985,3140.991542,-2738.761985
1256.278585,-14137.933492,2298.286494,-1776.494261
1256.278897,-14359.995275,0.000000,-0.000000
1256.279208,-12213.398043,-1608.800546,2072.576638
1256.279520,-8660.409521,-2374.896044,3108.864956
1256.279831,-6439.791695,-2145.067394,3923.091493
1256.280142,-4293.194464,-842.705048,3923.091493
1256.280454,-4441.235652,-766.095498,2368.659014
1256.280765,-4737.318029,153.219100,296.082377
1256.281076,-6365.771101,153.219100,-1332.370696
1256.281388,-9548.656652,383.047749,-3256.906145
1256.281699,-12139.377449,1915.238745,-2960.823768
1256.282011,-12805.562797,1762.019645,-2516.700203
1256.282322,-12583.501014,76.609550,-370.102971
1256.282633,-12731.542202,-2221.676944,1110.308913
1256.282945,-11769.274478,-3064.381992,3108.864956
1256.283256,-9030.512492,-2451.505594,3108.864956
1256.283567,-5921.647536,-536.266849,3404.947333
1256.283879,-3775.050304,0.000000,2886.803174
1256.284190,-2738.761985,76.609550,1332.370696
1256.284502,-4441.235652,-766.095498,296.082377
1256.284813,-7624.121203,-1225.752797,-2146.597232
1256.285124,-10955.047942,0.000000,-2368.659014
1256.285436,-12953.603985,1915.238745,-1998.556043
1256.285747,-13915.871710,1532.190996,-1332.370696
1256.286058,-13915.871710,-383.047749,296.082377
1256.286370,-13175.665768,-2451.505594,2368.659014
1256.286681,-9992.780217,-1991.848295,3256.906145
1256.286993,-6957.935855,-689.485948,4219.173869
1256.287304,-4885.359217,76.609550,4515.256246
1256.287615,-3997.112087,-612.876398,3034.844362
1256.287927,-4367.215058,383.047749,-0.000000
1256.288238,-5847.626942,153.219100,-1480.411884
1256.288549,-8068.244768,2374.896044,-3552.988522
1256.288861,-11473.192101,3140.991542,-3330.926739
1256.289172,-13027.624579,2987.772442,-2960.823768
1256.289484,-13323.706956,536.266849,-592.164754
1256.289795,-12583.501014,-2068.457845,1628.453072
1256.290106,-11103.089130,-2604.724693,3701.029710
1256.290418,-8216.285956,-1838.629195,4219.173869
1256.290729,-5773.606348,-383.047749,4071.132681
1256.291040,-3701.029710,0.000000,2220.617826
1256.291352,-2664.741391,1762.019645,-0.000000
1256.291663,-4293.194464,1991.848295,-1036.288319
1256.291974,-7402.059420,2451.505594,-3478.967927
1256.292286,-10362.883188,2221.676944,-2812.782580
1256.292597,-12805.562797,2528.115143,-2368.659014
1256.292909,-13175.665768,1838.629195,-814.226536
1256.293220,-12879.583391,-919.314598,1036.288319
1256.293531,-11473.192101,-2604.724693,2516.700203
1256.293843,-8586.388927,-3294.210641,3627.009116
1256.294154,-6291.750507,-2374.896044,3849.070898
1256.294465,-4737.318029,-1378.971896,3256.906145
1256.294777,-4959.379811,-842.705048,2368.659014
1256.295088,-5921.647536,153.219100,-222.061783
1256.295400,-7254.018232,0.000000,-1776.494261
1256.295711,-9030.512492,842.705048,-2960.823768
1256.296022,-11325.150913,766.095498,-2812.782580
1256.296334,-12583.501014,306.438199,-2294.638420
1256.296645,-13101.645173,-995.924147,-370.102971
1256.296956,-13101.645173,-2221.676944,888.247130
1256.297268,-11769.274478,-2298.286494,2664.741391
1256.297579,-9326.594869,-2068.457845,3034.844362
1256.297891,-6809.894666,-995.924147,2664.741391
1256.298202,-4589.276840,-612.876398,2368.659014
1256.298513,-3478.967927,-153.219100,666.185348
1256.298825,-4589.276840,-153.219100,-0.000000
1256.299136,-8364.327145,0.000000,-2516.700203
1256.299447,-11325.150913,689.485948,-2220.617826
1256.299759,-13249.686362,2068.457845,-2220.617826
1256.300070,-13767.830521,1915.238745,-1628.453072
1256.300382,-13915.871710,536.266849,-148.041188
1256.300693,-12287.418637,-1532.190996,1628.453072
1256.301004,-9548.656652,-1685.410096,3108.864956
1256.301316,-6957.935855,-1378.971896,4219.173869
1256.301627,-4811.338623,-306.438199,4515.256246
1256.301938,-4663.297435,-612.876398,3256.906145
1256.302250,-5329.482782,459.657299,888.247130
1256.302561,-6957.935855,1302.362347,-1332.370696
1256.302873,-8882.471304,2145.067394,-3182.885551
1256.303184,-11251.130318,2987.772442,-3256.906145
1256.303495,-12509.480420,2298.286494,-2738.761985
1256.303807,-12583.501014,1302.362347,-962.267725
1256.304118,-11843.295072,-536.266849,1406.391290
1256.304429,-9844.739029,-1991.848295,3775.050304
1256.304741,-7476.080014,-1685.410096,4737.318029
1256.305052,-5403.503377,0.000000,4737.318029
1256.305364,-3256.906145,1532.190996,3108.864956
1256.305675,-3701.029710,2068.457845,-0.000000
1256.305986,-4441.235652,2604.724693,-814.226536
1256.306298,-7698.141797,2604.724693,-3404.947333
1256.306609,-10066.800811,2374.896044,-2812.782580
1256.306920,-12583.501014,2145.067394,-2220.617826
1256.307232,-13471.748144,766.095498,-444.123565
1256.307543,-13471.748144,-1149.143247,888.247130
1256.307855,-11843.295072,-2681.334243,3552.988522
1256.308166,-8512.368333,-2528.115143,4219.173869
1256.308477,-5921.647536,-2451.505594,3701.029710
1256.308789,-4441.235652,-995.924147,2590.720797
1256.309100,-4145.153275,-383.047749,1628.453072
1256.309411,-5181.441594,459.657299,-444.123565
1256.309723,-7920.203579,0.000000,-2294.638420
1256.310034,-10510.924376,689.485948,-2664.741391
1256.310346,-11991.336260,995.924147,-1924.535449
1256.310657,-13175.665768,689.485948,-1850.514855
1256.310968,-13397.727550,-995.924147,-518.144159
1256.311280,-12805.562797,-2145.067394,814.226536
1256.311591,-10881.027347,-2528.115143,2368.659014
1256.311902,-8290.306550,-2451.505594,3034.844362
1256.312214,-6069.688724,-1225.752797,3552.988522
1256.312525,-4145.153275,-1378.971896,2442.679609
1256.312837,-3034.844362,-919.314598,444.123565
1256.313148,-4737.318029,-995.924147,-740.205942
1256.313459,-8956.491898,-459.657299,-2738.761985
1256.313771,-12361.439231,919.314598,-2220.617826
1256.314082,-14211.954086,1915.238745,-2368.659014
1256.314393,-14804.118840,2145.067394,-1184.329507
1256.314705,-14730.098246,919.314598,-74.020594
1256.315016,-12805.562797,-842.705048,1850.514855
1256.315328,-9474.636058,-1302.362347,3330.926739
1256.315639,-5699.585753,-766.095498,4219.173869
1256.315950,-3627.009116,0.000000,4219.173869
1256.316262,-3034.844362,-383.047749,2368.659014
1256.316573,-5181.441594,-306.438199,-222.061783
1256.316884,-7550.100608,1072.533697,-3034.844362
1256.317196,-10066.800811,2604.724693,-4441.235652
1256.317507,-11621.233289,4136.915689,-3478.967927
1256.317819,-12435.459826,2681.334243,-2738.761985
1256.318130,-12139.377449,153.219100,-74.020594
1256.318441,-12213.398043,-2374.896044,2738.761985
1256.318753,-9622.677246,-2374.896044,4885.359217
1256.319064,-6735.874072,-1762.019645,5625.565159
1256.319375,-3923.091493,-383.047749,5033.400406
1256.319687,-3182.885551,76.609550,2590.720797
1256.319998,-3182.885551,612.876398,-1110.308913
1256.320310,-4737.318029,1915.238745,-2590.720797
1256.320621,-8438.347739,2451.505594,-4515.256246
1256.320932,-11843.295072,2528.115143,-2442.679609
1256.321244,-13989.892304,1455.581446,-1184.329507
1256.321555,-14211.954086,-1302.362347,1110.308913
1256.321866,-13545.768739,-2298.286494,2516.700203
1256.322178,-11251.130318,-3600.648841,4071.132681
1256.322489,-7254.018232,-1225.752797,4293.194464
1256.322801,-5033.400406,-383.047749,3330.926739
1256.323112,-3701.029710,0.000000,2294.638420
1256.323423,-2886.803174,76.609550,444.123565
1256.323735,-4737.318029,229.828649,-370.102971
1256.324046,-8512.368333,459.657299,-2886.803174
1256.324357,-10881.027347,536.266849,-2220.617826
1256.324669,-12879.583391,1302.362347,-1480.411884
1256.324980,-14137.933492,-459.657299,-1184.329507
1256.325291,-14063.912898,-1685.410096,296.082377
1256.325603,-13619.789333,-2528.115143,1332.370696
1256.325914,-10881.027347,-2451.505594,2664.741391
1256.326226,-8364.327145,-1991.848295,2590.720797
1256.326537,-5255.462188,-1455.581446,3330.926739
1256.326848,-3552.988522,-2068.457845,3108.864956
1256.327160,-2960.823768,-536.266849,1258.350101
1256.327471,-4737.318029,-1608.800546,-1110.308913
1256.327782,-8808.450710,-383.047749,-2812.782580
1256.328094,-12287.418637,1685.410096,-2442.679609
1256.328405,-14137.933492,2757.943793,-2960.823768
1256.328717,-14804.118840,1991.848295,-1184.329507
1256.329028,-13915.871710,-306.438199,370.102971
1256.329339,-11621.233289,-1991.848295,2738.761985
1256.329651,-8438.347739,-1915.238745,4515.256246
1256.329962,-5847.626942,-1762.019645,4737.318029
1256.330273,-4145.153275,-536.266849,3478.967927
1256.330585,-3256.906145,-536.266849,1628.453072
1256.330896,-4885.359217,306.438199,-888.247130
1256.331208,-7624.121203,1838.629195,-3923.091493
1256.331519,-10807.006753,2834.553343,-4441.235652
1256.331830,-11991.336260,3677.258390,-3478.967927
1256.332142,-12657.521608,2068.457845,-2146.597232
1256.332453,-12731.542202,-306.438199,592.164754
1256.332764,-12435.459826,-2451.505594,2886.803174
1256.333076,-9474.636058,-2145.067394,4515.256246
1256.333387,-5921.647536,-766.095498,4737.318029
1256.333699,-3478.967927,153.219100,3627.009116
1256.334010,-3182.885551,459.657299,1480.411884
1256.334321,-3552.988522,1685.410096,-1850.514855
1256.334633,-5403.503377,2681.334243,-3182.885551
1256.334944,-8808.450710,2451.505594,-3701.029710
1256.335255,-12065.356855,1991.848295,-1776.494261
1256.335567,-14137.933492,919.314598,-1480.411884
1256.335878,-14137.933492,-1149.143247,888.247130
1256.336190,-13545.768739,-2451.505594,2294.638420
1256.336501,-10955.047942,-2911.162892,4293.194464
1256.336812,-8956.491898,-2604.724693,3849.070898
1256.337124,-5847.626942,-1149.143247,3478.967927
1256.337435,-4367.215058,-689.485948,2590.720797
1256.337746,-3627.009116,0.000000,888.247130
1256.338058,-4959.379811,153.219100,-0.000000
1256.338369,-8364.327145,536.266849,-2590.720797
1256.338681,-11103.089130,1302.362347,-2220.617826
1256.338992,-12509.480420,3064.381992,-2960.823768
1256.339303,-13545.768739,1532.190996,-1924.535449
1256.339615,-13619.789333,-383.047749,-740.205942
1256.339926,-12509.480420,-1762.019645,1332.370696
1256.340237,-10288.862594,-1991.848295,2590.720797
