#time,accel_x,accel_y,accel_z
1307.510742,-8660.409521,-459.657299,370.102971
1307.511053,-8734.430116,229.828649,148.041188
1307.511364,-9030.512492,-306.438199,518.144159
1307.511676,-9030.512492,-306.438199,592.164754
1307.511987,-8956.491898,0.000000,444.123565
1307.512298,-9030.512492,-153.219100,592.164754
1307.512610,-9030.512492,229.828649,592.164754
1307.512921,-8882.471304,-153.219100,370.102971
1307.513233,-8660.409521,76.609550,518.144159
1307.513544,-9104.533087,383.047749,148.041188
1307.513855,-9030.512492,0.000000,370.102971
1307.514167,-8956.491898,-153.219100,518.144159
1307.514478,-9104.533087,-153.219100,518.144159
1307.514789,-8956.491898,0.000000,518.144159
1307.515101,-8882.471304,76.609550,1110.308913
1307.515412,-8882.471304,-306.438199,148.041188
1307.515723,-8586.388927,-153.219100,444.123565
1307.516035,-9030.512492,0.000000,444.123565
1307.516346,-9030.512492,-153.219100,370.102971
1307.516658,-9104.533087,-153.219100,518.144159
1307.516969,-8956.491898,0.000000,518.144159
1307.517280,-8956.491898,0.000000,518.144159
1307.517592,-8586.388927,0.000000,592.164754
1307.517903,-8586.388927,0.000000,148.041188
1307.518214,-8882.471304,-229.828649,518.144159
1307.518526,-9104.533087,0.000000,-0.000000
1307.518837,-8956.491898,0.000000,518.144159
1307.519149,-9104.533087,76.609550,370.102971
1307.519460,-8882.471304,0.000000,370.102971
1307.519771,-8956.491898,0.000000,666.185348
1307.520083,-8438.347739,0.000000,370.102971
1307.520394,-9030.512492,76.609550,222.061783
1307.520705,-8882.471304,-153.219100,518.144159
1307.521017,-8734.430116,0.000000,740.205942
1307.521328,-9030.512492,0.000000,518.144159
1307.521639,-8808.450710,-306.438199,666.185348
1307.521951,-8882.471304,-153.219100,666.185348
1307.522262,-8956.491898,0.000000,444.123565
1307.522574,-8734.430116,-306.438199,444.123565
1307.522885,-8882.471304,-306.438199,296.082377
1307.523196,-9104.533087,383.047749,222.061783
1307.523508,-9030.512492,0.000000,666.185348
1307.523819,-9178.553681,0.000000,518.144159
1307.524130,-9104.533087,76.609550,296.082377
1307.524442,-8882.471304,0.000000,592.164754
1307.524753,-8734.430116,459.657299,444.123565
1307.525064,-8808.450710,-153.219100,666.185348
1307.525376,-8660.409521,0.000000,592.164754
1307.525687,-8808.450710,229.828649,444.123565
1307.525999,-8808.450710,-229.828649,740.205942
1307.526310,-9030.512492,0.000000,592.164754
1307.526621,-8882.471304,0.000000,592.164754
1307.526933,-8734.430116,0.000000,592.164754
1307.527244,-8882.471304,459.657299,814.226536
1307.527555,-8956.491898,0.000000,-0.000000
1307.527867,-8956.491898,383.047749,518.144159
1307.528178,-9178.553681,0.000000,592.164754
1307.528489,-8956.491898,-153.219100,592.164754
1307.528801,-8956.491898,0.000000,370.102971
1307.529112,-8956.491898,0.000000,518.144159
1307.529424,-9030.512492,0.000000,370.102971
1307.529735,-9104.533087,-229.828649,222.061783
1307.530046,-9030.512492,0.000000,444.123565
1307.530358,-9030.512492,76.609550,296.082377
1307.530669,-8734.430116,0.000000,444.123565
1307.530980,-8956.491898,-306.438199,444.123565
1307.531292,-8808.450710,0.000000,740.205942
1307.531603,-8808.450710,0.000000,592.164754
1307.531914,-8808.450710,-229.828649,444.123565
1307.532226,-8956.491898,0.000000,222.061783
1307.532537,-8734.430116,0.000000,370.102971
1307.532849,-8734.430116,-383.047749,518.144159
1307.533160,-8956.491898,0.000000,296.082377
1307.533471,-9030.512492,0.000000,444.123565
1307.533783,-9030.512492,0.000000,518.144159
1307.534094,-8956.491898,-76.609550,518.144159
1307.534405,-9030.512492,-76.609550,518.144159
1307.534717,-8808.450710,0.000000,666.185348
1307.535028,-9622.677246,0.000000,222.061783
1307.535340,-8660.409521,-229.828649,1110.308913
1307.535651,-8882.471304,-153.219100,444.123565
1307.535962,-8882.471304,0.000000,666.185348
1307.536274,-8882.471304,0.000000,444.123565
1307.536585,-8660.409521,-229.828649,666.185348
1307.536896,-8512.368333,-153.219100,666.185348
1307.537208,-8956.491898,-612.876398,444.123565
1307.537519,-8734.430116,0.000000,296.082377
1307.537830,-9030.512492,0.000000,148.041188
1307.538142,-9844.739029,0.000000,296.082377
1307.538453,-11843.295072,1149.143247,-0.000000
1307.538765,-10140.821405,3753.867940,592.164754
1307.539076,-7994.224174,4903.011187,592.164754
1307.539387,-7402.059420,3064.381992,740.205942
1307.539699,-6291.750507,76.609550,1184.329507
1307.540010,-7179.997637,-1685.410096,-444.123565
1307.540321,-7105.977043,-689.485948,-0.000000
1307.540633,-9030.512492,-612.876398,-814.226536
1307.540944,-12879.583391,-919.314598,-1258.350101
1307.541255,-11695.253884,689.485948,222.061783
1307.541567,-9844.739029,842.705048,740.205942
1307.541878,-8734.430116,0.000000,2442.679609
1307.542190,-10510.924376,-689.485948,2146.597232
1307.542501,-11325.150913,2145.067394,962.267725
1307.542812,-5995.668130,5592.497135,2590.720797
1307.543124,-6291.750507,4136.915689,1628.453072
1307.543435,-7994.224174,2528.115143,444.123565
1307.543746,-7105.977043,2834.553343,-962.267725
1307.544058,-8142.265362,3064.381992,-2146.597232
1307.544369,-9030.512492,3600.648841,-518.144159
1307.544680,-9992.780217,3294.210641,-1258.350101
1307.544992,-13915.871710,995.924147,-814.226536
1307.545303,-11177.109724,-1225.752797,2368.659014
1307.545615,-8808.450710,-842.705048,1702.473667
1307.545926,-10140.821405,3370.820191,1258.350101
1307.546237,-7550.100608,7431.126331,2442.679609
1307.546549,-8290.306550,5362.668486,1332.370696
1307.546860,-6513.812290,3907.087040,3034.844362
1307.547171,-5995.668130,6052.154434,1258.350101
1307.547483,-7698.141797,7814.174080,-444.123565
1307.547794,-8882.471304,6818.249932,-1628.453072
1307.548105,-10066.800811,4903.011187,-740.205942
1307.548417,-9474.636058,5362.668486,-2220.617826
1307.548728,-10955.047942,5669.106685,-444.123565
1307.549040,-11399.171507,4673.182538,-0.000000
1307.549351,-10510.924376,3983.696590,2072.576638
1307.549662,-10955.047942,3907.087040,1406.391290
1307.549974,-8438.347739,4596.572988,2738.761985
1307.550285,-6513.812290,4903.011187,1184.329507
1307.550596,-5625.565159,5209.449386,444.123565
1307.550908,-4885.359217,4903.011187,666.185348
1307.551219,-5403.503377,4060.306139,-888.247130
1307.551531,-6365.771101,4136.915689,-518.144159
1307.551842,-8808.450710,3217.601092,-1036.288319
1307.552153,-9474.636058,1991.848295,-222.061783
1307.552465,-10510.924376,1608.800546,518.144159
1307.552776,-10881.027347,612.876398,1480.411884
1307.553087,-11621.233289,0.000000,1554.432478
1307.553399,-11103.089130,1762.019645,2072.576638
1307.553710,-9030.512492,3677.258390,1702.473667
1307.554021,-7031.956449,4213.525239,962.267725
1307.554333,-5995.668130,2681.334243,592.164754
1307.554644,-6661.853478,3140.991542,-444.123565
1307.554956,-6143.709319,3753.867940,-444.123565
1307.555267,-6291.750507,3294.210641,-1332.370696
1307.555578,-8364.327145,459.657299,-1110.308913
1307.555890,-9844.739029,-2221.676944,-370.102971
1307.556201,-11621.233289,-2451.505594,518.144159
1307.556512,-12805.562797,-2528.115143,1258.350101
1307.556824,-14211.954086,-1532.190996,1702.473667
1307.557135,-13545.768739,76.609550,2072.576638
1307.557446,-12287.418637,1302.362347,518.144159
1307.557758,-9992.780217,3140.991542,666.185348
1307.558069,-7254.018232,4213.525239,-0.000000
1307.558381,-6291.750507,4749.792088,296.082377
1307.558692,-6291.750507,5209.449386,-0.000000
1307.559003,-6809.894666,4749.792088,148.041188
1307.559315,-8808.450710,2757.943793,-1184.329507
1307.559626,-10732.986159,1608.800546,-370.102971
1307.559937,-12213.398043,689.485948,-148.041188
1307.560249,-13249.686362,0.000000,-222.061783
1307.560560,-13323.706956,0.000000,370.102971
1307.560871,-12805.562797,1149.143247,592.164754
1307.561183,-10288.862594,2911.162892,1628.453072
1307.561494,-8882.471304,3907.087040,1184.329507
1307.561806,-6069.688724,5286.058936,2220.617826
1307.562117,-2812.782580,5209.449386,962.267725
1307.562428,-1258.350101,5669.106685,-148.041188
1307.562740,-1480.411884,4826.401637,-1332.370696
1307.563051,-4663.297435,3064.381992,-1628.453072
1307.563362,-8586.388927,2451.505594,-1036.288319
1307.563674,-11991.336260,2834.553343,-0.000000
1307.563985,-15322.262999,2681.334243,1480.411884
1307.564296,-15396.283594,1072.533697,3330.926739
1307.564608,-13397.727550,612.876398,3701.029710
1307.564919,-9326.594869,-306.438199,3701.029710
1307.565231,-5773.606348,383.047749,2516.700203
1307.565542,-2812.782580,1915.238745,666.185348
1307.565853,-1258.350101,4213.525239,-814.226536
1307.566165,-2368.659014,4290.134789,-2294.638420
1307.566476,-5107.421000,3217.601092,-1480.411884
1307.566787,-8142.265362,1608.800546,-1406.391290
1307.567099,-10362.883188,1072.533697,222.061783
1307.567410,-11917.315666,-1225.752797,1702.473667
1307.567721,-12509.480420,-3064.381992,2442.679609
1307.568033,-11843.295072,-4749.792088,2738.761985
1307.568344,-10510.924376,-4596.572988,2294.638420
1307.568656,-10658.965565,-3217.601092,814.226536
1307.568967,-10362.883188,0.000000,-296.082377
1307.569278,-10066.800811,3524.039291,-518.144159
1307.569590,-10436.903782,4290.134789,-962.267725
1307.569901,-10066.800811,4136.915689,-148.041188
1307.570212,-9178.553681,2145.067394,296.082377
1307.570524,-8068.244768,0.000000,370.102971
1307.570835,-6587.832884,-1225.752797,-0.000000
1307.571147,-7698.141797,-3370.820191,-666.185348
1307.571458,-8512.368333,-2221.676944,-888.247130
1307.571769,-9844.739029,-1991.848295,-148.041188
1307.572081,-12509.480420,-2374.896044,1036.288319
1307.572392,-13619.789333,-1378.971896,1702.473667
1307.572703,-12879.583391,-229.828649,1332.370696
1307.573015,-11177.109724,0.000000,814.226536
1307.573326,-8882.471304,459.657299,-888.247130
1307.573637,-7105.977043,2528.115143,-1554.432478
1307.573949,-6735.874072,2681.334243,-2960.823768
1307.574260,-7179.997637,3600.648841,-2146.597232
1307.574572,-7994.224174,3600.648841,-666.185348
1307.574883,-8882.471304,2374.896044,962.267725
1307.575194,-9104.533087,0.000000,2738.761985
1307.575506,-9622.677246,-2451.505594,3330.926739
1307.575817,-8808.450710,-3447.429741,3330.926739
1307.576128,-8586.388927,-1838.629195,2294.638420
1307.576440,-8882.471304,-995.924147,962.267725
1307.576751,-7328.038826,689.485948,-1110.308913
1307.577062,-7179.997637,2911.162892,-2072.576638
1307.577374,-7031.956449,3830.477490,-2442.679609
1307.577685,-7254.018232,4366.744339,-1258.350101
1307.577997,-5995.668130,2911.162892,-0.000000
1307.578308,-5625.565159,766.095498,888.247130
1307.578619,-6143.709319,-1378.971896,2590.720797
1307.578931,-7698.141797,-2757.943793,1998.556043
1307.579242,-10362.883188,-2068.457845,1924.535449
1307.579553,-11843.295072,-153.219100,1998.556043
1307.579865,-13545.768739,995.924147,2146.597232
1307.580176,-12879.583391,1378.971896,2294.638420
1307.580487,-11177.109724,842.705048,592.164754
1307.580799,-8068.244768,0.000000,740.205942
1307.581110,-5329.482782,0.000000,-0.000000
1307.581422,-4293.194464,0.000000,-1406.391290
1307.581733,-5107.421000,0.000000,-1258.350101
1307.582044,-5107.421000,0.000000,-888.247130
1307.582356,-7105.977043,0.000000,-0.000000
1307.582667,-10214.842000,-919.314598,1332.370696
1307.582979,-12731.542202,-1608.800546,2516.700203
1307.583290,-13397.727550,-2757.943793,2960.823768
1307.583602,-12731.542202,-2374.896044,3182.885551
1307.583913,-12213.398043,-2681.334243,2294.638420
1307.584225,-11547.212695,-2068.457845,962.267725
1307.584536,-10288.862594,536.266849,-296.082377
1307.584848,-9030.512492,2451.505594,-1554.432478
1307.585159,-7624.121203,2604.724693,-1480.411884
1307.585471,-7698.141797,2068.457845,-814.226536
1307.585783,-6587.832884,0.000000,444.123565
1307.586094,-5847.626942,-2987.772442,2072.576638
1307.586406,-7476.080014,-3983.696590,1998.556043
1307.586717,-8290.306550,-3217.601092,1998.556043
1307.587029,-8586.388927,-1378.971896,1480.411884
1307.587340,-9622.677246,-995.924147,1110.308913
1307.587652,-10732.986159,0.000000,1110.308913
1307.587963,-11399.171507,995.924147,148.041188
1307.588275,-9474.636058,766.095498,-444.123565
1307.588586,-7920.203579,1072.533697,-1184.329507
1307.588898,-6809.894666,153.219100,-1406.391290
1307.589209,-7031.956449,0.000000,-1924.535449
1307.589521,-7698.141797,-153.219100,-1702.473667
1307.589832,-8290.306550,689.485948,-592.164754
1307.590144,-9548.656652,1685.410096,740.205942
1307.590455,-10436.903782,1762.019645,2590.720797
1307.590767,-9622.677246,-1685.410096,3330.926739
1307.591078,-9104.533087,-3677.258390,3849.070898
1307.591390,-8068.244768,-3524.039291,2812.782580
1307.591701,-6809.894666,-1608.800546,518.144159
1307.592013,-6735.874072,536.266849,-1480.411884
1307.592324,-7179.997637,1762.019645,-2516.700203
1307.592636,-8808.450710,2604.724693,-3478.967927
1307.592947,-9474.636058,3294.210641,-2516.700203
1307.593259,-9770.718434,3370.820191,-1776.494261
1307.593570,-9918.759623,2068.457845,-370.102971
1307.593882,-9474.636058,-153.219100,666.185348
1307.594193,-9696.697840,-1455.581446,1036.288319
1307.594505,-9770.718434,-1762.019645,1554.432478
1307.594817,-9918.759623,-459.657299,2294.638420
1307.595128,-10955.047942,842.705048,2294.638420
1307.595440,-10584.944971,1608.800546,2442.679609
1307.595751,-10214.842000,-306.438199,1480.411884
1307.596063,-9030.512492,-1378.971896,814.226536
1307.596374,-7179.997637,-1762.019645,-0.000000
1307.596686,-7105.977043,-1762.019645,-1480.411884
1307.596997,-7105.977043,-1302.362347,-1998.556043
1307.597309,-7698.141797,-383.047749,-1628.453072
1307.597620,-9252.574275,-995.924147,-222.061783
1307.597932,-10214.842000,-229.828649,1776.494261
1307.598243,-10881.027347,-995.924147,2516.700203
1307.598555,-9770.718434,-1225.752797,3034.844362
1307.598866,-8142.265362,-1685.410096,2812.782580
1307.599178,-8068.244768,-1991.848295,1480.411884
1307.599489,-7846.182985,-919.314598,592.164754
1307.599801,-8586.388927,459.657299,-0.000000
1307.600112,-9770.718434,1991.848295,-518.144159
1307.600424,-10288.862594,3677.258390,-74.020594
1307.600735,-9992.780217,1762.019645,518.144159
1307.601047,-9104.533087,-689.485948,1628.453072
1307.601358,-7254.018232,-2757.943793,2220.617826
1307.601670,-6439.791695,-3217.601092,2146.597232
1307.601981,-7105.977043,-2834.553343,1554.432478
1307.602293,-8068.244768,-1302.362347,740.205942
1307.602604,-8660.409521,536.266849,1036.288319
1307.602916,-10066.800811,1685.410096,518.144159
1307.603227,-11251.130318,2374.896044,592.164754
1307.603539,-11029.068536,2221.676944,-0.000000
1307.603851,-9918.759623,2068.457845,-592.164754
1307.604162,-8142.265362,1072.533697,-666.185348
1307.604474,-7328.038826,0.000000,-1036.288319
1307.604785,-7179.997637,-459.657299,-888.247130
1307.605097,-8438.347739,689.485948,-518.144159
1307.605408,-8956.491898,1991.848295,962.267725
1307.605720,-8956.491898,1685.410096,2072.576638
1307.606031,-9178.553681,76.609550,2516.700203
1307.606343,-8364.327145,-1072.533697,2960.823768
1307.606654,-7402.059420,-2068.457845,2146.597232
1307.606966,-7105.977043,-2145.067394,814.226536
1307.607277,-7254.018232,-1532.190996,-666.185348
1307.607589,-8734.430116,229.828649,-1554.432478
1307.607900,-9252.574275,1302.362347,-1628.453072
1307.608212,-9548.656652,1685.410096,-962.267725
1307.608523,-10066.800811,1149.143247,-222.061783
1307.608835,-9252.574275,-536.266849,814.226536
1307.609146,-8290.306550,-2221.676944,1184.329507
1307.609458,-8068.244768,-2528.115143,814.226536
1307.609769,-7846.182985,-1378.971896,666.185348
1307.610081,-9474.636058,-383.047749,370.102971
1307.610392,-11103.089130,1149.143247,444.123565
1307.610704,-11769.274478,2145.067394,518.144159
1307.611015,-10881.027347,2068.457845,1036.288319
1307.611327,-9104.533087,229.828649,1036.288319
1307.611638,-8068.244768,-1991.848295,666.185348
1307.611950,-6809.894666,-2451.505594,148.041188
1307.612261,-6809.894666,-2451.505594,-592.164754
1307.612573,-7105.977043,-1608.800546,-962.267725
1307.612885,-7846.182985,306.438199,-666.185348
1307.613196,-9696.697840,229.828649,-0.000000
1307.613508,-11621.233289,0.000000,814.226536
1307.613819,-12657.521608,229.828649,1332.370696
1307.614131,-11547.212695,229.828649,1702.473667
1307.614442,-10066.800811,-766.095498,592.164754
1307.614754,-9622.677246,-1072.533697,-0.000000
1307.615065,-8956.491898,-306.438199,-666.185348
1307.615377,-7994.224174,689.485948,-1036.288319
1307.615688,-7402.059420,1225.752797,-222.061783
1307.616000,-8068.244768,1072.533697,1184.329507
1307.616311,-8956.491898,-1072.533697,1998.556043
1307.616623,-7550.100608,-2987.772442,2220.617826
1307.616934,-6809.894666,-3064.381992,2294.638420
1307.617246,-7105.977043,-3064.381992,814.226536
1307.617557,-7550.100608,-1302.362347,-74.020594
1307.617869,-8290.306550,0.000000,-370.102971
1307.618180,-9104.533087,229.828649,-0.000000
1307.618492,-9622.677246,995.924147,518.144159
1307.618803,-10214.842000,1225.752797,148.041188
1307.619115,-9030.512492,995.924147,-0.000000
1307.619426,-7179.997637,0.000000,-0.000000
1307.619738,-7476.080014,-1225.752797,-222.061783
1307.620049,-8364.327145,-995.924147,-370.102971
1307.620361,-9622.677246,306.438199,-296.082377
1307.620672,-10584.944971,1762.019645,962.267725
1307.620984,-11547.212695,2298.286494,1702.473667
1307.621295,-10807.006753,1532.190996,2960.823768
1307.621607,-8808.450710,153.219100,2590.720797
1307.621919,-6883.915261,-1991.848295,2146.597232
1307.622230,-5699.585753,-2221.676944,1184.329507
1307.622542,-6661.853478,-842.705048,-1480.411884
1307.622853,-7772.162391,995.924147,-1924.535449
1307.623165,-8438.347739,2298.286494,-1628.453072
1307.623476,-10584.944971,2068.457845,-1332.370696
1307.623788,-11695.253884,1225.752797,-148.041188
1307.624099,-11547.212695,153.219100,592.164754
1307.624411,-10732.986159,76.609550,1036.288319
1307.624722,-10066.800811,-306.438199,1258.350101
1307.625034,-9992.780217,-1302.362347,814.226536
1307.625345,-9178.553681,0.000000,666.185348
1307.625657,-8512.368333,1532.190996,814.226536
1307.625968,-8068.244768,1991.848295,888.247130
1307.626280,-8216.285956,1455.581446,1480.411884
1307.626591,-8364.327145,0.000000,1332.370696
1307.626903,-7031.956449,-306.438199,1628.453072
1307.627214,-6587.832884,-1378.971896,814.226536
1307.627526,-7550.100608,-1532.190996,-222.061783
1307.627837,-8438.347739,-383.047749,-814.226536
1307.628149,-8660.409521,766.095498,-666.185348
1307.628460,-9326.594869,1608.800546,-148.041188
1307.628772,-10288.862594,2298.286494,296.082377
1307.629083,-10881.027347,1838.629195,962.267725
1307.629395,-8808.450710,-229.828649,1184.329507
1307.629706,-7624.121203,-1225.752797,518.144159
1307.630018,-7254.018232,-1302.362347,222.061783
1307.630329,-7698.141797,-766.095498,-814.226536
1307.630641,-9252.574275,-842.705048,-444.123565
1307.630953,-10732.986159,459.657299,296.082377
1307.631264,-10881.027347,1685.410096,1184.329507
1307.631576,-11103.089130,1455.581446,1406.391290
1307.631887,-9474.636058,-995.924147,2812.782580
1307.632199,-8142.265362,-2834.553343,2664.741391
1307.632510,-6883.915261,-3140.991542,1628.453072
1307.632822,-5699.585753,-1608.800546,-0.000000
1307.633133,-6513.812290,76.609550,-1036.288319
1307.633445,-8216.285956,1378.971896,-888.247130
1307.633756,-10362.883188,2298.286494,-740.205942
1307.634068,-11325.150913,1838.629195,-444.123565
1307.634379,-11399.171507,1225.752797,-0.000000
1307.634691,-10955.047942,306.438199,962.267725
1307.635002,-10214.842000,-383.047749,888.247130
1307.635314,-9178.553681,-995.924147,518.144159
1307.635625,-8956.491898,-919.314598,-0.000000
1307.635937,-8660.409521,995.924147,370.102971
1307.636248,-8660.409521,2987.772442,814.226536
1307.636560,-8882.471304,2068.457845,1258.350101
1307.636871,-7550.100608,306.438199,1332.370696
1307.637183,-6957.935855,-2145.067394,2072.576638
1307.637494,-6883.915261,-2911.162892,1480.411884
1307.637806,-7476.080014,-2298.286494,148.041188
1307.638117,-8438.347739,-1072.533697,-518.144159
1307.638429,-8808.450710,306.438199,-370.102971
1307.638740,-9622.677246,1149.143247,-74.020594
1307.639052,-10288.862594,1762.019645,222.061783
1307.639363,-10807.006753,842.705048,666.185348
1307.639675,-9474.636058,0.000000,1110.308913
1307.639987,-7920.203579,-766.095498,1184.329507
1307.640298,-7698.141797,-1225.752797,370.102971
1307.640610,-7772.162391,-766.095498,-148.041188
1307.640921,-9252.574275,-153.219100,-296.082377
1307.641233,-9548.656652,1378.971896,740.205942
1307.641544,-10362.883188,2374.896044,888.247130
1307.641856,-10436.903782,1378.971896,1702.473667
1307.642167,-8660.409521,-842.705048,2294.638420
1307.642479,-7328.038826,-2987.772442,2220.617826
1307.642790,-5773.606348,-3140.991542,1554.432478
1307.643102,-5699.585753,-2068.457845,-370.102971
1307.643413,-6883.915261,-383.047749,-1406.391290
1307.643725,-8068.244768,1455.581446,-1184.329507
1307.644036,-10066.800811,1455.581446,-962.267725
1307.644348,-11621.233289,689.485948,-0.000000
1307.644659,-12139.377449,919.314598,444.123565
1307.644971,-11177.109724,229.828649,1036.288319
1307.645282,-9770.718434,-766.095498,370.102971
1307.645594,-9178.553681,-1608.800546,-0.000000
1307.645905,-8364.327145,0.000000,-962.267725
1307.646217,-8142.265362,1455.581446,-296.082377
1307.646528,-8734.430116,2604.724693,-0.000000
1307.646840,-9474.636058,1685.410096,962.267725
1307.647151,-9474.636058,229.828649,1554.432478
1307.647463,-8734.430116,-1302.362347,1850.514855
1307.647774,-7920.203579,-2221.676944,1110.308913
1307.648086,-8364.327145,-1225.752797,-74.020594
1307.648397,-8068.244768,153.219100,-740.205942
1307.648709,-8586.388927,1225.752797,-1702.473667
1307.649021,-9992.780217,1532.190996,-962.267725
1307.649332,-10214.842000,2374.896044,-0.000000
1307.649644,-10066.800811,1608.800546,296.082377
1307.649955,-8364.327145,-153.219100,666.185348
1307.650267,-7550.100608,-1608.800546,666.185348
1307.650578,-7994.224174,-1532.190996,740.205942
1307.650890,-9030.512492,-536.266849,296.082377
1307.651201,-9696.697840,459.657299,444.123565
1307.651513,-10288.862594,2298.286494,370.102971
1307.651824,-10807.006753,2528.115143,1036.288319
1307.652136,-9548.656652,1762.019645,1332.370696
1307.652447,-7846.182985,-766.095498,1628.453072
1307.652759,-6365.771101,-2604.724693,1850.514855
1307.653070,-4885.359217,-2987.772442,592.164754
1307.653382,-5107.421000,-1608.800546,-296.082377
1307.653693,-7254.018232,0.000000,-370.102971
1307.654005,-8586.388927,1838.629195,222.061783
1307.654316,-9992.780217,1991.848295,148.041188
1307.654628,-11251.130318,1685.410096,888.247130
1307.654939,-11177.109724,1072.533697,1332.370696
1307.655251,-10140.821405,-76.609550,1480.411884
1307.655562,-8956.491898,-1072.533697,1036.288319
1307.655874,-7846.182985,-766.095498,814.226536
1307.656185,-7772.162391,0.000000,-0.000000
1307.656497,-9030.512492,995.924147,370.102971
1307.656808,-9252.574275,1838.629195,888.247130
1307.657120,-9178.553681,1302.362347,1554.432478
1307.657431,-8956.491898,459.657299,2368.659014
1307.657743,-8882.471304,-919.314598,2368.659014
1307.658055,-7624.121203,-2068.457845,1628.453072
1307.658366,-8364.327145,-2298.286494,444.123565
1307.658678,-8586.388927,-919.314598,-74.020594
1307.658989,-9030.512492,306.438199,-814.226536
1307.659301,-9474.636058,919.314598,-222.061783
1307.659612,-10436.903782,1072.533697,-0.000000
1307.659924,-10362.883188,689.485948,592.164754
1307.660235,-9326.594869,-536.266849,444.123565
1307.660547,-8142.265362,-1838.629195,370.102971
1307.660858,-7920.203579,-1302.362347,-74.020594
1307.661170,-8660.409521,-1225.752797,-0.000000
1307.661481,-9918.759623,-919.314598,74.020594
1307.661793,-10955.047942,536.266849,1184.329507
1307.662104,-11251.130318,1302.362347,1776.494261
1307.662416,-9992.780217,612.876398,2368.659014
1307.662727,-8364.327145,-1608.800546,2590.720797
1307.663039,-7254.018232,-3370.820191,1998.556043
1307.663350,-5551.544565,-3524.039291,814.226536
1307.663662,-6069.688724,-2145.067394,-1406.391290
1307.663973,-7105.977043,0.000000,-1184.329507
1307.664285,-8660.409521,1149.143247,-888.247130
1307.664596,-10881.027347,919.314598,-518.144159
1307.664908,-11473.192101,536.266849,518.144159
1307.665219,-10881.027347,1149.143247,888.247130
1307.665531,-9474.636058,459.657299,666.185348
1307.665842,-8216.285956,-536.266849,-0.000000
1307.666154,-7402.059420,-1302.362347,-518.144159
1307.666465,-7698.141797,153.219100,-666.185348
1307.666777,-8216.285956,1838.629195,-518.144159
1307.667089,-9030.512492,2374.896044,-0.000000
1307.667400,-9770.718434,1608.800546,1036.288319
1307.667712,-9400.615463,306.438199,2146.597232
1307.668023,-8882.471304,-1991.848295,2294.638420
1307.668335,-8216.285956,-3294.210641,1184.329507
1307.668646,-8216.285956,-2757.943793,-0.000000
1307.668958,-8438.347739,-689.485948,-666.185348
1307.669269,-8438.347739,536.266849,-1036.288319
1307.669581,-9030.512492,995.924147,-666.185348
1307.669892,-10214.842000,1378.971896,-0.000000
1307.670204,-9992.780217,766.095498,518.144159
1307.670515,-9178.553681,306.438199,740.205942
1307.670827,-8586.388927,-536.266849,962.267725
1307.671138,-8290.306550,-1532.190996,370.102971
1307.671450,-8956.491898,-1225.752797,-222.061783
1307.671761,-9696.697840,76.609550,-0.000000
1307.672073,-10288.862594,1532.190996,592.164754
1307.672384,-10584.944971,2451.505594,1036.288319
1307.672696,-9548.656652,919.314598,1702.473667
1307.673007,-8438.347739,-1225.752797,2368.659014
1307.673319,-7254.018232,-3217.601092,1850.514855
1307.673630,-5773.606348,-2681.334243,1110.308913
1307.673942,-6809.894666,-766.095498,-444.123565
1307.674253,-7698.141797,1378.971896,-1036.288319
1307.674565,-9326.594869,2298.286494,-814.226536
1307.674876,-10881.027347,1991.848295,-74.020594
1307.675188,-11251.130318,1685.410096,1110.308913
1307.675500,-11103.089130,612.876398,1258.350101
1307.675811,-10288.862594,-612.876398,1480.411884
1307.676123,-9178.553681,-383.047749,740.205942
1307.676434,-8068.244768,-1072.533697,-74.020594
1307.676746,-7179.997637,-306.438199,-444.123565
1307.677057,-7105.977043,995.924147,222.061783
1307.677369,-7920.203579,1378.971896,592.164754
1307.677680,-9474.636058,-306.438199,962.267725
1307.677992,-8512.368333,-459.657299,1702.473667
1307.678303,-8142.265362,-1532.190996,1776.494261
1307.678615,-8068.244768,-2911.162892,1702.473667
1307.678926,-7846.182985,-2451.505594,444.123565
1307.679238,-8734.430116,-995.924147,-592.164754
1307.679549,-8512.368333,536.266849,-296.082377
1307.679861,-9252.574275,1685.410096,-296.082377
1307.680172,-10362.883188,1608.800546,-518.144159
1307.680484,-9178.553681,919.314598,518.144159
1307.680795,-7994.224174,-842.705048,444.123565
1307.681107,-7846.182985,-1072.533697,-0.000000
1307.681418,-8290.306550,0.000000,-370.102971
1307.681730,-9326.594869,459.657299,-962.267725
1307.682041,-9918.759623,383.047749,-0.000000
1307.682353,-11251.130318,2068.457845,296.082377
1307.682665,-10807.006753,2757.943793,1184.329507
1307.682976,-9844.739029,459.657299,1554.432478
1307.683288,-9030.512492,-1532.190996,1998.556043
1307.683599,-7179.997637,-3064.381992,1184.329507
1307.683911,-6143.709319,-2221.676944,-148.041188
1307.684223,-6957.935855,-842.705048,-814.226536
1307.684534,-7920.203579,229.828649,-666.185348
1307.684846,-8882.471304,766.095498,-222.061783
1307.685157,-10658.965565,1072.533697,-0.000000
1307.685469,-11917.315666,1072.533697,1110.308913
1307.685780,-11843.295072,306.438199,1184.329507
1307.686092,-9992.780217,-76.609550,962.267725
1307.686404,-8660.409521,-1149.143247,370.102971
1307.686715,-7920.203579,-1608.800546,74.020594
1307.687027,-9104.533087,-766.095498,-0.000000
1307.687338,-9400.615463,1225.752797,888.247130
1307.687650,-9326.594869,1608.800546,888.247130
1307.687962,-8956.491898,459.657299,2146.597232
1307.688273,-8808.450710,-1149.143247,2442.679609
1307.688585,-8068.244768,-2451.505594,2442.679609
1307.688896,-7031.956449,-2374.896044,1480.411884
1307.689208,-6735.874072,-1302.362347,-296.082377
1307.689519,-6513.812290,689.485948,-592.164754
1307.689831,-7698.141797,1225.752797,-1332.370696
1307.690143,-9178.553681,1532.190996,-444.123565
1307.690454,-10288.862594,1302.362347,148.041188
1307.690766,-10288.862594,306.438199,814.226536
1307.691077,-9400.615463,-612.876398,1554.432478
1307.691389,-8734.430116,-1991.848295,1332.370696
1307.691701,-8586.388927,-1685.410096,740.205942
1307.692012,-8068.244768,-459.657299,370.102971
1307.692324,-9474.636058,766.095498,370.102971
1307.692635,-9918.759623,1302.362347,1406.391290
1307.692947,-9622.677246,1378.971896,1184.329507
1307.693258,-8364.327145,0.000000,1554.432478
1307.693570,-7179.997637,-2145.067394,1850.514855
1307.693882,-7031.956449,-3830.477490,1184.329507
1307.694193,-6809.894666,-2834.553343,-0.000000
1307.694505,-7920.203579,-1302.362347,-1258.350101
1307.694816,-8882.471304,383.047749,-740.205942
1307.695128,-9844.739029,1072.533697,-222.061783
1307.695440,-11843.295072,919.314598,222.061783
1307.695751,-11251.130318,1149.143247,1776.494261
1307.696063,-10066.800811,229.828649,1036.288319
1307.696374,-8808.450710,0.000000,962.267725
1307.696686,-8142.265362,-306.438199,-740.205942
1307.696997,-7328.038826,0.000000,-962.267725
1307.697309,-7994.224174,-229.828649,-1924.535449
1307.697621,-9104.533087,1455.581446,-518.144159
1307.697932,-10955.047942,1762.019645,222.061783
1307.698244,-11325.150913,842.705048,1628.453072
1307.698555,-10807.006753,-995.924147,2590.720797
1307.698867,-9178.553681,-2451.505594,2886.803174
1307.699179,-7402.059420,-2451.505594,1776.494261
1307.699490,-7031.956449,-1072.533697,-0.000000
1307.699802,-7994.224174,1072.533697,-1036.288319
1307.700113,-7920.203579,2298.286494,-1628.453072
1307.700425,-8956.491898,2681.334243,-1480.411884
1307.700736,-10066.800811,2451.505594,-1258.350101
1307.701048,-10214.842000,1532.190996,-0.000000
1307.701360,-9252.574275,459.657299,-74.020594
1307.701671,-8586.388927,-383.047749,-0.000000
1307.701983,-9252.574275,-1378.971896,148.041188
1307.702294,-9326.594869,-1149.143247,370.102971
1307.702606,-9992.780217,536.266849,814.226536
1307.702918,-10436.903782,1608.800546,1554.432478
1307.703229,-9474.636058,1915.238745,1628.453072
1307.703541,-8438.347739,689.485948,1998.556043
1307.703852,-7550.100608,-1455.581446,1406.391290
1307.704164,-6069.688724,-2681.334243,1406.391290
1307.704475,-5329.482782,-2834.553343,-0.000000
1307.704787,-7105.977043,-306.438199,-1110.308913
1307.705099,-8142.265362,842.705048,-1258.350101
1307.705410,-9548.656652,842.705048,-444.123565
1307.705722,-10436.903782,766.095498,740.205942
1307.706033,-11177.109724,459.657299,1702.473667
1307.706345,-10881.027347,0.000000,1924.535449
1307.706657,-10066.800811,-306.438199,1480.411884
1307.706968,-8882.471304,0.000000,592.164754
1307.707280,-7698.141797,689.485948,-444.123565
1307.707591,-7105.977043,1838.629195,-1480.411884
1307.707903,-7920.203579,2681.334243,-1184.329507
1307.708214,-9178.553681,2528.115143,-0.000000
1307.708526,-8734.430116,1072.533697,1258.350101
1307.708838,-8808.450710,-1149.143247,2146.597232
1307.709149,-8364.327145,-3140.991542,2812.782580
1307.709461,-8290.306550,-3830.477490,1998.556043
1307.709772,-8882.471304,-3294.210641,222.061783
1307.710084,-8734.430116,-995.924147,-222.061783
1307.710396,-8808.450710,842.705048,-888.247130
1307.710707,-9696.697840,1532.190996,-0.000000
1307.711019,-10510.924376,689.485948,666.185348
1307.711330,-10436.903782,-689.485948,1480.411884
1307.711642,-9104.533087,-842.705048,1998.556043
1307.711953,-8512.368333,-1302.362347,1554.432478
1307.712265,-8734.430116,-459.657299,962.267725
1307.712577,-9918.759623,-153.219100,296.082377
1307.712888,-10362.883188,459.657299,370.102971
1307.713200,-10436.903782,2068.457845,1184.329507
1307.713511,-10436.903782,1762.019645,1850.514855
1307.713823,-9474.636058,383.047749,1924.535449
1307.714135,-7550.100608,-995.924147,2442.679609
1307.714446,-6439.791695,-2298.286494,1480.411884
1307.714758,-5551.544565,-1455.581446,444.123565
1307.715069,-5847.626942,306.438199,-666.185348
1307.715381,-6735.874072,1685.410096,-518.144159
1307.715692,-8290.306550,1838.629195,-74.020594
1307.716004,-10214.842000,766.095498,592.164754
1307.716316,-10436.903782,995.924147,962.267725
1307.716627,-10214.842000,995.924147,740.205942
1307.716939,-9696.697840,-766.095498,888.247130
1307.717250,-8438.347739,-1991.848295,370.102971
1307.717562,-7846.182985,-1608.800546,-296.082377
1307.717874,-8660.409521,-306.438199,-0.000000
1307.718185,-9474.636058,1378.971896,444.123565
1307.718497,-10436.903782,2145.067394,1036.288319
1307.718808,-9770.718434,1685.410096,2368.659014
1307.719120,-7846.182985,-842.705048,2368.659014
1307.719431,-6735.874072,-2068.457845,2220.617826
1307.719743,-6439.791695,-2604.724693,666.185348
1307.720055,-5921.647536,-1762.019645,-1110.308913
1307.720366,-6513.812290,-459.657299,-1998.556043
1307.720678,-7994.224174,536.266849,-1850.514855
1307.720989,-10214.842000,689.485948,-1480.411884
1307.721301,-11547.212695,1072.533697,-1110.308913
1307.721613,-11473.192101,383.047749,-0.000000
1307.721924,-10436.903782,-153.219100,518.144159
1307.722236,-9770.718434,-842.705048,444.123565
1307.722547,-9696.697840,-919.314598,222.061783
1307.722859,-8956.491898,-383.047749,-0.000000
1307.723170,-9104.533087,689.485948,296.082377
1307.723482,-9992.780217,766.095498,888.247130
1307.723794,-10436.903782,536.266849,444.123565
1307.724105,-10066.800811,-536.266849,814.226536
1307.724417,-9252.574275,-2145.067394,1110.308913
1307.724728,-7994.224174,-3064.381992,962.267725
1307.725040,-7846.182985,-3294.210641,-370.102971
1307.725352,-8956.491898,-1762.019645,-370.102971
1307.725663,-8808.450710,383.047749,-296.082377
1307.725975,-9844.739029,2221.676944,-222.061783
1307.726286,-10807.006753,3600.648841,222.061783
1307.726598,-10658.965565,3140.991542,1184.329507
1307.726910,-9104.533087,1608.800546,370.102971
1307.727221,-7550.100608,842.705048,-0.000000
1307.727533,-6883.915261,306.438199,-148.041188
1307.727844,-7105.977043,-153.219100,-740.205942
1307.728156,-8808.450710,153.219100,-0.000000
1307.728467,-9918.759623,1149.143247,296.082377
1307.728779,-10362.883188,1532.190996,1554.432478
1307.729091,-10436.903782,919.314598,2516.700203
1307.729402,-9104.533087,-1225.752797,3404.947333
1307.729714,-7476.080014,-2451.505594,3034.844362
1307.730025,-6513.812290,-2681.334243,1924.535449
1307.730337,-5847.626942,-995.924147,592.164754
1307.730649,-6217.729913,689.485948,-370.102971
1307.730960,-8364.327145,1072.533697,-1332.370696
1307.731272,-7994.224174,2528.115143,-1184.329507
1307.731583,-9474.636058,1378.971896,-518.144159
1307.731895,-9030.512492,689.485948,1110.308913
1307.732206,-8364.327145,-383.047749,1332.370696
1307.732518,-9400.615463,-1302.362347,1628.453072
1307.732830,-8734.430116,-1532.190996,1998.556043
1307.733141,-9400.615463,0.000000,592.164754
1307.733453,-9622.677246,1302.362347,222.061783
1307.733764,-8882.471304,3064.381992,962.267725
1307.734076,-8364.327145,1838.629195,1406.391290
1307.734388,-7994.224174,-612.876398,1554.432478
1307.734699,-8142.265362,-2604.724693,1850.514855
1307.735011,-7402.059420,-3217.601092,1332.370696
1307.735322,-7179.997637,-1838.629195,-74.020594
1307.735634,-8364.327145,-919.314598,-1184.329507
1307.735945,-8808.450710,306.438199,-814.226536
1307.736257,-10732.986159,0.000000,-518.144159
1307.736569,-11547.212695,-306.438199,1184.329507
1307.736880,-11769.274478,0.000000,1406.391290
1307.737192,-11103.089130,-229.828649,1332.370696
1307.737503,-10066.800811,-612.876398,592.164754
1307.737815,-8512.368333,-1149.143247,-0.000000
1307.738127,-7550.100608,-383.047749,-962.267725
1307.738438,-8364.327145,1378.971896,-1628.453072
1307.738750,-8438.347739,2145.067394,-1036.288319
1307.739061,-10362.883188,1762.019645,518.144159
1307.739373,-10584.944971,-383.047749,2516.700203
1307.739684,-9104.533087,-2068.457845,3182.885551
1307.739996,-7920.203579,-3830.477490,2812.782580
1307.740308,-7402.059420,-3447.429741,1332.370696
1307.740619,-7179.997637,-2068.457845,-370.102971
1307.740931,-7698.141797,76.609550,-2072.576638
1307.741242,-8364.327145,1302.362347,-1776.494261
1307.741554,-9770.718434,1838.629195,-1184.329507
1307.741866,-11325.150913,1608.800546,-370.102971
1307.742177,-10658.965565,1302.362347,666.185348
1307.742489,-9030.512492,-153.219100,740.205942
1307.742800,-8142.265362,-1072.533697,962.267725
1307.743112,-7179.997637,-1149.143247,1480.411884
1307.743423,-7624.121203,-1149.143247,814.226536
1307.743735,-8142.265362,-689.485948,962.267725
1307.744047,-8882.471304,1072.533697,814.226536
1307.744358,-9178.553681,1302.362347,1184.329507
1307.744670,-9030.512492,-689.485948,1184.329507
1307.744981,-8438.347739,-2987.772442,1332.370696
1307.745293,-6883.915261,-3064.381992,592.164754
1307.745605,-7254.018232,-2145.067394,-0.000000
1307.745916,-8142.265362,-536.266849,-1110.308913
1307.746228,-7994.224174,536.266849,-814.226536
1307.746539,-9252.574275,1072.533697,-74.020594
1307.746851,-9474.636058,1072.533697,1184.329507
1307.747162,-10140.821405,1225.752797,1110.308913
1307.747474,-10436.903782,995.924147,1480.411884
1307.747786,-9252.574275,0.000000,888.247130
1307.748097,-8364.327145,-689.485948,518.144159
1307.748409,-8438.347739,-766.095498,-296.082377
1307.748720,-10436.903782,612.876398,-888.247130
1307.749032,-10881.027347,2451.505594,-148.041188
1307.749344,-10584.944971,3064.381992,296.082377
1307.749655,-9474.636058,1762.019645,1406.391290
1307.749967,-8290.306550,-842.705048,1850.514855
1307.750278,-7402.059420,-2757.943793,1776.494261
1307.750590,-6957.935855,-3217.601092,1110.308913
1307.750901,-6883.915261,-995.924147,222.061783
1307.751213,-7994.224174,536.266849,-370.102971
1307.751525,-9696.697840,1302.362347,-888.247130
1307.751836,-10955.047942,1149.143247,-444.123565
1307.752148,-11177.109724,1302.362347,-0.000000
1307.752459,-10362.883188,306.438199,222.061783
1307.752771,-9622.677246,0.000000,370.102971
1307.753083,-9400.615463,-612.876398,740.205942
1307.753394,-8438.347739,-1225.752797,-0.000000
1307.753706,-8216.285956,-612.876398,518.144159
1307.754017,-8882.471304,383.047749,1184.329507
1307.754329,-9474.636058,1378.971896,1184.329507
1307.754640,-9252.574275,1149.143247,1924.535449
1307.754952,-8364.327145,-306.438199,1258.350101
1307.755264,-7105.977043,-1762.019645,1924.535449
1307.755575,-6143.709319,-1991.848295,1332.370696
1307.755887,-6513.812290,-1455.581446,296.082377
1307.756198,-7772.162391,0.000000,-518.144159
1307.756510,-8512.368333,842.705048,-740.205942
1307.756822,-9844.739029,2068.457845,-296.082377
1307.757133,-10066.800811,1685.410096,518.144159
1307.757445,-9918.759623,1455.581446,814.226536
1307.757756,-9030.512492,0.000000,518.144159
1307.758068,-8142.265362,-229.828649,-0.000000
1307.758379,-7772.162391,-612.876398,-148.041188
1307.758691,-8438.347739,-536.266849,-592.164754
1307.759003,-9030.512492,536.266849,370.102971
1307.759314,-9622.677246,1072.533697,962.267725
1307.759626,-9548.656652,1532.190996,1924.535449
1307.759937,-9030.512492,0.000000,2664.741391
1307.760249,-8808.450710,-2221.676944,1924.535449
1307.760561,-7476.080014,-3064.381992,2368.659014
1307.760872,-7402.059420,-3370.820191,888.247130
1307.761184,-7994.224174,-2145.067394,-666.185348
1307.761495,-8660.409521,306.438199,-1628.453072
1307.761807,-9548.656652,919.314598,-1480.411884
1307.762118,-9474.636058,1378.971896,-814.226536
1307.762430,-11547.212695,919.314598,-518.144159
1307.762742,-10732.986159,1149.143247,1036.288319
1307.763053,-9548.656652,0.000000,1480.411884
1307.763365,-8956.491898,-1455.581446,1406.391290
1307.763676,-8660.409521,-1455.581446,1110.308913
1307.763988,-8882.471304,-536.266849,-0.000000
1307.764300,-9030.512492,1455.581446,-222.061783
1307.764611,-9622.677246,2068.457845,296.082377
1307.764923,-9326.594869,1685.410096,592.164754
1307.765234,-8956.491898,-229.828649,888.247130
1307.765546,-8586.388927,-2757.943793,1628.453072
1307.765857,-7476.080014,-2911.162892,962.267725
1307.766169,-7402.059420,-1608.800546,222.061783
1307.766481,-7476.080014,-306.438199,-370.102971
1307.766792,-8438.347739,842.705048,-296.082377
1307.767104,-9770.718434,612.876398,444.123565
1307.767415,-9918.759623,842.705048,1406.391290
1307.767727,-10658.965565,689.485948,1184.329507
1307.768039,-9770.718434,0.000000,1480.411884
1307.768350,-8586.388927,-612.876398,888.247130
1307.768662,-7920.203579,-919.314598,-370.102971
1307.768973,-7994.224174,-842.705048,-666.185348
1307.769285,-9030.512492,229.828649,-740.205942
1307.769596,-8956.491898,1608.800546,444.123565
1307.769908,-9030.512492,1455.581446,1184.329507
1307.770220,-8882.471304,0.000000,2738.761985
1307.770531,-7920.203579,-2374.896044,3034.844362
1307.770843,-6587.832884,-3447.429741,2072.576638
1307.771154,-5995.668130,-2451.505594,666.185348
1307.771466,-6365.771101,-1225.752797,-740.205942
1307.771778,-7254.018232,1225.752797,-1258.350101
1307.772089,-9030.512492,995.924147,-1702.473667
1307.772401,-9696.697840,1225.752797,-666.185348
1307.772712,-11177.109724,766.095498,296.082377
1307.773024,-10955.047942,766.095498,962.267725
1307.773335,-9918.759623,-383.047749,1110.308913
1307.773647,-8956.491898,-1532.190996,1110.308913
1307.773959,-7994.224174,-1915.238745,296.082377
1307.774270,-8956.491898,-76.609550,-370.102971
1307.774582,-9844.739029,1455.581446,-444.123565
1307.774893,-9918.759623,2834.553343,518.144159
1307.775205,-9992.780217,2451.505594,1406.391290
1307.775517,-9770.718434,153.219100,1702.473667
1307.775828,-8808.450710,-1762.019645,1258.350101
1307.776140,-7994.224174,-2451.505594,814.226536
1307.776451,-7846.182985,-612.876398,-296.082377
1307.776763,-7920.203579,1302.362347,-740.205942
1307.777074,-9474.636058,1072.533697,-1184.329507
1307.777386,-10955.047942,1762.019645,-518.144159
1307.777698,-10955.047942,2451.505594,296.082377
1307.778009,-10510.924376,1838.629195,962.267725
1307.778321,-10140.821405,842.705048,370.102971
1307.778632,-8956.491898,-229.828649,444.123565
1307.778944,-8068.244768,-306.438199,592.164754
1307.779256,-8438.347739,-153.219100,148.041188
1307.779567,-9030.512492,1532.190996,296.082377
1307.779879,-9770.718434,2451.505594,666.185348
1307.780190,-9474.636058,1532.190996,1776.494261
1307.780502,-8216.285956,0.000000,2294.638420
1307.780813,-7105.977043,-919.314598,2368.659014
1307.781125,-5773.606348,-2528.115143,2220.617826
1307.781437,-5181.441594,-3064.381992,666.185348
1307.781748,-6587.832884,-1915.238745,-888.247130
1307.782059,-7031.956449,229.828649,-1036.288319
1307.782371,-8290.306550,1685.410096,-1332.370696
1307.782682,-10288.862594,1455.581446,-222.061783
1307.782994,-10584.944971,919.314598,666.185348
1307.783305,-9696.697840,383.047749,1036.288319
1307.783616,-8586.388927,153.219100,1628.453072
1307.783928,-7402.059420,-459.657299,1258.350101
1307.784239,-8438.347739,-459.657299,370.102971
1307.784550,-8586.388927,-306.438199,296.082377
1307.784862,-8956.491898,612.876398,-148.041188
1307.785173,-10510.924376,1302.362347,518.144159
1307.785485,-9844.739029,995.924147,1110.308913
1307.785796,-10510.924376,-1225.752797,1628.453072
1307.786107,-9326.594869,-3600.648841,2146.597232
1307.786419,-8142.265362,-4519.963438,1998.556043
1307.786730,-8586.388927,-2528.115143,740.205942
1307.787042,-8882.471304,-229.828649,-148.041188
1307.787353,-10140.821405,612.876398,-0.000000
1307.787664,-10658.965565,383.047749,148.041188
1307.787976,-10881.027347,1455.581446,962.267725
1307.788287,-10584.944971,1685.410096,666.185348
1307.788598,-9474.636058,1532.190996,296.082377
1307.788910,-8882.471304,0.000000,666.185348
1307.789221,-7624.121203,-612.876398,148.041188
1307.789533,-7402.059420,0.000000,-740.205942
1307.789844,-9548.656652,1608.800546,-444.123565
1307.790155,-9474.636058,2834.553343,518.144159
1307.790467,-9548.656652,2298.286494,888.247130
1307.790778,-8586.388927,612.876398,2812.782580
1307.791089,-7402.059420,-2451.505594,2812.782580
1307.791401,-5847.626942,-3370.820191,2368.659014
1307.791712,-5107.421000,-3524.039291,666.185348
1307.792024,-5477.523971,-1762.019645,-0.000000
1307.792335,-7105.977043,-459.657299,-666.185348
1307.792646,-9400.615463,995.924147,-740.205942
1307.792958,-11177.109724,1532.190996,222.061783
1307.793269,-11177.109724,1302.362347,888.247130
1307.793581,-10362.883188,383.047749,1184.329507
1307.793892,-9104.533087,-306.438199,1258.350101
1307.794203,-8068.244768,-1532.190996,592.164754
1307.794515,-7031.956449,-1378.971896,592.164754
1307.794826,-7772.162391,-612.876398,-74.020594
1307.795137,-8882.471304,995.924147,-148.041188
1307.795449,-10288.862594,1608.800546,592.164754
1307.795760,-10510.924376,766.095498,1554.432478
1307.796072,-8956.491898,-995.924147,1998.556043
1307.796383,-8216.285956,-3447.429741,2146.597232
1307.796694,-6513.812290,-3140.991542,1480.411884
1307.797006,-7105.977043,-2451.505594,-0.000000
1307.797317,-7402.059420,-536.266849,-888.247130
1307.797628,-8586.388927,689.485948,-1776.494261
1307.797940,-10066.800811,1838.629195,-1258.350101
1307.798251,-11103.089130,1991.848295,-740.205942
1307.798563,-11325.150913,1532.190996,-0.000000
1307.798874,-10881.027347,306.438199,814.226536
1307.799185,-10436.903782,-842.705048,814.226536
1307.799497,-9770.718434,-1302.362347,-74.020594
1307.799808,-9696.697840,-766.095498,-740.205942
1307.800120,-9696.697840,842.705048,-296.082377
1307.800431,-9992.780217,1455.581446,222.061783
1307.800742,-9918.759623,766.095498,740.205942
1307.801054,-9030.512492,306.438199,1776.494261
1307.801365,-8216.285956,-1302.362347,1184.329507
1307.801676,-7476.080014,-2068.457845,1184.329507
1307.801988,-7105.977043,-2145.067394,296.082377
1307.802299,-7254.018232,-459.657299,-814.226536
1307.802611,-7550.100608,1072.533697,-1110.308913
1307.802922,-10362.883188,1225.752797,-1184.329507
1307.803233,-10436.903782,2374.896044,-0.000000
1307.803545,-10955.047942,2221.676944,370.102971
1307.803856,-9770.718434,76.609550,1480.411884
1307.804168,-7402.059420,-612.876398,1776.494261
1307.804479,-7920.203579,-2145.067394,888.247130
1307.804790,-7254.018232,-1455.581446,740.205942
1307.805102,-7920.203579,76.609550,518.144159
1307.805413,-9326.594869,1532.190996,370.102971
1307.805724,-9696.697840,2528.115143,1036.288319
1307.806036,-9770.718434,1225.752797,1924.535449
1307.806347,-8882.471304,-306.438199,2368.659014
1307.806659,-7846.182985,-2068.457845,2220.617826
1307.806970,-6587.832884,-1532.190996,1258.350101
1307.807281,-6735.874072,-995.924147,-0.000000
1307.807593,-7179.997637,0.000000,-222.061783
1307.807904,-7550.100608,1225.752797,-740.205942
1307.808215,-8956.491898,1378.971896,-0.000000
1307.808527,-10362.883188,1991.848295,740.205942
1307.808838,-11029.068536,1225.752797,370.102971
1307.809150,-10140.821405,459.657299,370.102971
1307.809461,-9400.615463,-383.047749,962.267725
1307.809772,-8882.471304,-1455.581446,444.123565
1307.810084,-9252.574275,-995.924147,-0.000000
1307.810395,-9696.697840,536.266849,222.061783
1307.810707,-9252.574275,1455.581446,1184.329507
1307.811018,-9844.739029,919.314598,1406.391290
1307.811329,-8586.388927,-383.047749,2368.659014
1307.811641,-7476.080014,-2451.505594,2442.679609
1307.811952,-6809.894666,-3600.648841,1628.453072
1307.812263,-6661.853478,-3294.210641,222.061783
1307.812575,-7550.100608,-1072.533697,-1258.350101
1307.812886,-8512.368333,995.924147,-1406.391290
1307.813198,-9918.759623,1378.971896,-888.247130
1307.813509,-10955.047942,1072.533697,-0.000000
1307.813820,-10510.924376,536.266849,740.205942
1307.814132,-9622.677246,-383.047749,1258.350101
1307.814443,-9178.553681,-2068.457845,962.267725
1307.814754,-8660.409521,-2145.067394,370.102971
1307.815066,-8586.388927,-1532.190996,-296.082377
1307.815377,-9252.574275,-306.438199,-814.226536
1307.815689,-9918.759623,1991.848295,-0.000000
1307.816000,-10510.924376,2068.457845,296.082377
1307.816311,-10066.800811,1302.362347,962.267725
1307.816623,-9178.553681,-1149.143247,1850.514855
1307.816934,-8068.244768,-3064.381992,1850.514855
1307.817246,-7105.977043,-2834.553343,1332.370696
1307.817557,-6735.874072,-1149.143247,-74.020594
1307.817868,-6883.915261,0.000000,-740.205942
1307.818180,-8882.471304,766.095498,-1406.391290
1307.818491,-9622.677246,1532.190996,-444.123565
1307.818802,-10807.006753,1378.971896,148.041188
1307.819114,-10732.986159,766.095498,592.164754
1307.819425,-9844.739029,306.438199,814.226536
1307.819737,-9104.533087,-229.828649,296.082377
1307.820048,-8734.430116,-612.876398,-222.061783
1307.820359,-7846.182985,919.314598,-148.041188
1307.820671,-8216.285956,1378.971896,-148.041188
1307.820982,-9104.533087,1838.629195,148.041188
1307.821293,-9178.553681,1225.752797,1924.535449
1307.821605,-8586.388927,-383.047749,2368.659014
1307.821916,-7994.224174,-2145.067394,2294.638420
1307.822228,-7031.956449,-3140.991542,1406.391290
1307.822539,-6809.894666,-2604.724693,-0.000000
1307.822850,-7550.100608,-842.705048,-962.267725
1307.823162,-8068.244768,459.657299,-814.226536
1307.823473,-9696.697840,612.876398,-518.144159
1307.823785,-10584.944971,1149.143247,666.185348
1307.824096,-10955.047942,919.314598,1110.308913
1307.824407,-9474.636058,153.219100,1258.350101
1307.824719,-7846.182985,-766.095498,888.247130
1307.825030,-6587.832884,-1762.019645,370.102971
1307.825341,-7698.141797,-995.924147,-962.267725
1307.825653,-9400.615463,-536.266849,-444.123565
1307.825964,-10362.883188,1685.410096,222.061783
1307.826276,-11251.130318,1991.848295,1184.329507
1307.826587,-10436.903782,536.266849,1998.556043
1307.826898,-9918.759623,-2145.067394,2146.597232
1307.827210,-7846.182985,-3217.601092,2146.597232
1307.827521,-6291.750507,-2145.067394,814.226536
1307.827832,-6587.832884,-689.485948,-518.144159
1307.828144,-6957.935855,842.705048,-592.164754
1307.828455,-8956.491898,1149.143247,-962.267725
1307.828767,-9770.718434,1838.629195,-222.061783
1307.829078,-11103.089130,1915.238745,296.082377
1307.829389,-11769.274478,842.705048,370.102971
1307.829701,-10955.047942,612.876398,666.185348
1307.830012,-9992.780217,-459.657299,592.164754
1307.830324,-8512.368333,-842.705048,370.102971
1307.830635,-8734.430116,-459.657299,-0.000000
1307.830946,-9252.574275,919.314598,740.205942
1307.831258,-9326.594869,2374.896044,962.267725
1307.831569,-8882.471304,2298.286494,888.247130
1307.831880,-8068.244768,1149.143247,1924.535449
1307.832192,-7328.038826,-1302.362347,1184.329507
1307.832503,-6439.791695,-2298.286494,1184.329507
1307.832815,-6513.812290,-1455.581446,-74.020594
1307.833126,-7550.100608,766.095498,-1480.411884
1307.833437,-8882.471304,1991.848295,-592.164754
1307.833749,-9844.739029,1838.629195,-296.082377
1307.834060,-10881.027347,1378.971896,-0.000000
1307.834371,-9992.780217,1302.362347,592.164754
1307.834683,-8512.368333,459.657299,814.226536
1307.834994,-7328.038826,-766.095498,296.082377
1307.835306,-7031.956449,-612.876398,-0.000000
1307.835617,-7550.100608,-536.266849,-0.000000
1307.835928,-8364.327145,-383.047749,148.041188
1307.836240,-10066.800811,919.314598,666.185348
1307.836551,-10807.006753,1532.190996,1554.432478
1307.836863,-10510.924376,0.000000,1924.535449
1307.837174,-9622.677246,-2221.676944,2294.638420
1307.837485,-8068.244768,-3600.648841,1924.535449
1307.837797,-6735.874072,-2757.943793,666.185348
1307.838108,-7179.997637,-1378.971896,-222.061783
1307.838419,-7624.121203,153.219100,-888.247130
1307.838731,-8882.471304,1455.581446,-962.267725
1307.839042,-9844.739029,2068.457845,-444.123565
1307.839354,-10807.006753,2221.676944,-0.000000
1307.839665,-10881.027347,1762.019645,-222.061783
1307.839976,-11325.150913,153.219100,222.061783
1307.840288,-9474.636058,-306.438199,666.185348
1307.840599,-8808.450710,-1225.752797,-0.000000
1307.840910,-9622.677246,-766.095498,-0.000000
1307.841222,-9252.574275,-153.219100,962.267725
1307.841533,-9548.656652,0.000000,1480.411884
1307.841845,-8956.491898,-766.095498,2664.741391
1307.842156,-8216.285956,-1455.581446,2812.782580
1307.842467,-8512.368333,-2451.505594,1924.535449
1307.842779,-6883.915261,-3064.381992,1480.411884
1307.843090,-7402.059420,-2068.457845,148.041188
1307.843402,-7698.141797,-459.657299,-370.102971
1307.843713,-8660.409521,1532.190996,-814.226536
1307.844024,-10288.862594,1991.848295,-222.061783
1307.844336,-10140.821405,1838.629195,666.185348
1307.844647,-10362.883188,459.657299,1406.391290
1307.844958,-8438.347739,0.000000,1184.329507
1307.845270,-7254.018232,-1149.143247,888.247130
1307.845581,-7402.059420,-1225.752797,444.123565
1307.845893,-8512.368333,-306.438199,-296.082377
1307.846204,-9030.512492,919.314598,-222.061783
1307.846515,-9548.656652,1838.629195,518.144159
1307.846827,-9622.677246,1532.190996,1332.370696
1307.847138,-9326.594869,229.828649,1406.391290
1307.847450,-8512.368333,-1378.971896,1850.514855
1307.847761,-7105.977043,-2451.505594,1554.432478
1307.848072,-6439.791695,-1915.238745,370.102971
1307.848384,-7031.956449,-766.095498,-592.164754
1307.848695,-7698.141797,229.828649,-1184.329507
1307.849006,-9030.512492,1302.362347,-1184.329507
1307.849318,-10214.842000,2068.457845,-222.061783
1307.849629,-11769.274478,2604.724693,296.082377
1307.849941,-11991.336260,995.924147,592.164754
1307.850252,-10955.047942,-306.438199,1110.308913
1307.850563,-10066.800811,-766.095498,592.164754
1307.850875,-8956.491898,-306.438199,-0.000000
1307.851186,-8512.368333,689.485948,-592.164754
1307.851497,-7920.203579,1685.410096,-74.020594
1307.851809,-7920.203579,1685.410096,518.144159
1307.852120,-7846.182985,842.705048,2294.638420
1307.852432,-7772.162391,-153.219100,2368.659014
1307.852743,-8216.285956,-2221.676944,1924.535449
1307.853054,-7402.059420,-2681.334243,1036.288319
1307.853366,-7624.121203,-1149.143247,-666.185348
1307.853677,-8142.265362,842.705048,-1258.350101
1307.853989,-9252.574275,1762.019645,-1406.391290
1307.854300,-10955.047942,1225.752797,-962.267725
1307.854611,-11621.233289,1608.800546,-0.000000
1307.854923,-10955.047942,995.924147,518.144159
1307.855234,-9400.615463,0.000000,888.247130
1307.855545,-8290.306550,-1378.971896,888.247130
1307.855857,-7772.162391,-2374.896044,740.205942
1307.856168,-7698.141797,-1302.362347,518.144159
1307.856480,-9178.553681,0.000000,296.082377
1307.856791,-10066.800811,2451.505594,1184.329507
1307.857102,-11251.130318,2757.943793,1110.308913
1307.857414,-9844.739029,612.876398,1850.514855
1307.857725,-8438.347739,-1302.362347,2220.617826
1307.858036,-6957.935855,-2145.067394,1554.432478
1307.858348,-6291.750507,-1225.752797,444.123565
1307.858659,-6957.935855,0.000000,-444.123565
1307.858971,-7402.059420,383.047749,-888.247130
1307.859282,-8956.491898,1378.971896,-740.205942
1307.859593,-9844.739029,2145.067394,444.123565
1307.859905,-11029.068536,1915.238745,1184.329507
1307.860216,-10955.047942,612.876398,1480.411884
1307.860528,-9770.718434,-383.047749,1406.391290
1307.860839,-9030.512492,-766.095498,962.267725
1307.861150,-7772.162391,-766.095498,370.102971
1307.861462,-8438.347739,0.000000,-148.041188
1307.861773,-8290.306550,1072.533697,-0.000000
1307.862084,-8512.368333,1302.362347,444.123565
1307.862396,-8660.409521,229.828649,1924.535449
1307.862707,-8438.347739,-995.924147,2442.679609
1307.863019,-8290.306550,-2451.505594,2590.720797
1307.863330,-7254.018232,-3064.381992,2146.597232
1307.863641,-7402.059420,-2451.505594,518.144159
1307.863953,-7994.224174,-383.047749,-370.102971
1307.864264,-7920.203579,1072.533697,-888.247130
1307.864575,-9030.512492,1685.410096,-296.082377
1307.864887,-9992.780217,995.924147,-370.102971
1307.865198,-9844.739029,612.876398,444.123565
1307.865510,-9770.718434,-383.047749,888.247130
1307.865821,-9030.512492,-1915.238745,1258.350101
1307.866132,-8734.430116,-2451.505594,666.185348
1307.866444,-8734.430116,-1762.019645,148.041188
1307.866755,-9918.759623,-383.047749,-0.000000
1307.867067,-10362.883188,1149.143247,-148.041188
1307.867378,-10362.883188,1532.190996,1110.308913
1307.867689,-9770.718434,459.657299,1702.473667
1307.868001,-9178.553681,-2298.286494,2146.597232
1307.868312,-8068.244768,-3677.258390,1924.535449
1307.868623,-6883.915261,-2451.505594,518.144159
1307.868935,-7031.956449,-1225.752797,-740.205942
1307.869246,-7254.018232,0.000000,-962.267725
1307.869558,-9178.553681,383.047749,-1628.453072
1307.869869,-11547.212695,1072.533697,-666.185348
1307.870180,-12361.439231,1762.019645,296.082377
1307.870492,-12065.356855,1149.143247,740.205942
1307.870803,-11177.109724,536.266849,1332.370696
1307.871114,-9844.739029,0.000000,1110.308913
1307.871426,-7698.141797,-459.657299,222.061783
1307.871737,-7105.977043,612.876398,-0.000000
1307.872049,-7254.018232,2068.457845,148.041188
1307.872360,-8216.285956,2145.067394,222.061783
1307.872671,-8734.430116,1149.143247,962.267725
1307.872983,-7920.203579,-766.095498,1850.514855
1307.873294,-7624.121203,-2757.943793,1924.535449
1307.873606,-6957.935855,-3140.991542,1184.329507
1307.873917,-8512.368333,-1915.238745,-592.164754
1307.874228,-8068.244768,0.000000,-148.041188
1307.874540,-8216.285956,919.314598,-148.041188
1307.874851,-9770.718434,612.876398,-0.000000
1307.875162,-9548.656652,612.876398,-0.000000
1307.875474,-9400.615463,612.876398,-0.000000
1307.875785,-7846.182985,-153.219100,518.144159
1307.876097,-7105.977043,0.000000,74.020594
1307.876408,-8142.265362,-1762.019645,-222.061783
1307.876719,-8660.409521,-1762.019645,-0.000000
1307.877031,-10214.842000,-536.266849,888.247130
1307.877342,-11029.068536,766.095498,1776.494261
1307.877653,-11547.212695,1532.190996,1776.494261
1307.877965,-10584.944971,229.828649,1850.514855
1307.878276,-7846.182985,-2145.067394,1998.556043
1307.878588,-6439.791695,-2987.772442,1258.350101
1307.878899,-6587.832884,-1532.190996,-370.102971
1307.879210,-7698.141797,-229.828649,-592.164754
1307.879522,-8438.347739,612.876398,-962.267725
1307.879833,-9474.636058,1072.533697,-592.164754
1307.880145,-11103.089130,1991.848295,-222.061783
1307.880456,-11695.253884,2528.115143,-0.000000
1307.880767,-10955.047942,1762.019645,-222.061783
1307.881079,-9474.636058,1149.143247,444.123565
1307.881390,-8660.409521,306.438199,296.082377
1307.881701,-8734.430116,-459.657299,-74.020594
1307.882013,-9548.656652,0.000000,592.164754
1307.882324,-8956.491898,1378.971896,1110.308913
1307.882636,-8956.491898,1915.238745,962.267725
1307.882947,-8734.430116,919.314598,1184.329507
1307.883258,-8290.306550,-459.657299,1702.473667
1307.883570,-7550.100608,-2374.896044,1554.432478
1307.883881,-7031.956449,-1991.848295,740.205942
1307.884193,-7698.141797,-766.095498,-370.102971
1307.884504,-8882.471304,459.657299,-592.164754
1307.884815,-9474.636058,1225.752797,-148.041188
1307.885127,-9992.780217,1149.143247,666.185348
1307.885438,-9252.574275,1225.752797,1110.308913
1307.885749,-9622.677246,459.657299,740.205942
1307.886061,-7550.100608,-306.438199,888.247130
1307.886372,-7254.018232,-1608.800546,592.164754
1307.886683,-7550.100608,-1532.190996,222.061783
1307.886995,-8438.347739,-536.266849,-148.041188
1307.887306,-9474.636058,766.095498,296.082377
1307.887617,-9992.780217,1838.629195,1036.288319
1307.887929,-10510.924376,1455.581446,1110.308913
1307.888240,-9030.512492,-536.266849,2146.597232
1307.888552,-7772.162391,-2374.896044,2146.597232
1307.888863,-6365.771101,-3217.601092,1850.514855
1307.889174,-5847.626942,-2451.505594,592.164754
1307.889486,-7254.018232,-1225.752797,-962.267725
1307.889797,-8216.285956,153.219100,-1036.288319
1307.890108,-9474.636058,919.314598,-666.185348
1307.890420,-11325.150913,1455.581446,-222.061783
1307.890731,-12139.377449,612.876398,666.185348
1307.891042,-11843.295072,-383.047749,1184.329507
1307.891354,-11029.068536,-1225.752797,962.267725
1307.891665,-9474.636058,-1378.971896,740.205942
1307.891977,-8512.368333,-995.924147,-74.020594
1307.892288,-8216.285956,-153.219100,-74.020594
1307.892599,-8290.306550,1149.143247,-148.041188
1307.892911,-8512.368333,995.924147,592.164754
1307.893222,-8660.409521,459.657299,1258.350101
1307.893533,-9178.553681,-1378.971896,1850.514855
1307.893845,-8882.471304,-3370.820191,1998.556043
1307.894156,-8660.409521,-2987.772442,666.185348
1307.894467,-9252.574275,-1762.019645,-740.205942
1307.894779,-9252.574275,995.924147,-1184.329507
1307.895090,-9252.574275,2068.457845,-1258.350101
1307.895401,-9622.677246,1608.800546,-592.164754
1307.895713,-10658.965565,1455.581446,-518.144159
1307.896024,-9474.636058,1225.752797,148.041188
1307.896336,-8364.327145,919.314598,592.164754
1307.896647,-7179.997637,-306.438199,740.205942
1307.896958,-7031.956449,-689.485948,370.102971
1307.897270,-8142.265362,-766.095498,-0.000000
1307.897581,-9252.574275,0.000000,444.123565
1307.897892,-10732.986159,842.705048,1184.329507
1307.898204,-10510.924376,1072.533697,1924.535449
1307.898515,-8882.471304,-536.266849,2812.782580
1307.898826,-7846.182985,-3370.820191,2664.741391
1307.899138,-6143.709319,-4136.915689,1850.514855
1307.899449,-5477.523971,-2604.724693,222.061783
1307.899761,-5773.606348,-229.828649,-962.267725
1307.900072,-6735.874072,1302.362347,-1258.350101
1307.900383,-8956.491898,2068.457845,-1258.350101
1307.900695,-11103.089130,2298.286494,370.102971
1307.901006,-11547.212695,1608.800546,1480.411884
1307.901317,-11251.130318,383.047749,1702.473667
1307.901629,-10436.903782,-689.485948,1480.411884
1307.901940,-8734.430116,-689.485948,888.247130
1307.902251,-7772.162391,-689.485948,-148.041188
1307.902563,-8068.244768,-383.047749,-222.061783
1307.902874,-7920.203579,1302.362347,-148.041188
1307.903186,-9030.512492,1991.848295,-0.000000
1307.903497,-9104.533087,1378.971896,1110.308913
1307.903808,-8808.450710,-153.219100,1628.453072
1307.904120,-9326.594869,-2221.676944,1554.432478
1307.904431,-8438.347739,-2068.457845,1036.288319
1307.904742,-8586.388927,153.219100,-296.082377
1307.905054,-8734.430116,1991.848295,-370.102971
1307.905365,-9474.636058,1838.629195,-666.185348
1307.905676,-11473.192101,1838.629195,-518.144159
1307.905988,-11029.068536,1838.629195,148.041188
1307.906299,-9918.759623,1302.362347,-0.000000
1307.906610,-8290.306550,536.266849,222.061783
1307.906922,-8808.450710,-383.047749,-222.061783
1307.907233,-8734.430116,-306.438199,-444.123565
1307.907545,-8364.327145,0.000000,-592.164754
1307.907856,-8956.491898,1455.581446,592.164754
1307.908167,-9696.697840,1838.629195,1332.370696
1307.908479,-9992.780217,919.314598,1924.535449
1307.908790,-8808.450710,-459.657299,2146.597232
1307.909101,-6735.874072,-1762.019645,1850.514855
1307.909413,-5255.462188,-2068.457845,888.247130
1307.909724,-6143.709319,-1915.238745,-518.144159
1307.910035,-8512.368333,-1302.362347,-1110.308913
1307.910347,-8216.285956,0.000000,-444.123565
1307.910658,-9474.636058,1455.581446,-444.123565
1307.910970,-10881.027347,1762.019645,444.123565
1307.911281,-12287.418637,1072.533697,814.226536
1307.911592,-10510.924376,153.219100,1036.288319
1307.911904,-8660.409521,689.485948,962.267725
1307.912215,-7476.080014,0.000000,518.144159
1307.912526,-6661.853478,-383.047749,148.041188
1307.912838,-9252.574275,-536.266849,-148.041188
1307.913149,-8808.450710,153.219100,1110.308913
1307.913460,-9326.594869,1225.752797,888.247130
1307.913772,-9474.636058,1072.533697,1480.411884
1307.914083,-8882.471304,-842.705048,1776.494261
1307.914395,-8364.327145,-2528.115143,1480.411884
1307.914706,-7624.121203,-2987.772442,444.123565
1307.915017,-7550.100608,-1225.752797,-444.123565
1307.915329,-8290.306550,536.266849,-666.185348
1307.915640,-9696.697840,459.657299,-296.082377
1307.915951,-10214.842000,153.219100,592.164754
1307.916263,-9992.780217,-153.219100,814.226536
1307.916574,-9696.697840,-536.266849,1406.391290
1307.916885,-9178.553681,-1225.752797,1258.350101
1307.917197,-9030.512492,-2757.943793,740.205942
1307.917508,-9252.574275,-2068.457845,-0.000000
1307.917819,-10140.821405,-766.095498,-74.020594
1307.918131,-10584.944971,919.314598,740.205942
1307.918442,-10510.924376,1608.800546,1332.370696
1307.918754,-9548.656652,995.924147,1850.514855
1307.919065,-8068.244768,-766.095498,2368.659014
1307.919376,-7105.977043,-2374.896044,1850.514855
1307.919688,-5625.565159,-1991.848295,1036.288319
1307.919999,-5921.647536,-1685.410096,-444.123565
1307.920310,-6661.853478,-842.705048,-1406.391290
1307.920622,-8142.265362,612.876398,-962.267725
1307.920933,-10140.821405,1225.752797,-666.185348
1307.921244,-11621.233289,1378.971896,814.226536
1307.921556,-11695.253884,842.705048,1998.556043
1307.921867,-10288.862594,536.266849,2146.597232
1307.922179,-9178.553681,-1302.362347,2294.638420
1307.922490,-7920.203579,-1532.190996,592.164754
1307.922801,-7031.956449,-229.828649,-592.164754
1307.923113,-6513.812290,1378.971896,-1258.350101
1307.923424,-7476.080014,2145.067394,-592.164754
1307.923735,-8808.450710,1532.190996,148.041188
1307.924047,-9548.656652,0.000000,1480.411884
1307.924358,-9252.574275,-1762.019645,2368.659014
1307.924669,-8734.430116,-3830.477490,2590.720797
1307.924981,-8068.244768,-2528.115143,1480.411884
1307.925292,-8216.285956,-1149.143247,-222.061783
1307.925604,-7698.141797,153.219100,-666.185348
1307.925915,-8586.388927,1149.143247,-1332.370696
1307.926226,-9252.574275,1915.238745,-666.185348
1307.926538,-9548.656652,2068.457845,-740.205942
1307.926849,-9844.739029,1072.533697,-666.185348
1307.927160,-8364.327145,0.000000,814.226536
1307.927472,-8216.285956,-689.485948,370.102971
1307.927783,-9104.533087,-1762.019645,-0.000000
1307.928094,-9844.739029,-919.314598,-0.000000
1307.928406,-10732.986159,766.095498,666.185348
1307.928717,-11843.295072,1455.581446,888.247130
1307.929028,-10510.924376,1378.971896,1184.329507
1307.929340,-9918.759623,-1302.362347,1406.391290
1307.929651,-7698.141797,-1991.848295,1850.514855
1307.929963,-6439.791695,-2528.115143,888.247130
1307.930274,-6365.771101,-995.924147,-814.226536
1307.930585,-7550.100608,689.485948,-1480.411884
1307.930897,-8734.430116,1532.190996,-1110.308913
1307.931208,-9474.636058,2374.896044,-740.205942
1307.931519,-10955.047942,2451.505594,-0.000000
1307.931831,-11695.253884,1532.190996,740.205942
1307.932142,-10807.006753,612.876398,1480.411884
1307.932453,-9400.615463,-153.219100,1258.350101
1307.932765,-8142.265362,-842.705048,888.247130
1307.933076,-8290.306550,-689.485948,148.041188
1307.933388,-8882.471304,229.828649,-0.000000
1307.933699,-8808.450710,1608.800546,370.102971
1307.934010,-9104.533087,2374.896044,444.123565
1307.934322,-8068.244768,1072.533697,1406.391290
1307.934633,-8216.285956,-1225.752797,1702.473667
1307.934944,-7698.141797,-2681.334243,1998.556043
1307.935256,-7105.977043,-2374.896044,1184.329507
1307.935567,-7105.977043,-689.485948,148.041188
1307.935878,-7624.121203,919.314598,296.082377
1307.936190,-8660.409521,1455.581446,-518.144159
1307.936501,-9030.512492,1608.800546,370.102971
1307.936813,-9474.636058,766.095498,-0.000000
1307.937124,-8956.491898,1149.143247,296.082377
1307.937435,-8068.244768,536.266849,592.164754
1307.937747,-7994.224174,-459.657299,592.164754
1307.938058,-8216.285956,-1532.190996,296.082377
1307.938369,-9474.636058,-1072.533697,370.102971
1307.938681,-10140.821405,-306.438199,1184.329507
1307.938992,-10658.965565,1532.190996,1406.391290
1307.939303,-9770.718434,995.924147,1702.473667
1307.939615,-9252.574275,-1762.019645,2294.638420
1307.939926,-7698.141797,-3524.039291,2072.576638
1307.940237,-6439.791695,-3677.258390,1036.288319
1307.940549,-7105.977043,-1915.238745,-148.041188
1307.940860,-8068.244768,0.000000,-444.123565
1307.941172,-9622.677246,919.314598,-1184.329507
1307.941483,-11251.130318,1455.581446,-962.267725
1307.941794,-11177.109724,1915.238745,592.164754
1307.942106,-11103.089130,842.705048,444.123565
1307.942417,-9918.759623,229.828649,518.144159
1307.942728,-9400.615463,-383.047749,296.082377
1307.943040,-8438.347739,-1455.581446,-74.020594
1307.943351,-8586.388927,-842.705048,-296.082377
1307.943662,-9252.574275,153.219100,-296.082377
1307.943974,-9844.739029,1378.971896,-0.000000
1307.944285,-10066.800811,842.705048,814.226536
1307.944597,-9474.636058,76.609550,2072.576638
1307.944908,-8956.491898,-1225.752797,2294.638420
1307.945219,-7994.224174,-2451.505594,2072.576638
1307.945531,-7254.018232,-2451.505594,962.267725
1307.945842,-7105.977043,-1225.752797,-666.185348
1307.946153,-6957.935855,612.876398,-962.267725
1307.946465,-7624.121203,1378.971896,-1406.391290
1307.946776,-8956.491898,842.705048,-962.267725
1307.947087,-9918.759623,612.876398,-148.041188
1307.947399,-9548.656652,0.000000,592.164754
1307.947710,-9030.512492,-1302.362347,1110.308913
1307.948022,-8734.430116,-2451.505594,1184.329507
1307.948333,-9030.512492,-2374.896044,592.164754
1307.948644,-8956.491898,-1149.143247,592.164754
1307.948956,-8734.430116,919.314598,370.102971
1307.949267,-9770.718434,1378.971896,444.123565
1307.949578,-10140.821405,1225.752797,1110.308913
1307.949890,-9030.512492,-229.828649,1480.411884
1307.950201,-7402.059420,-2374.896044,1184.329507
1307.950512,-5551.544565,-2757.943793,814.226536
1307.950824,-6217.729913,-2145.067394,-666.185348
1307.951135,-8068.244768,-919.314598,-1184.329507
1307.951446,-7846.182985,1149.143247,-1036.288319
1307.951758,-10362.883188,1378.971896,-518.144159
1307.952069,-11917.315666,1225.752797,962.267725
1307.952381,-11621.233289,536.266849,1184.329507
1307.952692,-10955.047942,-612.876398,1332.370696
1307.953003,-9400.615463,-1455.581446,1406.391290
1307.953315,-8512.368333,-1225.752797,666.185348
1307.953626,-8882.471304,-459.657299,-888.247130
1307.953937,-9178.553681,919.314598,-296.082377
1307.954249,-9030.512492,2298.286494,-0.000000
1307.954560,-9104.533087,2451.505594,962.267725
1307.954871,-8734.430116,1685.410096,2146.597232
1307.955183,-8512.368333,-919.314598,2368.659014
1307.955494,-7920.203579,-1838.629195,2368.659014
1307.955806,-7624.121203,-1455.581446,666.185348
1307.956117,-8290.306550,229.828649,-592.164754
1307.956428,-8364.327145,2374.896044,-1110.308913
1307.956740,-9770.718434,1838.629195,-1036.288319
1307.957051,-9918.759623,1532.190996,-222.061783
1307.957362,-9918.759623,1608.800546,-0.000000
1307.957674,-9030.512492,766.095498,888.247130
1307.957985,-8438.347739,-612.876398,1110.308913
1307.958296,-8290.306550,-1532.190996,814.226536
1307.958608,-7772.162391,-1455.581446,518.144159
1307.958919,-9104.533087,0.000000,-74.020594
1307.959230,-10140.821405,1838.629195,962.267725
1307.959542,-10881.027347,2834.553343,1258.350101
1307.959853,-9992.780217,1455.581446,1702.473667
1307.960165,-8216.285956,-689.485948,1702.473667
1307.960476,-7550.100608,-2451.505594,1480.411884
1307.960787,-5699.585753,-2604.724693,888.247130
1307.961099,-6809.894666,-919.314598,-0.000000
1307.961410,-7031.956449,-153.219100,-444.123565
1307.961721,-7772.162391,306.438199,-222.061783
1307.962033,-9844.739029,536.266849,-222.061783
1307.962344,-10140.821405,1532.190996,592.164754
1307.962655,-10584.944971,1378.971896,148.041188
1307.962967,-9030.512492,-229.828649,296.082377
1307.963278,-7994.224174,-766.095498,148.041188
1307.963590,-8586.388927,-1302.362347,-962.267725
1307.963901,-8734.430116,-766.095498,-814.226536
1307.964212,-9030.512492,536.266849,-74.020594
1307.964524,-9474.636058,1149.143247,518.144159
1307.964835,-9770.718434,766.095498,1110.308913
1307.965146,-9622.677246,-766.095498,1776.494261
1307.965458,-8512.368333,-2221.676944,2368.659014
1307.965769,-7624.121203,-3447.429741,2294.638420
1307.966080,-7994.224174,-3370.820191,518.144159
1307.966392,-8808.450710,-1302.362347,-666.185348
1307.966703,-9030.512492,306.438199,-1036.288319
1307.967015,-9474.636058,766.095498,-1110.308913
1307.967326,-9992.780217,459.657299,-666.185348
1307.967637,-10807.006753,612.876398,-296.082377
1307.967949,-10658.965565,229.828649,370.102971
1307.968260,-10140.821405,-383.047749,444.123565
1307.968571,-9252.574275,-383.047749,962.267725
1307.968883,-9400.615463,-1072.533697,296.082377
1307.969194,-9622.677246,0.000000,518.144159
1307.969505,-9696.697840,1378.971896,888.247130
1307.969817,-9696.697840,1838.629195,1110.308913
1307.970128,-9474.636058,995.924147,1406.391290
1307.970439,-8290.306550,-612.876398,1776.494261
1307.970751,-7105.977043,-2451.505594,1776.494261
1307.971062,-6143.709319,-2221.676944,1110.308913
1307.971374,-7179.997637,-1302.362347,-148.041188
1307.971685,-8142.265362,-153.219100,-148.041188
1307.971996,-8586.388927,919.314598,148.041188
1307.972308,-9696.697840,612.876398,888.247130
1307.972619,-10732.986159,1455.581446,1776.494261
1307.972930,-10807.006753,995.924147,1628.453072
1307.973242,-9104.533087,1149.143247,1258.350101
1307.973553,-7254.018232,383.047749,296.082377
1307.973864,-6735.874072,-306.438199,-592.164754
1307.974176,-7105.977043,306.438199,-666.185348
1307.974487,-7772.162391,1302.362347,-74.020594
1307.974799,-8290.306550,2068.457845,888.247130
1307.975110,-9178.553681,1762.019645,1850.514855
1307.975421,-8586.388927,-153.219100,3034.844362
1307.975733,-7846.182985,-2451.505594,2960.823768
1307.976044,-7105.977043,-3140.991542,1924.535449
1307.976355,-7031.956449,-2145.067394,148.041188
1307.976667,-7105.977043,459.657299,-1110.308913
1307.976978,-7994.224174,1302.362347,-1628.453072
1307.977289,-9178.553681,1608.800546,-1406.391290
1307.977601,-9474.636058,919.314598,-666.185348
1307.977912,-10066.800811,1302.362347,370.102971
1307.978224,-9918.759623,-76.609550,666.185348
1307.978535,-10066.800811,-1532.190996,1110.308913
1307.978846,-10214.842000,-1915.238745,888.247130
1307.979158,-10288.862594,-1072.533697,-148.041188
1307.979469,-10881.027347,306.438199,-0.000000
1307.979780,-11251.130318,1838.629195,222.061783
1307.980092,-10881.027347,995.924147,962.267725
1307.980403,-9400.615463,919.314598,888.247130
1307.980714,-8586.388927,-1532.190996,1480.411884
1307.981026,-7031.956449,-2451.505594,1184.329507
1307.981337,-6365.771101,-2451.505594,666.185348
1307.981648,-7476.080014,-1149.143247,-962.267725
1307.981960,-8364.327145,153.219100,-1258.350101
1307.982271,-9548.656652,1455.581446,-1332.370696
1307.982583,-10881.027347,2221.676944,-148.041188
1307.982894,-11695.253884,1532.190996,-0.000000
1307.983205,-11325.150913,766.095498,814.226536
1307.983517,-9918.759623,-306.438199,962.267725
1307.983828,-8808.450710,-689.485948,962.267725
1307.984140,-7772.162391,-459.657299,-0.000000
1307.984451,-8364.327145,0.000000,-74.020594
1307.984763,-8586.388927,612.876398,148.041188
1307.985074,-9400.615463,1915.238745,740.205942
1307.985386,-9548.656652,3064.381992,1406.391290
1307.985697,-8290.306550,1225.752797,2590.720797
1307.986008,-7179.997637,-1225.752797,2368.659014
1307.986320,-6513.812290,-2987.772442,1702.473667
1307.986631,-6143.709319,-1762.019645,148.041188
1307.986943,-6513.812290,842.705048,-1110.308913
1307.987254,-7772.162391,2298.286494,-666.185348
1307.987566,-9622.677246,2298.286494,-1406.391290
1307.987877,-9918.759623,1915.238745,148.041188
1307.988189,-9696.697840,1685.410096,444.123565
1307.988500,-8956.491898,766.095498,888.247130
1307.988812,-8438.347739,0.000000,962.267725
1307.989123,-8290.306550,-1149.143247,962.267725
1307.989435,-8660.409521,-1378.971896,222.061783
1307.989746,-8882.471304,0.000000,888.247130
1307.990058,-9548.656652,1149.143247,592.164754
1307.990369,-10214.842000,2068.457845,1554.432478
1307.990681,-9622.677246,-383.047749,2220.617826
1307.990992,-8364.327145,-2911.162892,2516.700203
1307.991304,-7550.100608,-3830.477490,2368.659014
1307.991615,-7402.059420,-2987.772442,1480.411884
1307.991927,-8364.327145,-1838.629195,-74.020594
1307.992238,-8290.306550,459.657299,-296.082377
1307.992550,-9030.512492,1149.143247,-296.082377
1307.992861,-10140.821405,1608.800546,-296.082377
1307.993173,-11103.089130,1838.629195,296.082377
1307.993484,-10510.924376,689.485948,740.205942
1307.993796,-9030.512492,-153.219100,962.267725
1307.994107,-8438.347739,-919.314598,222.061783
1307.994419,-8882.471304,-995.924147,-222.061783
1307.994730,-9400.615463,-383.047749,-296.082377
1307.995042,-9548.656652,383.047749,444.123565
1307.995353,-10140.821405,995.924147,888.247130
1307.995665,-9844.739029,612.876398,2294.638420
1307.995976,-9326.594869,-919.314598,2664.741391
1307.996288,-8216.285956,-2834.553343,2590.720797
1307.996599,-6365.771101,-3370.820191,1998.556043
1307.996911,-6069.688724,-2145.067394,-222.061783
1307.997222,-7031.956449,-536.266849,-1702.473667
1307.997534,-7772.162391,919.314598,-1702.473667
1307.997845,-9030.512492,1532.190996,-1258.350101
1307.998157,-10584.944971,1378.971896,-148.041188
1307.998468,-11547.212695,1072.533697,814.226536
1307.998780,-10955.047942,-306.438199,1184.329507
1307.999091,-9326.594869,-766.095498,1258.350101
1307.999403,-8364.327145,-1225.752797,1036.288319
1307.999714,-8068.244768,-536.266849,370.102971
1308.000026,-8586.388927,229.828649,-148.041188
1308.000337,-9326.594869,1685.410096,74.020594
1308.000649,-9326.594869,2221.676944,740.205942
1308.000960,-8882.471304,1072.533697,1110.308913
1308.001272,-8734.430116,-1455.581446,1776.494261
1308.001583,-7031.956449,-1991.848295,888.247130
1308.001895,-6143.709319,-2068.457845,148.041188
1308.002206,-6883.915261,-919.314598,-1036.288319
1308.002518,-7920.203579,153.219100,-962.267725
1308.002829,-9474.636058,766.095498,-444.123565
1308.003141,-11029.068536,1149.143247,296.082377
1308.003452,-11621.233289,766.095498,1036.288319
1308.003764,-11325.150913,0.000000,740.205942
1308.004075,-9844.739029,-306.438199,370.102971
1308.004387,-8660.409521,-842.705048,-296.082377
1308.004698,-7772.162391,-842.705048,-814.226536
1308.005010,-7994.224174,229.828649,-814.226536
1308.005321,-9400.615463,1072.533697,-296.082377
1308.005633,-9992.780217,2298.286494,518.144159
1308.005944,-9474.636058,1991.848295,1332.370696
1308.006256,-8068.244768,0.000000,2442.679609
1308.006567,-8142.265362,-2911.162892,2368.659014
1308.006879,-7846.182985,-3600.648841,2368.659014
1308.007190,-7254.018232,-2374.896044,-148.041188
1308.007502,-7179.997637,-306.438199,-888.247130
1308.007813,-8882.471304,766.095498,-1184.329507
1308.008125,-10288.862594,842.705048,-1110.308913
1308.008436,-11103.089130,612.876398,-444.123565
1308.008748,-10362.883188,1225.752797,592.164754
1308.009059,-9104.533087,459.657299,666.185348
1308.009371,-9030.512492,-1149.143247,888.247130
1308.009682,-9030.512492,-1378.971896,1110.308913
1308.009994,-8882.471304,-1455.581446,962.267725
1308.010305,-8734.430116,76.609550,1258.350101
1308.010617,-9474.636058,2451.505594,740.205942
1308.010928,-9992.780217,2374.896044,1406.391290
1308.011240,-9326.594869,459.657299,1850.514855
1308.011551,-8660.409521,-1838.629195,2072.576638
1308.011863,-7476.080014,-1762.019645,1480.411884
1308.012174,-7402.059420,-1532.190996,666.185348
1308.012486,-8290.306550,-842.705048,-370.102971
1308.012797,-7624.121203,766.095498,-370.102971
1308.013109,-7624.121203,1838.629195,-592.164754
1308.013420,-8586.388927,2145.067394,-0.000000
1308.013732,-9770.718434,2068.457845,666.185348
1308.014043,-10510.924376,1378.971896,666.185348
1308.014355,-8956.491898,766.095498,592.164754
1308.014666,-8512.368333,689.485948,592.164754
1308.014978,-8734.430116,0.000000,-0.000000
1308.015289,-9252.574275,0.000000,-0.000000
1308.015601,-9178.553681,1072.533697,296.082377
1308.015912,-9252.574275,1991.848295,1258.350101
1308.016224,-8882.471304,842.705048,1628.453072
1308.016535,-8290.306550,-919.314598,2220.617826
1308.016847,-7698.141797,-2528.115143,1850.514855
1308.017158,-6291.750507,-3753.867940,1332.370696
1308.017470,-7105.977043,-2528.115143,-296.082377
1308.017781,-7550.100608,76.609550,-962.267725
1308.018093,-9474.636058,689.485948,-1258.350101
1308.018404,-9992.780217,689.485948,-296.082377
1308.018716,-10362.883188,689.485948,-148.041188
1308.019027,-10658.965565,536.266849,1258.350101
1308.019339,-8956.491898,-229.828649,1184.329507
1308.019650,-9104.533087,-1378.971896,444.123565
1308.019962,-9252.574275,-1149.143247,222.061783
1308.020273,-8364.327145,-536.266849,-74.020594
1308.020585,-9030.512492,-153.219100,-370.102971
1308.020896,-10214.842000,689.485948,444.123565
1308.021208,-9622.677246,153.219100,1258.350101
1308.021519,-9992.780217,-612.876398,740.205942
1308.021831,-9474.636058,-2834.553343,1480.411884
1308.022142,-8290.306550,-2987.772442,1332.370696
1308.022454,-8216.285956,-2604.724693,296.082377
1308.022765,-8808.450710,-1608.800546,-74.020594
1308.023077,-8586.388927,0.000000,-148.041188
1308.023388,-9178.553681,536.266849,-814.226536
1308.023700,-10288.862594,1762.019645,518.144159
1308.024011,-10807.006753,1302.362347,1036.288319
1308.024323,-9844.739029,842.705048,296.082377
1308.024634,-8586.388927,0.000000,518.144159
1308.024946,-7920.203579,-306.438199,-148.041188
1308.025257,-7920.203579,-766.095498,-518.144159
1308.025569,-8660.409521,-229.828649,-592.164754
1308.025880,-9918.759623,1225.752797,444.123565
1308.026192,-9474.636058,1685.410096,1332.370696
1308.026503,-9770.718434,612.876398,2368.659014
1308.026815,-9104.533087,-1072.533697,2738.761985
1308.027126,-7254.018232,-2681.334243,2368.659014
1308.027438,-5625.565159,-3294.210641,1480.411884
1308.027749,-5847.626942,-1608.800546,-74.020594
1308.028061,-6439.791695,229.828649,-1110.308913
1308.028372,-7328.038826,1072.533697,-1702.473667
1308.028684,-9474.636058,1072.533697,-444.123565
1308.028995,-10658.965565,689.485948,-592.164754
1308.029307,-10807.006753,1225.752797,444.123565
1308.029618,-10288.862594,-153.219100,1332.370696
1308.029930,-9030.512492,-1378.971896,1998.556043
1308.030241,-9178.553681,-2145.067394,1554.432478
1308.030553,-9474.636058,-1455.581446,814.226536
1308.030864,-8734.430116,1149.143247,296.082377
1308.031176,-9770.718434,2757.943793,-0.000000
1308.031487,-9474.636058,3294.210641,888.247130
1308.031799,-8512.368333,1072.533697,962.267725
1308.032110,-8142.265362,-1225.752797,888.247130
1308.032422,-7698.141797,-1762.019645,1258.350101
1308.032733,-7402.059420,-459.657299,-0.000000
1308.033045,-7624.121203,1149.143247,-814.226536
1308.033356,-8512.368333,1302.362347,-888.247130
1308.033668,-9696.697840,1302.362347,-518.144159
1308.033979,-11029.068536,1532.190996,-74.020594
1308.034291,-11399.171507,1915.238745,444.123565
1308.034602,-11177.109724,766.095498,592.164754
1308.034914,-10436.903782,-229.828649,666.185348
1308.035225,-9992.780217,-1072.533697,148.041188
1308.035537,-8660.409521,-536.266849,-0.000000
1308.035848,-8882.471304,-536.266849,444.123565
1308.036160,-9178.553681,1378.971896,1184.329507
1308.036471,-8734.430116,1685.410096,1924.535449
1308.036783,-8216.285956,153.219100,1850.514855
1308.037094,-7179.997637,-1378.971896,2368.659014
1308.037406,-6365.771101,-2451.505594,1998.556043
1308.037717,-6513.812290,-2757.943793,296.082377
1308.038028,-7402.059420,-995.924147,-1184.329507
1308.038340,-8586.388927,1225.752797,-1110.308913
1308.038651,-8882.471304,1991.848295,-666.185348
1308.038963,-10658.965565,1455.581446,296.082377
1308.039274,-10732.986159,842.705048,962.267725
1308.039586,-9844.739029,0.000000,1258.350101
1308.039897,-7920.203579,-229.828649,1036.288319
1308.040209,-6587.832884,0.000000,592.164754
1308.040520,-6809.894666,-766.095498,-296.082377
1308.040832,-8142.265362,-1532.190996,-222.061783
1308.041143,-8808.450710,-229.828649,222.061783
1308.041455,-10288.862594,1225.752797,740.205942
1308.041766,-11177.109724,1149.143247,1702.473667
1308.042078,-10807.006753,-1378.971896,1850.514855
1308.042389,-9844.739029,-3294.210641,2072.576638
1308.042701,-7772.162391,-2681.334243,1702.473667
1308.043012,-6735.874072,-1685.410096,370.102971
1308.043324,-6957.935855,76.609550,-296.082377
1308.043635,-8068.244768,383.047749,-666.185348
1308.043947,-8808.450710,689.485948,-0.000000
1308.044258,-9548.656652,919.314598,444.123565
1308.044570,-10214.842000,1378.971896,444.123565
1308.044881,-9548.656652,995.924147,296.082377
1308.045193,-9548.656652,-689.485948,-222.061783
1308.045504,-9178.553681,-1225.752797,-74.020594
1308.045816,-8956.491898,-1149.143247,-444.123565
1308.046127,-9844.739029,0.000000,-0.000000
1308.046439,-10362.883188,1149.143247,1332.370696
1308.046750,-10658.965565,766.095498,2294.638420
1308.047062,-9252.574275,0.000000,3182.885551
1308.047373,-7254.018232,-1455.581446,2738.761985
1308.047685,-6291.750507,-1991.848295,1776.494261
1308.047996,-5181.441594,-2374.896044,-0.000000
1308.048308,-5995.668130,-995.924147,-1258.350101
1308.048619,-7031.956449,0.000000,-1480.411884
1308.048931,-8956.491898,1455.581446,-1480.411884
1308.049242,-10658.965565,1762.019645,-444.123565
1308.049554,-12139.377449,1608.800546,444.123565
1308.049865,-11029.068536,536.266849,1110.308913
1308.050177,-10140.821405,-383.047749,1480.411884
1308.050488,-9030.512492,-459.657299,1332.370696
1308.050800,-7846.182985,76.609550,444.123565
1308.051111,-8290.306550,76.609550,-222.061783
1308.051423,-8142.265362,459.657299,-0.000000
1308.051734,-8290.306550,1225.752797,740.205942
1308.052046,-8882.471304,383.047749,1110.308913
1308.052357,-8290.306550,-1608.800546,1850.514855
1308.052669,-8364.327145,-3600.648841,1406.391290
1308.052980,-8068.244768,-3753.867940,962.267725
1308.053292,-8660.409521,-2757.943793,518.144159
1308.053603,-9178.553681,-1072.533697,-296.082377
1308.053915,-9770.718434,536.266849,-444.123565
1308.054226,-10584.944971,1685.410096,-0.000000
1308.054538,-10140.821405,2451.505594,740.205942
1308.054849,-10362.883188,2221.676944,148.041188
1308.055161,-9474.636058,1608.800546,148.041188
1308.055472,-7550.100608,766.095498,740.205942
1308.055784,-7105.977043,-153.219100,-222.061783
1308.056095,-7994.224174,0.000000,-1110.308913
1308.056407,-8734.430116,1225.752797,-1258.350101
1308.056718,-9548.656652,1991.848295,-148.041188
1308.057030,-9696.697840,1302.362347,1184.329507
1308.057341,-9918.759623,-766.095498,2146.597232
1308.057653,-9252.574275,-2145.067394,2442.679609
1308.057964,-7328.038826,-2834.553343,2516.700203
1308.058276,-6661.853478,-2221.676944,666.185348
1308.058587,-7105.977043,-766.095498,-666.185348
1308.058899,-7994.224174,1072.533697,-1480.411884
1308.059210,-8956.491898,1991.848295,-1036.288319
1308.059522,-9326.594869,1838.629195,-222.061783
1308.059833,-10436.903782,1532.190996,370.102971
1308.060145,-10288.862594,383.047749,444.123565
1308.060456,-9252.574275,-842.705048,1110.308913
1308.060768,-8660.409521,-1685.410096,888.247130
1308.061079,-9252.574275,-612.876398,222.061783
1308.061391,-10362.883188,459.657299,-592.164754
1308.061702,-10214.842000,2145.067394,-666.185348
1308.062014,-10807.006753,2757.943793,370.102971
1308.062325,-9918.759623,2221.676944,666.185348
1308.062637,-8364.327145,1302.362347,2146.597232
1308.062948,-7772.162391,-1762.019645,2146.597232
1308.063260,-6439.791695,-2528.115143,2146.597232
1308.063571,-6069.688724,-1225.752797,148.041188
1308.063883,-5773.606348,842.705048,-592.164754
1308.064194,-6809.894666,842.705048,-666.185348
1308.064506,-9104.533087,536.266849,-814.226536
1308.064817,-11029.068536,1149.143247,-0.000000
1308.065129,-11843.295072,1455.581446,1258.350101
1308.065440,-11029.068536,766.095498,1776.494261
1308.065752,-10214.842000,-842.705048,2442.679609
1308.066063,-9400.615463,-1915.238745,1110.308913
1308.066375,-8808.450710,-1072.533697,592.164754
1308.066686,-8660.409521,842.705048,444.123565
1308.066998,-8216.285956,2451.505594,888.247130
1308.067309,-8956.491898,1225.752797,1776.494261
1308.067621,-7476.080014,-306.438199,1924.535449
1308.067932,-6513.812290,-1991.848295,2368.659014
1308.068244,-6069.688724,-2911.162892,1702.473667
1308.068555,-6513.812290,-2528.115143,888.247130
1308.068867,-8364.327145,-1762.019645,-74.020594
1308.069178,-8660.409521,-383.047749,-296.082377
1308.069490,-10584.944971,1072.533697,-222.061783
1308.069801,-11103.089130,1915.238745,-296.082377
1308.070113,-11103.089130,1915.238745,814.226536
1308.070424,-9992.780217,689.485948,666.185348
1308.070736,-7179.997637,-459.657299,962.267725
1308.071047,-7105.977043,-1838.629195,222.061783
1308.071359,-7846.182985,-2068.457845,-0.000000
1308.071670,-8956.491898,-1838.629195,-0.000000
1308.071982,-10362.883188,-229.828649,370.102971
1308.072293,-10955.047942,459.657299,1110.308913
1308.072605,-10807.006753,766.095498,1480.411884
1308.072916,-10584.944971,-1225.752797,2146.597232
1308.073228,-9030.512492,-3294.210641,2516.700203
1308.073539,-7920.203579,-2834.553343,1480.411884
1308.073851,-7476.080014,-1302.362347,222.061783
1308.074162,-7254.018232,612.876398,-740.205942
1308.074474,-7698.141797,1762.019645,-1036.288319
1308.074785,-7476.080014,2528.115143,-888.247130
1308.075097,-8882.471304,1762.019645,-814.226536
1308.075408,-10214.842000,1608.800546,-444.123565
1308.075720,-9844.739029,1225.752797,-0.000000
1308.076031,-9030.512492,536.266849,-296.082377
1308.076343,-9178.553681,-459.657299,-370.102971
1308.076654,-9696.697840,-383.047749,-592.164754
1308.076966,-10288.862594,536.266849,-0.000000
1308.077277,-9844.739029,1762.019645,962.267725
1308.077589,-9844.739029,1532.190996,1332.370696
1308.077900,-9400.615463,-229.828649,1998.556043
1308.078212,-7772.162391,-1608.800546,2146.597232
1308.078523,-5921.647536,-2604.724693,1332.370696
1308.078835,-5255.462188,-2987.772442,222.061783
1308.079146,-5921.647536,-1149.143247,-888.247130
1308.079458,-7402.059420,0.000000,-1628.453072
1308.079769,-8808.450710,306.438199,-814.226536
1308.080081,-10658.965565,612.876398,592.164754
1308.080392,-11917.315666,536.266849,1110.308913
1308.080704,-11103.089130,0.000000,1776.494261
1308.081015,-9548.656652,-1149.143247,1554.432478
1308.081327,-8512.368333,-1608.800546,1036.288319
1308.081638,-8216.285956,-383.047749,-0.000000
1308.081950,-8068.244768,459.657299,-370.102971
1308.082261,-8142.265362,766.095498,-222.061783
1308.082573,-9326.594869,1225.752797,444.123565
1308.082884,-9622.677246,919.314598,1332.370696
1308.083196,-8882.471304,-1225.752797,1554.432478
1308.083507,-7550.100608,-3064.381992,2146.597232
1308.083818,-6587.832884,-3907.087040,1628.453072
1308.084130,-7550.100608,-2757.943793,222.061783
1308.084441,-8216.285956,-842.705048,-666.185348
1308.084753,-9474.636058,612.876398,-592.164754
1308.085064,-11029.068536,1915.238745,-0.000000
1308.085375,-11325.150913,2604.724693,740.205942
1308.085687,-11843.295072,1378.971896,148.041188
1308.085998,-10362.883188,842.705048,888.247130
1308.086310,-8438.347739,689.485948,592.164754
1308.086621,-7105.977043,459.657299,296.082377
1308.086932,-7698.141797,-306.438199,-518.144159
1308.087244,-8438.347739,1149.143247,222.061783
1308.087555,-9400.615463,1608.800546,370.102971
1308.087866,-9844.739029,1838.629195,1258.350101
1308.088178,-9326.594869,1072.533697,2220.617826
1308.088489,-8438.347739,-459.657299,2072.576638
1308.088801,-7402.059420,-1915.238745,1776.494261
1308.089112,-7105.977043,-2221.676944,814.226536
1308.089423,-7624.121203,-153.219100,-666.185348
1308.089735,-7994.224174,1762.019645,-666.185348
1308.090046,-8882.471304,1991.848295,-888.247130
1308.090358,-9104.533087,2068.457845,-444.123565
1308.090669,-9178.553681,1608.800546,296.082377
1308.090980,-8290.306550,229.828649,888.247130
1308.091292,-7105.977043,-842.705048,518.144159
1308.091603,-6809.894666,-1378.971896,740.205942
1308.091914,-8438.347739,-1302.362347,-0.000000
1308.092226,-9400.615463,-153.219100,222.061783
1308.092537,-10881.027347,1072.533697,222.061783
1308.092849,-11325.150913,2221.676944,1480.411884
1308.093160,-10066.800811,1532.190996,2072.576638
1308.093471,-8882.471304,-1072.533697,2368.659014
1308.093783,-7920.203579,-2681.334243,2220.617826
1308.094094,-6439.791695,-3217.601092,1332.370696
1308.094406,-5551.544565,-1991.848295,-296.082377
1308.094717,-6809.894666,-306.438199,-1036.288319
1308.095028,-7994.224174,0.000000,-888.247130
1308.095340,-9770.718434,306.438199,-814.226536
1308.095651,-11547.212695,689.485948,370.102971
1308.095963,-11843.295072,1072.533697,814.226536
1308.096274,-11251.130318,-229.828649,1184.329507
1308.096585,-10658.965565,-1149.143247,814.226536
1308.096897,-9548.656652,-1225.752797,444.123565
1308.097208,-8882.471304,-612.876398,-0.000000
1308.097519,-9104.533087,842.705048,-0.000000
1308.097831,-9474.636058,1915.238745,444.123565
1308.098142,-9252.574275,842.705048,1258.350101
1308.098454,-8290.306550,-919.314598,1850.514855
1308.098765,-7254.018232,-2757.943793,1702.473667
1308.099076,-7105.977043,-3830.477490,1628.453072
1308.099388,-7254.018232,-2834.553343,444.123565
1308.099699,-8364.327145,-766.095498,-370.102971
1308.100011,-9252.574275,1072.533697,-592.164754
1308.100322,-10214.842000,2068.457845,-0.000000
1308.100633,-11251.130318,2145.067394,888.247130
1308.100945,-10214.842000,1838.629195,888.247130
1308.101256,-8364.327145,383.047749,1406.391290
1308.101567,-6957.935855,459.657299,888.247130
1308.101879,-6069.688724,-536.266849,-296.082377
1308.102190,-6809.894666,-995.924147,-666.185348
1308.102502,-8290.306550,-689.485948,-370.102971
1308.102813,-9474.636058,766.095498,296.082377
1308.103124,-10807.006753,2221.676944,1332.370696
1308.103436,-10658.965565,1072.533697,1628.453072
1308.103747,-9696.697840,-1072.533697,2220.617826
1308.104059,-7994.224174,-2757.943793,2368.659014
1308.104370,-6069.688724,-2757.943793,1406.391290
1308.104681,-6143.709319,-1532.190996,-222.061783
1308.104993,-6809.894666,0.000000,-888.247130
1308.105304,-8438.347739,459.657299,-1332.370696
1308.105616,-9696.697840,1225.752797,-1258.350101
1308.105927,-11029.068536,1532.190996,-222.061783
1308.106238,-11843.295072,1532.190996,-148.041188
1308.106550,-10584.944971,459.657299,814.226536
1308.106861,-10066.800811,-766.095498,518.144159
1308.107172,-9252.574275,-1149.143247,-0.000000
1308.107484,-8734.430116,153.219100,-0.000000
1308.107795,-8882.471304,1838.629195,222.061783
1308.108107,-9548.656652,2451.505594,962.267725
1308.108418,-9548.656652,1685.410096,1332.370696
1308.108729,-8290.306550,0.000000,1776.494261
1308.109041,-7179.997637,-1532.190996,1554.432478
1308.109352,-6735.874072,-2528.115143,962.267725
1308.109664,-7179.997637,-2221.676944,-148.041188
1308.109975,-8216.285956,-995.924147,-740.205942
1308.110286,-8512.368333,766.095498,-518.144159
1308.110598,-10066.800811,1302.362347,-296.082377
1308.110909,-11399.171507,1455.581446,-0.000000
1308.111220,-10955.047942,689.485948,962.267725
1308.111532,-9770.718434,153.219100,1036.288319
1308.111843,-7846.182985,-459.657299,1036.288319
1308.112155,-7476.080014,-689.485948,666.185348
1308.112466,-8216.285956,-1225.752797,-0.000000
1308.112777,-9622.677246,-919.314598,-148.041188
1308.113089,-10362.883188,1149.143247,592.164754
1308.113400,-10955.047942,1838.629195,1110.308913
1308.113712,-10140.821405,1991.848295,1850.514855
1308.114023,-9548.656652,-995.924147,2146.597232
1308.114334,-7254.018232,-3600.648841,2368.659014
1308.114646,-5329.482782,-2451.505594,1258.350101
1308.114957,-5995.668130,0.000000,-222.061783
1308.115269,-6735.874072,1915.238745,-592.164754
1308.115580,-8512.368333,2145.067394,-1184.329507
1308.115891,-10288.862594,1915.238745,-296.082377
1308.116203,-11251.130318,2145.067394,-148.041188
1308.116514,-10584.944971,1532.190996,518.144159
1308.116825,-9992.780217,919.314598,666.185348
1308.117137,-9400.615463,0.000000,296.082377
1308.117448,-8586.388927,-766.095498,-444.123565
1308.117760,-8438.347739,689.485948,-592.164754
1308.118071,-8734.430116,2221.676944,-0.000000
1308.118382,-9178.553681,2681.334243,444.123565
1308.118694,-9030.512492,1302.362347,1332.370696
1308.119005,-7698.141797,-612.876398,2368.659014
1308.119317,-6661.853478,-2451.505594,2072.576638
1308.119628,-6513.812290,-3140.991542,1924.535449
1308.119939,-7105.977043,-2604.724693,-0.000000
1308.120251,-7698.141797,-1455.581446,-962.267725
1308.120562,-9474.636058,306.438199,-814.226536
1308.120873,-10510.924376,306.438199,-0.000000
1308.121185,-11473.192101,766.095498,740.205942
1308.121496,-11547.212695,0.000000,1184.329507
1308.121808,-9400.615463,-383.047749,1776.494261
1308.122119,-7772.162391,-1532.190996,1110.308913
1308.122430,-7402.059420,-1149.143247,740.205942
1308.122742,-8142.265362,-306.438199,370.102971
1308.123053,-8512.368333,383.047749,-444.123565
1308.123365,-8956.491898,2298.286494,444.123565
1308.123676,-10658.965565,1685.410096,1332.370696
1308.123987,-10658.965565,383.047749,2146.597232
1308.124299,-9844.739029,-2145.067394,2294.638420
1308.124610,-7624.121203,-3753.867940,2738.761985
1308.124922,-6069.688724,-3447.429741,1406.391290
1308.125233,-6439.791695,-2374.896044,-74.020594
1308.125544,-7254.018232,-995.924147,-962.267725
1308.125856,-8512.368333,1149.143247,-1258.350101
1308.126167,-10066.800811,2451.505594,-666.185348
1308.126478,-11399.171507,3370.820191,-0.000000
1308.126790,-11325.150913,2374.896044,444.123565
1308.127101,-9770.718434,689.485948,962.267725
1308.127413,-8142.265362,-689.485948,592.164754
1308.127724,-7550.100608,-995.924147,370.102971
1308.128035,-9104.533087,-842.705048,-0.000000
1308.128347,-10288.862594,1225.752797,-0.000000
1308.128658,-10288.862594,1762.019645,888.247130
1308.128970,-9326.594869,842.705048,1480.411884
1308.129281,-7994.224174,-1455.581446,2220.617826
1308.129592,-7476.080014,-2298.286494,1998.556043
1308.129904,-5847.626942,-3217.601092,1480.411884
1308.130215,-6143.709319,-1762.019645,-148.041188
1308.130527,-6957.935855,-153.219100,-814.226536
1308.130838,-7698.141797,1072.533697,-1258.350101
1308.131149,-9474.636058,1302.362347,-740.205942
1308.131461,-10362.883188,1378.971896,-444.123565
1308.131772,-10955.047942,1072.533697,-74.020594
1308.132083,-9104.533087,919.314598,666.185348
1308.132395,-8364.327145,-995.924147,888.247130
1308.132706,-8882.471304,-2528.115143,814.226536
1308.133018,-8882.471304,-1762.019645,-0.000000
1308.133329,-10140.821405,-153.219100,-370.102971
1308.133640,-10807.006753,2451.505594,-0.000000
1308.133952,-11325.150913,2604.724693,666.185348
1308.134263,-10584.944971,1072.533697,888.247130
1308.134575,-8660.409521,-919.314598,1258.350101
1308.134886,-7179.997637,-2374.896044,1406.391290
1308.135197,-6217.729913,-2221.676944,814.226536
1308.135509,-6809.894666,-1378.971896,-666.185348
1308.135820,-7772.162391,0.000000,-962.267725
1308.136131,-9252.574275,689.485948,-888.247130
1308.136443,-10955.047942,1762.019645,-148.041188
1308.136754,-11843.295072,2221.676944,814.226536
1308.137066,-11547.212695,1608.800546,370.102971
1308.137377,-9844.739029,229.828649,1406.391290
1308.137688,-8882.471304,-536.266849,962.267725
1308.138000,-8660.409521,-919.314598,222.061783
1308.138311,-8512.368333,766.095498,-0.000000
1308.138623,-8808.450710,1838.629195,296.082377
1308.138934,-8808.450710,2068.457845,1184.329507
1308.139245,-9178.553681,919.314598,1554.432478
1308.139557,-8882.471304,-766.095498,1776.494261
1308.139868,-6957.935855,-2221.676944,2072.576638
1308.140180,-6217.729913,-2451.505594,2368.659014
1308.140491,-7328.038826,-2145.067394,962.267725
1308.140802,-8068.244768,-383.047749,-0.000000
1308.141114,-8290.306550,1149.143247,-0.000000
1308.141425,-8734.430116,1532.190996,-74.020594
1308.141736,-9992.780217,2145.067394,74.020594
1308.142048,-9770.718434,1838.629195,148.041188
1308.142359,-8586.388927,76.609550,814.226536
1308.142671,-7328.038826,-1302.362347,962.267725
1308.142982,-7698.141797,-1378.971896,592.164754
1308.143293,-8660.409521,-1072.533697,296.082377
1308.143605,-9400.615463,-153.219100,296.082377
1308.143916,-10584.944971,1149.143247,962.267725
1308.144228,-10658.965565,2451.505594,1110.308913
1308.144539,-9474.636058,1302.362347,1998.556043
1308.144850,-8290.306550,-1302.362347,1702.473667
1308.145162,-7031.956449,-3064.381992,1332.370696
1308.145473,-6069.688724,-2451.505594,518.144159
1308.145784,-6439.791695,-1225.752797,-1110.308913
1308.146096,-7402.059420,76.609550,-1776.494261
1308.146407,-9400.615463,536.266849,-1110.308913
1308.146719,-11177.109724,612.876398,-666.185348
1308.147030,-11917.315666,766.095498,148.041188
1308.147341,-11843.295072,-306.438199,1110.308913
1308.147653,-10510.924376,-1225.752797,740.205942
1308.147964,-9696.697840,-1455.581446,888.247130
1308.148276,-8956.491898,-995.924147,222.061783
1308.148587,-8956.491898,-229.828649,-296.082377
1308.148898,-9474.636058,1532.190996,-0.000000
1308.149210,-9474.636058,2068.457845,666.185348
1308.149521,-9400.615463,1838.629195,296.082377
1308.149833,-8734.430116,-306.438199,1184.329507
1308.150144,-7772.162391,-2451.505594,1480.411884
1308.150455,-7105.977043,-2834.553343,1258.350101
1308.150767,-7476.080014,-1991.848295,-296.082377
1308.151078,-8586.388927,-306.438199,-518.144159
1308.151389,-8734.430116,1149.143247,-296.082377
1308.151701,-9992.780217,995.924147,-444.123565
1308.152012,-9918.759623,995.924147,370.102971
1308.152324,-10362.883188,995.924147,-0.000000
1308.152635,-8956.491898,-306.438199,666.185348
1308.152946,-7624.121203,-612.876398,518.144159
1308.153258,-7698.141797,-842.705048,148.041188
1308.153569,-8364.327145,-612.876398,-370.102971
1308.153881,-9474.636058,383.047749,444.123565
1308.154192,-10066.800811,1915.238745,1110.308913
1308.154503,-10140.821405,1915.238745,2072.576638
1308.154815,-9030.512492,153.219100,2220.617826
1308.155126,-8364.327145,-2221.676944,2442.679609
1308.155437,-6661.853478,-3600.648841,2368.659014
1308.155749,-5181.441594,-3140.991542,740.205942
1308.156060,-6069.688724,-1838.629195,-592.164754
1308.156372,-7550.100608,-459.657299,-1036.288319
1308.156683,-8808.450710,229.828649,-962.267725
1308.156994,-10658.965565,842.705048,-222.061783
1308.157306,-11695.253884,766.095498,518.144159
1308.157617,-11029.068536,229.828649,740.205942
1308.157929,-10066.800811,-689.485948,1036.288319
1308.158240,-8956.491898,-1225.752797,888.247130
1308.158551,-8586.388927,-612.876398,-0.000000
1308.158863,-8660.409521,612.876398,-148.041188
1308.159174,-9252.574275,2681.334243,814.226536
1308.159486,-9400.615463,2451.505594,1036.288319
1308.159797,-9178.553681,2068.457845,1184.329507
1308.160108,-9178.553681,229.828649,1554.432478
1308.160420,-8364.327145,-1072.533697,1036.288319
1308.160731,-7772.162391,-2145.067394,888.247130
1308.161042,-7920.203579,-1455.581446,-444.123565
1308.161354,-8882.471304,459.657299,-444.123565
1308.161665,-9844.739029,1378.971896,-888.247130
1308.161977,-10955.047942,842.705048,-222.061783
1308.162288,-11103.089130,1072.533697,814.226536
1308.162599,-9844.739029,306.438199,814.226536
1308.162911,-8290.306550,-306.438199,666.185348
1308.163222,-7624.121203,-1072.533697,148.041188
1308.163534,-7624.121203,-1378.971896,-0.000000
1308.163845,-8660.409521,0.000000,-740.205942
1308.164156,-9622.677246,919.314598,-0.000000
1308.164468,-11621.233289,2221.676944,888.247130
1308.164779,-10955.047942,1915.238745,2146.597232
1308.165090,-9326.594869,0.000000,2516.700203
1308.165402,-7031.956449,-2451.505594,2516.700203
1308.165713,-5181.441594,-3677.258390,1924.535449
1308.166025,-4959.379811,-2604.724693,148.041188
1308.166336,-5477.523971,-459.657299,-1480.411884
1308.166647,-7550.100608,1225.752797,-1406.391290
1308.166959,-9252.574275,1915.238745,-666.185348
1308.167270,-10955.047942,2145.067394,-0.000000
1308.167582,-11843.295072,2298.286494,666.185348
1308.167893,-11103.089130,919.314598,1258.350101
1308.168204,-9252.574275,-306.438199,1110.308913
1308.168516,-7994.224174,-536.266849,222.061783
1308.168827,-7476.080014,-1225.752797,-296.082377
1308.169139,-7624.121203,306.438199,-518.144159
1308.169450,-8586.388927,1532.190996,-74.020594
1308.169761,-9844.739029,1762.019645,888.247130
1308.170073,-10288.862594,76.609550,1332.370696
1308.170384,-9770.718434,-1532.190996,2220.617826
1308.170695,-8734.430116,-2911.162892,2368.659014
1308.171007,-7846.182985,-4060.306139,1332.370696
1308.171318,-7846.182985,-1915.238745,-74.020594
1308.171630,-8660.409521,-153.219100,-1480.411884
1308.171941,-9474.636058,1685.410096,-1480.411884
1308.172252,-10066.800811,2374.896044,-1110.308913
1308.172564,-10584.944971,1991.848295,-666.185348
1308.172875,-10214.842000,689.485948,888.247130
1308.173187,-8586.388927,-842.705048,518.144159
1308.173498,-8068.244768,-1838.629195,666.185348
1308.173809,-8216.285956,-1608.800546,444.123565
1308.174121,-8512.368333,-1532.190996,296.082377
1308.174432,-10066.800811,-459.657299,740.205942
1308.174744,-11103.089130,1072.533697,1480.411884
1308.175055,-11547.212695,842.705048,1554.432478
1308.175366,-9844.739029,-383.047749,2368.659014
1308.175678,-8364.327145,-2451.505594,2812.782580
1308.175989,-6217.729913,-3983.696590,2220.617826
1308.176300,-5551.544565,-3370.820191,814.226536
1308.176612,-6217.729913,-995.924147,-222.061783
1308.176923,-7031.956449,1532.190996,-370.102971
1308.177235,-8364.327145,2451.505594,-518.144159
1308.177546,-10066.800811,2757.943793,296.082377
1308.177857,-11251.130318,3140.991542,592.164754
1308.178169,-10584.944971,2145.067394,592.164754
1308.178480,-9252.574275,612.876398,888.247130
1308.178792,-8142.265362,0.000000,296.082377
1308.179103,-8068.244768,-459.657299,-0.000000
1308.179414,-7846.182985,76.609550,296.082377
1308.179726,-8882.471304,1149.143247,592.164754
1308.180037,-9326.594869,1608.800546,1480.411884
1308.180348,-9178.553681,459.657299,1702.473667
1308.180660,-8734.430116,-1532.190996,1998.556043
1308.180971,-7698.141797,-2757.943793,2072.576638
1308.181283,-7105.977043,-2528.115143,1258.350101
1308.181594,-8068.244768,-2145.067394,370.102971
1308.181905,-8734.430116,-995.924147,-444.123565
1308.182217,-9474.636058,153.219100,-666.185348
1308.182528,-9844.739029,1991.848295,-666.185348
1308.182840,-10807.006753,1915.238745,-666.185348
1308.183151,-9622.677246,459.657299,148.041188
1308.183462,-7550.100608,-995.924147,222.061783
1308.183774,-7994.224174,-1685.410096,222.061783
1308.184085,-7550.100608,-1225.752797,444.123565
1308.184397,-9770.718434,-612.876398,-148.041188
1308.184708,-10436.903782,689.485948,-148.041188
1308.185019,-10732.986159,2068.457845,592.164754
1308.185331,-9770.718434,1762.019645,592.164754
1308.185642,-8660.409521,0.000000,1036.288319
1308.185953,-8660.409521,-1838.629195,962.267725
1308.186265,-7328.038826,-3064.381992,666.185348
1308.186576,-6513.812290,-1991.848295,-370.102971
1308.186888,-7550.100608,-153.219100,-1036.288319
1308.187199,-8882.471304,612.876398,-1036.288319
1308.187511,-10140.821405,459.657299,-592.164754
1308.187822,-11177.109724,1455.581446,222.061783
1308.188134,-11917.315666,2374.896044,148.041188
1308.188445,-11547.212695,995.924147,444.123565
1308.188757,-9548.656652,306.438199,222.061783
1308.189068,-8586.388927,-1072.533697,-148.041188
1308.189380,-7550.100608,-1149.143247,-444.123565
1308.189691,-7846.182985,229.828649,-222.061783
1308.190003,-9104.533087,1532.190996,-74.020594
1308.190314,-9622.677246,1838.629195,1258.350101
1308.190626,-9918.759623,766.095498,1554.432478
1308.190937,-9030.512492,-1685.410096,2368.659014
1308.191249,-8068.244768,-2374.896044,2294.638420
1308.191560,-7105.977043,-1991.848295,814.226536
1308.191872,-7179.997637,-1072.533697,-296.082377
1308.192183,-7846.182985,306.438199,-814.226536
1308.192495,-8956.491898,1072.533697,-370.102971
1308.192806,-9844.739029,1608.800546,-444.123565
1308.193118,-10436.903782,1685.410096,518.144159
1308.193429,-9252.574275,1455.581446,740.205942
1308.193740,-8438.347739,0.000000,518.144159
1308.194052,-7698.141797,-689.485948,1184.329507
1308.194363,-7698.141797,-612.876398,962.267725
1308.194675,-8734.430116,-306.438199,592.164754
1308.194986,-9622.677246,766.095498,666.185348
1308.195298,-10214.842000,1915.238745,962.267725
1308.195609,-9400.615463,2528.115143,1184.329507
1308.195921,-7994.224174,0.000000,1776.494261
1308.196232,-7254.018232,-2451.505594,1702.473667
1308.196544,-6217.729913,-3294.210641,1702.473667
1308.196855,-6291.750507,-2451.505594,370.102971
1308.197167,-7476.080014,-229.828649,-0.000000
1308.197478,-8216.285956,1072.533697,-0.000000
1308.197790,-10362.883188,689.485948,-148.041188
1308.198101,-11103.089130,1608.800546,1110.308913
1308.198413,-11325.150913,2068.457845,1332.370696
1308.198724,-10214.842000,766.095498,1554.432478
1308.199036,-8956.491898,0.000000,1184.329507
1308.199347,-8290.306550,-1532.190996,592.164754
1308.199659,-7402.059420,-1302.362347,444.123565
1308.199970,-8290.306550,0.000000,-592.164754
1308.200282,-9474.636058,919.314598,222.061783
1308.200593,-10510.924376,1532.190996,814.226536
1308.200905,-10140.821405,-612.876398,1924.535449
1308.201216,-8956.491898,-2221.676944,2738.761985
1308.201528,-8216.285956,-3294.210641,2368.659014
1308.201839,-7179.997637,-3064.381992,1406.391290
1308.202151,-7328.038826,-1608.800546,-222.061783
1308.202462,-7698.141797,76.609550,-814.226536
1308.202774,-8660.409521,1302.362347,-1480.411884
1308.203085,-9992.780217,2451.505594,-888.247130
1308.203397,-10658.965565,842.705048,-148.041188
1308.203708,-9548.656652,0.000000,592.164754
1308.204019,-8734.430116,-1302.362347,814.226536
1308.204331,-8438.347739,-1149.143247,592.164754
1308.204642,-9252.574275,-842.705048,-0.000000
1308.204954,-9474.636058,0.000000,-222.061783
1308.205265,-10362.883188,612.876398,-0.000000
1308.205577,-10881.027347,1302.362347,814.226536
1308.205888,-9844.739029,1608.800546,1480.411884
1308.206200,-8438.347739,0.000000,1258.350101
1308.206511,-7402.059420,-2298.286494,1850.514855
1308.206823,-5625.565159,-3524.039291,1258.350101
1308.207134,-5773.606348,-2757.943793,-222.061783
1308.207446,-6883.915261,-995.924147,-1036.288319
1308.207757,-8068.244768,1072.533697,-888.247130
1308.208069,-10140.821405,1991.848295,-1406.391290
1308.208380,-11399.171507,1532.190996,-0.000000
1308.208692,-11769.274478,1225.752797,592.164754
1308.209003,-10658.965565,229.828649,740.205942
1308.209315,-9178.553681,-229.828649,518.144159
1308.209626,-8290.306550,-919.314598,-222.061783
1308.209938,-7772.162391,-1149.143247,-740.205942
1308.210249,-7920.203579,536.266849,-740.205942
1308.210561,-9252.574275,1149.143247,-0.000000
1308.210872,-9770.718434,1685.410096,1184.329507
1308.211184,-9696.697840,0.000000,2072.576638
1308.211495,-8956.491898,-1991.848295,2442.679609
1308.211807,-7402.059420,-2604.724693,2368.659014
1308.212118,-7031.956449,-2221.676944,962.267725
1308.212430,-8290.306550,-919.314598,-814.226536
1308.212741,-8216.285956,1302.362347,-1184.329507
1308.213053,-9104.533087,2451.505594,-1924.535449
1308.213364,-9622.677246,2987.772442,-888.247130
1308.213676,-10436.903782,2374.896044,-370.102971
1308.213987,-9992.780217,1072.533697,222.061783
1308.214298,-8734.430116,0.000000,962.267725
1308.214610,-8142.265362,0.000000,814.226536
1308.214921,-9474.636058,-1378.971896,740.205942
1308.215233,-9844.739029,153.219100,370.102971
1308.215544,-10140.821405,459.657299,1036.288319
1308.215856,-10214.842000,1762.019645,1258.350101
1308.216167,-9992.780217,1455.581446,1998.556043
1308.216479,-8290.306550,-153.219100,1702.473667
1308.216790,-7105.977043,-2068.457845,1924.535449
1308.217102,-6069.688724,-3064.381992,1332.370696
1308.217413,-5625.565159,-1608.800546,148.041188
1308.217725,-7105.977043,306.438199,-296.082377
1308.218036,-7698.141797,1762.019645,-222.061783
1308.218348,-9474.636058,1685.410096,-0.000000
1308.218659,-10955.047942,1608.800546,888.247130
1308.218971,-11325.150913,2068.457845,1110.308913
1308.219282,-9918.759623,766.095498,1110.308913
1308.219594,-8512.368333,-306.438199,296.082377
1308.219905,-7994.224174,-612.876398,-0.000000
1308.220217,-6809.894666,-612.876398,-0.000000
1308.220528,-7698.141797,-153.219100,-222.061783
1308.220840,-9178.553681,1225.752797,666.185348
1308.221151,-9770.718434,1532.190996,1628.453072
1308.221463,-9696.697840,0.000000,2146.597232
1308.221774,-8734.430116,-1608.800546,2442.679609
1308.222086,-7550.100608,-2757.943793,2442.679609
1308.222397,-7105.977043,-3217.601092,1184.329507
1308.222709,-6957.935855,-995.924147,-814.226536
1308.223020,-7772.162391,536.266849,-1110.308913
1308.223332,-8882.471304,1225.752797,-1332.370696
1308.223643,-10288.862594,1302.362347,-592.164754
1308.223955,-11399.171507,1072.533697,-0.000000
1308.224266,-10658.965565,0.000000,666.185348
1308.224577,-9770.718434,-842.705048,444.123565
1308.224889,-9030.512492,-1991.848295,814.226536
1308.225200,-9474.636058,-1762.019645,370.102971
1308.225512,-9696.697840,-1762.019645,518.144159
1308.225823,-10214.842000,-306.438199,444.123565
1308.226135,-10362.883188,612.876398,1036.288319
1308.226446,-9474.636058,1302.362347,1110.308913
1308.226758,-9474.636058,-459.657299,814.226536
1308.227069,-7402.059420,-1838.629195,1850.514855
1308.227381,-6513.812290,-1838.629195,444.123565
1308.227692,-6439.791695,-919.314598,-592.164754
1308.228004,-7254.018232,842.705048,-888.247130
1308.228315,-8660.409521,1072.533697,-370.102971
1308.228627,-10214.842000,612.876398,-148.041188
1308.228938,-11251.130318,459.657299,518.144159
1308.229250,-10436.903782,842.705048,1036.288319
1308.229561,-9770.718434,-536.266849,740.205942
1308.229873,-8734.430116,-2068.457845,222.061783
1308.230184,-7179.997637,-2145.067394,222.061783
1308.230496,-7624.121203,-2145.067394,-74.020594
1308.230807,-8438.347739,-536.266849,740.205942
1308.231119,-10066.800811,1072.533697,1554.432478
1308.231430,-11177.109724,1072.533697,1628.453072
1308.231742,-8734.430116,919.314598,3034.844362
1308.232053,-7328.038826,-689.485948,2368.659014
1308.232365,-6291.750507,-2068.457845,2146.597232
1308.232676,-5773.606348,-1378.971896,148.041188
1308.232988,-6661.853478,153.219100,-1184.329507
1308.233299,-7624.121203,1838.629195,-1332.370696
1308.233611,-9252.574275,2221.676944,-1258.350101
1308.233922,-10955.047942,1991.848295,-222.061783
1308.234234,-11843.295072,842.705048,-148.041188
1308.234545,-10436.903782,229.828649,1110.308913
1308.234857,-8734.430116,-536.266849,1110.308913
1308.235168,-8512.368333,-1149.143247,888.247130
1308.235479,-8290.306550,-919.314598,740.205942
1308.235791,-8734.430116,-766.095498,814.226536
1308.236102,-9770.718434,842.705048,740.205942
1308.236414,-9622.677246,1685.410096,1480.411884
1308.236725,-9400.615463,1378.971896,1036.288319
1308.237037,-9400.615463,-995.924147,888.247130
1308.237348,-7550.100608,-1991.848295,1406.391290
1308.237660,-6661.853478,-2374.896044,592.164754
1308.237971,-7179.997637,-1685.410096,-740.205942
1308.238283,-8808.450710,0.000000,-814.226536
1308.238594,-9770.718434,1302.362347,-888.247130
1308.238906,-10214.842000,2604.724693,-296.082377
1308.239217,-10955.047942,2374.896044,1036.288319
1308.239529,-10658.965565,1532.190996,1036.288319
1308.239840,-8956.491898,229.828649,370.102971
1308.240152,-6809.894666,383.047749,-74.020594
1308.240463,-5995.668130,0.000000,-962.267725
1308.240775,-7105.977043,-229.828649,-1036.288319
1308.241086,-9474.636058,-229.828649,-592.164754
1308.241398,-10510.924376,766.095498,296.082377
1308.241709,-10807.006753,1838.629195,1184.329507
1308.242021,-10807.006753,612.876398,1924.535449
1308.242332,-9918.759623,-1378.971896,2516.700203
1308.242644,-7698.141797,-2374.896044,1924.535449
1308.242955,-6587.832884,-1915.238745,518.144159
1308.243267,-6439.791695,-306.438199,-814.226536
1308.243578,-7772.162391,919.314598,-1258.350101
1308.243890,-8956.491898,1532.190996,-1406.391290
1308.244201,-9548.656652,1608.800546,-1110.308913
1308.244513,-10214.842000,1302.362347,-74.020594
1308.244824,-10214.842000,0.000000,592.164754
1308.245136,-9474.636058,-1302.362347,1258.350101
1308.245447,-9474.636058,-2298.286494,1184.329507
1308.245758,-9252.574275,-2374.896044,888.247130
1308.246070,-9178.553681,-766.095498,888.247130
1308.246381,-9696.697840,1302.362347,666.185348
1308.246693,-9770.718434,1838.629195,1036.288319
1308.247004,-8956.491898,995.924147,1110.308913
1308.247316,-7920.203579,-383.047749,1924.535449
1308.247627,-7031.956449,-2068.457845,1850.514855
1308.247939,-6513.812290,-2757.943793,1036.288319
1308.248250,-6513.812290,-1685.410096,-148.041188
1308.248562,-7476.080014,153.219100,-888.247130
1308.248873,-9178.553681,229.828649,-592.164754
1308.249185,-10807.006753,1149.143247,148.041188
1308.249496,-12435.459826,1455.581446,1110.308913
1308.249808,-11325.150913,1225.752797,1850.514855
1308.250119,-9844.739029,-536.266849,1332.370696
1308.250431,-8586.388927,-919.314598,740.205942
1308.250742,-7105.977043,-919.314598,370.102971
1308.251054,-7328.038826,-383.047749,-962.267725
1308.251365,-7698.141797,919.314598,-148.041188
1308.251677,-9178.553681,1838.629195,370.102971
1308.251988,-9918.759623,1149.143247,1776.494261
1308.252300,-9548.656652,-612.876398,2664.741391
1308.252611,-9474.636058,-2528.115143,2664.741391
1308.252923,-7476.080014,-2757.943793,2886.803174
1308.253234,-7179.997637,-2604.724693,962.267725
1308.253546,-7476.080014,-689.485948,-444.123565
1308.253857,-7772.162391,383.047749,-1036.288319
1308.254169,-9030.512492,1838.629195,-1036.288319
1308.254480,-9770.718434,2068.457845,-148.041188
1308.254792,-10436.903782,1915.238745,-0.000000
1308.255103,-9622.677246,1072.533697,518.144159
1308.255415,-7624.121203,-229.828649,1036.288319
1308.255726,-7846.182985,-1915.238745,444.123565
1308.256037,-7550.100608,-1762.019645,666.185348
1308.256349,-9104.533087,-1072.533697,148.041188
1308.256660,-10732.986159,383.047749,444.123565
1308.256972,-11029.068536,1532.190996,1184.329507
1308.257283,-10214.842000,842.705048,1332.370696
1308.257595,-8808.450710,-1302.362347,1480.411884
1308.257906,-7476.080014,-3064.381992,1332.370696
1308.258218,-6217.729913,-2374.896044,222.061783
1308.258529,-6587.832884,-842.705048,-740.205942
1308.258841,-7402.059420,689.485948,-962.267725
1308.259152,-8660.409521,995.924147,-666.185348
1308.259464,-10140.821405,1455.581446,-518.144159
1308.259775,-11103.089130,1915.238745,148.041188
1308.260087,-11177.109724,1378.971896,296.082377
1308.260398,-10732.986159,229.828649,-222.061783
1308.260710,-9548.656652,-842.705048,518.144159
1308.261021,-8290.306550,-306.438199,-148.041188
1308.261333,-8734.430116,0.000000,-740.205942
1308.261644,-9252.574275,1225.752797,222.061783
1308.261956,-9622.677246,2298.286494,518.144159
1308.262267,-9474.636058,1762.019645,1036.288319
1308.262579,-8216.285956,536.266849,1702.473667
1308.262890,-7550.100608,-1302.362347,1554.432478
1308.263202,-6587.832884,-1838.629195,1036.288319
1308.263513,-7402.059420,-1685.410096,-0.000000
1308.263825,-8068.244768,-76.609550,-1036.288319
1308.264136,-9030.512492,1225.752797,-1184.329507
1308.264448,-9918.759623,1838.629195,-592.164754
1308.264759,-11399.171507,1378.971896,-0.000000
1308.265071,-11399.171507,689.485948,1184.329507
1308.265382,-9548.656652,459.657299,962.267725
1308.265694,-8438.347739,76.609550,1332.370696
1308.266005,-7846.182985,-842.705048,1110.308913
1308.266316,-8216.285956,-689.485948,370.102971
1308.266628,-8512.368333,0.000000,518.144159
1308.266939,-8808.450710,1225.752797,444.123565
1308.267251,-9548.656652,1762.019645,1184.329507
1308.267562,-9104.533087,612.876398,1554.432478
1308.267874,-8290.306550,-995.924147,1924.535449
1308.268185,-7031.956449,-3064.381992,1998.556043
1308.268497,-6439.791695,-2528.115143,1406.391290
1308.268808,-7624.121203,-1378.971896,296.082377
1308.269120,-8142.265362,842.705048,-0.000000
1308.269431,-9400.615463,1685.410096,-222.061783
1308.269743,-9696.697840,1991.848295,296.082377
1308.270054,-10066.800811,2528.115143,666.185348
1308.270366,-10140.821405,1225.752797,1184.329507
1308.270677,-8882.471304,-459.657299,518.144159
1308.270989,-8364.327145,-1149.143247,444.123565
1308.271300,-7698.141797,-1149.143247,-0.000000
1308.271612,-8586.388927,-1225.752797,-0.000000
1308.271923,-10066.800811,0.000000,370.102971
1308.272235,-10066.800811,1608.800546,1776.494261
1308.272546,-10066.800811,1149.143247,1776.494261
1308.272858,-9400.615463,-459.657299,2812.782580
1308.273169,-8364.327145,-2221.676944,2368.659014
1308.273481,-7254.018232,-2451.505594,1332.370696
1308.273792,-5921.647536,-1302.362347,-222.061783
1308.274104,-6439.791695,689.485948,-1480.411884
1308.274415,-7624.121203,1838.629195,-1776.494261
1308.274727,-9326.594869,1455.581446,-1406.391290
1308.275038,-11103.089130,1225.752797,-1036.288319
1308.275350,-11251.130318,1608.800546,592.164754
1308.275661,-10362.883188,0.000000,1184.329507
1308.275973,-9326.594869,-1378.971896,1776.494261
1308.276284,-9178.553681,-2911.162892,1406.391290
1308.276595,-8882.471304,-2528.115143,592.164754
1308.276907,-8882.471304,-383.047749,444.123565
1308.277218,-9474.636058,1455.581446,-0.000000
1308.277530,-10584.944971,2298.286494,888.247130
1308.277841,-9696.697840,1302.362347,962.267725
1308.278153,-7994.224174,-1302.362347,962.267725
