#time,accel_x,accel_y,accel_z
1356.397499,-9178.553681,0.000000,-0.000000
1356.397810,-8660.409521,153.219100,814.226536
1356.398122,-9030.512492,-306.438199,592.164754
1356.398434,-8956.491898,0.000000,444.123565
1356.398745,-8734.430116,-229.828649,370.102971
1356.399057,-8956.491898,76.609550,296.082377
1356.399368,-8660.409521,153.219100,370.102971
1356.399680,-8734.430116,0.000000,666.185348
1356.399991,-8808.450710,0.000000,814.226536
1356.400303,-8808.450710,153.219100,370.102971
1356.400614,-8808.450710,0.000000,518.144159
1356.400926,-8956.491898,0.000000,518.144159
1356.401237,-8956.491898,-153.219100,666.185348
1356.401549,-8956.491898,0.000000,444.123565
1356.401860,-8808.450710,0.000000,518.144159
1356.402172,-9178.553681,0.000000,-0.000000
1356.402484,-8734.430116,-153.219100,296.082377
1356.402795,-8956.491898,0.000000,444.123565
1356.403107,-9030.512492,-153.219100,592.164754
1356.403418,-8956.491898,-229.828649,444.123565
1356.403730,-9104.533087,-229.828649,518.144159
1356.404041,-8882.471304,76.609550,518.144159
1356.404353,-8660.409521,0.000000,444.123565
1356.404664,-8586.388927,76.609550,592.164754
1356.404976,-9400.615463,76.609550,222.061783
1356.405287,-9252.574275,0.000000,296.082377
1356.405599,-9030.512492,76.609550,518.144159
1356.405910,-8734.430116,0.000000,666.185348
1356.406222,-8882.471304,-229.828649,666.185348
1356.406534,-9400.615463,0.000000,370.102971
1356.406845,-8660.409521,-306.438199,444.123565
1356.407157,-9178.553681,0.000000,296.082377
1356.407468,-8808.450710,76.609550,666.185348
1356.407780,-9104.533087,-536.266849,740.205942
1356.408091,-8956.491898,0.000000,592.164754
1356.408403,-8882.471304,-306.438199,518.144159
1356.408714,-8956.491898,0.000000,592.164754
1356.409026,-8734.430116,-153.219100,370.102971
1356.409337,-8438.347739,76.609550,370.102971
1356.409649,-9178.553681,153.219100,296.082377
1356.409961,-9030.512492,153.219100,592.164754
1356.410272,-9030.512492,-153.219100,444.123565
1356.410584,-8882.471304,0.000000,518.144159
1356.410895,-9030.512492,0.000000,444.123565
1356.411207,-9104.533087,0.000000,444.123565
1356.411518,-8956.491898,-153.219100,518.144159
1356.411830,-8586.388927,-306.438199,592.164754
1356.412141,-9030.512492,0.000000,740.205942
1356.412453,-9030.512492,0.000000,518.144159
1356.412764,-8882.471304,-306.438199,370.102971
1356.413076,-8956.491898,-229.828649,444.123565
1356.413387,-8882.471304,0.000000,518.144159
1356.413699,-9030.512492,153.219100,666.185348
1356.414011,-8956.491898,-612.876398,814.226536
1356.414322,-8808.450710,0.000000,444.123565
1356.414634,-8956.491898,76.609550,222.061783
1356.414945,-9030.512492,0.000000,518.144159
1356.415257,-8956.491898,-153.219100,518.144159
1356.415568,-8808.450710,-229.828649,370.102971
1356.415880,-8882.471304,-229.828649,518.144159
1356.416191,-9104.533087,383.047749,444.123565
1356.416503,-8882.471304,-612.876398,444.123565
1356.416814,-8808.450710,383.047749,296.082377
1356.417126,-9104.533087,0.000000,370.102971
1356.417437,-8956.491898,0.000000,370.102971
1356.417749,-8956.491898,-153.219100,518.144159
1356.418061,-8808.450710,0.000000,518.144159
1356.418372,-8808.450710,0.000000,666.185348
1356.418684,-8882.471304,153.219100,592.164754
1356.418995,-9104.533087,-459.657299,370.102971
1356.419307,-8512.368333,0.000000,592.164754
1356.419618,-8956.491898,76.609550,-0.000000
1356.419930,-8734.430116,0.000000,666.185348
1356.420241,-8956.491898,-229.828649,370.102971
1356.420553,-9104.533087,0.000000,444.123565
1356.420864,-8882.471304,0.000000,592.164754
1356.421176,-8956.491898,459.657299,740.205942
1356.421488,-8808.450710,-229.828649,518.144159
1356.421799,-9030.512492,0.000000,-0.000000
1356.422111,-8734.430116,-306.438199,666.185348
1356.422422,-9178.553681,-153.219100,592.164754
1356.422734,-9104.533087,0.000000,592.164754
1356.423045,-8956.491898,0.000000,518.144159
1356.423357,-8956.491898,-76.609550,592.164754
1356.423668,-9030.512492,153.219100,444.123565
1356.423980,-8586.388927,0.000000,296.082377
1356.424291,-8882.471304,0.000000,296.082377
1356.424603,-8808.450710,-229.828649,444.123565
1356.424914,-8956.491898,76.609550,518.144159
1356.425226,-8882.471304,0.000000,518.144159
1356.425538,-8882.471304,-153.219100,592.164754
1356.425849,-8734.430116,0.000000,518.144159
1356.426161,-9326.594869,-306.438199,370.102971
1356.426472,-8882.471304,459.657299,1036.288319
1356.426784,-8808.450710,306.438199,740.205942
1356.427095,-9474.636058,76.609550,518.144159
1356.427407,-11251.130318,689.485948,-0.000000
1356.427718,-11177.109724,2987.772442,370.102971
1356.428030,-8882.471304,4903.011187,592.164754
1356.428341,-7624.121203,3983.696590,888.247130
1356.428653,-6217.729913,1072.533697,1480.411884
1356.428964,-6587.832884,-306.438199,-0.000000
1356.429276,-7328.038826,-1072.533697,-0.000000
1356.429588,-7772.162391,-612.876398,-222.061783
1356.429899,-11843.295072,-995.924147,-1332.370696
1356.430211,-12583.501014,0.000000,-370.102971
1356.430522,-10214.842000,689.485948,370.102971
1356.430834,-8364.327145,0.000000,1184.329507
1356.431145,-9104.533087,0.000000,2368.659014
1356.431457,-11843.295072,536.266849,1776.494261
1356.431768,-8216.285956,4136.915689,2960.823768
1356.432080,-5329.482782,5439.278036,2072.576638
1356.432391,-7476.080014,3370.820191,1036.288319
1356.432703,-7920.203579,2681.334243,-592.164754
1356.433015,-8068.244768,2987.772442,-1924.535449
1356.433326,-9400.615463,3447.429741,-1184.329507
1356.433638,-8660.409521,4213.525239,-888.247130
1356.433949,-11991.336260,2681.334243,-1628.453072
1356.434261,-13175.665768,-612.876398,1184.329507
1356.434572,-8808.450710,-995.924147,2516.700203
1356.434884,-10732.986159,1302.362347,962.267725
1356.435195,-8438.347739,6358.592633,2960.823768
1356.435507,-7550.100608,6052.154434,1628.453072
1356.435818,-7328.038826,3370.820191,2368.659014
1356.436130,-5699.585753,4903.011187,2516.700203
1356.436441,-7328.038826,7277.907231,-148.041188
1356.436753,-8364.327145,7354.516781,-1184.329507
1356.437065,-10066.800811,5362.668486,-1184.329507
1356.437376,-9696.697840,4749.792088,-1628.453072
1356.437688,-9918.759623,5209.449386,-1258.350101
1356.437999,-11399.171507,4749.792088,-296.082377
1356.438311,-11399.171507,4136.915689,2220.617826
1356.438622,-10955.047942,3677.258390,1776.494261
1356.438934,-8290.306550,5362.668486,2738.761985
1356.439245,-6809.894666,4749.792088,2072.576638
1356.439557,-6217.729913,4903.011187,814.226536
1356.439868,-5477.523971,4443.353888,666.185348
1356.440180,-4663.297435,5362.668486,-370.102971
1356.440491,-5921.647536,4213.525239,-1332.370696
1356.440803,-7476.080014,3830.477490,-592.164754
1356.441115,-9548.656652,2604.724693,-296.082377
1356.441426,-10955.047942,919.314598,518.144159
1356.441738,-10807.006753,229.828649,1332.370696
1356.442049,-11399.171507,-306.438199,1702.473667
1356.442361,-10658.965565,1072.533697,1702.473667
1356.442672,-9178.553681,2757.943793,1628.453072
1356.442984,-7476.080014,3677.258390,1332.370696
1356.443295,-6809.894666,3140.991542,296.082377
1356.443607,-6513.812290,3830.477490,-296.082377
1356.443918,-8068.244768,3983.696590,-1184.329507
1356.444230,-7476.080014,3677.258390,-814.226536
1356.444542,-7624.121203,1455.581446,-1406.391290
1356.444853,-9548.656652,-1225.752797,-592.164754
1356.445165,-10584.944971,-2528.115143,370.102971
1356.445476,-12139.377449,-2451.505594,1258.350101
1356.445788,-14137.933492,-1838.629195,1258.350101
1356.446099,-13915.871710,-1302.362347,1850.514855
1356.446411,-12657.521608,1072.533697,1850.514855
1356.446722,-10658.965565,2451.505594,740.205942
1356.447034,-7920.203579,4673.182538,-296.082377
1356.447345,-5921.647536,4903.011187,-370.102971
1356.447657,-6365.771101,5745.716235,-370.102971
1356.447968,-7105.977043,5975.544884,-0.000000
1356.448280,-8290.306550,3677.258390,-592.164754
1356.448592,-10658.965565,2451.505594,-222.061783
1356.448903,-11769.274478,612.876398,-0.000000
1356.449215,-12731.542202,229.828649,-148.041188
1356.449526,-13175.665768,153.219100,-148.041188
1356.449838,-12731.542202,1072.533697,666.185348
1356.450149,-10955.047942,2911.162892,1554.432478
1356.450461,-9844.739029,4136.915689,1924.535449
1356.450772,-7031.956449,3830.477490,2220.617826
1356.451084,-3182.885551,5592.497135,888.247130
1356.451395,-2146.597232,6205.373534,148.041188
1356.451707,-1258.350101,6052.154434,-592.164754
1356.452018,-3108.864956,4213.525239,-1776.494261
1356.452330,-7402.059420,2604.724693,-1036.288319
1356.452642,-11177.109724,2374.896044,-0.000000
1356.452953,-14211.954086,1762.019645,592.164754
1356.453265,-16062.468941,3140.991542,2664.741391
1356.453576,-15174.221811,2681.334243,3108.864956
1356.453888,-11251.130318,2145.067394,3182.885551
1356.454199,-6439.791695,3064.381992,2442.679609
1356.454511,-3552.988522,4826.401637,888.247130
1356.454822,-2886.803174,5975.544884,-444.123565
1356.455134,-2812.782580,7354.516781,-1406.391290
1356.455445,-3849.070898,6435.202183,-1776.494261
1356.455757,-6957.935855,4903.011187,-1850.514855
1356.456069,-9178.553681,2681.334243,-74.020594
1356.456380,-10214.842000,229.828649,296.082377
1356.456692,-11621.233289,-1915.238745,1036.288319
1356.457003,-12361.439231,-3677.258390,1628.453072
1356.457315,-13471.748144,-3140.991542,1924.535449
1356.457626,-13545.768739,0.000000,1554.432478
1356.457938,-12657.521608,2374.896044,1702.473667
1356.458249,-11103.089130,4060.306139,1332.370696
1356.458561,-9104.533087,5515.887586,1406.391290
1356.458872,-6587.832884,6358.592633,1554.432478
1356.459184,-5773.606348,4290.134789,-74.020594
1356.459495,-5995.668130,2987.772442,-666.185348
1356.459807,-7179.997637,3753.867940,-1480.411884
1356.460119,-9252.574275,4136.915689,-2738.761985
1356.460430,-10140.821405,3524.039291,-2294.638420
1356.460742,-11029.068536,3294.210641,-1184.329507
1356.461053,-11473.192101,919.314598,74.020594
1356.461365,-11621.233289,-766.095498,1776.494261
1356.461676,-11843.295072,-766.095498,2072.576638
1356.461988,-11399.171507,1608.800546,2146.597232
1356.462299,-10066.800811,3983.696590,814.226536
1356.462611,-8956.491898,3600.648841,518.144159
1356.462922,-7402.059420,3983.696590,-148.041188
1356.463234,-5625.565159,2834.553343,-444.123565
1356.463545,-5329.482782,1991.848295,-518.144159
1356.463857,-6217.729913,612.876398,-0.000000
1356.464169,-8586.388927,-689.485948,592.164754
1356.464480,-8956.491898,-1378.971896,1554.432478
1356.464792,-7254.018232,-2221.676944,2294.638420
1356.465103,-7328.038826,-2987.772442,1480.411884
1356.465415,-7402.059420,-1378.971896,1110.308913
1356.465726,-8882.471304,1225.752797,-962.267725
1356.466038,-10807.006753,3600.648841,-1184.329507
1356.466349,-11177.109724,6281.983084,-1110.308913
1356.466661,-11177.109724,6588.421283,-370.102971
1356.466972,-10288.862594,4826.401637,-0.000000
1356.467284,-8660.409521,689.485948,1480.411884
1356.467596,-5625.565159,0.000000,2516.700203
1356.467907,-5847.626942,-153.219100,3034.844362
1356.468219,-5847.626942,-2451.505594,3182.885551
1356.468530,-4737.318029,-3524.039291,2368.659014
1356.468842,-5329.482782,-3217.601092,222.061783
1356.469153,-6735.874072,-2451.505594,-1184.329507
1356.469464,-9178.553681,-1762.019645,-1628.453072
1356.469776,-12287.418637,0.000000,-2072.576638
1356.470087,-14878.139434,2068.457845,-1628.453072
1356.470399,-15914.427753,2834.553343,1184.329507
1356.470710,-16210.510130,2221.676944,2220.617826
1356.471021,-14285.974681,766.095498,3256.906145
1356.471333,-10584.944971,-689.485948,3108.864956
1356.471644,-6883.915261,-1991.848295,3256.906145
1356.471956,-3701.029710,-2528.115143,2960.823768
1356.472267,-1406.391290,-2451.505594,2294.638420
1356.472578,-3182.885551,-3830.477490,-148.041188
1356.472890,-4441.235652,-4826.401637,-148.041188
1356.473201,-5255.462188,-2298.286494,-2442.679609
1356.473513,-9622.677246,153.219100,-3256.906145
1356.473824,-14359.995275,2374.896044,-3775.050304
1356.474135,-17616.901420,3294.210641,-1998.556043
1356.474447,-16580.613101,2528.115143,666.185348
1356.474758,-14359.995275,612.876398,3997.112087
1356.475070,-12509.480420,-2451.505594,4811.338623
1356.475381,-9326.594869,-2145.067394,4293.194464
1356.475692,-5329.482782,-1302.362347,3627.009116
1356.476004,-740.205942,-766.095498,2516.700203
1356.476315,-1036.288319,-1149.143247,1184.329507
1356.476627,-1332.370696,-1608.800546,-1406.391290
1356.476938,-2886.803174,-1149.143247,-4885.359217
1356.477249,-6735.874072,1762.019645,-4589.276840
1356.477561,-11769.274478,3830.477490,-4811.338623
1356.477872,-16876.695478,4826.401637,-3108.864956
1356.478184,-18727.210333,3983.696590,-0.000000
1356.478495,-17320.819043,2604.724693,3182.885551
1356.478806,-13915.871710,-689.485948,4737.318029
1356.479118,-10584.944971,-2298.286494,4811.338623
1356.479429,-4515.256246,-2757.943793,5403.503377
1356.479741,444.123565,-1302.362347,3478.967927
1356.480052,-592.164754,-1838.629195,1110.308913
1356.480363,-518.144159,-2911.162892,-2516.700203
1356.480675,-1850.514855,-612.876398,-5773.606348
1356.480986,-5329.482782,1685.410096,-5699.585753
1356.481298,-10881.027347,3140.991542,-5107.421000
1356.481609,-17542.880825,3600.648841,-3330.926739
1356.481920,-20133.601622,2528.115143,-222.061783
1356.482232,-20429.683999,1762.019645,4515.256246
1356.482543,-17394.839637,-383.047749,6957.935855
1356.482855,-14508.036463,-536.266849,5847.626942
1356.483166,-8586.388927,-689.485948,5107.421000
1356.483477,814.226536,689.485948,3256.906145
1356.483789,2738.761985,0.000000,2146.597232
1356.484100,3775.050304,-2681.334243,-1332.370696
1356.484412,1776.494261,0.000000,-4589.276840
1356.484723,-3404.947333,229.828649,-5181.441594
1356.485034,-8956.491898,2681.334243,-4145.153275
1356.485346,-17394.839637,3140.991542,-3775.050304
1356.485657,-21317.931130,3294.210641,-592.164754
1356.485969,-22058.137072,2604.724693,2738.761985
1356.486280,-19615.457463,766.095498,6661.853478
1356.486591,-16432.571912,-612.876398,6439.791695
1356.486903,-10955.047942,-2451.505594,7179.997637
1356.487214,-888.247130,-2528.115143,4219.173869
1356.487526,1702.473667,-2911.162892,3997.112087
1356.487837,3552.988522,-4519.963438,1924.535449
1356.488148,5699.585753,-4366.744339,-4071.132681
1356.488460,222.061783,-2987.772442,-4219.173869
1356.488771,-5181.441594,-1685.410096,-4367.215058
1356.489083,-12731.542202,-153.219100,-4367.215058
1356.489394,-18875.251521,2528.115143,-1406.391290
1356.489705,-22872.363608,1685.410096,2146.597232
1356.490017,-22058.137072,-536.266849,7698.141797
1356.490328,-18653.189738,-2145.067394,7624.121203
1356.490640,-14878.139434,-2221.676944,7476.080014
1356.490951,-5773.606348,-2221.676944,4071.132681
1356.491262,74.020594,153.219100,1924.535449
1356.491574,2960.823768,1149.143247,-74.020594
1356.491885,7772.162391,-1072.533697,-4293.194464
1356.492197,5329.482782,-919.314598,-5847.626942
1356.492508,-740.205942,-766.095498,-6291.750507
1356.492819,-9252.574275,1149.143247,-4959.379811
1356.493131,-17987.004391,2604.724693,-2812.782580
1356.493442,-23686.590144,3064.381992,-518.144159
1356.493754,-24500.816680,2528.115143,4589.276840
1356.494065,-21095.869347,-1225.752797,6439.791695
1356.494376,-17024.736666,-2681.334243,6365.771101
1356.494688,-10140.821405,-2451.505594,5181.441594
1356.494999,-1036.288319,-2298.286494,1776.494261
1356.495311,2886.803174,-1991.848295,1258.350101
1356.495622,2960.823768,-3064.381992,-1702.473667
1356.495933,5181.441594,-3753.867940,-5773.606348
1356.496245,2294.638420,-1455.581446,-7846.182985
1356.496556,-6587.832884,-1608.800546,-7994.224174
1356.496868,-14211.954086,1455.581446,-6143.709319
1356.497179,-22798.343014,3830.477490,-1258.350101
1356.497490,-27165.558071,2757.943793,3330.926739
1356.497802,-26055.249158,0.000000,9326.594869
1356.498113,-21836.075289,-2911.162892,8882.471304
1356.498425,-14656.077652,0.000000,7179.997637
1356.498736,-4071.132681,383.047749,4515.256246
1356.499047,6291.750507,229.828649,-0.000000
1356.499359,7179.997637,1302.362347,-2368.659014
1356.499670,6735.874072,76.609550,-5181.441594
1356.499982,4219.173869,1072.533697,-9252.574275
1356.500293,-3552.988522,2757.943793,-7402.059420
1356.500604,-11695.253884,3753.867940,-6217.729913
1356.500916,-20725.766376,4213.525239,-1702.473667
1356.501227,-25463.084405,2757.943793,2664.741391
1356.501539,-25611.125593,689.485948,7476.080014
1356.501850,-22280.198854,-1072.533697,9770.718434
1356.502161,-15914.427753,-1915.238745,9178.553681
1356.502473,-6661.853478,-612.876398,8068.244768
1356.502784,370.102971,-1915.238745,3108.864956
1356.503096,6957.935855,-2451.505594,666.185348
1356.503407,9844.739029,-153.219100,-5625.565159
1356.503718,6513.812290,-383.047749,-8068.244768
1356.504030,-148.041188,-995.924147,-8216.285956
1356.504341,-8808.450710,1378.971896,-7920.203579
1356.504653,-16506.592507,3524.039291,-3182.885551
1356.504964,-23316.487173,2451.505594,2442.679609
1356.505275,-26055.249158,-383.047749,7105.977043
1356.505587,-23982.672521,-612.876398,10510.924376
1356.505898,-18801.230927,-1762.019645,11399.171507
1356.506210,-9474.636058,-2987.772442,9992.780217
1356.506521,-962.267725,-1838.629195,5773.606348
1356.506832,6365.771101,536.266849,-0.000000
1356.507144,9992.780217,-1072.533697,-5773.606348
1356.507455,8586.388927,-689.485948,-7994.224174
1356.507767,3330.926739,1608.800546,-9104.533087
1356.508078,-4589.276840,1838.629195,-7402.059420
1356.508389,-15026.180623,-766.095498,-4663.297435
1356.508701,-23686.590144,229.828649,1258.350101
1356.509012,-26647.413912,2374.896044,6439.791695
1356.509324,-26647.413912,-153.219100,9326.594869
1356.509635,-22428.240043,-1991.848295,10510.924376
1356.509946,-15026.180623,-2221.676944,7698.141797
1356.510258,-5477.523971,-1225.752797,5033.400406
1356.510569,2220.617826,-766.095498,1036.288319
1356.510881,8882.471304,-1149.143247,-2738.761985
1356.511192,9474.636058,-995.924147,-7254.018232
1356.511503,5329.482782,-2145.067394,-8734.430116
1356.511815,-2590.720797,-1685.410096,-9030.512492
1356.512126,-12139.377449,612.876398,-6143.709319
1356.512438,-20429.683999,1991.848295,-1628.453072
1356.512749,-25981.228564,459.657299,4145.153275
1356.513060,-28275.866984,-1302.362347,8660.409521
1356.513372,-25463.084405,-2681.334243,11029.068536
1356.513683,-18357.107362,-3370.820191,10288.862594
1356.513995,-8142.265362,-2911.162892,6735.874072
1356.514306,0.000000,0.000000,2886.803174
1356.514617,4589.276840,536.266849,-2664.741391
1356.514929,9548.656652,-306.438199,-7846.182985
1356.515240,9992.780217,919.314598,-10881.027347
1356.515552,4071.132681,995.924147,-10362.883188
1356.515863,-6069.688724,1072.533697,-8734.430116
1356.516174,-16284.530724,2145.067394,-3404.947333
1356.516486,-25092.981434,1915.238745,2220.617826
1356.516797,-28423.908173,1072.533697,9252.574275
1356.517109,-27387.619854,-1225.752797,11103.089130
1356.517420,-20503.704593,-459.657299,10214.842000
1356.517731,-11843.295072,-153.219100,6439.791695
1356.518043,-962.267725,1072.533697,2220.617826
1356.518354,5625.565159,2451.505594,-3404.947333
1356.518666,10214.842000,766.095498,-5107.421000
1356.518977,10066.800811,306.438199,-10658.965565
1356.519288,4737.318029,-1225.752797,-8956.491898
1356.519600,-4663.297435,-1532.190996,-8068.244768
1356.519911,-14952.160028,76.609550,-3478.967927
1356.520223,-23020.404796,1915.238745,1110.308913
1356.520534,-28423.908173,612.876398,6587.832884
1356.520845,-29756.278868,-1302.362347,10288.862594
1356.521157,-24278.754898,-1608.800546,11325.150913
1356.521468,-15396.283594,-1225.752797,9030.512492
1356.521780,-5033.400406,-1072.533697,4663.297435
1356.522091,3256.906145,1991.848295,-1332.370696
1356.522402,9474.636058,1915.238745,-4663.297435
1356.522714,11843.295072,3064.381992,-9326.594869
1356.523025,6587.832884,1225.752797,-8956.491898
1356.523337,-2220.617826,0.000000,-8734.430116
1356.523648,-11843.295072,2528.115143,-4885.359217
1356.523959,-20429.683999,2757.943793,-296.082377
1356.524271,-24796.899057,1302.362347,5403.503377
1356.524582,-27979.784608,-995.924147,10140.821405
1356.524894,-25981.228564,-1762.019645,11621.233289
1356.525205,-17912.983796,-919.314598,10066.800811
1356.525516,-7772.162391,-689.485948,7550.100608
1356.525828,-1184.329507,0.000000,4219.173869
1356.526139,6883.915261,1838.629195,-3108.864956
1356.526451,10807.006753,1991.848295,-5847.626942
1356.526762,11251.130318,612.876398,-9178.553681
1356.527073,4885.359217,-306.438199,-9104.533087
1356.527385,-5329.482782,2068.457845,-7920.203579
1356.527696,-15322.262999,2834.553343,-2442.679609
1356.528008,-24130.713709,1302.362347,3034.844362
1356.528319,-29756.278868,-153.219100,9104.533087
1356.528630,-29756.278868,-3217.601092,12953.603985
1356.528942,-22428.240043,-4443.353888,13767.830521
1356.529253,-14359.995275,-4673.182538,9918.759623
1356.529565,-5033.400406,-3294.210641,5995.668130
1356.529876,6143.709319,383.047749,-3034.844362
1356.530187,12435.459826,1302.362347,-6217.729913
1356.530499,11991.336260,1532.190996,-9770.718434
1356.530810,7402.059420,0.000000,-9622.677246
1356.531122,-2146.597232,383.047749,-8216.285956
1356.531433,-13027.624579,1455.581446,-3256.906145
1356.531744,-22354.219448,1838.629195,1036.288319
1356.532056,-27831.743419,1149.143247,7031.956449
1356.532367,-30200.402434,-842.705048,9992.780217
1356.532679,-26795.455100,-1532.190996,11325.150913
1356.532990,-18061.024985,-2451.505594,8290.306550
1356.533301,-6291.750507,-2068.457845,3478.967927
1356.533613,1628.453072,689.485948,-1406.391290
1356.533924,7254.018232,1225.752797,-5847.626942
1356.534236,11695.253884,612.876398,-8290.306550
1356.534547,11695.253884,536.266849,-10066.800811
1356.534858,3256.906145,-1455.581446,-8290.306550
1356.535170,-7624.121203,-1608.800546,-6291.750507
1356.535481,-17987.004391,766.095498,-1184.329507
1356.535793,-26129.269753,766.095498,3923.091493
1356.536104,-31458.752535,-919.314598,9474.636058
1356.536415,-29534.217086,-2451.505594,11621.233289
1356.536727,-23316.487173,-3064.381992,10140.821405
1356.537038,-12657.521608,-2528.115143,6069.688724
1356.537350,-1998.556043,0.000000,-370.102971
1356.537661,7031.956449,2834.553343,-4293.194464
1356.537972,9770.718434,2911.162892,-7698.141797
1356.538284,11177.109724,459.657299,-10214.842000
1356.538595,5699.585753,1072.533697,-9474.636058
1356.538907,-4219.173869,2221.676944,-8142.265362
1356.539218,-13619.789333,3600.648841,-3404.947333
1356.539529,-24796.899057,3983.696590,1036.288319
1356.539841,-29904.320057,2298.286494,7846.182985
1356.540152,-30718.546593,-612.876398,10955.047942
1356.540464,-23464.528361,-1991.848295,12583.501014
1356.540775,-14285.974681,-2834.553343,7328.038826
1356.541086,-4663.297435,-229.828649,3256.906145
1356.541398,4959.379811,842.705048,-2886.803174
1356.541709,11177.109724,612.876398,-4737.318029
1356.542021,14211.954086,2834.553343,-9474.636058
1356.542332,7920.203579,1455.581446,-9104.533087
1356.542643,-1258.350101,0.000000,-7550.100608
1356.542955,-11769.274478,1915.238745,-3552.988522
1356.543266,-21539.992912,3370.820191,1406.391290
1356.543578,-27461.640448,842.705048,7698.141797
1356.543889,-29978.340651,-2374.896044,11029.068536
1356.544200,-27239.578666,-2987.772442,12953.603985
1356.544512,-18357.107362,-2681.334243,10214.842000
1356.544823,-7254.018232,-2757.943793,5551.544565
1356.545135,1480.411884,0.000000,-296.082377
1356.545446,9548.656652,2757.943793,-4885.359217
1356.545757,12731.542202,3370.820191,-8586.388927
1356.546069,11473.192101,1608.800546,-8512.368333
1356.546380,3034.844362,1378.971896,-8290.306550
1356.546692,-6883.915261,1838.629195,-5181.441594
1356.547003,-16432.571912,766.095498,-1332.370696
1356.547314,-25389.063811,689.485948,4293.194464
1356.547626,-29830.299463,0.000000,9844.739029
1356.547937,-27683.702231,-3600.648841,12657.521608
1356.548249,-23242.466579,-5822.325785,13027.624579
1356.548560,-12805.562797,-4979.620737,9770.718434
1356.548871,-3923.091493,-2757.943793,4367.215058
1356.549183,5921.647536,-459.657299,-2812.782580
1356.549494,12953.603985,1072.533697,-6735.874072
1356.549806,13841.851115,2604.724693,-10066.800811
1356.550117,7920.203579,-383.047749,-9844.739029
1356.550428,-3627.009116,153.219100,-7698.141797
1356.550740,-14211.954086,2068.457845,-2368.659014
1356.551051,-23612.569550,1685.410096,2442.679609
1356.551363,-29090.093521,-1225.752797,9030.512492
1356.551674,-31828.855506,-4060.306139,11769.274478
1356.551985,-26351.331535,-5439.278036,12139.377449
1356.552297,-15618.345376,-4673.182538,7698.141797
1356.552608,-6957.935855,-3064.381992,3182.885551
1356.552920,1406.391290,229.828649,-3404.947333
1356.553231,9696.697840,1838.629195,-7476.080014
1356.553543,12435.459826,2068.457845,-9992.780217
1356.553854,9474.636058,536.266849,-9474.636058
1356.554165,1628.453072,612.876398,-8734.430116
1356.554477,-9474.636058,1302.362347,-4663.297435
1356.554788,-18801.230927,612.876398,-740.205942
1356.555100,-25981.228564,-383.047749,5773.606348
1356.555411,-30792.567187,-1225.752797,10140.821405
1356.555722,-26129.269753,-3064.381992,12509.480420
1356.556034,-20281.642811,-4060.306139,10510.924376
1356.556345,-9400.615463,-3830.477490,7105.977043
1356.556657,-148.041188,0.000000,740.205942
1356.556968,6957.935855,1838.629195,-6291.750507
1356.557279,12805.562797,1991.848295,-9992.780217
1356.557591,12139.377449,3753.867940,-11695.253884
1356.557902,4737.318029,1608.800546,-10732.986159
1356.558214,-6809.894666,1838.629195,-7550.100608
1356.558525,-17838.963202,3140.991542,-2146.597232
1356.558836,-26129.269753,2987.772442,3923.091493
1356.559148,-30422.464216,612.876398,10732.986159
1356.559459,-31162.670158,-2068.457845,12731.542202
1356.559771,-26351.331535,-2757.943793,11843.295072
1356.560082,-11843.295072,-3447.429741,6735.874072
1356.560393,0.000000,-536.266849,962.267725
1356.560705,4811.338623,2987.772442,-4737.318029
1356.561016,11029.068536,2911.162892,-9770.718434
1356.561328,12139.377449,3217.601092,-11399.171507
1356.561639,5995.668130,1991.848295,-8882.471304
1356.561950,-4737.318029,2145.067394,-8142.265362
1356.562262,-14656.077652,1838.629195,-1924.535449
1356.562573,-22502.260637,306.438199,1924.535449
1356.562885,-26499.372724,-153.219100,9992.780217
1356.563196,-27017.516883,-2604.724693,13175.665768
1356.563507,-20503.704593,-4519.963438,14508.036463
1356.563819,-15766.386565,-5439.278036,10658.965565
1356.564130,-7698.141797,-3907.087040,6513.812290
1356.564442,3404.947333,1072.533697,-814.226536
1356.564753,12361.439231,4290.134789,-7402.059420
1356.565064,12731.542202,3217.601092,-11177.109724
1356.565376,9770.718434,1072.533697,-10732.986159
1356.565687,1258.350101,-306.438199,-9178.553681
1356.565999,-9178.553681,919.314598,-4589.276840
1356.566310,-20133.601622,919.314598,1850.514855
1356.566621,-29016.072926,-612.876398,7698.141797
1356.566933,-32124.937883,-3524.039291,13175.665768
1356.567244,-29312.155303,-7048.078582,14063.912898
1356.567556,-20651.745782,-6818.249932,12435.459826
1356.567867,-9844.739029,-5209.449386,6883.915261
1356.568178,-1110.308913,-536.266849,-222.061783
1356.568490,7476.080014,2068.457845,-6365.771101
1356.568801,12065.356855,3294.210641,-10288.862594
1356.569113,11325.150913,2528.115143,-10881.027347
1356.569424,4441.235652,2145.067394,-8734.430116
1356.569736,-5995.668130,1072.533697,-6513.812290
1356.570047,-16580.613101,612.876398,222.061783
1356.570359,-24722.878463,766.095498,4663.297435
1356.570671,-29238.134709,0.000000,11695.253884
1356.570982,-28868.031738,-3217.601092,13101.645173
1356.571294,-20873.807564,-5056.230287,13767.830521
1356.571605,-12361.439231,-4749.792088,8290.306550
1356.571917,-5255.462188,-2451.505594,2590.720797
1356.572228,5329.482782,1762.019645,-3552.988522
1356.572540,13767.830521,2451.505594,-10140.821405
1356.572851,13101.645173,2451.505594,-11251.130318
1356.573163,7550.100608,-306.438199,-10066.800811
1356.573474,-1924.535449,-1072.533697,-9104.533087
1356.573786,-14285.974681,1838.629195,-2960.823768
1356.574098,-23760.610738,2145.067394,2442.679609
1356.574409,-29904.320057,153.219100,8068.244768
1356.574721,-30866.587781,-2298.286494,12361.439231
1356.575032,-26499.372724,-2987.772442,12731.542202
1356.575344,-15988.448347,-2374.896044,9030.512492
1356.575655,-5551.544565,-1302.362347,2220.617826
1356.575967,3404.947333,2528.115143,-2886.803174
1356.576278,10214.842000,2604.724693,-8290.306550
1356.576590,13027.624579,1991.848295,-11991.336260
1356.576901,9030.512492,2681.334243,-11547.212695
1356.577213,370.102971,1532.190996,-10140.821405
1356.577524,-9696.697840,2145.067394,-5921.647536
1356.577836,-22206.178260,2145.067394,296.082377
1356.578148,-28201.846390,1608.800546,6217.729913
1356.578459,-30348.443622,0.000000,12287.418637
1356.578771,-27905.764013,-2068.457845,12213.398043
1356.579082,-22798.343014,-1532.190996,10362.883188
1356.579394,-8068.244768,-2374.896044,4737.318029
1356.579705,4071.132681,-612.876398,-1036.288319
1356.580017,7179.997637,1455.581446,-6217.729913
1356.580328,13027.624579,2145.067394,-11103.089130
1356.580640,11621.233289,2374.896044,-11621.233289
1356.580951,2072.576638,-919.314598,-8882.471304
1356.581263,-8438.347739,-766.095498,-5773.606348
1356.581575,-19245.354492,1302.362347,-0.000000
1356.581886,-27387.619854,-612.876398,4589.276840
1356.582198,-29756.278868,-1225.752797,12657.521608
1356.582509,-28942.052332,-4060.306139,13323.706956
1356.582821,-22132.157666,-1532.190996,13249.686362
1356.583132,-12953.603985,-1838.629195,8734.430116
1356.583444,-444.123565,-2374.896044,3552.988522
1356.583755,8142.265362,2604.724693,-4219.173869
1356.584067,13545.768739,3140.991542,-8808.450710
1356.584378,12139.377449,995.924147,-10214.842000
1356.584690,7105.977043,-383.047749,-8956.491898
1356.585002,-4515.256246,536.266849,-7402.059420
1356.585313,-15026.180623,1532.190996,-2220.617826
1356.585625,-23908.651927,2068.457845,2886.803174
1356.585936,-29682.258274,995.924147,9548.656652
1356.586248,-28942.052332,-1072.533697,13545.768739
1356.586559,-24204.734303,-3370.820191,15100.201217
1356.586871,-13323.706956,-3447.429741,11991.336260
1356.587182,-4515.256246,-2834.553343,6217.729913
1356.587494,3701.029710,0.000000,-74.020594
1356.587805,13471.748144,2374.896044,-6217.729913
1356.588117,14656.077652,2834.553343,-11325.150913
1356.588429,9696.697840,1838.629195,-11843.295072
1356.588740,-814.226536,459.657299,-9844.739029
1356.589052,-12435.459826,306.438199,-5625.565159
1356.589363,-22946.384202,1608.800546,1406.391290
1356.589675,-29460.196492,0.000000,7105.977043
1356.589986,-29904.320057,-2604.724693,13175.665768
1356.590298,-26647.413912,-4443.353888,13101.645173
1356.590609,-20355.663405,-2987.772442,11695.253884
1356.590921,-7179.997637,-2604.724693,5033.400406
1356.591232,3923.091493,-1302.362347,-370.102971
1356.591544,9178.553681,2681.334243,-5995.668130
1356.591856,11325.150913,2681.334243,-10955.047942
1356.592167,9548.656652,1072.533697,-11843.295072
1356.592479,3552.988522,766.095498,-10362.883188
1356.592790,-7994.224174,1685.410096,-7994.224174
1356.593102,-18949.272115,2451.505594,-1998.556043
1356.593413,-27017.516883,1762.019645,2812.782580
1356.593725,-31458.752535,536.266849,10362.883188
1356.594036,-30792.567187,-2298.286494,12361.439231
1356.594348,-22650.301825,-2834.553343,12879.583391
1356.594659,-11251.130318,-2451.505594,8364.327145
1356.594971,-1628.453072,-1532.190996,1628.453072
1356.595283,5921.647536,2987.772442,-4737.318029
1356.595594,13767.830521,2987.772442,-9030.512492
1356.595906,14508.036463,2528.115143,-13693.809927
1356.596217,6883.915261,1302.362347,-10807.006753
1356.596529,-3997.112087,229.828649,-9844.739029
1356.596840,-15322.262999,1149.143247,-4367.215058
1356.597152,-26425.352129,1455.581446,2294.638420
1356.597463,-31976.896694,-689.485948,8734.430116
1356.597775,-32050.917289,-3677.258390,13841.851115
1356.598086,-27091.537477,-3753.867940,13397.727550
1356.598398,-16210.510130,-2298.286494,9844.739029
1356.598710,-4367.215058,-3140.991542,3775.050304
1356.599021,3034.844362,0.000000,-2220.617826
1356.599333,12065.356855,1915.238745,-6439.791695
1356.599644,14211.954086,3447.429741,-11769.274478
1356.599956,8882.471304,1685.410096,-10214.842000
1356.600267,-1110.308913,1455.581446,-7846.182985
1356.600579,-11843.295072,2834.553343,-4737.318029
1356.600890,-21243.910535,2911.162892,1924.535449
1356.601202,-27461.640448,842.705048,7179.997637
1356.601513,-28275.866984,-153.219100,13027.624579
1356.601825,-24722.878463,-995.924147,13175.665768
1356.602137,-15840.407159,-1302.362347,11917.315666
1356.602448,-7328.038826,-2757.943793,6291.750507
1356.602760,2516.700203,-383.047749,2220.617826
1356.603071,10362.883188,4749.792088,-6661.853478
1356.603383,13767.830521,2145.067394,-9844.739029
1356.603694,10436.903782,1149.143247,-9770.718434
1356.604006,4071.132681,153.219100,-8068.244768
1356.604317,-8512.368333,-1072.533697,-5255.462188
1356.604629,-19245.354492,-1149.143247,1184.329507
1356.604940,-26943.496289,-689.485948,5551.544565
1356.605252,-30200.402434,-1149.143247,11399.171507
1356.605563,-29164.114115,-3064.381992,13767.830521
1356.605875,-21836.075289,-3217.601092,13249.686362
1356.606187,-12879.583391,-2757.943793,8882.471304
1356.606498,-518.144159,-1685.410096,4367.215058
1356.606810,7254.018232,1149.143247,-3404.947333
1356.607121,11769.274478,2604.724693,-9030.512492
1356.607433,11103.089130,1915.238745,-10584.944971
1356.607744,7624.121203,1762.019645,-10288.862594
1356.608056,-3997.112087,1838.629195,-8438.347739
1356.608367,-14730.098246,2145.067394,-3108.864956
1356.608679,-23538.548956,1225.752797,2072.576638
1356.608990,-28201.846390,-306.438199,8438.347739
1356.609302,-28645.969955,-2681.334243,12065.356855
1356.609614,-26129.269753,-2681.334243,12583.501014
1356.609925,-15396.283594,-3600.648841,9400.615463
1356.610237,-6217.729913,-3753.867940,3552.988522
1356.610548,1628.453072,-383.047749,-1998.556043
1356.610860,10807.006753,2757.943793,-7550.100608
1356.611171,12805.562797,1838.629195,-11473.192101
1356.611483,9696.697840,-612.876398,-11621.233289
1356.611794,1480.411884,-1149.143247,-9178.553681
1356.612106,-9474.636058,-766.095498,-5847.626942
1356.612417,-20651.745782,536.266849,1036.288319
1356.612729,-28942.052332,76.609550,6217.729913
1356.613041,-32050.917289,-1532.190996,11029.068536
1356.613352,-29608.237680,-2451.505594,11917.315666
1356.613664,-23316.487173,-612.876398,9844.739029
1356.613975,-10140.821405,-689.485948,3330.926739
1356.614287,1258.350101,1838.629195,-2072.576638
1356.614598,7402.059420,3447.429741,-6661.853478
1356.614910,12065.356855,3294.210641,-11547.212695
1356.615221,11029.068536,2911.162892,-12065.356855
1356.615533,4441.235652,1225.752797,-9918.759623
1356.615844,-6661.853478,689.485948,-7105.977043
1356.616156,-17912.983796,1608.800546,-888.247130
1356.616468,-26055.249158,1225.752797,3478.967927
1356.616779,-30792.567187,-306.438199,10881.027347
1356.617091,-29238.134709,-2374.896044,12287.418637
1356.617402,-21391.951724,-2221.676944,11991.336260
1356.617714,-14285.974681,-3140.991542,7105.977043
1356.618025,-2664.741391,-2834.553343,3330.926739
1356.618337,6957.935855,1838.629195,-4959.379811
1356.618648,13249.686362,3140.991542,-8586.388927
1356.618960,11547.212695,2681.334243,-10066.800811
1356.619271,6587.832884,383.047749,-8512.368333
1356.619583,-4293.194464,995.924147,-7550.100608
1356.619895,-14730.098246,2068.457845,-1850.514855
1356.620206,-22576.281231,1915.238745,2738.761985
1356.620518,-27979.784608,919.314598,7624.121203
1356.620829,-28423.908173,76.609550,11695.253884
1356.621141,-23982.672521,-1838.629195,13175.665768
1356.621452,-14211.954086,-2451.505594,10510.924376
1356.621764,-5699.585753,-2298.286494,6291.750507
1356.622075,2368.659014,229.828649,-444.123565
1356.622387,10881.027347,1225.752797,-6069.688724
1356.622698,12583.501014,2681.334243,-9030.512492
1356.623010,8660.409521,1762.019645,-9770.718434
1356.623322,1036.288319,-153.219100,-7772.162391
1356.623633,-9178.553681,306.438199,-2812.782580
1356.623945,-19837.519246,842.705048,2072.576638
1356.624256,-26943.496289,0.000000,7328.038826
1356.624568,-29016.072926,-1991.848295,12435.459826
1356.624879,-27165.558071,-3217.601092,13545.768739
1356.625191,-19467.416275,-3294.210641,11917.315666
1356.625502,-9178.553681,-3983.696590,5847.626942
1356.625814,-814.226536,-1225.752797,-0.000000
1356.626125,8142.265362,2681.334243,-5181.441594
1356.626437,12361.439231,3677.258390,-8956.491898
1356.626749,11547.212695,1685.410096,-9696.697840
1356.627060,4219.173869,-1838.629195,-7105.977043
1356.627372,-6587.832884,-842.705048,-5329.482782
1356.627683,-15470.304188,612.876398,444.123565
1356.627995,-24130.713709,536.266849,4441.235652
1356.628306,-28645.969955,-1532.190996,9252.574275
1356.628618,-28423.908173,-3830.477490,10436.903782
1356.628929,-25018.960840,-1685.410096,10807.006753
1356.629241,-15544.324782,-1685.410096,6217.729913
1356.629552,-3923.091493,-995.924147,1998.556043
1356.629864,1776.494261,919.314598,-4737.318029
1356.630176,7698.141797,1302.362347,-9178.553681
1356.630487,10807.006753,1072.533697,-10732.986159
1356.630799,8364.327145,153.219100,-11029.068536
1356.631110,-2368.659014,-229.828649,-8660.409521
1356.631422,-12435.459826,-229.828649,-3330.926739
1356.631733,-20503.704593,-229.828649,1258.350101
1356.632045,-27239.578666,-766.095498,7550.100608
1356.632356,-29756.278868,-1378.971896,10288.862594
1356.632668,-23760.610738,-2451.505594,11695.253884
1356.632979,-17690.922014,-2681.334243,8364.327145
1356.633291,-8586.388927,-1838.629195,4663.297435
1356.633603,2368.659014,1685.410096,-3034.844362
1356.633914,9992.780217,2528.115143,-8068.244768
1356.634226,12361.439231,2834.553343,-11547.212695
1356.634537,9622.677246,1455.581446,-11399.171507
1356.634849,2072.576638,0.000000,-9326.594869
1356.635160,-9326.594869,0.000000,-4219.173869
1356.635472,-19763.498651,153.219100,296.082377
1356.635783,-27091.537477,612.876398,5921.647536
1356.636095,-30052.361245,0.000000,10436.903782
1356.636406,-28719.990550,-1072.533697,11621.233289
1356.636718,-20577.725188,-1685.410096,10436.903782
1356.637029,-10214.842000,-1838.629195,5329.482782
1356.637341,-1184.329507,306.438199,-0.000000
1356.637653,8882.471304,2298.286494,-5181.441594
1356.637964,12213.398043,2757.943793,-9030.512492
1356.638276,10510.924376,2298.286494,-9400.615463
1356.638587,3701.029710,612.876398,-8290.306550
1356.638899,-6365.771101,1302.362347,-4663.297435
1356.639210,-16432.571912,1685.410096,-0.000000
1356.639522,-24648.857869,2221.676944,4589.276840
1356.639833,-27831.743419,0.000000,10732.986159
1356.640145,-26943.496289,-1838.629195,12213.398043
1356.640456,-24500.816680,-2298.286494,12731.542202
1356.640768,-12953.603985,-2834.553343,8068.244768
1356.641080,-1924.535449,-1532.190996,4145.153275
1356.641391,5033.400406,2528.115143,-2516.700203
1356.641703,11325.150913,2298.286494,-6291.750507
1356.642014,11917.315666,1072.533697,-7994.224174
1356.642326,7105.977043,-1225.752797,-7920.203579
1356.642637,-3256.906145,-612.876398,-6143.709319
1356.642949,-12509.480420,689.485948,-1480.411884
1356.643260,-20799.786970,1225.752797,2146.597232
1356.643572,-27165.558071,-459.657299,7328.038826
1356.643883,-28719.990550,-2451.505594,10955.047942
1356.644195,-23168.445985,-3140.991542,12879.583391
1356.644507,-17616.901420,-2987.772442,9992.780217
1356.644818,-8438.347739,-1991.848295,8068.244768
1356.645130,148.041188,-306.438199,-0.000000
1356.645441,8956.491898,766.095498,-5181.441594
1356.645753,12287.418637,1915.238745,-8660.409521
1356.646064,9696.697840,1838.629195,-10066.800811
1356.646376,2368.659014,1149.143247,-9400.615463
1356.646687,-8586.388927,2221.676944,-4959.379811
1356.646999,-18283.086767,1762.019645,-814.226536
1356.647310,-26055.249158,0.000000,4737.318029
1356.647622,-29312.155303,-1378.971896,9918.759623
1356.647934,-28423.908173,-2528.115143,11325.150913
1356.648245,-20503.704593,-2987.772442,9918.759623
1356.648557,-9770.718434,-3524.039291,5329.482782
1356.648868,-1850.514855,-766.095498,-0.000000
1356.649180,7105.977043,1072.533697,-4663.297435
1356.649491,11917.315666,689.485948,-8660.409521
1356.649803,11473.192101,229.828649,-10658.965565
1356.650114,4811.338623,-766.095498,-9474.636058
1356.650426,-4589.276840,-459.657299,-7254.018232
1356.650737,-14952.160028,-383.047749,-2812.782580
1356.651049,-24278.754898,-306.438199,1554.432478
1356.651361,-28942.052332,-1302.362347,6957.935855
1356.651672,-30718.546593,-2757.943793,9474.636058
1356.651984,-27905.764013,-2374.896044,10732.986159
1356.652295,-16654.633695,-2451.505594,6439.791695
1356.652607,-4737.318029,-842.705048,2886.803174
1356.652918,2294.638420,1685.410096,-3775.050304
1356.653230,10140.821405,2068.457845,-7624.121203
1356.653541,12435.459826,3600.648841,-10658.965565
1356.653853,7550.100608,1072.533697,-10214.842000
1356.654164,-2146.597232,1915.238745,-8882.471304
1356.654476,-13249.686362,2911.162892,-4367.215058
1356.654788,-21910.095883,3294.210641,-74.020594
1356.655099,-28275.866984,1532.190996,6217.729913
1356.655411,-30792.567187,-1378.971896,10066.800811
1356.655722,-24944.940245,-2757.943793,12361.439231
1356.656034,-15618.345376,-2298.286494,9474.636058
1356.656345,-8068.244768,-1915.238745,5699.585753
1356.656657,0.000000,459.657299,1258.350101
1356.656968,10288.862594,1762.019645,-4515.256246
1356.657280,12879.583391,2451.505594,-8142.265362
1356.657591,9104.533087,459.657299,-9326.594869
1356.657903,1776.494261,-536.266849,-9326.594869
1356.658215,-8512.368333,1378.971896,-5255.462188
1356.658526,-17542.880825,2221.676944,148.041188
1356.658838,-24722.878463,536.266849,5477.523971
1356.659149,-27757.722825,-995.924147,10658.965565
1356.659461,-28201.846390,-2298.286494,12879.583391
1356.659772,-20799.786970,-2911.162892,12953.603985
1356.660084,-10066.800811,-2757.943793,8290.306550
1356.660395,-1036.288319,536.266849,2738.761985
1356.660707,8956.491898,2298.286494,-2664.741391
1356.661018,13101.645173,1838.629195,-7994.224174
1356.661330,13027.624579,2834.553343,-9178.553681
1356.661642,6513.812290,2911.162892,-8882.471304
1356.661953,-4959.379811,2834.553343,-6809.894666
1356.662265,-15766.386565,2145.067394,-1406.391290
1356.662576,-24352.775492,2145.067394,3478.967927
1356.662888,-28201.846390,-153.219100,9474.636058
1356.663199,-28053.805202,-2374.896044,11547.212695
1356.663511,-21614.013506,-1762.019645,12139.377449
1356.663822,-14063.912898,-3064.381992,9104.533087
1356.664134,-3256.906145,-2451.505594,6217.729913
1356.664445,4959.379811,-383.047749,-1480.411884
1356.664757,10214.842000,-229.828649,-5551.544565
1356.665068,10807.006753,-306.438199,-8586.388927
1356.665380,7772.162391,-1072.533697,-9992.780217
1356.665692,-1850.514855,-842.705048,-8290.306550
1356.666003,-12213.398043,0.000000,-4219.173869
1356.666315,-22132.157666,-536.266849,592.164754
1356.666626,-28942.052332,-1302.362347,6069.688724
1356.666938,-31384.731941,-2681.334243,10732.986159
1356.667249,-25685.146187,-3140.991542,12287.418637
1356.667561,-19319.375086,-2604.724693,10066.800811
1356.667872,-9326.594869,-1455.581446,6957.935855
1356.668184,1628.453072,1378.971896,-0.000000
1356.668495,10584.944971,2374.896044,-5921.647536
1356.668807,13693.809927,2681.334243,-9844.739029
1356.669119,10140.821405,2145.067394,-11621.233289
1356.669430,1406.391290,1685.410096,-10436.903782
1356.669742,-8882.471304,2298.286494,-6513.812290
1356.670053,-18357.107362,2068.457845,-1628.453072
1356.670365,-26277.310941,-153.219100,3404.947333
1356.670676,-30718.546593,-1608.800546,8956.491898
1356.670988,-28719.990550,-2298.286494,10140.821405
1356.671299,-22946.384202,-1455.581446,9696.697840
1356.671611,-11843.295072,-1991.848295,6069.688724
1356.671923,-1184.329507,-1149.143247,2146.597232
1356.672234,5699.585753,1608.800546,-4589.276840
1356.672546,11843.295072,2145.067394,-8068.244768
1356.672857,12509.480420,1915.238745,-10955.047942
1356.673169,5773.606348,1149.143247,-10807.006753
1356.673481,-5255.462188,1455.581446,-8364.327145
1356.673792,-15544.324782,995.924147,-3627.009116
1356.674104,-23760.610738,766.095498,1332.370696
1356.674416,-29534.217086,0.000000,8068.244768
1356.674727,-30126.381839,-1838.629195,11325.150913
1356.675039,-23908.651927,-2298.286494,12583.501014
1356.675350,-15766.386565,-2911.162892,10214.842000
1356.675662,-3701.029710,-919.314598,6587.832884
1356.675974,5255.462188,1685.410096,-2220.617826
1356.676285,12509.480420,2451.505594,-7105.977043
1356.676597,13471.748144,3217.601092,-9992.780217
1356.676908,8660.409521,2451.505594,-10510.924376
1356.677220,-1776.494261,1532.190996,-8512.368333
1356.677532,-12435.459826,1838.629195,-3627.009116
1356.677843,-21465.972318,1991.848295,666.185348
1356.678155,-27905.764013,153.219100,7328.038826
1356.678467,-29534.217086,-1991.848295,10881.027347
1356.678778,-27609.681637,-2068.457845,12657.521608
1356.679090,-17320.819043,-2068.457845,11325.150913
1356.679401,-6661.853478,-2604.724693,6735.874072
1356.679713,518.144159,-1378.971896,1850.514855
1356.680025,9474.636058,1072.533697,-3627.009116
1356.680336,13101.645173,229.828649,-7920.203579
1356.680648,11769.274478,1302.362347,-9474.636058
1356.680959,2664.741391,-766.095498,-8290.306550
1356.681271,-8438.347739,-766.095498,-5477.523971
1356.681583,-18209.066173,-153.219100,-148.041188
1356.681894,-27831.743419,-306.438199,4663.297435
1356.682206,-30422.464216,-1685.410096,10807.006753
1356.682518,-29016.072926,-1915.238745,11769.274478
1356.682829,-24130.713709,-2451.505594,12657.521608
1356.683141,-11473.192101,-2757.943793,8364.327145
1356.683452,-148.041188,-995.924147,3330.926739
1356.683764,7179.997637,1685.410096,-1924.535449
1356.684076,13027.624579,2374.896044,-7179.997637
1356.684387,12509.480420,1991.848295,-10436.903782
1356.684699,6513.812290,1685.410096,-10140.821405
1356.685010,-4737.318029,2911.162892,-8586.388927
1356.685322,-14508.036463,1838.629195,-3330.926739
1356.685634,-23760.610738,995.924147,1184.329507
1356.685945,-29682.258274,-383.047749,7698.141797
1356.686257,-29608.237680,-2451.505594,10955.047942
1356.686569,-22798.343014,-2757.943793,12657.521608
1356.686880,-14952.160028,-2911.162892,10362.883188
1356.687192,-5181.441594,-2374.896044,5995.668130
1356.687503,4811.338623,0.000000,-814.226536
1356.687815,12287.418637,1532.190996,-6957.935855
1356.688127,12731.542202,2145.067394,-10510.924376
1356.688438,9622.677246,1225.752797,-12213.398043
1356.688750,592.164754,76.609550,-10362.883188
1356.689061,-11029.068536,0.000000,-6143.709319
1356.689373,-21317.931130,0.000000,-148.041188
1356.689685,-29830.299463,76.609550,5255.462188
1356.689996,-32124.937883,-612.876398,10584.944971
1356.690308,-29460.196492,-1762.019645,11325.150913
1356.690620,-20651.745782,-1915.238745,9992.780217
1356.690931,-8586.388927,-2834.553343,5107.421000
1356.691243,1628.453072,-153.219100,-666.185348
1356.691554,10807.006753,1915.238745,-5329.482782
1356.691866,13619.789333,2221.676944,-10436.903782
1356.692178,12065.356855,1685.410096,-10584.944971
1356.692489,2516.700203,689.485948,-9696.697840
1356.692801,-8808.450710,1302.362347,-7254.018232
1356.693112,-19541.436869,1455.581446,-1628.453072
1356.693424,-27979.784608,1378.971896,2664.741391
1356.693736,-31384.731941,229.828649,8956.491898
1356.694047,-30348.443622,-1608.800546,10066.800811
1356.694359,-22946.384202,-842.705048,10436.903782
1356.694671,-13249.686362,-2298.286494,7994.224174
1356.694982,-592.164754,-2604.724693,5699.585753
1356.695294,7476.080014,0.000000,-2590.720797
1356.695605,13027.624579,766.095498,-6661.853478
1356.695917,12805.562797,1225.752797,-9252.574275
1356.696229,7179.997637,153.219100,-10140.821405
1356.696540,-4663.297435,536.266849,-7846.182985
1356.696852,-15840.407159,1455.581446,-3775.050304
1356.697164,-23686.590144,995.924147,1480.411884
1356.697475,-29460.196492,536.266849,7402.059420
1356.697787,-30052.361245,-1608.800546,12287.418637
1356.698098,-23094.425390,-4060.306139,14211.954086
1356.698410,-14656.077652,-4596.572988,12583.501014
1356.698722,-4737.318029,-3294.210641,7846.182985
1356.699033,4737.318029,919.314598,222.061783
1356.699345,12139.377449,2528.115143,-6069.688724
1356.699656,13397.727550,3140.991542,-10214.842000
1356.699968,9622.677246,2221.676944,-11473.192101
1356.700280,740.205942,1608.800546,-8660.409521
1356.700591,-10807.006753,612.876398,-4071.132681
1356.700903,-20799.786970,536.266849,2368.659014
1356.701215,-27831.743419,0.000000,7698.141797
1356.701526,-29238.134709,-1378.971896,12731.542202
1356.701838,-26277.310941,-2068.457845,12361.439231
1356.702149,-19689.478057,-1685.410096,11251.130318
1356.702461,-6809.894666,-1838.629195,5625.565159
1356.702773,3256.906145,-689.485948,222.061783
1356.703084,7772.162391,689.485948,-4589.276840
1356.703396,10732.986159,612.876398,-8660.409521
1356.703707,10140.821405,-229.828649,-9548.656652
1356.704019,3182.885551,-1378.971896,-8512.368333
1356.704331,-8068.244768,-459.657299,-5921.647536
1356.704642,-17690.922014,383.047749,-1406.391290
1356.704954,-26129.269753,1225.752797,2294.638420
1356.705266,-28868.031738,229.828649,8734.430116
1356.705577,-28423.908173,-2298.286494,10362.883188
1356.705889,-23094.425390,-2604.724693,11473.192101
1356.706200,-13471.748144,-3983.696590,7624.121203
1356.706512,-2368.659014,-3600.648841,4663.297435
1356.706824,3182.885551,0.000000,-3627.009116
1356.707135,9992.780217,1455.581446,-8364.327145
1356.707447,11695.253884,1455.581446,-10732.986159
1356.707758,7179.997637,306.438199,-11251.130318
1356.708070,-3256.906145,995.924147,-9474.636058
1356.708382,-13841.851115,1762.019645,-4811.338623
1356.708693,-22798.343014,1455.581446,296.082377
1356.709005,-29312.155303,995.924147,7254.018232
1356.709317,-31754.834912,0.000000,10288.862594
1356.709628,-26795.455100,-1685.410096,11917.315666
1356.709940,-15544.324782,-1532.190996,9400.615463
1356.710251,-6735.874072,-1762.019645,5181.441594
1356.710563,1554.432478,536.266849,-370.102971
1356.710875,11177.109724,2068.457845,-7105.977043
1356.711186,13249.686362,3983.696590,-10955.047942
1356.711498,10362.883188,2528.115143,-11621.233289
1356.711809,1628.453072,1532.190996,-10362.883188
1356.712121,-10288.862594,1225.752797,-6439.791695
1356.712433,-21910.095883,689.485948,-222.061783
1356.712744,-29312.155303,-229.828649,6365.771101
1356.713056,-31088.649564,-1608.800546,11695.253884
1356.713368,-28645.969955,-2757.943793,12731.542202
1356.713679,-20503.704593,-4749.792088,12435.459826
1356.713991,-8364.327145,-5822.325785,5921.647536
1356.714302,2368.659014,-1378.971896,-148.041188
1356.714614,9844.739029,2528.115143,-5847.626942
1356.714926,11991.336260,4136.915689,-10288.862594
1356.715237,9918.759623,3600.648841,-10510.924376
1356.715549,1406.391290,2604.724693,-8808.450710
1356.715860,-8808.450710,2681.334243,-5403.503377
1356.716172,-16950.716072,2987.772442,-0.000000
1356.716484,-23538.548956,2374.896044,3701.029710
1356.716795,-25981.228564,842.705048,9696.697840
1356.717107,-24426.796086,-2068.457845,10436.903782
1356.717419,-17320.819043,-3524.039291,12583.501014
1356.717730,-9548.656652,-3600.648841,9992.780217
1356.718042,-3627.009116,-2911.162892,5551.544565
1356.718353,3552.988522,306.438199,-666.185348
1356.718665,10066.800811,1991.848295,-6365.771101
1356.718977,10732.986159,2298.286494,-9326.594869
1356.719288,5847.626942,306.438199,-9178.553681
1356.719600,-2590.720797,153.219100,-8512.368333
1356.719911,-12879.583391,229.828649,-2960.823768
1356.720223,-23020.404796,-229.828649,1776.494261
1356.720535,-28423.908173,-689.485948,7179.997637
1356.720846,-29386.175897,-2834.553343,11325.150913
1356.721158,-25463.084405,-4596.572988,13101.645173
1356.721470,-15026.180623,-5209.449386,11991.336260
1356.721781,-7328.038826,-5822.325785,6217.729913
1356.722093,1406.391290,-1225.752797,222.061783
1356.722404,9696.697840,1915.238745,-5625.565159
1356.722716,11621.233289,2911.162892,-9104.533087
1356.723028,7698.141797,1915.238745,-9770.718434
1356.723339,-222.061783,306.438199,-8438.347739
1356.723651,-10140.821405,842.705048,-4737.318029
1356.723962,-19023.292709,2451.505594,-296.082377
1356.724274,-25537.104999,1072.533697,3775.050304
1356.724586,-28201.846390,-1455.581446,9474.636058
1356.724897,-26795.455100,-3600.648841,11103.089130
1356.725209,-21465.972318,-2911.162892,10658.965565
1356.725521,-11399.171507,-2834.553343,6513.812290
1356.725832,-740.205942,-1915.238745,2590.720797
1356.726144,5847.626942,2451.505594,-4737.318029
1356.726455,10288.862594,1225.752797,-8882.471304
1356.726767,11473.192101,2451.505594,-11103.089130
1356.727079,6365.771101,2451.505594,-10955.047942
1356.727390,-5181.441594,2145.067394,-8216.285956
1356.727702,-14952.160028,2221.676944,-2886.803174
1356.728013,-23908.651927,1072.533697,1406.391290
1356.728325,-29682.258274,-459.657299,8068.244768
1356.728637,-30200.402434,-2068.457845,11695.253884
1356.728948,-22280.198854,-4290.134789,12287.418637
1356.729260,-15026.180623,-3447.429741,9326.594869
1356.729572,-5403.503377,-2068.457845,4811.338623
1356.729883,4515.256246,1608.800546,-2516.700203
1356.730195,11991.336260,2374.896044,-8586.388927
1356.730506,12139.377449,2681.334243,-10807.006753
1356.730818,6513.812290,3217.601092,-10955.047942
1356.731130,-3182.885551,2911.162892,-9030.512492
1356.731441,-13841.851115,3370.820191,-4145.153275
1356.731753,-21984.116477,2374.896044,1110.308913
1356.732064,-27165.558071,1532.190996,6217.729913
1356.732376,-27979.784608,-612.876398,10658.965565
1356.732688,-24426.796086,-1838.629195,11103.089130
1356.732999,-16506.592507,-3370.820191,9474.636058
1356.733311,-4959.379811,-3064.381992,4441.235652
1356.733623,2368.659014,-153.219100,-1258.350101
1356.733934,7624.121203,2145.067394,-5403.503377
1356.734246,10362.883188,2528.115143,-9474.636058
1356.734557,8142.265362,2528.115143,-10140.821405
1356.734869,666.185348,1762.019645,-7920.203579
1356.735181,-9696.697840,1072.533697,-4959.379811
1356.735492,-18653.189738,-229.828649,222.061783
1356.735804,-25907.207970,-842.705048,4589.276840
1356.736115,-28275.866984,-2374.896044,10362.883188
1356.736427,-27165.558071,-4290.134789,11695.253884
1356.736739,-22946.384202,-3524.039291,11843.295072
1356.737050,-11399.171507,-4060.306139,7920.203579
1356.737362,74.020594,-2374.896044,3775.050304
1356.737674,5033.400406,0.000000,-1850.514855
1356.737985,9326.594869,2298.286494,-6957.935855
1356.738297,9918.759623,2834.553343,-9030.512492
1356.738608,4811.338623,3217.601092,-9252.574275
1356.738920,-4737.318029,3064.381992,-7105.977043
1356.739232,-14359.995275,1915.238745,-2590.720797
1356.739543,-21539.992912,1149.143247,1480.411884
1356.739855,-26055.249158,-383.047749,8142.265362
1356.740166,-28053.805202,-1991.848295,11325.150913
1356.740478,-22280.198854,-4443.353888,13767.830521
1356.740790,-14211.954086,-4979.620737,10955.047942
1356.741101,-6587.832884,-4596.572988,6957.935855
1356.741413,2368.659014,-689.485948,1332.370696
1356.741725,11547.212695,1378.971896,-5921.647536
1356.742036,13841.851115,2528.115143,-9770.718434
1356.742348,9326.594869,1915.238745,-10510.924376
1356.742659,0.000000,1685.410096,-9104.533087
1356.742971,-10955.047942,2298.286494,-4589.276840
1356.743283,-21021.848753,1532.190996,962.267725
1356.743594,-28275.866984,-459.657299,6735.874072
1356.743906,-29016.072926,-2374.896044,11103.089130
1356.744217,-26647.413912,-3830.477490,11103.089130
1356.744529,-20281.642811,-3753.867940,9400.615463
1356.744841,-8142.265362,-3370.820191,4589.276840
1356.745152,1554.432478,-229.828649,-740.205942
1356.745464,7920.203579,1762.019645,-5329.482782
1356.745776,11029.068536,2911.162892,-10066.800811
1356.746087,9474.636058,2068.457845,-10066.800811
1356.746399,2146.597232,2528.115143,-10066.800811
1356.746710,-7698.141797,2757.943793,-7105.977043
1356.747022,-16358.551318,2145.067394,-2146.597232
1356.747334,-24870.919651,612.876398,1776.494261
1356.747645,-29312.155303,-536.266849,8808.450710
1356.747957,-28719.990550,-2911.162892,10584.944971
1356.748269,-22206.178260,-3447.429741,10510.924376
1356.748580,-13915.871710,-4596.572988,8438.347739
1356.748892,-4219.173869,-3217.601092,4441.235652
1356.749203,4367.215058,1225.752797,-3330.926739
1356.749515,11473.192101,2911.162892,-8364.327145
1356.749827,12657.521608,3217.601092,-10288.862594
1356.750138,7846.182985,2221.676944,-11103.089130
1356.750450,-3627.009116,2451.505594,-8438.347739
1356.750761,-14434.015869,2604.724693,-3552.988522
1356.751073,-22946.384202,1685.410096,1480.411884
1356.751385,-29756.278868,0.000000,7920.203579
1356.751696,-30570.505405,-1991.848295,11843.295072
1356.752008,-26795.455100,-3447.429741,12213.398043
1356.752320,-14952.160028,-3753.867940,10288.862594
1356.752631,-5995.668130,-2911.162892,5107.421000
1356.752943,2368.659014,383.047749,-1406.391290
1356.753254,11621.233289,2374.896044,-5995.668130
1356.753566,14063.912898,2298.286494,-8956.491898
1356.753878,9400.615463,1838.629195,-9400.615463
1356.754189,0.000000,1685.410096,-8068.244768
1356.754501,-10436.903782,2221.676944,-4663.297435
1356.754812,-19245.354492,2528.115143,444.123565
1356.755124,-27017.516883,383.047749,5255.462188
1356.755436,-29238.134709,-1608.800546,11177.109724
1356.755747,-27387.619854,-2604.724693,12139.377449
1356.756059,-21021.848753,-4136.915689,11547.212695
1356.756371,-9030.512492,-4213.525239,6883.915261
1356.756682,1036.288319,-1532.190996,1850.514855
1356.756994,7920.203579,2451.505594,-4737.318029
1356.757305,13545.768739,2451.505594,-8364.327145
1356.757617,13619.789333,2374.896044,-9844.739029
1356.757929,4959.379811,1302.362347,-8882.471304
1356.758240,-6735.874072,1378.971896,-6735.874072
1356.758552,-17468.860231,1532.190996,-1110.308913
1356.758863,-25981.228564,766.095498,3849.070898
1356.759175,-29386.175897,-995.924147,10510.924376
1356.759487,-29460.196492,-4060.306139,12805.562797
1356.759798,-22798.343014,-4749.792088,12139.377449
1356.760110,-14434.015869,-4596.572988,8586.388927
1356.760422,-3330.926739,-2451.505594,3849.070898
1356.760733,5181.441594,1532.190996,-2590.720797
1356.761045,11029.068536,2068.457845,-7476.080014
1356.761356,11843.295072,919.314598,-9474.636058
1356.761668,8068.244768,995.924147,-9622.677246
1356.761980,-2812.782580,2068.457845,-8586.388927
1356.762291,-13027.624579,2374.896044,-3701.029710
1356.762603,-22206.178260,2145.067394,740.205942
1356.762914,-28645.969955,153.219100,6439.791695
1356.763226,-30348.443622,-1915.238745,10288.862594
1356.763538,-25685.146187,-2681.334243,11991.336260
1356.763849,-15544.324782,-3983.696590,9622.677246
1356.764161,-7920.203579,-4366.744339,4737.318029
1356.764473,962.267725,-459.657299,148.041188
1356.764784,11695.253884,1608.800546,-5477.523971
1356.765096,13323.706956,1838.629195,-9992.780217
1356.765407,10658.965565,459.657299,-11103.089130
1356.765719,1332.370696,842.705048,-10807.006753
1356.766031,-9918.759623,2068.457845,-6883.915261
1356.766342,-20133.601622,2528.115143,-962.267725
1356.766654,-29460.196492,689.485948,4737.318029
1356.766965,-31828.855506,-1608.800546,11547.212695
1356.767277,-29164.114115,-3830.477490,12139.377449
1356.767589,-23538.548956,-4136.915689,10584.944971
1356.767900,-10066.800811,-3217.601092,6439.791695
1356.768212,1406.391290,-383.047749,666.185348
1356.768524,8586.388927,1762.019645,-5033.400406
1356.768835,12583.501014,2298.286494,-9770.718434
1356.769147,12065.356855,1991.848295,-10658.965565
1356.769458,5477.523971,2221.676944,-10066.800811
1356.769770,-6513.812290,3524.039291,-7920.203579
1356.770082,-17468.860231,2604.724693,-3034.844362
1356.770393,-26055.249158,1608.800546,2146.597232
1356.770705,-30348.443622,1302.362347,9178.553681
1356.771016,-30570.505405,-1455.581446,12139.377449
1356.771328,-21465.972318,-4213.525239,13619.789333
1356.771640,-13101.645173,-4903.011187,10288.862594
1356.771951,-3923.091493,-2987.772442,5551.544565
1356.772263,7179.997637,1302.362347,-1998.556043
1356.772574,14656.077652,3217.601092,-7772.162391
1356.772886,13989.892304,2298.286494,-10955.047942
1356.773197,7550.100608,1072.533697,-10807.006753
1356.773509,-2516.700203,1532.190996,-9030.512492
1356.773820,-14137.933492,2068.457845,-4367.215058
1356.774132,-23242.466579,2145.067394,1628.453072
1356.774443,-29460.196492,153.219100,7846.182985
1356.774755,-30644.525999,-2451.505594,12139.377449
1356.775066,-26943.496289,-3524.039291,13249.686362
1356.775378,-18209.066173,-4213.525239,11029.068536
1356.775689,-6291.750507,-3677.258390,6439.791695
1356.776001,2886.803174,-229.828649,-666.185348
1356.776312,11251.130318,2451.505594,-5255.462188
1356.776624,14211.954086,2681.334243,-9696.697840
1356.776935,10732.986159,1762.019645,-10658.965565
1356.777247,1776.494261,1225.752797,-9548.656652
1356.777558,-9474.636058,2068.457845,-5847.626942
1356.777870,-20799.786970,1225.752797,-0.000000
1356.778181,-28275.866984,0.000000,5773.606348
1356.778493,-31014.628970,-1838.629195,11917.315666
1356.778804,-29016.072926,-4213.525239,13767.830521
1356.779116,-20059.581028,-3677.258390,13175.665768
1356.779428,-10807.006753,-4366.744339,8438.347739
1356.779739,1554.432478,-1762.019645,3701.029710
1356.780051,9326.594869,1915.238745,-4589.276840
1356.780362,13915.871710,1838.629195,-9326.594869
1356.780674,12805.562797,1532.190996,-10881.027347
1356.780985,6883.915261,689.485948,-10658.965565
1356.781297,-6143.709319,1072.533697,-8142.265362
1356.781608,-17098.757260,2145.067394,-2146.597232
1356.781920,-25685.146187,766.095498,4071.132681
1356.782231,-30866.587781,-1915.238745,10214.842000
1356.782543,-30496.484810,-4290.134789,13693.809927
1356.782854,-24278.754898,-4903.011187,14211.954086
1356.783166,-12583.501014,-3294.210641,9326.594869
1356.783477,-4737.318029,-1915.238745,3108.864956
1356.783789,3552.988522,2068.457845,-3775.050304
1356.784100,12953.603985,2451.505594,-9844.739029
1356.784412,15692.365970,2528.115143,-12065.356855
1356.784723,9326.594869,1762.019645,-11547.212695
1356.785035,-1406.391290,1532.190996,-9844.739029
1356.785346,-13027.624579,1072.533697,-4589.276840
1356.785658,-23020.404796,1225.752797,1554.432478
1356.785969,-29312.155303,229.828649,7624.121203
1356.786281,-31088.649564,-1915.238745,12065.356855
1356.786593,-27683.702231,-3217.601092,12879.583391
1356.786904,-22058.137072,-3447.429741,9474.636058
1356.787216,-7772.162391,-3064.381992,3775.050304
1356.787527,4515.256246,766.095498,-2664.741391
1356.787839,10584.944971,3600.648841,-8734.430116
1356.788150,13397.727550,2987.772442,-12509.480420
1356.788462,11473.192101,536.266849,-11695.253884
1356.788773,2368.659014,0.000000,-10066.800811
1356.789085,-10362.883188,689.485948,-5995.668130
1356.789396,-21317.931130,1225.752797,888.247130
1356.789708,-29830.299463,-229.828649,6291.750507
1356.790019,-32865.143825,-1915.238745,12509.480420
1356.790331,-30496.484810,-3907.087040,13323.706956
1356.790642,-21614.013506,-2221.676944,11769.274478
1356.790954,-10658.965565,-2145.067394,5921.647536
1356.791265,2590.720797,459.657299,592.164754
1356.791577,9474.636058,3677.258390,-5773.606348
1356.791888,13249.686362,3983.696590,-10584.944971
1356.792200,12361.439231,2757.943793,-10732.986159
1356.792511,5329.482782,2604.724693,-10214.842000
1356.792823,-6069.688724,2834.553343,-7328.038826
1356.793134,-17024.736666,2528.115143,-1036.288319
1356.793446,-25018.960840,1072.533697,4145.153275
1356.793757,-29312.155303,-306.438199,10955.047942
1356.794069,-29682.258274,-2298.286494,13471.748144
1356.794381,-21984.116477,-4060.306139,14359.995275
1356.794692,-12065.356855,-3677.258390,10214.842000
1356.795004,-4589.276840,-2681.334243,4959.379811
1356.795315,5921.647536,1149.143247,-1850.514855
1356.795627,14656.077652,1838.629195,-7624.121203
1356.795938,15470.304188,1608.800546,-9770.718434
1356.796250,8142.265362,-536.266849,-9474.636058
1356.796561,-2220.617826,76.609550,-7846.182985
1356.796873,-13027.624579,1608.800546,-2664.741391
1356.797184,-22872.363608,1149.143247,3404.947333
1356.797496,-29460.196492,-612.876398,8734.430116
1356.797807,-31236.690752,-2145.067394,13101.645173
1356.798119,-28053.805202,-2374.896044,13397.727550
1356.798430,-18283.086767,-1532.190996,10732.986159
1356.798742,-7105.977043,-2374.896044,4885.359217
1356.799053,2516.700203,1225.752797,-1110.308913
1356.799365,10732.986159,2911.162892,-6957.935855
1356.799676,13915.871710,3064.381992,-10584.944971
1356.799988,11991.336260,1838.629195,-10658.965565
1356.800299,3330.926739,1149.143247,-8882.471304
1356.800611,-8364.327145,612.876398,-4959.379811
1356.800922,-19837.519246,-612.876398,370.102971
1356.801234,-27609.681637,-766.095498,6069.688724
1356.801546,-30940.608376,-1225.752797,11103.089130
1356.801857,-28719.990550,-2298.286494,12065.356855
1356.802169,-23612.569550,-3064.381992,11251.130318
1356.802480,-11917.315666,-4749.792088,6439.791695
1356.802792,666.185348,-2987.772442,1480.411884
1356.803103,7624.121203,1532.190996,-6143.709319
1356.803415,12583.501014,1608.800546,-9844.739029
1356.803726,11621.233289,229.828649,-11769.274478
1356.804038,6883.915261,-1072.533697,-10362.883188
1356.804349,-4959.379811,0.000000,-8586.388927
1356.804661,-15914.427753,1378.971896,-2812.782580
1356.804972,-25759.166782,1532.190996,2368.659014
1356.805284,-31458.752535,0.000000,9326.594869
1356.805595,-31236.690752,-2374.896044,12139.377449
1356.805907,-23686.590144,-4136.915689,13249.686362
1356.806218,-14211.954086,-2374.896044,8660.409521
1356.806530,-6809.894666,-536.266849,2812.782580
1356.806841,3775.050304,3294.210641,-4071.132681
1356.807153,12657.521608,2911.162892,-9918.759623
1356.807464,13767.830521,2145.067394,-11103.089130
1356.807776,7920.203579,1762.019645,-10881.027347
1356.808087,-1776.494261,2451.505594,-9104.533087
1356.808399,-13397.727550,2681.334243,-4441.235652
1356.808711,-22946.384202,2298.286494,814.226536
1356.809022,-29830.299463,995.924147,7031.956449
1356.809334,-31014.628970,-153.219100,11917.315666
1356.809645,-28053.805202,-1762.019645,13249.686362
1356.809957,-18949.272115,-3064.381992,11325.150913
1356.810268,-6883.915261,-4366.744339,4737.318029
1356.810580,3478.967927,-766.095498,-1184.329507
1356.810891,12657.521608,1302.362347,-6217.729913
1356.811203,16136.489536,2757.943793,-10584.944971
1356.811514,11695.253884,995.924147,-10881.027347
1356.811826,1628.453072,536.266849,-8808.450710
1356.812137,-9030.512492,1991.848295,-5107.421000
1356.812449,-19615.457463,2451.505594,1258.350101
1356.812760,-27535.661042,1149.143247,6439.791695
1356.813072,-30200.402434,-536.266849,11621.233289
1356.813383,-28423.908173,-2757.943793,13249.686362
1356.813695,-20577.725188,-1915.238745,13101.645173
1356.814006,-10658.965565,-2451.505594,7698.141797
1356.814318,1406.391290,0.000000,3552.988522
1356.814629,7624.121203,2298.286494,-4145.153275
1356.814941,11917.315666,1915.238745,-9178.553681
1356.815252,11843.295072,3294.210641,-9696.697840
1356.815564,7105.977043,1225.752797,-9178.553681
1356.815875,-3478.967927,1455.581446,-6513.812290
1356.816187,-15470.304188,-229.828649,-740.205942
1356.816499,-24352.775492,-995.924147,4515.256246
1356.816810,-29238.134709,-1838.629195,9992.780217
1356.817122,-30422.464216,-3524.039291,13027.624579
1356.817433,-22502.260637,-4290.134789,14211.954086
1356.817745,-14730.098246,-4596.572988,9474.636058
1356.818056,-7105.977043,-2987.772442,5033.400406
1356.818368,3849.070898,919.314598,-1998.556043
1356.818679,12805.562797,1455.581446,-8068.244768
1356.818991,14211.954086,1838.629195,-9992.780217
1356.819302,8882.471304,536.266849,-9992.780217
1356.819614,-444.123565,-153.219100,-8808.450710
1356.819925,-11843.295072,842.705048,-3701.029710
1356.820237,-21317.931130,1838.629195,1110.308913
1356.820548,-28423.908173,229.828649,6587.832884
1356.820860,-30644.525999,-1532.190996,11251.130318
1356.821171,-29164.114115,-3294.210641,12065.356855
1356.821483,-21317.931130,-3370.820191,9844.739029
1356.821794,-8882.471304,-3294.210641,4367.215058
1356.822106,740.205942,536.266849,-1702.473667
1356.822417,9104.533087,3140.991542,-6439.791695
1356.822729,12657.521608,2451.505594,-10584.944971
1356.823040,11621.233289,1915.238745,-11917.315666
1356.823352,4145.153275,1762.019645,-10510.924376
1356.823664,-5995.668130,2374.896044,-6587.832884
1356.823975,-17764.942608,1685.410096,-1110.308913
1356.824287,-27165.558071,76.609550,4367.215058
1356.824598,-30866.587781,-1149.143247,10584.944971
1356.824910,-30200.402434,-3064.381992,12139.377449
1356.825221,-22206.178260,-1991.848295,11473.192101
1356.825533,-13693.809927,-3217.601092,6439.791695
1356.825844,-1628.453072,-1838.629195,1480.411884
1356.826156,7105.977043,2451.505594,-5921.647536
1356.826467,12953.603985,2604.724693,-10140.821405
1356.826779,13323.706956,2451.505594,-11251.130318
1356.827090,7846.182985,536.266849,-10288.862594
1356.827402,-3552.988522,536.266849,-7772.162391
1356.827713,-15026.180623,766.095498,-2294.638420
1356.828025,-24056.693115,766.095498,2812.782580
1356.828336,-30792.567187,1225.752797,8734.430116
1356.828648,-31162.670158,-919.314598,11843.295072
1356.828959,-24648.857869,-2757.943793,12953.603985
1356.829271,-15026.180623,-2911.162892,9252.574275
1356.829582,-6809.894666,-1838.629195,4367.215058
1356.829894,3108.864956,2068.457845,-2738.761985
1356.830205,13323.706956,4136.915689,-7772.162391
1356.830517,14878.139434,2528.115143,-10214.842000
1356.830829,8956.491898,153.219100,-9992.780217
1356.831140,-296.082377,153.219100,-7402.059420
1356.831452,-11325.150913,536.266849,-3404.947333
1356.831763,-21836.075289,536.266849,2442.679609
1356.832075,-28423.908173,-153.219100,8068.244768
1356.832386,-30940.608376,-2604.724693,11843.295072
1356.832698,-28053.805202,-3753.867940,13767.830521
1356.833009,-17690.922014,-3370.820191,11769.274478
1356.833321,-8956.491898,-3370.820191,5255.462188
1356.833632,0.000000,1072.533697,148.041188
1356.833944,10510.924376,4136.915689,-4959.379811
1356.834255,14211.954086,3064.381992,-8586.388927
1356.834567,13101.645173,1532.190996,-9104.533087
1356.834878,4367.215058,153.219100,-8068.244768
1356.835190,-5847.626942,1302.362347,-5329.482782
1356.835501,-16876.695478,1685.410096,-0.000000
1356.835813,-26055.249158,0.000000,5033.400406
1356.836124,-29534.217086,-2374.896044,11325.150913
1356.836436,-29830.299463,-4596.572988,12805.562797
1356.836747,-25981.228564,-4060.306139,13249.686362
1356.837059,-13989.892304,-3830.477490,8660.409521
1356.837370,-2146.597232,-1225.752797,2664.741391
1356.837682,5477.523971,1455.581446,-3108.864956
1356.837993,11621.233289,2068.457845,-8068.244768
1356.838305,13989.892304,2298.286494,-10288.862594
1356.838617,9252.574275,2604.724693,-10436.903782
1356.838928,-2294.638420,2221.676944,-8068.244768
1356.839240,-13545.768739,1149.143247,-2220.617826
1356.839551,-23834.631332,229.828649,2146.597232
1356.839863,-29608.237680,536.266849,8734.430116
1356.840174,-30570.505405,-1302.362347,11103.089130
1356.840486,-26277.310941,-2911.162892,12879.583391
1356.840797,-15544.324782,-3217.601092,9400.615463
1356.841109,-7179.997637,-3370.820191,2960.823768
1356.841420,2886.803174,1685.410096,-2516.700203
1356.841732,11991.336260,2604.724693,-7846.182985
1356.842043,14137.933492,2451.505594,-11029.068536
1356.842355,10362.883188,0.000000,-11177.109724
1356.842666,3034.844362,-842.705048,-9474.636058
1356.842978,-8290.306550,-306.438199,-5699.585753
1356.843289,-20281.642811,153.219100,-74.020594
1356.843601,-29978.340651,-1225.752797,5773.606348
1356.843912,-33383.287984,-3064.381992,10881.027347
1356.844224,-31976.896694,-3447.429741,12213.398043
1356.844535,-23390.507767,-2068.457845,10955.047942
1356.844847,-12361.439231,-3677.258390,4441.235652
1356.845158,-2294.638420,-612.876398,-2072.576638
1356.845470,9326.594869,2987.772442,-7105.977043
1356.845782,14804.118840,4060.306139,-11547.212695
1356.846093,13619.789333,3217.601092,-12435.459826
1356.846405,4885.359217,1762.019645,-10732.986159
1356.846716,-5921.647536,1838.629195,-6883.915261
1356.847028,-17616.901420,2298.286494,-592.164754
1356.847339,-26425.352129,2068.457845,4293.194464
1356.847651,-31384.731941,76.609550,10140.821405
1356.847962,-30792.567187,-2681.334243,10881.027347
1356.848274,-21169.889941,-2681.334243,11917.315666
1356.848585,-14359.995275,-4060.306139,8290.306550
1356.848897,-3849.070898,-2987.772442,3256.906145
1356.849208,6809.894666,1072.533697,-3404.947333
1356.849520,13101.645173,2528.115143,-8364.327145
1356.849831,13249.686362,1225.752797,-8660.409521
1356.850143,8882.471304,-383.047749,-8364.327145
1356.850454,-2368.659014,-612.876398,-7698.141797
1356.850766,-13693.809927,1378.971896,-2220.617826
1356.851077,-22724.322419,1762.019645,3330.926739
1356.851389,-28497.928767,459.657299,8438.347739
1356.851700,-30496.484810,-1991.848295,11399.171507
1356.852012,-25241.022622,-3907.087040,13989.892304
1356.852323,-15988.448347,-3753.867940,11547.212695
1356.852635,-7105.977043,-3064.381992,6143.709319
1356.852947,4145.153275,1532.190996,-1258.350101
1356.853258,13027.624579,4136.915689,-6883.915261
1356.853570,15248.242405,4290.134789,-9326.594869
1356.853881,11991.336260,2681.334243,-9844.739029
1356.854193,3182.885551,1302.362347,-8660.409521
1356.854504,-8734.430116,2911.162892,-3997.112087
1356.854816,-20577.725188,2451.505594,2442.679609
1356.855127,-28423.908173,-229.828649,7846.182985
1356.855439,-30348.443622,-2221.676944,11769.274478
1356.855750,-30052.361245,-3294.210641,12953.603985
1356.856062,-22872.363608,-3447.429741,12657.521608
1356.856373,-11251.130318,-5592.497135,6143.709319
1356.856685,-962.267725,-2451.505594,-0.000000
1356.856996,7402.059420,1762.019645,-4737.318029
1356.857308,12287.418637,2221.676944,-8512.368333
1356.857619,14582.057057,842.705048,-9252.574275
1356.857931,8142.265362,-995.924147,-8808.450710
1356.858242,-2738.761985,-383.047749,-7179.997637
1356.858554,-15100.201217,2068.457845,-1184.329507
1356.858865,-25981.228564,2451.505594,3108.864956
1356.859177,-30866.587781,842.705048,9252.574275
1356.859488,-31828.855506,-1302.362347,10807.006753
1356.859800,-24278.754898,-2451.505594,12435.459826
1356.860111,-16950.716072,-4290.134789,8364.327145
1356.860423,-4663.297435,-3447.429741,3775.050304
1356.860735,5255.462188,0.000000,-4589.276840
1356.861046,12509.480420,1762.019645,-9770.718434
1356.861358,14508.036463,1225.752797,-11177.109724
1356.861669,10732.986159,383.047749,-11695.253884
1356.861981,-370.102971,459.657299,-9696.697840
1356.862292,-13175.665768,1608.800546,-3627.009116
1356.862604,-24426.796086,919.314598,2368.659014
1356.862915,-31976.896694,-153.219100,8364.327145
1356.863227,-33901.432144,-1838.629195,11325.150913
1356.863538,-28423.908173,-1685.410096,12435.459826
1356.863850,-17098.757260,-1685.410096,9400.615463
1356.864161,-7624.121203,-4136.915689,3478.967927
1356.864473,3997.112087,153.219100,-3701.029710
1356.864784,12953.603985,3140.991542,-9400.615463
1356.865096,15100.201217,3677.258390,-11103.089130
1356.865407,11029.068536,536.266849,-11251.130318
1356.865719,2960.823768,-842.705048,-9474.636058
1356.866030,-9030.512492,153.219100,-5551.544565
1356.866342,-21317.931130,1532.190996,296.082377
1356.866653,-29460.196492,1991.848295,6587.832884
1356.866965,-33531.329173,-1302.362347,10881.027347
1356.867276,-31976.896694,-2528.115143,13027.624579
1356.867588,-23908.651927,-2757.943793,12583.501014
1356.867900,-11325.150913,-4596.572988,6957.935855
1356.868211,592.164754,-2145.067394,-666.185348
1356.868523,9992.780217,2374.896044,-6513.812290
1356.868834,15840.407159,4366.744339,-10140.821405
1356.869146,14211.954086,3677.258390,-11029.068536
1356.869457,6291.750507,1455.581446,-9400.615463
1356.869769,-5181.441594,1762.019645,-6291.750507
1356.870080,-18357.107362,2757.943793,-148.041188
1356.870392,-26277.310941,2145.067394,5773.606348
1356.870703,-30792.567187,0.000000,10955.047942
1356.871015,-30200.402434,-2451.505594,12287.418637
1356.871326,-20651.745782,-2451.505594,13915.871710
1356.871638,-13915.871710,-3217.601092,9104.533087
1356.871950,-3256.906145,-2681.334243,4071.132681
1356.872261,7105.977043,2374.896044,-3701.029710
1356.872573,14582.057057,3294.210641,-9178.553681
1356.872884,15988.448347,2604.724693,-9474.636058
1356.873196,9622.677246,-1225.752797,-9474.636058
1356.873508,666.185348,-2221.676944,-6957.935855
1356.873819,-12731.542202,-306.438199,-2072.576638
1356.874131,-24870.919651,306.438199,4441.235652
1356.874443,-32124.937883,-153.219100,9844.739029
1356.874754,-33753.390955,-3370.820191,13101.645173
1356.875066,-27609.681637,-4290.134789,15692.365970
1356.875377,-18135.045579,-3294.210641,12657.521608
1356.875689,-7402.059420,-3370.820191,6291.750507
1356.876001,3923.091493,306.438199,-740.205942
1356.876312,14137.933492,3294.210641,-7772.162391
1356.876624,17838.963202,4979.620737,-10214.842000
1356.876935,12583.501014,2374.896044,-11177.109724
1356.877247,3997.112087,153.219100,-9178.553681
1356.877559,-8808.450710,1915.238745,-4959.379811
1356.877870,-21762.054695,3140.991542,1406.391290
1356.878182,-29756.278868,2451.505594,6735.874072
1356.878494,-33087.205607,-1838.629195,11325.150913
1356.878805,-29756.278868,-4136.915689,12805.562797
1356.879117,-23316.487173,-2451.505594,11325.150913
1356.879428,-12139.377449,-3600.648841,5921.647536
1356.879740,1998.556043,-2987.772442,148.041188
1356.880052,8660.409521,766.095498,-7031.956449
1356.880363,13989.892304,2604.724693,-10288.862594
1356.880675,14211.954086,1378.971896,-10732.986159
1356.880986,8660.409521,-1072.533697,-10807.006753
1356.881298,-3849.070898,-612.876398,-8512.368333
1356.881610,-16580.613101,2068.457845,-2146.597232
1356.881921,-27239.578666,1991.848295,4145.153275
1356.882233,-33827.411549,-383.047749,9770.718434
1356.882544,-34641.638086,-2757.943793,11991.336260
1356.882856,-25241.022622,-2681.334243,12657.521608
1356.883168,-15692.365970,-1608.800546,8438.347739
1356.883479,-3627.009116,-1532.190996,2220.617826
1356.883791,7476.080014,1378.971896,-5847.626942
1356.884103,15618.345376,3140.991542,-11991.336260
1356.884414,16580.613101,3907.087040,-12361.439231
1356.884726,10658.965565,1915.238745,-11695.253884
1356.885037,148.041188,459.657299,-9104.533087
1356.885349,-13619.789333,1455.581446,-3478.967927
1356.885661,-25463.084405,1838.629195,2886.803174
1356.885972,-32421.020260,689.485948,8808.450710
1356.886284,-33901.432144,-2451.505594,10732.986159
1356.886595,-29904.320057,-1302.362347,11843.295072
1356.886907,-19393.395680,-1532.190996,9622.677246
1356.887219,-7402.059420,-4366.744339,4219.173869
1356.887530,2812.782580,-2374.896044,-3330.926739
1356.887842,12805.562797,1302.362347,-7772.162391
1356.888153,16950.716072,3983.696590,-9844.739029
1356.888465,12583.501014,0.000000,-9548.656652
1356.888777,3478.967927,-1225.752797,-7846.182985
1356.889088,-9474.636058,0.000000,-4811.338623
1356.889400,-21836.075289,2681.334243,1924.535449
1356.889712,-29756.278868,2221.676944,7105.977043
1356.890023,-33605.349767,-842.705048,11251.130318
1356.890335,-29830.299463,-2374.896044,12509.480420
1356.890646,-24278.754898,-1991.848295,12065.356855
1356.890958,-10510.924376,-4443.353888,7920.203579
1356.891270,2960.823768,-2451.505594,1554.432478
1356.891581,9770.718434,1532.190996,-5255.462188
1356.891893,14656.077652,3524.039291,-9474.636058
1356.892204,15100.201217,3217.601092,-9696.697840
1356.892516,8586.388927,1072.533697,-8882.471304
1356.892828,-3627.009116,995.924147,-6143.709319
1356.893139,-16802.674883,1915.238745,-0.000000
1356.893451,-26647.413912,2068.457845,5403.503377
1356.893762,-32421.020260,842.705048,10955.047942
1356.894074,-33161.226202,-2145.067394,12509.480420
1356.894386,-23538.548956,-2604.724693,14211.954086
1356.894697,-14359.995275,-3600.648841,10807.006753
1356.895009,-2960.823768,-3907.087040,5921.647536
1356.895321,6883.915261,0.000000,-3404.947333
1356.895632,14582.057057,2911.162892,-9178.553681
1356.895944,16876.695478,3524.039291,-9696.697840
1356.896255,11177.109724,919.314598,-10140.821405
1356.896567,592.164754,0.000000,-8068.244768
1356.896879,-13693.809927,1225.752797,-3404.947333
1356.897190,-24870.919651,2221.676944,2812.782580
1356.897502,-31532.773129,1302.362347,8734.430116
1356.897813,-33901.432144,-2451.505594,11547.212695
1356.898125,-29756.278868,-3064.381992,13249.686362
1356.898437,-17912.983796,-3677.258390,10881.027347
1356.898748,-7105.977043,-5515.887586,5033.400406
1356.899060,3552.988522,-2681.334243,-2812.782580
1356.899372,13027.624579,1608.800546,-8660.409521
1356.899683,16432.571912,3064.381992,-10807.006753
1356.899995,12139.377449,689.485948,-11251.130318
1356.900306,3478.967927,-229.828649,-8512.368333
1356.900618,-8882.471304,689.485948,-5773.606348
1356.900930,-20947.828159,2681.334243,148.041188
1356.901241,-29534.217086,1455.581446,5625.565159
1356.901553,-33605.349767,-1149.143247,9326.594869
1356.901864,-30792.567187,-2221.676944,10510.924376
1356.902176,-24130.713709,-536.266849,9474.636058
1356.902488,-13027.624579,-2145.067394,5403.503377
1356.902799,518.144159,-2757.943793,518.144159
1356.903111,7994.224174,1455.581446,-6957.935855
1356.903422,13915.871710,2987.772442,-10510.924376
1356.903734,13841.851115,2068.457845,-10807.006753
1356.904046,8956.491898,-995.924147,-10658.965565
1356.904357,-3034.844362,-995.924147,-8142.265362
1356.904669,-15914.427753,1225.752797,-2738.761985
1356.904981,-27387.619854,1532.190996,3108.864956
1356.905292,-34345.555709,76.609550,9178.553681
1356.905604,-35603.905810,-3447.429741,11769.274478
1356.905915,-26499.372724,-3830.477490,12953.603985
1356.906227,-18135.045579,-4443.353888,10066.800811
1356.906539,-5107.421000,-4596.572988,4885.359217
1356.906850,7328.038826,-1532.190996,-3775.050304
1356.907162,14878.139434,1838.629195,-10288.862594
1356.907473,17394.839637,3370.820191,-10066.800811
1356.907785,11843.295072,1915.238745,-9918.759623
1356.908097,888.247130,919.314598,-7772.162391
1356.908408,-12953.603985,2451.505594,-2368.659014
1356.908720,-24722.878463,3983.696590,3256.906145
1356.909031,-30644.525999,2911.162892,8734.430116
1356.909343,-32050.917289,0.000000,10955.047942
1356.909655,-27979.784608,-459.657299,11177.109724
1356.909966,-18949.272115,-919.314598,10584.944971
1356.910278,-5403.503377,-2911.162892,5551.544565
1356.910590,5107.421000,-1685.410096,-1110.308913
1356.910901,11991.336260,1378.971896,-6217.729913
1356.911213,15766.386565,3370.820191,-9326.594869
1356.911524,14137.933492,1455.581446,-9252.574275
1356.911836,5625.565159,-1072.533697,-7402.059420
1356.912148,-7254.018232,0.000000,-5107.421000
1356.912459,-20651.745782,1991.848295,1332.370696
1356.912771,-29830.299463,1838.629195,6661.853478
1356.913082,-33605.349767,-536.266849,11029.068536
1356.913394,-31902.876100,-3140.991542,12509.480420
1356.913706,-23834.631332,-3447.429741,12213.398043
1356.914017,-12065.356855,-4826.401637,7624.121203
1356.914329,888.247130,-2528.115143,814.226536
1356.914641,9474.636058,459.657299,-5107.421000
1356.914952,15174.221811,2604.724693,-8586.388927
1356.915264,14434.015869,3217.601092,-9400.615463
1356.915575,7476.080014,1072.533697,-7846.182985
1356.915887,-3034.844362,1762.019645,-6143.709319
1356.916199,-16358.551318,3217.601092,-1332.370696
1356.916510,-25833.187376,2834.553343,3997.112087
1356.916822,-30792.567187,76.609550,9252.574275
1356.917133,-31162.670158,-2298.286494,10140.821405
1356.917445,-23316.487173,-3217.601092,11029.068536
1356.917757,-16210.510130,-3830.477490,9474.636058
1356.918068,-7328.038826,-4903.011187,5107.421000
1356.918380,4219.173869,-1225.752797,-2220.617826
1356.918691,12509.480420,1302.362347,-7920.203579
1356.919003,15322.262999,2068.457845,-9400.615463
1356.919315,10288.862594,-306.438199,-10955.047942
1356.919626,3182.885551,-1762.019645,-8512.368333
1356.919938,-9474.636058,919.314598,-5107.421000
1356.920250,-22576.281231,2451.505594,1184.329507
1356.920561,-31384.731941,536.266849,7105.977043
1356.920873,-35529.885216,-3677.258390,10807.006753
1356.921184,-31236.690752,-4903.011187,12953.603985
1356.921496,-21317.931130,-2911.162892,10658.965565
1356.921808,-10510.924376,-3064.381992,5107.421000
1356.922119,1554.432478,76.609550,-2442.679609
1356.922431,11991.336260,3600.648841,-9400.615463
1356.922742,17172.777854,4596.572988,-11399.171507
1356.923054,14434.015869,3983.696590,-11547.212695
1356.923366,6217.729913,2374.896044,-9918.759623
1356.923677,-5551.544565,2451.505594,-6365.771101
1356.923989,-19393.395680,2987.772442,-444.123565
1356.924300,-28423.908173,1838.629195,5551.544565
1356.924612,-33161.226202,-1149.143247,9918.759623
1356.924924,-31754.834912,-2834.553343,11695.253884
1356.925235,-24944.940245,-1838.629195,11325.150913
1356.925547,-14508.036463,-2681.334243,7105.977043
1356.925859,148.041188,-3447.429741,962.267725
1356.926170,8586.388927,842.705048,-6217.729913
1356.926482,14952.160028,3753.867940,-10066.800811
1356.926793,15470.304188,3447.429741,-9474.636058
1356.927105,9030.512492,383.047749,-9474.636058
1356.927417,-2072.576638,76.609550,-6439.791695
1356.927728,-16210.510130,1838.629195,-1998.556043
1356.928040,-26425.352129,2757.943793,4293.194464
1356.928351,-31976.896694,1225.752797,9548.656652
1356.928663,-32643.082042,-3524.039291,11621.233289
1356.928975,-23982.672521,-4903.011187,12953.603985
1356.929286,-16284.530724,-4826.401637,9770.718434
1356.929598,-5033.400406,-2911.162892,4663.297435
1356.929909,5921.647536,0.000000,-2368.659014
1356.930221,12583.501014,3217.601092,-8660.409521
1356.930533,15248.242405,3677.258390,-8808.450710
1356.930844,10510.924376,2068.457845,-9326.594869
1356.931156,2442.679609,689.485948,-7105.977043
1356.931468,-9548.656652,1225.752797,-3034.844362
1356.931779,-22354.219448,2221.676944,2886.803174
1356.932091,-29312.155303,689.485948,8068.244768
1356.932402,-31902.876100,-2757.943793,10732.986159
1356.932714,-29386.175897,-3524.039291,12361.439231
1356.933026,-19837.519246,-3447.429741,11769.274478
1356.933337,-9918.759623,-5209.449386,6291.750507
1356.933649,592.164754,-3600.648841,444.123565
1356.933960,10288.862594,842.705048,-5551.544565
1356.934272,14359.995275,3600.648841,-8734.430116
1356.934584,13323.706956,2221.676944,-9178.553681
1356.934895,5921.647536,766.095498,-7772.162391
1356.935207,-5255.462188,612.876398,-5403.503377
1356.935519,-18283.086767,2911.162892,296.082377
1356.935830,-27905.764013,1762.019645,5921.647536
1356.936142,-32124.937883,-1378.971896,10362.883188
1356.936453,-32050.917289,-3983.696590,11399.171507
1356.936765,-26055.249158,-2374.896044,11547.212695
1356.937077,-14285.974681,-2604.724693,7402.059420
1356.937388,0.000000,-2451.505594,1702.473667
1356.937700,8956.491898,459.657299,-5181.441594
1356.938011,14878.139434,2221.676944,-9696.697840
1356.938323,13841.851115,1762.019645,-9918.759623
1356.938635,9474.636058,1532.190996,-9474.636058
1356.938946,-2886.803174,1302.362347,-7105.977043
1356.939258,-15544.324782,2834.553343,-1702.473667
1356.939569,-24648.857869,3370.820191,2664.741391
1356.939881,-31902.876100,0.000000,7624.121203
1356.940193,-31680.814318,-1915.238745,9844.739029
1356.940504,-23760.610738,-1378.971896,10732.986159
1356.940816,-16580.613101,-2604.724693,8438.347739
1356.941128,-6365.771101,-3753.867940,4737.318029
1356.941439,5329.482782,-229.828649,-2812.782580
1356.941751,13175.665768,2451.505594,-8438.347739
1356.942062,15914.427753,4290.134789,-9696.697840
1356.942374,10288.862594,2298.286494,-10881.027347
1356.942686,666.185348,-153.219100,-9400.615463
1356.942997,-12065.356855,1302.362347,-5181.441594
1356.943309,-24056.693115,3140.991542,296.082377
1356.943620,-32272.979071,2374.896044,5403.503377
1356.943932,-34419.576303,-1225.752797,9474.636058
1356.944244,-31088.649564,-3217.601092,11251.130318
1356.944555,-21169.889941,-3217.601092,9696.697840
1356.944867,-9474.636058,-3677.258390,5329.482782
1356.945178,1998.556043,-1685.410096,-888.247130
1356.945490,11399.171507,1608.800546,-5625.565159
1356.945802,15692.365970,2911.162892,-8512.368333
1356.946113,13027.624579,1915.238745,-8956.491898
1356.946425,4515.256246,-306.438199,-8364.327145
1356.946737,-7402.059420,2068.457845,-5921.647536
1356.947048,-19763.498651,3064.381992,-1036.288319
1356.947360,-27831.743419,2834.553343,4441.235652
1356.947671,-31606.793723,-612.876398,9178.553681
1356.947983,-29978.340651,-3370.820191,11547.212695
1356.948295,-24056.693115,-3217.601092,11695.253884
1356.948606,-13841.851115,-4136.915689,9326.594869
1356.948918,222.061783,-3753.867940,4589.276840
1356.949229,9104.533087,459.657299,-3108.864956
1356.949541,15840.407159,2451.505594,-7402.059420
1356.949853,17616.901420,2681.334243,-8586.388927
1356.950164,10955.047942,-153.219100,-9400.615463
1356.950476,-1924.535449,0.000000,-6809.894666
1356.950787,-15470.304188,2451.505594,-2738.761985
1356.951099,-26425.352129,4060.306139,3330.926739
1356.951411,-33679.370361,229.828649,8808.450710
1356.951722,-33827.411549,-5056.230287,12139.377449
1356.952034,-25907.207970,-6358.592633,12805.562797
1356.952346,-16210.510130,-3983.696590,10881.027347
1356.952657,-5181.441594,-2987.772442,5921.647536
1356.952969,5995.668130,-766.095498,-0.000000
1356.953280,13693.809927,2145.067394,-7105.977043
1356.953592,16506.592507,2757.943793,-8586.388927
1356.953904,11695.253884,3294.210641,-9548.656652
1356.954215,2220.617826,2834.553343,-8956.491898
1356.954527,-10955.047942,3217.601092,-5181.441594
1356.954838,-23168.445985,2451.505594,888.247130
1356.955150,-29904.320057,229.828649,6957.935855
1356.955462,-32939.164419,-3217.601092,10510.924376
1356.955773,-29682.258274,-3600.648841,12065.356855
1356.956085,-21984.116477,-5132.839837,10658.965565
1356.956397,-9622.677246,-5132.839837,6587.832884
1356.956708,2368.659014,-2451.505594,-74.020594
1356.957020,11547.212695,1532.190996,-4737.318029
1356.957331,16062.468941,2987.772442,-9474.636058
1356.957643,14952.160028,2451.505594,-9474.636058
1356.957955,6143.709319,1685.410096,-9474.636058
1356.958266,-5847.626942,1762.019645,-7031.956449
1356.958578,-19467.416275,3524.039291,-1702.473667
1356.958889,-28942.052332,3140.991542,4145.153275
1356.959201,-33901.432144,-536.266849,9844.739029
1356.959513,-32643.082042,-4213.525239,11399.171507
1356.959824,-23686.590144,-2987.772442,10658.965565
1356.960136,-14211.954086,-2451.505594,7105.977043
1356.960447,-814.226536,-995.924147,2516.700203
1356.960759,8438.347739,1225.752797,-4145.153275
1356.961071,14285.974681,2298.286494,-9252.574275
1356.961382,14582.057057,1991.848295,-9770.718434
1356.961694,8734.430116,1302.362347,-10066.800811
1356.962006,-2442.679609,2145.067394,-8364.327145
1356.962317,-16062.468941,3294.210641,-3849.070898
1356.962629,-26647.413912,3294.210641,1776.494261
1356.962940,-33013.185013,1838.629195,7031.956449
1356.963252,-33901.432144,-1302.362347,9992.780217
1356.963564,-26721.434506,-2987.772442,11917.315666
1356.963875,-16062.468941,-2604.724693,9696.697840
1356.964187,-6143.709319,-3600.648841,4811.338623
1356.964498,5995.668130,-919.314598,-1702.473667
1356.964810,15766.386565,2068.457845,-7476.080014
1356.965122,17987.004391,3677.258390,-10066.800811
1356.965433,11547.212695,1302.362347,-10362.883188
1356.965745,1628.453072,0.000000,-8734.430116
1356.966056,-12065.356855,0.000000,-4737.318029
1356.966368,-23834.631332,1532.190996,1332.370696
1356.966680,-31014.628970,76.609550,7105.977043
1356.966991,-32643.082042,-3294.210641,11399.171507
1356.967303,-29830.299463,-4519.963438,12509.480420
1356.967615,-20355.663405,-4060.306139,10658.965565
1356.967926,-8438.347739,-3217.601092,6439.791695
1356.968238,2368.659014,-766.095498,-444.123565
1356.968549,11769.274478,2145.067394,-5551.544565
1356.968861,16210.510130,3370.820191,-9696.697840
1356.969173,13841.851115,1915.238745,-9326.594869
1356.969484,5921.647536,383.047749,-7994.224174
1356.969796,-5921.647536,612.876398,-5107.421000
1356.970107,-19837.519246,2068.457845,-592.164754
1356.970419,-29238.134709,1608.800546,5255.462188
1356.970731,-33235.246796,-1149.143247,10140.821405
1356.971042,-31902.876100,-3217.601092,11991.336260
1356.971354,-25463.084405,-2451.505594,11473.192101
1356.971665,-13175.665768,-3217.601092,7994.224174
1356.971977,666.185348,-3677.258390,3182.885551
1356.972288,9548.656652,-383.047749,-2738.761985
1356.972600,14804.118840,1455.581446,-8438.347739
1356.972911,15470.304188,1915.238745,-8068.244768
1356.973223,8956.491898,0.000000,-8956.491898
1356.973534,-2960.823768,459.657299,-7402.059420
1356.973846,-16284.530724,2221.676944,-2960.823768
1356.974158,-26055.249158,2604.724693,2738.761985
1356.974469,-31606.793723,-383.047749,8216.285956
1356.974781,-32791.123231,-3753.867940,10955.047942
1356.975092,-25092.981434,-3830.477490,11843.295072
1356.975404,-17246.798449,-4136.915689,9548.656652
1356.975715,-5921.647536,-3370.820191,5995.668130
1356.976027,5625.565159,-536.266849,-1036.288319
1356.976338,13027.624579,1608.800546,-7476.080014
1356.976650,15322.262999,2681.334243,-9770.718434
1356.976961,11547.212695,2145.067394,-10436.903782
1356.977273,1332.370696,2068.457845,-9548.656652
1356.977585,-10658.965565,3447.429741,-5625.565159
1356.977896,-22724.322419,3524.039291,-0.000000
1356.978208,-30200.402434,2221.676944,5773.606348
1356.978519,-32791.123231,-1149.143247,10140.821405
1356.978831,-29608.237680,-1762.019645,11547.212695
1356.979142,-21169.889941,-1915.238745,9918.759623
1356.979454,-8586.388927,-3217.601092,5033.400406
1356.979765,3256.906145,-1225.752797,-1998.556043
1356.980077,12139.377449,1915.238745,-6661.853478
1356.980388,15766.386565,3830.477490,-10807.006753
1356.980700,13841.851115,2145.067394,-10584.944971
1356.981012,3552.988522,0.000000,-9844.739029
1356.981323,-8142.265362,229.828649,-6439.791695
1356.981635,-20207.622217,1915.238745,-962.267725
1356.981946,-29534.217086,1608.800546,4663.297435
1356.982258,-33161.226202,-1608.800546,9918.759623
1356.982569,-31458.752535,-4060.306139,11103.089130
1356.982881,-25092.981434,-2987.772442,10955.047942
1356.983192,-12805.562797,-1838.629195,7772.162391
1356.983504,0.000000,-1685.410096,1998.556043
1356.983815,7772.162391,0.000000,-3701.029710
1356.984127,13767.830521,2068.457845,-8660.409521
1356.984439,13249.686362,2451.505594,-9474.636058
1356.984750,7179.997637,1685.410096,-9326.594869
1356.985062,-3775.050304,1225.752797,-6439.791695
1356.985373,-16284.530724,1838.629195,-2738.761985
1356.985685,-24426.796086,2604.724693,2368.659014
1356.985996,-30570.505405,0.000000,7772.162391
1356.986308,-30792.567187,-2451.505594,11029.068536
1356.986619,-23686.590144,-3140.991542,11769.274478
1356.986931,-15544.324782,-3753.867940,9992.780217
1356.987242,-5403.503377,-3600.648841,6883.915261
1356.987554,6217.729913,-1072.533697,-518.144159
1356.987865,13767.830521,919.314598,-5699.585753
1356.988177,16284.530724,1991.848295,-8142.265362
1356.988489,11177.109724,153.219100,-9400.615463
1356.988800,1702.473667,0.000000,-8142.265362
1356.989112,-11251.130318,766.095498,-3923.091493
1356.989423,-23982.672521,612.876398,1480.411884
1356.989735,-31310.711347,-689.485948,7550.100608
1356.990046,-33383.287984,-2834.553343,11547.212695
1356.990358,-30200.402434,-3217.601092,12139.377449
1356.990669,-20577.725188,-2374.896044,11177.109724
1356.990981,-8808.450710,-3753.867940,7105.977043
1356.991292,2886.803174,-1762.019645,814.226536
1356.991604,12065.356855,1378.971896,-4737.318029
1356.991916,15470.304188,2911.162892,-8882.471304
1356.992227,12731.542202,2987.772442,-9992.780217
1356.992539,4959.379811,2604.724693,-9030.512492
1356.992850,-6661.853478,2298.286494,-5921.647536
1356.993162,-18801.230927,2604.724693,-888.247130
1356.993473,-27461.640448,1225.752797,4441.235652
1356.993785,-31976.896694,-1762.019645,9474.636058
1356.994096,-30422.464216,-2911.162892,11473.192101
1356.994408,-23982.672521,-1685.410096,10955.047942
1356.994719,-13767.830521,-2911.162892,7920.203579
1356.995031,0.000000,-4060.306139,2960.823768
1356.995343,8290.306550,-612.876398,-4811.338623
1356.995654,13989.892304,2681.334243,-9400.615463
1356.995966,14656.077652,3294.210641,-10288.862594
1356.996277,8512.368333,689.485948,-10658.965565
1356.996589,-3404.947333,-995.924147,-7328.038826
1356.996900,-15618.345376,-689.485948,-2516.700203
1356.997212,-25981.228564,689.485948,3627.009116
1356.997523,-32569.061448,-153.219100,8216.285956
1356.997835,-32717.102636,-1991.848295,10658.965565
1356.998146,-25167.002028,-2298.286494,11325.150913
1356.998458,-15100.201217,-1608.800546,8364.327145
1356.998770,-5033.400406,0.000000,3330.926739
1356.999081,5995.668130,1685.410096,-2368.659014
1356.999393,12731.542202,4290.134789,-9178.553681
1356.999704,14878.139434,4519.963438,-9770.718434
1357.000016,9104.533087,3370.820191,-10584.944971
1357.000327,74.020594,1302.362347,-9104.533087
1357.000639,-12287.418637,1838.629195,-5033.400406
1357.000950,-23168.445985,3140.991542,592.164754
1357.001262,-30422.464216,1685.410096,5921.647536
1357.001573,-32421.020260,-2221.676944,9918.759623
1357.001885,-29238.134709,-3753.867940,12361.439231
1357.002196,-19985.560434,-3140.991542,11325.150913
1357.002508,-9104.533087,-4903.011187,6513.812290
1357.002820,2072.576638,-2528.115143,666.185348
1357.003131,11695.253884,383.047749,-4515.256246
1357.003443,15100.201217,2451.505594,-9326.594869
1357.003754,12953.603985,1455.581446,-9548.656652
1357.004066,4589.276840,0.000000,-9252.574275
1357.004377,-6439.791695,-536.266849,-5477.523971
1357.004689,-17764.942608,612.876398,148.041188
1357.005000,-27535.661042,-995.924147,4885.359217
1357.005312,-31236.690752,-3600.648841,10288.862594
1357.005623,-28794.011144,-5286.058936,11917.315666
1357.005935,-23020.404796,-3447.429741,10807.006753
1357.006247,-12805.562797,-3677.258390,7698.141797
1357.006558,-444.123565,-3830.477490,3478.967927
1357.006870,7105.977043,-1915.238745,-3627.009116
1357.007181,11917.315666,536.266849,-7920.203579
1357.007493,12953.603985,1608.800546,-7994.224174
1357.007804,8290.306550,-612.876398,-8512.368333
1357.008116,-518.144159,-2451.505594,-5477.523971
1357.008427,-11843.295072,-3294.210641,-2072.576638
1357.008739,-21465.972318,-2911.162892,2368.659014
1357.009050,-29238.134709,-3217.601092,8068.244768
1357.009362,-31976.896694,-3753.867940,10288.862594
1357.009674,-26647.413912,-3600.648841,11325.150913
1357.009985,-19689.478057,-4903.011187,9326.594869
1357.010297,-7846.182985,-5898.935335,7476.080014
1357.010608,2220.617826,-4903.011187,-222.061783
1357.010920,9918.759623,-3217.601092,-5699.585753
1357.011231,13619.789333,-1378.971896,-8438.347739
1357.011543,12065.356855,-1608.800546,-10140.821405
1357.011854,4885.359217,-2757.943793,-8660.409521
1357.012166,-6365.771101,-3524.039291,-4959.379811
1357.012477,-16728.654289,-3677.258390,222.061783
1357.012789,-25981.228564,-6128.763984,5699.585753
1357.013101,-29978.340651,-8120.612279,9474.636058
1357.013412,-28275.866984,-7354.516781,10658.965565
1357.013724,-22946.384202,-4136.915689,8808.450710
1357.014035,-15692.365970,-3064.381992,5699.585753
1357.014347,-4737.318029,-1991.848295,666.185348
1357.014658,3182.885551,229.828649,-4959.379811
1357.014970,8808.450710,995.924147,-7254.018232
1357.015281,9474.636058,306.438199,-7698.141797
1357.015593,5551.544565,-2451.505594,-8290.306550
1357.015904,-2072.576638,-3140.991542,-5995.668130
1357.016216,-11473.192101,-1225.752797,-2368.659014
1357.016528,-19615.457463,-2911.162892,2368.659014
1357.016839,-24426.796086,-5362.668486,7105.977043
1357.017151,-27387.619854,-5515.887586,8512.368333
1357.017462,-24500.816680,-4673.182538,8660.409521
1357.017774,-14804.118840,-4290.134789,4589.276840
1357.018085,-5255.462188,-3983.696590,1184.329507
1357.018397,2812.782580,-2145.067394,-4367.215058
1357.018708,6957.935855,-1378.971896,-7846.182985
1357.019020,6143.709319,612.876398,-8142.265362
1357.019331,1554.432478,459.657299,-6365.771101
1357.019643,-5625.565159,-612.876398,-3256.906145
1357.019954,-12065.356855,-2451.505594,1184.329507
1357.020266,-17616.901420,-3753.867940,3108.864956
1357.020578,-20281.642811,-5439.278036,6069.688724
1357.020889,-20133.601622,-5822.325785,7031.956449
1357.021201,-18801.230927,-4673.182538,5921.647536
1357.021512,-12953.603985,-4213.525239,3849.070898
1357.021824,-6439.791695,-3907.087040,2812.782580
1357.022135,-3552.988522,-3983.696590,666.185348
1357.022447,-814.226536,-2374.896044,-2516.700203
1357.022758,518.144159,-383.047749,-3849.070898
1357.023070,148.041188,383.047749,-5107.421000
1357.023381,-3404.947333,-842.705048,-4589.276840
1357.023693,-7550.100608,-1072.533697,-1998.556043
1357.024005,-11621.233289,-1149.143247,-148.041188
1357.024316,-15174.221811,-3064.381992,3330.926739
1357.024628,-17394.839637,-5056.230287,5847.626942
1357.024939,-17690.922014,-5362.668486,7031.956449
1357.025251,-13693.809927,-5515.887586,6069.688724
1357.025562,-9178.553681,-4979.620737,4367.215058
1357.025874,-6735.874072,-3447.429741,1258.350101
1357.026185,-3182.885551,-2374.896044,-2072.576638
1357.026497,-1036.288319,1225.752797,-3849.070898
1357.026808,-1702.473667,2145.067394,-4737.318029
1357.027120,-3997.112087,1072.533697,-3701.029710
1357.027432,-7624.121203,0.000000,-1776.494261
1357.027743,-10214.842000,-1378.971896,1036.288319
1357.028055,-12731.542202,-3524.039291,3404.947333
1357.028366,-14804.118840,-5745.716235,5329.482782
1357.028678,-15766.386565,-6741.640382,5625.565159
1357.028989,-14137.933492,-6741.640382,4663.297435
1357.029301,-9992.780217,-5592.497135,3108.864956
1357.029612,-7920.203579,-4290.134789,740.205942
1357.029924,-5181.441594,-3600.648841,-1628.453072
1357.030235,-3182.885551,-2145.067394,-2960.823768
1357.030547,-2442.679609,-1302.362347,-3701.029710
1357.030859,-3330.926739,-1991.848295,-2590.720797
1357.031170,-5847.626942,-2451.505594,-1110.308913
1357.031482,-10214.842000,-2681.334243,-0.000000
1357.031793,-12361.439231,-2834.553343,2368.659014
1357.032105,-14285.974681,-3447.429741,3256.906145
1357.032416,-13397.727550,-2987.772442,3330.926739
1357.032728,-12361.439231,-3140.991542,2294.638420
1357.033039,-10436.903782,-3524.039291,1554.432478
1357.033351,-8216.285956,-3830.477490,444.123565
1357.033662,-6439.791695,-3064.381992,-1258.350101
1357.033974,-6069.688724,-1685.410096,-2590.720797
1357.034285,-4663.297435,-612.876398,-2812.782580
1357.034597,-6957.935855,-1685.410096,-3552.988522
1357.034909,-7920.203579,-2451.505594,-2146.597232
1357.035220,-8364.327145,-2451.505594,-962.267725
1357.035532,-10732.986159,-3983.696590,1110.308913
1357.035843,-13693.809927,-6128.763984,3627.009116
1357.036155,-16876.695478,-7354.516781,3478.967927
1357.036466,-14952.160028,-5209.449386,4219.173869
1357.036778,-12435.459826,-2757.943793,3552.988522
1357.037089,-9474.636058,-2451.505594,2220.617826
1357.037401,-7105.977043,-2757.943793,-370.102971
1357.037712,-4515.256246,-2528.115143,-1406.391290
1357.038024,-3478.967927,-995.924147,-1850.514855
1357.038336,-5403.503377,766.095498,-1406.391290
1357.038647,-9474.636058,383.047749,-592.164754
1357.038959,-10732.986159,-612.876398,1184.329507
1357.039270,-11843.295072,-2451.505594,2664.741391
1357.039582,-11473.192101,-2451.505594,4959.379811
1357.039893,-11399.171507,-2374.896044,4737.318029
1357.040205,-10807.006753,-3524.039291,5255.462188
1357.040516,-8808.450710,-4519.963438,5403.503377
1357.040828,-7994.224174,-3830.477490,4663.297435
1357.041139,-5699.585753,-842.705048,4441.235652
1357.041451,-7476.080014,766.095498,2590.720797
1357.041763,-6957.935855,1455.581446,3034.844362
1357.042074,-4885.359217,1685.410096,962.267725
1357.042386,-5625.565159,2834.553343,2072.576638
1357.042697,-6661.853478,2451.505594,2664.741391
1357.043009,-8586.388927,0.000000,3552.988522
1357.043320,-10881.027347,-2298.286494,4885.359217
1357.043632,-9178.553681,-1225.752797,7254.018232
1357.043943,-11251.130318,-2604.724693,6143.709319
1357.044255,-11843.295072,-2451.505594,8142.265362
1357.044566,-10140.821405,-1608.800546,7846.182985
1357.044878,-7550.100608,-1225.752797,6069.688724
1357.045190,-5403.503377,-153.219100,4959.379811
1357.045501,-6365.771101,2068.457845,2738.761985
1357.045813,-5551.544565,2911.162892,2590.720797
1357.046124,-6291.750507,2451.505594,1258.350101
1357.046436,-7476.080014,1991.848295,3182.885551
1357.046747,-10066.800811,1991.848295,3775.050304
1357.047059,-11547.212695,536.266849,5921.647536
1357.047370,-10732.986159,-1072.533697,7031.956449
1357.047682,-9252.574275,-1915.238745,7476.080014
1357.047993,-8364.327145,-2221.676944,7179.997637
1357.048305,-7402.059420,-2451.505594,6513.812290
1357.048616,-7846.182985,-2221.676944,5033.400406
1357.048928,-6587.832884,459.657299,3923.091493
1357.049240,-7031.956449,2451.505594,2812.782580
1357.049551,-7920.203579,3600.648841,1480.411884
1357.049863,-8808.450710,2834.553343,2146.597232
1357.050174,-9030.512492,2451.505594,2442.679609
1357.050486,-8734.430116,1762.019645,3108.864956
1357.050797,-9548.656652,-995.924147,4737.318029
1357.051109,-9696.697840,-2911.162892,5625.565159
1357.051420,-9400.615463,-3524.039291,5255.462188
1357.051732,-7920.203579,-3064.381992,4811.338623
1357.052043,-8142.265362,-2451.505594,4293.194464
1357.052355,-8512.368333,-1685.410096,3478.967927
1357.052667,-8290.306550,-919.314598,1776.494261
1357.052978,-8142.265362,689.485948,962.267725
1357.053290,-7402.059420,1378.971896,-222.061783
1357.053601,-8512.368333,2221.676944,-148.041188
1357.053913,-9030.512492,1762.019645,-0.000000
1357.054224,-9770.718434,1149.143247,592.164754
1357.054536,-10362.883188,842.705048,2072.576638
1357.054847,-11547.212695,919.314598,3330.926739
1357.055159,-11695.253884,0.000000,4219.173869
1357.055470,-10584.944971,-2221.676944,4219.173869
1357.055782,-9030.512492,-2145.067394,4219.173869
1357.056094,-7994.224174,-1762.019645,3552.988522
1357.056405,-7105.977043,-1225.752797,1924.535449
1357.056717,-6587.832884,-153.219100,-74.020594
1357.057028,-6069.688724,1378.971896,-1258.350101
1357.057340,-6587.832884,2068.457845,-2072.576638
1357.057651,-8068.244768,2145.067394,-962.267725
1357.057963,-10436.903782,76.609550,962.267725
1357.058274,-12805.562797,-229.828649,3108.864956
1357.058586,-15100.201217,-919.314598,5625.565159
1357.058897,-15100.201217,-2145.067394,6809.894666
1357.059209,-13693.809927,-2604.724693,6883.915261
1357.059521,-10362.883188,-2757.943793,5477.523971
1357.059832,-5847.626942,-1608.800546,2960.823768
1357.060144,-2590.720797,-1991.848295,-0.000000
1357.060455,-666.185348,-459.657299,-666.185348
1357.060767,-3256.906145,459.657299,-740.205942
1357.061078,-8068.244768,995.924147,1406.391290
1357.061390,-12361.439231,689.485948,4071.132681
1357.061701,-15026.180623,153.219100,6439.791695
1357.062013,-15100.201217,-383.047749,8068.244768
1357.062324,-12361.439231,-612.876398,7550.100608
1357.062636,-8808.450710,-536.266849,6661.853478
1357.062947,-5625.565159,-1149.143247,4589.276840
1357.063259,-3775.050304,-459.657299,3034.844362
1357.063571,-3330.926739,766.095498,2220.617826
1357.063882,-4071.132681,919.314598,1776.494261
1357.064194,-6809.894666,1991.848295,1924.535449
1357.064505,-9548.656652,2911.162892,3478.967927
1357.064817,-12213.398043,2604.724693,3997.112087
1357.065128,-11473.192101,2298.286494,5477.523971
1357.065440,-9844.739029,383.047749,5329.482782
1357.065751,-8068.244768,-1762.019645,4959.379811
1357.066063,-6513.812290,-1915.238745,5329.482782
1357.066374,-6587.832884,-1302.362347,4737.318029
1357.066686,-7994.224174,76.609550,6217.729913
1357.066998,-10658.965565,536.266849,7105.977043
1357.067309,-12139.377449,612.876398,8364.327145
1357.067621,-11029.068536,919.314598,7772.162391
1357.067932,-8438.347739,1455.581446,5625.565159
1357.068244,-4885.359217,2298.286494,3182.885551
1357.068555,-2590.720797,3217.601092,-0.000000
1357.068867,-2590.720797,3294.210641,-1332.370696
1357.069178,-4737.318029,2298.286494,-1036.288319
1357.069490,-8734.430116,2221.676944,1332.370696
1357.069801,-11843.295072,459.657299,4367.215058
1357.070113,-14508.036463,-1608.800546,7328.038826
1357.070425,-15988.448347,-3830.477490,8882.471304
1357.070736,-14508.036463,-4060.306139,9400.615463
1357.071048,-10955.047942,-3294.210641,8216.285956
1357.071359,-7402.059420,-1762.019645,5255.462188
1357.071671,-4737.318029,-383.047749,2368.659014
1357.071982,-2812.782580,1915.238745,-740.205942
1357.072294,-1480.411884,3983.696590,-2072.576638
1357.072605,-2516.700203,3753.867940,-2442.679609
1357.072917,-4959.379811,2757.943793,-1332.370696
1357.073228,-7772.162391,1072.533697,-0.000000
1357.073540,-9696.697840,0.000000,1850.514855
1357.073851,-12139.377449,-1072.533697,3182.885551
1357.074163,-13397.727550,-1838.629195,3108.864956
1357.074475,-13397.727550,-995.924147,2294.638420
1357.074786,-11621.233289,-383.047749,1184.329507
1357.075098,-10288.862594,153.219100,-148.041188
1357.075409,-9622.677246,766.095498,148.041188
1357.075721,-9178.553681,153.219100,370.102971
1357.076032,-7994.224174,0.000000,592.164754
1357.076344,-6587.832884,-612.876398,-222.061783
1357.076655,-4811.338623,-919.314598,-1184.329507
1357.076967,-4367.215058,-766.095498,-2664.741391
1357.077278,-5329.482782,-842.705048,-3701.029710
1357.077590,-7698.141797,-766.095498,-3404.947333
1357.077901,-11473.192101,-919.314598,-2146.597232
1357.078213,-15840.407159,-919.314598,518.144159
1357.078524,-19319.375086,-1149.143247,2516.700203
1357.078836,-19837.519246,-1149.143247,3775.050304
1357.079147,-16876.695478,153.219100,3849.070898
1357.079459,-13471.748144,1149.143247,2072.576638
1357.079770,-8290.306550,2068.457845,-0.000000
1357.080082,-2886.803174,1685.410096,-3034.844362
1357.080393,814.226536,1915.238745,-5181.441594
1357.080705,2442.679609,995.924147,-6069.688724
1357.081016,-222.061783,0.000000,-5477.523971
1357.081328,-5033.400406,-612.876398,-3256.906145
1357.081640,-9844.739029,-1149.143247,-0.000000
1357.081951,-15544.324782,-2068.457845,3404.947333
1357.082263,-19245.354492,-3294.210641,5107.421000
1357.082574,-20133.601622,-2374.896044,5551.544565
1357.082886,-17394.839637,-229.828649,4663.297435
1357.083197,-12065.356855,1225.752797,3701.029710
1357.083509,-6883.915261,1455.581446,1110.308913
1357.083820,-1850.514855,306.438199,-1480.411884
1357.084132,2072.576638,459.657299,-3108.864956
1357.084443,4293.194464,1378.971896,-2664.741391
1357.084755,1258.350101,1378.971896,-3701.029710
1357.085066,-4441.235652,536.266849,-2516.700203
1357.085378,-9844.739029,0.000000,-222.061783
1357.085689,-15544.324782,-1378.971896,2220.617826
1357.086001,-19097.313304,-1838.629195,4219.173869
1357.086312,-19911.539840,-766.095498,5033.400406
1357.086624,-17542.880825,-689.485948,4811.338623
1357.086935,-13027.624579,459.657299,3923.091493
1357.087247,-8882.471304,1685.410096,2294.638420
1357.087558,-4367.215058,1991.848295,1480.411884
1357.087870,-1110.308913,1762.019645,-0.000000
1357.088181,1110.308913,1302.362347,-814.226536
1357.088493,0.000000,1838.629195,-2516.700203
1357.088805,-2442.679609,1915.238745,-3701.029710
1357.089116,-5403.503377,766.095498,-4145.153275
1357.089428,-9992.780217,459.657299,-2294.638420
1357.089739,-14730.098246,-919.314598,666.185348
1357.090051,-19393.395680,-2298.286494,3627.009116
1357.090362,-21910.095883,-2374.896044,5847.626942
1357.090674,-19615.457463,-1072.533697,7698.141797
1357.090985,-15840.407159,306.438199,7550.100608
1357.091297,-10288.862594,0.000000,5995.668130
1357.091608,-2590.720797,76.609550,2812.782580
1357.091920,3182.885551,1991.848295,-1258.350101
1357.092231,7254.018232,2757.943793,-4589.276840
1357.092543,5625.565159,2987.772442,-6291.750507
1357.092854,444.123565,1838.629195,-6217.729913
1357.093166,-6291.750507,153.219100,-3404.947333
1357.093477,-14211.954086,-1991.848295,370.102971
1357.093789,-21465.972318,-2451.505594,4441.235652
1357.094100,-26351.331535,-1685.410096,7254.018232
1357.094412,-25537.104999,-1915.238745,9178.553681
1357.094723,-20503.704593,-1378.971896,8438.347739
1357.095035,-11547.212695,-766.095498,6143.709319
1357.095346,-1554.432478,0.000000,1924.535449
1357.095658,6439.791695,919.314598,-2442.679609
1357.095969,11695.253884,1532.190996,-6883.915261
1357.096281,9992.780217,2681.334243,-8290.306550
1357.096593,3701.029710,3064.381992,-7846.182985
1357.096904,-5403.503377,536.266849,-4885.359217
1357.097216,-15026.180623,-1455.581446,-888.247130
1357.097527,-22724.322419,-2451.505594,3330.926739
1357.097839,-27979.784608,-2528.115143,5995.668130
1357.098150,-27609.681637,-2681.334243,7476.080014
1357.098462,-20947.828159,-2145.067394,6291.750507
1357.098773,-12731.542202,-306.438199,3627.009116
1357.099085,-4515.256246,-612.876398,518.144159
1357.099396,3256.906145,459.657299,-2072.576638
1357.099708,7550.100608,1302.362347,-5847.626942
1357.100019,8660.409521,2145.067394,-7402.059420
1357.100331,4663.297435,1915.238745,-8882.471304
1357.100642,-3182.885551,995.924147,-7402.059420
1357.100954,-12583.501014,306.438199,-4145.153275
1357.101265,-20577.725188,-1838.629195,592.164754
1357.101577,-26795.455100,-3830.477490,3478.967927
1357.101888,-28868.031738,-4519.963438,5181.441594
1357.102200,-25241.022622,-2757.943793,5551.544565
1357.102511,-18949.272115,-919.314598,4219.173869
1357.102823,-9918.759623,536.266849,2368.659014
1357.103134,148.041188,919.314598,-888.247130
1357.103446,6883.915261,919.314598,-3997.112087
1357.103758,10881.027347,1685.410096,-5847.626942
1357.104069,8808.450710,1915.238745,-8068.244768
1357.104381,3108.864956,1685.410096,-9104.533087
1357.104692,-5625.565159,995.924147,-6735.874072
1357.105004,-15174.221811,-612.876398,-3330.926739
1357.105315,-24204.734303,-2451.505594,1702.473667
1357.105627,-29386.175897,-3600.648841,6069.688724
1357.105938,-29608.237680,-3217.601092,8438.347739
1357.106250,-24352.775492,-2145.067394,8216.285956
1357.106561,-15396.283594,-306.438199,7105.977043
1357.106873,-4145.153275,383.047749,2590.720797
1357.107184,5921.647536,1532.190996,-2294.638420
1357.107496,13767.830521,2757.943793,-6735.874072
1357.107807,15322.262999,3907.087040,-9548.656652
1357.108119,9326.594869,4596.572988,-10140.821405
1357.108430,-444.123565,2681.334243,-7550.100608
1357.108742,-12361.439231,0.000000,-3330.926739
1357.109053,-23760.610738,-2145.067394,2960.823768
1357.109365,-32495.040854,-3830.477490,7772.162391
1357.109676,-33827.411549,-4136.915689,10955.047942
1357.109988,-29238.134709,-2757.943793,11251.130318
1357.110299,-19467.416275,-306.438199,9622.677246
1357.110611,-6957.935855,995.924147,5847.626942
1357.110923,5255.462188,1302.362347,444.123565
1357.111234,14211.954086,1838.629195,-3701.029710
1357.111546,19097.313304,2145.067394,-7550.100608
1357.111857,15100.201217,3140.991542,-9918.759623
1357.112169,5477.523971,3294.210641,-8956.491898
1357.112480,-7698.141797,1378.971896,-4441.235652
1357.112792,-21910.095883,-1455.581446,1850.514855
1357.113103,-33827.411549,-3907.087040,8660.409521
1357.113415,-38860.811955,-5439.278036,12805.562797
1357.113726,-34419.576303,-4596.572988,15174.221811
1357.114038,-22576.281231,-3294.210641,11547.212695
1357.114349,-7179.997637,-1762.019645,6809.894666
1357.114661,7179.997637,-1225.752797,-444.123565
1357.114972,16876.695478,0.000000,-4219.173869
1357.115284,17542.880825,2987.772442,-9918.759623
1357.115595,11695.253884,6358.592633,-10288.862594
1357.115907,1406.391290,6588.421283,-9696.697840
1357.116218,-9474.636058,3907.087040,-5699.585753
1357.116530,-19985.560434,689.485948,-666.185348
1357.116841,-26351.331535,-3370.820191,4293.194464
1357.117153,-29608.237680,-5898.935335,8142.265362
1357.117464,-29164.114115,-5362.668486,9844.739029
1357.117776,-24870.919651,-2681.334243,8882.471304
1357.118088,-15174.221811,-1762.019645,7698.141797
1357.118399,-5625.565159,-995.924147,3997.112087
1357.118711,5181.441594,2068.457845,-222.061783
1357.119022,13249.686362,2298.286494,-5773.606348
1357.119334,15692.365970,3677.258390,-11473.192101
1357.119645,11695.253884,4443.353888,-11473.192101
1357.119957,1480.411884,3600.648841,-10807.006753
1357.120268,-10955.047942,766.095498,-4737.318029
1357.120580,-22058.137072,-3677.258390,740.205942
1357.120891,-32272.979071,-6358.592633,7105.977043
1357.121203,-35677.926404,-4443.353888,11843.295072
1357.121514,-31532.773129,-4290.134789,12953.603985
1357.121826,-21762.054695,-4060.306139,10881.027347
1357.122137,-8438.347739,-4673.182538,7105.977043
1357.122449,4811.338623,-2374.896044,-0.000000
1357.122760,15470.304188,306.438199,-5847.626942
1357.123072,18209.066173,2528.115143,-12953.603985
1357.123383,15026.180623,5056.230287,-13915.871710
1357.123695,4515.256246,5975.544884,-12065.356855
1357.124006,-8512.368333,2987.772442,-7254.018232
1357.124318,-22798.343014,-919.314598,-148.041188
1357.124629,-32939.164419,-3753.867940,7476.080014
1357.124941,-36492.152941,-3907.087040,11843.295072
1357.125253,-31162.670158,-3524.039291,12805.562797
1357.125564,-23686.590144,-2834.553343,9992.780217
1357.125876,-12657.521608,-1991.848295,5921.647536
1357.126187,2368.659014,995.924147,1998.556043
1357.126499,12805.562797,2987.772442,-5921.647536
1357.126810,16802.674883,3064.381992,-9474.636058
1357.127122,14656.077652,4979.620737,-12583.501014
1357.127433,7402.059420,5515.887586,-10807.006753
1357.127745,-4737.318029,4596.572988,-8660.409521
1357.128056,-18061.024985,1762.019645,-2146.597232
1357.128368,-28719.990550,-1608.800546,3330.926739
1357.128679,-33901.432144,-2681.334243,9770.718434
1357.128991,-33531.329173,-2221.676944,12065.356855
1357.129302,-27239.578666,-3370.820191,12139.377449
1357.129614,-15100.201217,-4366.744339,8290.306550
1357.129925,-1702.473667,-2911.162892,4811.338623
1357.130237,9252.574275,689.485948,-962.267725
1357.130548,16358.551318,919.314598,-4885.359217
1357.130860,14285.974681,2604.724693,-9844.739029
1357.131171,7994.224174,4060.306139,-9178.553681
1357.131483,-1258.350101,4443.353888,-7994.224174
1357.131794,-11843.295072,2451.505594,-2812.782580
1357.132106,-24500.816680,-2221.676944,2368.659014
1357.132418,-32346.999665,-3677.258390,9178.553681
1357.132729,-34123.493926,-4903.011187,13397.727550
1357.133041,-27683.702231,-3907.087040,13915.871710
1357.133352,-19615.457463,-3217.601092,12879.583391
1357.133664,-7328.038826,-3140.991542,9696.697840
1357.133975,6587.832884,0.000000,4367.215058
1357.134287,16062.468941,1991.848295,-3849.070898
1357.134598,18357.107362,2604.724693,-8512.368333
1357.134910,14137.933492,5975.544884,-11695.253884
1357.135221,4959.379811,5975.544884,-10214.842000
1357.135533,-7105.977043,5132.839837,-6365.771101
1357.135844,-20059.581028,1762.019645,-0.000000
1357.136156,-30200.402434,-2374.896044,6143.709319
1357.136467,-34863.699868,-2757.943793,12805.562797
1357.136779,-32569.061448,-2374.896044,14434.015869
1357.137090,-25611.125593,-2528.115143,13767.830521
1357.137402,-12065.356855,-3600.648841,9622.677246
1357.137713,2812.782580,-3524.039291,5921.647536
1357.138025,13767.830521,1225.752797,-3478.967927
1357.138336,21169.889941,1225.752797,-9030.512492
1357.138648,16876.695478,3600.648841,-12287.418637
1357.138959,7105.977043,5362.668486,-10362.883188
1357.139271,-6661.853478,4366.744339,-7994.224174
1357.139582,-20207.622217,1685.410096,-148.041188
1357.139894,-31680.814318,-3140.991542,4885.359217
1357.140206,-35529.885216,-4749.792088,10214.842000
1357.140517,-33013.185013,-3677.258390,11843.295072
1357.140829,-22576.281231,-2987.772442,10510.924376
1357.141140,-12731.542202,-3140.991542,8290.306550
1357.141452,-2368.659014,-3600.648841,4737.318029
1357.141763,9104.533087,229.828649,-74.020594
1357.142075,15174.221811,1302.362347,-6513.812290
1357.142386,13545.768739,1608.800546,-10807.006753
1357.142698,9400.615463,4443.353888,-13249.686362
1357.143009,222.061783,5822.325785,-12213.398043
1357.143321,-12657.521608,5286.058936,-7031.956449
1357.143632,-25241.022622,-153.219100,148.041188
1357.143944,-34493.596897,-2911.162892,5033.400406
1357.144255,-36640.194129,-1378.971896,9474.636058
1357.144567,-32421.020260,-689.485948,9400.615463
1357.144878,-22058.137072,-842.705048,8068.244768
1357.145190,-7031.956449,-2987.772442,2294.638420
1357.145501,8216.285956,-689.485948,-1258.350101
1357.145813,14656.077652,1991.848295,-6513.812290
1357.146124,15618.345376,1072.533697,-9030.512492
1357.146436,9696.697840,1915.238745,-11325.150913
1357.146747,1258.350101,3753.867940,-10214.842000
1357.147059,-10436.903782,4519.963438,-7698.141797
1357.147371,-20355.663405,842.705048,-1554.432478
