#time,accel_x,accel_y,accel_z
1165.749599,-9104.533087,-536.266849,370.102971
1165.749910,-8734.430116,0.000000,740.205942
1165.750221,-8882.471304,0.000000,518.144159
1165.750532,-8808.450710,0.000000,518.144159
1165.750844,-8808.450710,0.000000,518.144159
1165.751155,-8882.471304,0.000000,592.164754
1165.751466,-9104.533087,0.000000,370.102971
1165.751777,-8882.471304,536.266849,888.247130
1165.752089,-8882.471304,-229.828649,370.102971
1165.752400,-9104.533087,0.000000,296.082377
1165.752711,-9030.512492,76.609550,222.061783
1165.753022,-9030.512492,0.000000,444.123565
1165.753334,-8956.491898,0.000000,518.144159
1165.753645,-8808.450710,229.828649,518.144159
1165.753956,-8956.491898,-306.438199,666.185348
1165.754267,-8808.450710,-229.828649,444.123565
1165.754578,-8734.430116,-229.828649,518.144159
1165.754890,-8438.347739,-229.828649,740.205942
1165.755201,-8808.450710,-229.828649,740.205942
1165.755512,-8808.450710,-229.828649,518.144159
1165.755823,-8956.491898,-229.828649,444.123565
1165.756135,-9030.512492,-689.485948,592.164754
1165.756446,-9104.533087,-229.828649,222.061783
1165.756757,-9400.615463,76.609550,-0.000000
1165.757068,-9030.512492,383.047749,222.061783
1165.757380,-9104.533087,76.609550,592.164754
1165.757691,-8808.450710,-153.219100,518.144159
1165.758002,-8956.491898,0.000000,518.144159
1165.758313,-9030.512492,0.000000,666.185348
1165.758625,-8808.450710,766.095498,518.144159
1165.758936,-8956.491898,-229.828649,296.082377
1165.759247,-8660.409521,-306.438199,666.185348
1165.759558,-8808.450710,229.828649,444.123565
1165.759870,-8956.491898,0.000000,444.123565
1165.760181,-8956.491898,0.000000,592.164754
1165.760492,-8956.491898,-153.219100,518.144159
1165.760803,-8956.491898,0.000000,444.123565
1165.761115,-8808.450710,229.828649,518.144159
1165.761426,-8956.491898,-689.485948,888.247130
1165.761737,-9178.553681,153.219100,666.185348
1165.762048,-8882.471304,-459.657299,518.144159
1165.762360,-9030.512492,0.000000,592.164754
1165.762671,-9030.512492,0.000000,518.144159
1165.762982,-9178.553681,-153.219100,518.144159
1165.763293,-8956.491898,-383.047749,666.185348
1165.763605,-9030.512492,-229.828649,296.082377
1165.763916,-8734.430116,383.047749,592.164754
1165.764227,-8808.450710,306.438199,370.102971
1165.764538,-8808.450710,153.219100,740.205942
1165.764850,-8882.471304,0.000000,444.123565
1165.765161,-9104.533087,0.000000,444.123565
1165.765472,-8882.471304,-153.219100,444.123565
1165.765783,-8660.409521,0.000000,518.144159
1165.766095,-8586.388927,76.609550,592.164754
1165.766406,-8660.409521,-383.047749,444.123565
1165.766717,-8290.306550,153.219100,518.144159
1165.767028,-9178.553681,0.000000,444.123565
1165.767340,-9178.553681,76.609550,666.185348
1165.767651,-9104.533087,76.609550,444.123565
1165.767962,-8882.471304,0.000000,592.164754
1165.768273,-8808.450710,0.000000,444.123565
1165.768585,-8660.409521,-306.438199,222.061783
1165.768896,-8660.409521,-383.047749,222.061783
1165.769207,-8956.491898,-229.828649,296.082377
1165.769518,-9104.533087,0.000000,666.185348
1165.769829,-9030.512492,76.609550,666.185348
1165.770141,-8956.491898,-229.828649,814.226536
1165.770452,-9104.533087,0.000000,518.144159
1165.770763,-8512.368333,383.047749,666.185348
1165.771074,-8734.430116,0.000000,814.226536
1165.771386,-8586.388927,-153.219100,592.164754
1165.771697,-9030.512492,0.000000,518.144159
1165.772008,-9178.553681,0.000000,518.144159
1165.772319,-8956.491898,0.000000,666.185348
1165.772631,-8882.471304,0.000000,666.185348
1165.772942,-8956.491898,383.047749,518.144159
1165.773253,-8512.368333,76.609550,296.082377
1165.773564,-8882.471304,-612.876398,592.164754
1165.773876,-8808.450710,0.000000,444.123565
1165.774187,-8734.430116,-153.219100,740.205942
1165.774498,-8956.491898,-153.219100,592.164754
1165.774809,-8956.491898,-229.828649,666.185348
1165.775121,-8734.430116,-153.219100,666.185348
1165.775432,-8956.491898,-842.705048,444.123565
1165.775743,-8660.409521,0.000000,740.205942
1165.776054,-9104.533087,-153.219100,518.144159
1165.776366,-8734.430116,153.219100,592.164754
1165.776677,-9178.553681,-76.609550,296.082377
1165.776988,-9030.512492,153.219100,592.164754
1165.777299,-10658.965565,306.438199,370.102971
1165.777611,-11399.171507,2221.676944,592.164754
1165.777922,-8956.491898,4903.011187,666.185348
1165.778233,-7624.121203,3983.696590,666.185348
1165.778544,-6217.729913,1915.238745,1258.350101
1165.778856,-6587.832884,-1149.143247,370.102971
1165.779167,-7476.080014,-995.924147,-148.041188
1165.779478,-7550.100608,0.000000,-148.041188
1165.779789,-11251.130318,-842.705048,-1036.288319
1165.780101,-12879.583391,-306.438199,-444.123565
1165.780412,-10584.944971,1225.752797,370.102971
1165.780723,-8660.409521,76.609550,1554.432478
1165.781034,-8586.388927,-1072.533697,2516.700203
1165.781346,-11399.171507,306.438199,1036.288319
1165.781657,-8586.388927,4366.744339,2368.659014
1165.781968,-4959.379811,5209.449386,2368.659014
1165.782279,-7846.182985,2987.772442,1406.391290
1165.782591,-8512.368333,1915.238745,-0.000000
1165.782902,-7994.224174,2528.115143,-1628.453072
1165.783213,-8068.244768,3064.381992,-1406.391290
1165.783524,-8290.306550,3447.429741,-1036.288319
1165.783836,-11547.212695,2221.676944,-1702.473667
1165.784147,-14063.912898,-1072.533697,740.205942
1165.784458,-9178.553681,-1378.971896,2738.761985
1165.784769,-10362.883188,76.609550,1332.370696
1165.785080,-8586.388927,4673.182538,2664.741391
1165.785392,-6883.915261,5439.278036,1554.432478
1165.785703,-6439.791695,2604.724693,1850.514855
1165.786014,-5773.606348,3983.696590,2368.659014
1165.786325,-8290.306550,4979.620737,1036.288319
1165.786637,-9400.615463,5056.230287,-444.123565
1165.786948,-9474.636058,3524.039291,-1110.308913
1165.787259,-9252.574275,2911.162892,-1332.370696
1165.787570,-9400.615463,3524.039291,-1924.535449
1165.787882,-11029.068536,3524.039291,-370.102971
1165.788193,-10881.027347,3370.820191,518.144159
1165.788504,-10214.842000,2911.162892,2146.597232
1165.788815,-9918.759623,4443.353888,2516.700203
1165.789127,-7920.203579,4060.306139,2590.720797
1165.789438,-6217.729913,4596.572988,-0.000000
1165.789749,-5699.585753,4366.744339,740.205942
1165.790060,-4737.318029,4673.182538,-0.000000
1165.790372,-6291.750507,2681.334243,-1850.514855
1165.790683,-7846.182985,2298.286494,-814.226536
1165.790994,-8808.450710,612.876398,-1110.308913
1165.791305,-10066.800811,-1225.752797,814.226536
1165.791617,-10288.862594,-3064.381992,666.185348
1165.791928,-10732.986159,-3217.601092,1850.514855
1165.792239,-10510.924376,-3447.429741,1554.432478
1165.792550,-9030.512492,-1455.581446,2294.638420
1165.792862,-9030.512492,-612.876398,1554.432478
1165.793173,-7402.059420,1149.143247,1036.288319
1165.793484,-7624.121203,1149.143247,518.144159
1165.793795,-8438.347739,689.485948,370.102971
1165.794107,-7846.182985,459.657299,-0.000000
1165.794418,-7698.141797,-306.438199,-740.205942
1165.794729,-7772.162391,-2604.724693,-666.185348
1165.795040,-8142.265362,-3140.991542,-148.041188
1165.795352,-10066.800811,-3524.039291,-666.185348
1165.795663,-11547.212695,-3064.381992,444.123565
1165.795974,-11621.233289,-2528.115143,814.226536
1165.796285,-11843.295072,-2145.067394,444.123565
1165.796597,-11547.212695,-766.095498,444.123565
1165.796908,-9474.636058,-306.438199,296.082377
1165.797219,-7920.203579,-1302.362347,-296.082377
1165.797530,-7179.997637,-995.924147,-0.000000
1165.797842,-7624.121203,0.000000,-444.123565
1165.798153,-8438.347739,-1072.533697,-0.000000
1165.798464,-9844.739029,-1838.629195,-666.185348
1165.798775,-11251.130318,-1838.629195,888.247130
1165.799087,-12213.398043,-2145.067394,666.185348
1165.799398,-12731.542202,-2298.286494,1332.370696
1165.799709,-12287.418637,-842.705048,592.164754
1165.800020,-10807.006753,995.924147,1036.288319
1165.800331,-10066.800811,2374.896044,296.082377
1165.800643,-8216.285956,3753.867940,-370.102971
1165.800954,-6957.935855,4749.792088,-666.185348
1165.801265,-6217.729913,4596.572988,-1184.329507
1165.801576,-5477.523971,3753.867940,-222.061783
1165.801888,-5773.606348,1915.238745,-0.000000
1165.802199,-6439.791695,842.705048,1184.329507
1165.802510,-7476.080014,-383.047749,1332.370696
1165.802821,-8586.388927,-612.876398,1554.432478
1165.803133,-10288.862594,-1838.629195,1850.514855
1165.803444,-9844.739029,-1378.971896,1998.556043
1165.803755,-9696.697840,-383.047749,1332.370696
1165.804066,-9104.533087,153.219100,666.185348
1165.804378,-7994.224174,1072.533697,666.185348
1165.804689,-7254.018232,1608.800546,148.041188
1165.805000,-5921.647536,2604.724693,962.267725
1165.805311,-6143.709319,2451.505594,444.123565
1165.805623,-6809.894666,1378.971896,888.247130
1165.805934,-7254.018232,995.924147,1480.411884
1165.806245,-8216.285956,76.609550,1406.391290
1165.806556,-9030.512492,-459.657299,1628.453072
1165.806868,-9622.677246,-536.266849,2072.576638
1165.807179,-9770.718434,-689.485948,1036.288319
1165.807490,-8808.450710,0.000000,814.226536
1165.807801,-8956.491898,306.438199,-0.000000
1165.808113,-8956.491898,306.438199,-370.102971
1165.808424,-8216.285956,536.266849,-222.061783
1165.808735,-8882.471304,919.314598,-666.185348
1165.809046,-9104.533087,995.924147,-148.041188
1165.809358,-8882.471304,459.657299,-74.020594
1165.809669,-8956.491898,-1149.143247,444.123565
1165.809980,-9696.697840,-2298.286494,592.164754
1165.810291,-10214.842000,-2298.286494,1258.350101
1165.810603,-10658.965565,-2987.772442,1850.514855
1165.810914,-10881.027347,-3217.601092,1850.514855
1165.811225,-11251.130318,-2911.162892,1258.350101
1165.811536,-10807.006753,-2068.457845,888.247130
1165.811848,-9770.718434,-1225.752797,-0.000000
1165.812159,-9474.636058,383.047749,-444.123565
1165.812470,-9326.594869,1149.143247,-962.267725
1165.812781,-9178.553681,1225.752797,-1258.350101
1165.813093,-9104.533087,1991.848295,-1110.308913
1165.813404,-8290.306550,1915.238745,-444.123565
1165.813715,-8586.388927,1072.533697,-0.000000
1165.814026,-8734.430116,536.266849,814.226536
1165.814338,-8438.347739,-229.828649,740.205942
1165.814649,-9104.533087,-689.485948,666.185348
1165.814960,-9474.636058,383.047749,592.164754
1165.815271,-9696.697840,76.609550,370.102971
1165.815582,-9770.718434,0.000000,370.102971
1165.815894,-9474.636058,-229.828649,-0.000000
1165.816205,-8808.450710,-383.047749,-0.000000
1165.816516,-8142.265362,0.000000,-666.185348
1165.816827,-7476.080014,-459.657299,-370.102971
1165.817139,-6735.874072,0.000000,-0.000000
1165.817450,-7328.038826,-842.705048,740.205942
1165.817761,-7846.182985,-536.266849,1702.473667
1165.818072,-7920.203579,-459.657299,1924.535449
1165.818384,-8290.306550,-459.657299,1850.514855
1165.818695,-8808.450710,-229.828649,1850.514855
1165.819006,-9104.533087,689.485948,1184.329507
1165.819317,-9474.636058,1455.581446,296.082377
1165.819629,-9104.533087,2068.457845,-518.144159
1165.819940,-8290.306550,2451.505594,-814.226536
1165.820251,-8068.244768,1991.848295,-888.247130
1165.820562,-7105.977043,995.924147,-444.123565
1165.820874,-6809.894666,229.828649,-148.041188
1165.821185,-7254.018232,-536.266849,814.226536
1165.821497,-7624.121203,-1072.533697,1184.329507
1165.821808,-9400.615463,-1685.410096,1332.370696
1165.822120,-9770.718434,-1685.410096,1998.556043
1165.822431,-10362.883188,-1072.533697,2146.597232
1165.822743,-11325.150913,-1378.971896,1554.432478
1165.823054,-10732.986159,-1149.143247,1036.288319
1165.823366,-10140.821405,-1072.533697,296.082377
1165.823677,-9252.574275,-842.705048,370.102971
1165.823989,-8808.450710,-612.876398,-0.000000
1165.824300,-8364.327145,-689.485948,-444.123565
1165.824612,-7624.121203,-1302.362347,-0.000000
1165.824923,-8586.388927,-919.314598,-0.000000
1165.825235,-8956.491898,-383.047749,1258.350101
1165.825546,-10066.800811,-306.438199,1480.411884
1165.825858,-10510.924376,0.000000,1702.473667
1165.826169,-10732.986159,76.609550,1480.411884
1165.826481,-10362.883188,766.095498,962.267725
1165.826792,-9474.636058,1532.190996,296.082377
1165.827104,-9400.615463,1532.190996,-444.123565
1165.827415,-8290.306550,1532.190996,-518.144159
1165.827727,-7846.182985,1225.752797,-740.205942
1165.828038,-7624.121203,689.485948,-888.247130
1165.828350,-7402.059420,383.047749,-222.061783
1165.828661,-8142.265362,-306.438199,148.041188
1165.828973,-8438.347739,-842.705048,1036.288319
1165.829284,-8734.430116,-2068.457845,1258.350101
1165.829596,-9104.533087,-1762.019645,1480.411884
1165.829907,-9104.533087,-1762.019645,1480.411884
1165.830219,-9326.594869,-1685.410096,1628.453072
1165.830530,-9178.553681,-1149.143247,814.226536
1165.830842,-8216.285956,-536.266849,518.144159
1165.831153,-7698.141797,-229.828649,-0.000000
1165.831465,-7698.141797,306.438199,-518.144159
1165.831776,-7179.997637,995.924147,-518.144159
1165.832088,-7476.080014,1149.143247,-222.061783
1165.832399,-8068.244768,919.314598,296.082377
1165.832711,-8734.430116,1302.362347,444.123565
1165.833022,-9104.533087,1532.190996,592.164754
1165.833334,-8882.471304,1838.629195,814.226536
1165.833645,-9474.636058,1532.190996,518.144159
1165.833957,-9474.636058,1149.143247,370.102971
1165.834268,-9400.615463,919.314598,-370.102971
1165.834580,-8586.388927,919.314598,-222.061783
1165.834891,-8512.368333,0.000000,-370.102971
1165.835203,-9104.533087,-229.828649,-370.102971
1165.835514,-9474.636058,-459.657299,-296.082377
1165.835826,-9400.615463,-383.047749,-0.000000
1165.836137,-9622.677246,-383.047749,296.082377
1165.836449,-10140.821405,-612.876398,740.205942
1165.836760,-9474.636058,-1532.190996,1258.350101
1165.837072,-9918.759623,-1378.971896,1184.329507
1165.837383,-10066.800811,-1302.362347,1702.473667
1165.837695,-9770.718434,-689.485948,1406.391290
1165.838006,-9474.636058,-459.657299,888.247130
1165.838318,-8734.430116,-306.438199,518.144159
1165.838629,-8438.347739,0.000000,-0.000000
1165.838941,-8734.430116,153.219100,-0.000000
1165.839252,-9178.553681,383.047749,-148.041188
1165.839564,-9844.739029,229.828649,-0.000000
1165.839875,-9104.533087,76.609550,740.205942
1165.840187,-9104.533087,229.828649,888.247130
1165.840498,-9030.512492,-229.828649,1184.329507
1165.840810,-8216.285956,-306.438199,1184.329507
1165.841121,-7920.203579,0.000000,1702.473667
1165.841433,-8068.244768,383.047749,962.267725
1165.841744,-8290.306550,-1072.533697,592.164754
1165.842056,-8438.347739,-995.924147,592.164754
1165.842367,-8808.450710,-612.876398,592.164754
1165.842679,-8438.347739,-766.095498,444.123565
1165.842990,-8142.265362,-1378.971896,222.061783
1165.843302,-7624.121203,-1378.971896,148.041188
1165.843613,-7994.224174,-1762.019645,740.205942
1165.843925,-7920.203579,-995.924147,666.185348
1165.844236,-8364.327145,-766.095498,962.267725
1165.844548,-9030.512492,-612.876398,1184.329507
1165.844859,-8956.491898,-383.047749,1332.370696
1165.845171,-9400.615463,0.000000,888.247130
1165.845482,-9252.574275,459.657299,740.205942
1165.845794,-8882.471304,1072.533697,-0.000000
1165.846105,-9104.533087,1532.190996,-592.164754
1165.846417,-8586.388927,2221.676944,-222.061783
1165.846728,-8216.285956,1685.410096,-0.000000
1165.847040,-8734.430116,919.314598,-148.041188
1165.847351,-8660.409521,842.705048,-222.061783
1165.847663,-8364.327145,459.657299,-222.061783
1165.847974,-8364.327145,306.438199,-0.000000
1165.848286,-9178.553681,229.828649,-296.082377
1165.848597,-10066.800811,-689.485948,370.102971
1165.848909,-10362.883188,-689.485948,592.164754
1165.849220,-10881.027347,-383.047749,222.061783
1165.849532,-10658.965565,-229.828649,444.123565
1165.849843,-10214.842000,-306.438199,222.061783
1165.850155,-9474.636058,-536.266849,148.041188
1165.850466,-8142.265362,-306.438199,-74.020594
1165.850778,-8142.265362,0.000000,148.041188
1165.851089,-7920.203579,229.828649,-0.000000
1165.851401,-7920.203579,-153.219100,444.123565
1165.851712,-8586.388927,-153.219100,444.123565
1165.852024,-9400.615463,76.609550,740.205942
1165.852336,-10066.800811,459.657299,888.247130
1165.852647,-10288.862594,689.485948,1184.329507
1165.852959,-10658.965565,612.876398,888.247130
1165.853270,-9622.677246,306.438199,888.247130
1165.853582,-9030.512492,1149.143247,1036.288319
1165.853893,-8512.368333,383.047749,740.205942
1165.854205,-7402.059420,612.876398,444.123565
1165.854516,-6957.935855,229.828649,592.164754
1165.854828,-6957.935855,229.828649,740.205942
1165.855139,-7254.018232,0.000000,888.247130
1165.855451,-7994.224174,-306.438199,518.144159
1165.855762,-8512.368333,-612.876398,814.226536
1165.856074,-8734.430116,-766.095498,814.226536
1165.856385,-9104.533087,-1762.019645,1406.391290
1165.856697,-8956.491898,-1991.848295,1184.329507
1165.857008,-8734.430116,-1608.800546,1332.370696
1165.857320,-8734.430116,-1532.190996,1332.370696
1165.857631,-8364.327145,-995.924147,1406.391290
1165.857943,-8216.285956,-612.876398,1406.391290
1165.858254,-7772.162391,-229.828649,814.226536
1165.858566,-8216.285956,306.438199,518.144159
1165.858877,-8216.285956,689.485948,962.267725
1165.859189,-8808.450710,919.314598,518.144159
1165.859500,-9622.677246,1302.362347,-0.000000
1165.859812,-9622.677246,1225.752797,370.102971
1165.860123,-9548.656652,842.705048,296.082377
1165.860435,-9770.718434,689.485948,148.041188
1165.860746,-9326.594869,229.828649,-0.000000
1165.861058,-8956.491898,153.219100,-222.061783
1165.861369,-8660.409521,-536.266849,-0.000000
1165.861681,-8734.430116,-383.047749,-0.000000
1165.861992,-9030.512492,-383.047749,-0.000000
1165.862304,-9548.656652,-229.828649,148.041188
1165.862615,-9622.677246,0.000000,148.041188
1165.862927,-9770.718434,-459.657299,148.041188
1165.863238,-9770.718434,-766.095498,296.082377
1165.863550,-9918.759623,-536.266849,148.041188
1165.863861,-9844.739029,-383.047749,666.185348
1165.864173,-9474.636058,-689.485948,666.185348
1165.864484,-9474.636058,-766.095498,518.144159
1165.864796,-9252.574275,-612.876398,518.144159
1165.865107,-8290.306550,-383.047749,296.082377
1165.865419,-8438.347739,229.828649,370.102971
1165.865730,-8660.409521,1302.362347,-148.041188
1165.866042,-8956.491898,1225.752797,296.082377
1165.866353,-9030.512492,1149.143247,296.082377
1165.866665,-8808.450710,1838.629195,444.123565
1165.866976,-8808.450710,1302.362347,518.144159
1165.867288,-8660.409521,612.876398,740.205942
1165.867599,-7994.224174,612.876398,444.123565
1165.867911,-7846.182985,0.000000,962.267725
1165.868222,-7920.203579,-459.657299,740.205942
1165.868534,-8216.285956,-383.047749,592.164754
1165.868845,-8586.388927,-612.876398,518.144159
1165.869157,-8290.306550,-689.485948,814.226536
1165.869468,-8290.306550,-766.095498,666.185348
1165.869780,-8438.347739,-919.314598,592.164754
1165.870091,-8364.327145,-995.924147,666.185348
1165.870403,-8290.306550,-1532.190996,1036.288319
1165.870714,-8734.430116,-1072.533697,888.247130
1165.871026,-8734.430116,-383.047749,1332.370696
1165.871337,-9030.512492,-459.657299,1554.432478
1165.871649,-9030.512492,-612.876398,1332.370696
1165.871960,-9326.594869,0.000000,1258.350101
1165.872272,-9178.553681,919.314598,888.247130
1165.872583,-9400.615463,1302.362347,518.144159
1165.872895,-9252.574275,1915.238745,296.082377
1165.873206,-8660.409521,2374.896044,-0.000000
1165.873518,-8142.265362,2068.457845,-0.000000
1165.873829,-8216.285956,1225.752797,-0.000000
1165.874141,-8216.285956,1149.143247,-148.041188
1165.874452,-8068.244768,612.876398,-0.000000
1165.874764,-8290.306550,612.876398,222.061783
1165.875075,-9104.533087,-1149.143247,444.123565
1165.875387,-9474.636058,-1608.800546,740.205942
1165.875698,-10288.862594,-1072.533697,814.226536
1165.876010,-10214.842000,-1225.752797,962.267725
1165.876321,-10066.800811,-919.314598,666.185348
1165.876633,-9696.697840,-1149.143247,740.205942
1165.876944,-8956.491898,-766.095498,814.226536
1165.877256,-8882.471304,-1225.752797,296.082377
1165.877567,-8660.409521,0.000000,148.041188
1165.877879,-8882.471304,-153.219100,-74.020594
1165.878190,-8956.491898,689.485948,370.102971
1165.878502,-8882.471304,76.609550,-0.000000
1165.878813,-9400.615463,76.609550,-0.000000
1165.879125,-9474.636058,229.828649,370.102971
1165.879436,-9696.697840,459.657299,518.144159
1165.879748,-9696.697840,229.828649,518.144159
1165.880059,-8956.491898,995.924147,666.185348
1165.880371,-9400.615463,919.314598,-0.000000
1165.880682,-8290.306550,612.876398,666.185348
1165.880994,-7328.038826,229.828649,74.020594
1165.881305,-7328.038826,76.609550,-148.041188
1165.881617,-7476.080014,0.000000,148.041188
1165.881928,-7994.224174,-842.705048,-0.000000
1165.882240,-8808.450710,-919.314598,296.082377
1165.882551,-9104.533087,-1762.019645,666.185348
1165.882863,-9400.615463,-2221.676944,1184.329507
1165.883174,-9474.636058,-2681.334243,1036.288319
1165.883486,-9030.512492,-1838.629195,1258.350101
1165.883797,-8882.471304,-1762.019645,1258.350101
1165.884109,-8882.471304,-1149.143247,1332.370696
1165.884420,-8660.409521,-536.266849,1110.308913
1165.884732,-8734.430116,0.000000,814.226536
1165.885043,-8512.368333,766.095498,814.226536
1165.885355,-8512.368333,1225.752797,296.082377
1165.885666,-8808.450710,1149.143247,-74.020594
1165.885978,-9178.553681,1762.019645,-0.000000
1165.886289,-9326.594869,1532.190996,-0.000000
1165.886601,-9178.553681,1378.971896,222.061783
1165.886912,-9252.574275,1455.581446,296.082377
1165.887224,-9400.615463,1378.971896,148.041188
1165.887535,-8734.430116,459.657299,222.061783
1165.887847,-8808.450710,766.095498,148.041188
1165.888158,-8364.327145,306.438199,296.082377
1165.888470,-9178.553681,0.000000,-0.000000
1165.888781,-9326.594869,-153.219100,296.082377
1165.889093,-9326.594869,0.000000,444.123565
1165.889404,-9992.780217,0.000000,444.123565
1165.889716,-9992.780217,-689.485948,962.267725
1165.890027,-9696.697840,-1455.581446,962.267725
1165.890339,-9178.553681,-689.485948,1406.391290
1165.890650,-8956.491898,-689.485948,1184.329507
1165.890962,-8956.491898,-919.314598,814.226536
1165.891273,-8364.327145,-766.095498,1110.308913
1165.891585,-7994.224174,-229.828649,1110.308913
1165.891896,-7846.182985,689.485948,814.226536
1165.892208,-8734.430116,1378.971896,444.123565
1165.892519,-8438.347739,995.924147,370.102971
1165.892831,-8734.430116,612.876398,-0.000000
1165.893142,-8734.430116,766.095498,296.082377
1165.893454,-8660.409521,766.095498,444.123565
1165.893765,-8956.491898,612.876398,296.082377
1165.894077,-8734.430116,229.828649,814.226536
1165.894388,-8660.409521,0.000000,666.185348
1165.894700,-7994.224174,0.000000,1184.329507
1165.895011,-7698.141797,-383.047749,962.267725
1165.895323,-8142.265362,-459.657299,370.102971
1165.895634,-8586.388927,-766.095498,814.226536
1165.895946,-8660.409521,-919.314598,592.164754
1165.896257,-8586.388927,-1072.533697,592.164754
1165.896569,-8438.347739,-1378.971896,592.164754
1165.896880,-8882.471304,-1762.019645,666.185348
1165.897192,-9178.553681,-1378.971896,1332.370696
1165.897504,-8586.388927,-1685.410096,1036.288319
1165.897815,-9178.553681,-1302.362347,888.247130
1165.898127,-9252.574275,-1072.533697,962.267725
1165.898438,-9400.615463,-766.095498,888.247130
1165.898750,-9548.656652,0.000000,740.205942
1165.899061,-9474.636058,536.266849,888.247130
1165.899373,-9400.615463,1225.752797,-0.000000
1165.899684,-9474.636058,1838.629195,-74.020594
1165.899996,-8660.409521,919.314598,-296.082377
1165.900307,-9104.533087,842.705048,-148.041188
1165.900619,-8882.471304,229.828649,-296.082377
1165.900930,-8364.327145,229.828649,-444.123565
1165.901242,-8364.327145,0.000000,-74.020594
1165.901553,-8364.327145,-842.705048,-370.102971
1165.901865,-9474.636058,-1991.848295,222.061783
1165.902176,-9622.677246,-1149.143247,-0.000000
1165.902488,-10140.821405,-766.095498,666.185348
1165.902799,-10510.924376,-612.876398,666.185348
1165.903111,-10362.883188,-689.485948,592.164754
1165.903422,-9770.718434,-612.876398,444.123565
1165.903734,-9178.553681,-306.438199,592.164754
1165.904045,-9030.512492,-383.047749,370.102971
1165.904357,-8364.327145,0.000000,-0.000000
1165.904668,-7772.162391,76.609550,592.164754
1165.904980,-7698.141797,-229.828649,518.144159
1165.905291,-8364.327145,0.000000,666.185348
1165.905603,-8808.450710,536.266849,592.164754
1165.905914,-9326.594869,1072.533697,814.226536
1165.906226,-9548.656652,1378.971896,1110.308913
1165.906537,-9326.594869,1685.410096,1110.308913
1165.906849,-9252.574275,1991.848295,370.102971
1165.907160,-8808.450710,1838.629195,-0.000000
1165.907472,-7328.038826,1455.581446,518.144159
1165.907783,-7105.977043,766.095498,296.082377
1165.908095,-7179.997637,306.438199,-0.000000
1165.908406,-7254.018232,-229.828649,444.123565
1165.908718,-7698.141797,-689.485948,444.123565
1165.909029,-8586.388927,-995.924147,888.247130
1165.909341,-8882.471304,-1225.752797,814.226536
1165.909652,-9252.574275,-2221.676944,814.226536
1165.909964,-9252.574275,-1915.238745,1036.288319
1165.910275,-9104.533087,-1532.190996,1406.391290
1165.910587,-9326.594869,-1532.190996,1332.370696
1165.910898,-8586.388927,-1149.143247,1628.453072
1165.911210,-8734.430116,-612.876398,888.247130
1165.911521,-8438.347739,-229.828649,888.247130
1165.911833,-8512.368333,459.657299,148.041188
1165.912144,-8956.491898,842.705048,740.205942
1165.912456,-9104.533087,1302.362347,222.061783
1165.912767,-9770.718434,1378.971896,-0.000000
1165.913079,-9770.718434,1685.410096,148.041188
1165.913390,-9696.697840,1762.019645,-0.000000
1165.913702,-10214.842000,1762.019645,-74.020594
1165.914013,-9474.636058,919.314598,-0.000000
1165.914325,-8882.471304,1302.362347,-518.144159
1165.914636,-9030.512492,306.438199,-148.041188
1165.914948,-8586.388927,-153.219100,-74.020594
1165.915259,-8956.491898,-612.876398,-74.020594
1165.915571,-9326.594869,-995.924147,148.041188
1165.915882,-9918.759623,-1225.752797,-0.000000
1165.916194,-10214.842000,-1225.752797,518.144159
1165.916505,-10436.903782,-1149.143247,814.226536
1165.916817,-9918.759623,-1378.971896,740.205942
1165.917128,-9770.718434,-1532.190996,740.205942
1165.917440,-9178.553681,-1072.533697,1036.288319
1165.917751,-9104.533087,-842.705048,592.164754
1165.918063,-8290.306550,-459.657299,740.205942
1165.918374,-8068.244768,0.000000,-0.000000
1165.918686,-7846.182985,995.924147,296.082377
1165.918997,-8364.327145,1225.752797,-0.000000
1165.919309,-8512.368333,766.095498,-0.000000
1165.919620,-8734.430116,689.485948,370.102971
1165.919932,-8586.388927,1225.752797,592.164754
1165.920243,-8882.471304,1072.533697,592.164754
1165.920555,-8808.450710,612.876398,444.123565
1165.920866,-7994.224174,306.438199,814.226536
1165.921178,-7550.100608,0.000000,444.123565
1165.921489,-8290.306550,383.047749,-0.000000
1165.921801,-8216.285956,0.000000,-0.000000
1165.922112,-8290.306550,-689.485948,222.061783
1165.922424,-8438.347739,-1072.533697,740.205942
1165.922735,-8660.409521,-1225.752797,666.185348
1165.923046,-8956.491898,-1225.752797,518.144159
1165.923358,-8808.450710,-1455.581446,740.205942
1165.923669,-8956.491898,-1915.238745,444.123565
1165.923981,-9252.574275,-2298.286494,1110.308913
1165.924292,-9030.512492,-1302.362347,1332.370696
1165.924604,-9178.553681,-1225.752797,1406.391290
1165.924915,-9474.636058,-459.657299,1480.411884
1165.925227,-9622.677246,0.000000,1258.350101
1165.925538,-9770.718434,229.828649,1036.288319
1165.925850,-9474.636058,1455.581446,296.082377
1165.926161,-9474.636058,1762.019645,-0.000000
1165.926473,-8882.471304,2068.457845,-222.061783
1165.926784,-8438.347739,2068.457845,-222.061783
1165.927096,-8586.388927,1149.143247,-0.000000
1165.927407,-8290.306550,766.095498,222.061783
1165.927718,-8660.409521,612.876398,-148.041188
1165.928030,-8512.368333,536.266849,-0.000000
1165.928341,-9030.512492,-689.485948,-0.000000
1165.928653,-9770.718434,-995.924147,444.123565
1165.928964,-10140.821405,-306.438199,592.164754
1165.929276,-10436.903782,-842.705048,444.123565
1165.929587,-10214.842000,-995.924147,888.247130
1165.929899,-10214.842000,-1072.533697,814.226536
1165.930210,-9548.656652,-689.485948,888.247130
1165.930522,-8734.430116,-306.438199,962.267725
1165.930833,-8216.285956,-612.876398,740.205942
1165.931145,-8142.265362,-612.876398,444.123565
1165.931456,-7698.141797,-153.219100,592.164754
1165.931768,-8068.244768,306.438199,740.205942
1165.932079,-8734.430116,459.657299,518.144159
1165.932390,-9474.636058,1072.533697,370.102971
1165.932702,-9622.677246,1225.752797,592.164754
1165.933013,-9326.594869,1149.143247,296.082377
1165.933325,-8808.450710,1915.238745,666.185348
1165.933636,-8660.409521,1991.848295,370.102971
1165.933948,-8142.265362,1378.971896,-0.000000
1165.934259,-7328.038826,995.924147,296.082377
1165.934571,-7105.977043,153.219100,296.082377
1165.934882,-7550.100608,383.047749,222.061783
1165.935194,-7698.141797,-229.828649,222.061783
1165.935505,-8216.285956,-766.095498,148.041188
1165.935817,-7920.203579,-1455.581446,1036.288319
1165.936128,-8808.450710,-1685.410096,518.144159
1165.936439,-9474.636058,-2221.676944,740.205942
1165.936751,-9326.594869,-2221.676944,1184.329507
1165.937062,-9326.594869,-1838.629195,1184.329507
1165.937374,-9400.615463,-1225.752797,1110.308913
1165.937685,-8808.450710,0.000000,592.164754
1165.937997,-8956.491898,-306.438199,518.144159
1165.938308,-8512.368333,-229.828649,814.226536
1165.938620,-8660.409521,919.314598,814.226536
1165.938931,-9400.615463,842.705048,592.164754
1165.939243,-9844.739029,919.314598,296.082377
1165.939554,-9770.718434,1302.362347,-0.000000
1165.939866,-9844.739029,1302.362347,-0.000000
1165.940177,-9474.636058,1532.190996,-0.000000
1165.940489,-9400.615463,536.266849,-74.020594
1165.940800,-8734.430116,459.657299,-222.061783
1165.941111,-8512.368333,306.438199,-74.020594
1165.941423,-8660.409521,0.000000,148.041188
1165.941734,-8956.491898,-536.266849,-0.000000
1165.942046,-9400.615463,-842.705048,222.061783
1165.942357,-9622.677246,-306.438199,518.144159
1165.942669,-10140.821405,-766.095498,370.102971
1165.942980,-10140.821405,-766.095498,740.205942
1165.943292,-9622.677246,-229.828649,814.226536
1165.943603,-9622.677246,-689.485948,1036.288319
1165.943915,-9474.636058,-459.657299,1110.308913
1165.944226,-9104.533087,-459.657299,740.205942
1165.944538,-8660.409521,0.000000,666.185348
1165.944849,-8142.265362,229.828649,814.226536
1165.945161,-7624.121203,689.485948,444.123565
1165.945472,-7994.224174,383.047749,296.082377
1165.945783,-8216.285956,919.314598,370.102971
1165.946095,-8660.409521,689.485948,518.144159
1165.946406,-8956.491898,689.485948,518.144159
1165.946718,-8660.409521,842.705048,666.185348
1165.947029,-8660.409521,612.876398,592.164754
1165.947341,-8290.306550,536.266849,814.226536
1165.947652,-7698.141797,612.876398,888.247130
1165.947964,-7698.141797,153.219100,740.205942
1165.948275,-7846.182985,229.828649,-0.000000
1165.948587,-7994.224174,0.000000,148.041188
1165.948898,-8364.327145,-612.876398,518.144159
1165.949210,-8364.327145,-919.314598,888.247130
1165.949521,-8660.409521,-1072.533697,666.185348
1165.949832,-8734.430116,-1455.581446,370.102971
1165.950144,-8068.244768,-1378.971896,814.226536
1165.950455,-8216.285956,-2145.067394,1036.288319
1165.950767,-8660.409521,-1762.019645,1036.288319
1165.951078,-9252.574275,-1532.190996,962.267725
1165.951390,-9178.553681,-1302.362347,1332.370696
1165.951701,-9326.594869,-842.705048,1184.329507
1165.952013,-9622.677246,-306.438199,962.267725
1165.952324,-9474.636058,0.000000,370.102971
1165.952636,-9992.780217,1455.581446,-0.000000
1165.952947,-10066.800811,1685.410096,-74.020594
1165.953259,-9400.615463,2528.115143,-296.082377
1165.953570,-9622.677246,1915.238745,-296.082377
1165.953882,-9104.533087,1302.362347,-222.061783
1165.954193,-8586.388927,766.095498,-370.102971
1165.954504,-8512.368333,383.047749,-296.082377
1165.954816,-8734.430116,76.609550,-222.061783
1165.955127,-9104.533087,-1225.752797,-0.000000
1165.955439,-9844.739029,-1532.190996,296.082377
1165.955750,-9992.780217,-612.876398,666.185348
1165.956062,-10288.862594,-766.095498,592.164754
1165.956373,-10140.821405,-766.095498,666.185348
1165.956685,-9992.780217,-689.485948,740.205942
1165.956996,-9104.533087,-766.095498,888.247130
1165.957308,-8660.409521,-459.657299,740.205942
1165.957619,-7920.203579,-612.876398,814.226536
1165.957931,-7994.224174,-459.657299,518.144159
1165.958242,-7994.224174,-229.828649,592.164754
1165.958554,-8364.327145,0.000000,518.144159
1165.958865,-9030.512492,153.219100,592.164754
1165.959176,-9400.615463,383.047749,592.164754
1165.959488,-9252.574275,995.924147,296.082377
1165.959799,-9252.574275,1378.971896,296.082377
1165.960111,-8438.347739,1532.190996,370.102971
1165.960422,-7772.162391,1225.752797,296.082377
1165.960734,-7550.100608,1149.143247,370.102971
1165.961045,-6661.853478,766.095498,592.164754
1165.961357,-6809.894666,0.000000,518.144159
1165.961668,-7031.956449,-229.828649,444.123565
1165.961980,-7328.038826,-459.657299,-0.000000
1165.962291,-8142.265362,-612.876398,296.082377
1165.962603,-8586.388927,-1302.362347,666.185348
1165.962914,-8956.491898,-2298.286494,740.205942
1165.963225,-9474.636058,-2604.724693,1110.308913
1165.963537,-9548.656652,-2451.505594,1184.329507
1165.963848,-9696.697840,-1762.019645,1258.350101
1165.964160,-9474.636058,-1149.143247,1480.411884
1165.964471,-9326.594869,-842.705048,888.247130
1165.964783,-8586.388927,-306.438199,1110.308913
1165.965094,-8438.347739,383.047749,740.205942
1165.965406,-9252.574275,1072.533697,444.123565
1165.965717,-9548.656652,1302.362347,222.061783
1165.966029,-9770.718434,1455.581446,-0.000000
1165.966340,-9622.677246,1455.581446,-0.000000
1165.966652,-9918.759623,1685.410096,-518.144159
1165.966963,-9622.677246,1915.238745,-0.000000
1165.967275,-9474.636058,1608.800546,-592.164754
1165.967586,-8882.471304,766.095498,-444.123565
1165.967897,-8734.430116,612.876398,-222.061783
1165.968209,-9030.512492,76.609550,-0.000000
1165.968520,-9252.574275,-153.219100,148.041188
1165.968832,-9696.697840,-689.485948,148.041188
1165.969143,-9548.656652,-1072.533697,148.041188
1165.969455,-9696.697840,-1225.752797,740.205942
1165.969766,-9992.780217,-1608.800546,740.205942
1165.970078,-9548.656652,-1455.581446,888.247130
1165.970389,-9474.636058,-1378.971896,1184.329507
1165.970701,-9474.636058,-919.314598,1036.288319
1165.971012,-9178.553681,-459.657299,888.247130
1165.971324,-8142.265362,0.000000,962.267725
1165.971635,-7179.997637,306.438199,888.247130
1165.971947,-7550.100608,1225.752797,370.102971
1165.972258,-7920.203579,1149.143247,-0.000000
1165.972569,-7550.100608,1532.190996,370.102971
1165.972881,-8438.347739,1608.800546,370.102971
1165.973192,-8068.244768,1608.800546,740.205942
1165.973504,-7920.203579,1455.581446,370.102971
1165.973815,-8660.409521,536.266849,444.123565
1165.974127,-7698.141797,383.047749,518.144159
1165.974438,-7846.182985,153.219100,296.082377
1165.974750,-8142.265362,-612.876398,592.164754
1165.975061,-8216.285956,-919.314598,444.123565
1165.975373,-8660.409521,-1302.362347,666.185348
1165.975684,-8808.450710,-1225.752797,962.267725
1165.975996,-8882.471304,-1072.533697,814.226536
1165.976307,-8956.491898,-995.924147,518.144159
1165.976618,-8142.265362,-1378.971896,888.247130
1165.976930,-8068.244768,-1991.848295,1258.350101
1165.977241,-8660.409521,-1838.629195,592.164754
1165.977553,-8882.471304,-1685.410096,1184.329507
1165.977864,-9252.574275,-1149.143247,888.247130
1165.978176,-9326.594869,-229.828649,888.247130
1165.978487,-9474.636058,0.000000,740.205942
1165.978799,-9844.739029,76.609550,-0.000000
1165.979110,-10214.842000,919.314598,-74.020594
1165.979422,-10066.800811,2298.286494,-74.020594
1165.979733,-9696.697840,2298.286494,-370.102971
1165.980045,-9178.553681,1762.019645,-0.000000
1165.980356,-9252.574275,1072.533697,-74.020594
1165.980668,-8438.347739,536.266849,-74.020594
1165.980979,-8512.368333,0.000000,-296.082377
1165.981290,-8290.306550,0.000000,-148.041188
1165.981602,-8586.388927,-689.485948,-0.000000
1165.981913,-10214.842000,-1685.410096,-222.061783
1165.982225,-10140.821405,-1685.410096,666.185348
1165.982536,-10584.944971,-1532.190996,370.102971
1165.982848,-10881.027347,-919.314598,740.205942
1165.983159,-10436.903782,-919.314598,740.205942
1165.983471,-9844.739029,-842.705048,592.164754
1165.983782,-8882.471304,0.000000,740.205942
1165.984094,-7624.121203,536.266849,592.164754
1165.984405,-8068.244768,76.609550,-0.000000
1165.984717,-7994.224174,229.828649,-74.020594
1165.985028,-7402.059420,229.828649,592.164754
1165.985340,-8068.244768,229.828649,370.102971
1165.985651,-8808.450710,536.266849,296.082377
1165.985962,-9770.718434,919.314598,296.082377
1165.986274,-9252.574275,1225.752797,666.185348
1165.986585,-9252.574275,1532.190996,592.164754
1165.986897,-8586.388927,1685.410096,666.185348
1165.987208,-8660.409521,1302.362347,592.164754
1165.987520,-7476.080014,842.705048,962.267725
1165.987831,-6809.894666,536.266849,888.247130
1165.988143,-6809.894666,-153.219100,444.123565
1165.988454,-6661.853478,0.000000,666.185348
1165.988766,-7402.059420,-1072.533697,-0.000000
1165.989077,-8142.265362,-1225.752797,814.226536
1165.989389,-8660.409521,-1378.971896,592.164754
1165.989700,-9622.677246,-1915.238745,666.185348
1165.990011,-9918.759623,-2068.457845,962.267725
1165.990323,-9844.739029,-1608.800546,1184.329507
1165.990634,-9622.677246,-1378.971896,1184.329507
1165.990946,-9030.512492,-842.705048,1110.308913
1165.991257,-8290.306550,-229.828649,888.247130
1165.991569,-8512.368333,0.000000,1184.329507
1165.991880,-8216.285956,459.657299,962.267725
1165.992192,-9030.512492,766.095498,592.164754
1165.992503,-9400.615463,1225.752797,296.082377
1165.992815,-9770.718434,1225.752797,-0.000000
1165.993126,-9622.677246,1149.143247,-0.000000
1165.993438,-10436.903782,1378.971896,-296.082377
1165.993749,-10584.944971,1225.752797,-444.123565
1165.994061,-9918.759623,1378.971896,444.123565
1165.994372,-9474.636058,612.876398,-444.123565
1165.994683,-9104.533087,459.657299,-0.000000
1165.994995,-8734.430116,-153.219100,-74.020594
1165.995306,-8808.450710,-459.657299,-0.000000
1165.995618,-9104.533087,-536.266849,-0.000000
1165.995929,-9178.553681,-383.047749,-0.000000
1165.996241,-9622.677246,-153.219100,296.082377
1165.996552,-9770.718434,-1072.533697,814.226536
1165.996864,-9770.718434,-995.924147,740.205942
1165.997175,-9474.636058,-1149.143247,1184.329507
1165.997487,-9326.594869,-459.657299,888.247130
1165.997798,-9104.533087,-229.828649,740.205942
1165.998110,-8808.450710,76.609550,518.144159
1165.998421,-7476.080014,689.485948,740.205942
1165.998733,-7994.224174,766.095498,518.144159
1165.999044,-8142.265362,612.876398,74.020594
1165.999355,-8290.306550,919.314598,592.164754
1165.999667,-8438.347739,919.314598,518.144159
1165.999978,-8290.306550,995.924147,740.205942
1166.000290,-8364.327145,536.266849,814.226536
1166.000601,-8290.306550,-153.219100,740.205942
1166.000913,-7550.100608,-153.219100,666.185348
1166.001224,-7920.203579,229.828649,666.185348
1166.001536,-8068.244768,0.000000,370.102971
1166.001847,-8142.265362,-689.485948,666.185348
1166.002159,-8142.265362,-919.314598,592.164754
1166.002470,-8364.327145,-919.314598,592.164754
1166.002782,-8586.388927,-919.314598,666.185348
1166.003093,-8734.430116,-766.095498,296.082377
1166.003404,-8512.368333,-1302.362347,518.144159
1166.003716,-8734.430116,-1838.629195,888.247130
1166.004027,-9104.533087,-1838.629195,962.267725
1166.004339,-9548.656652,-1378.971896,962.267725
1166.004650,-9696.697840,-995.924147,1110.308913
1166.004962,-9992.780217,-459.657299,1184.329507
1166.005273,-10362.883188,76.609550,962.267725
1166.005585,-10362.883188,383.047749,888.247130
1166.005896,-9474.636058,1532.190996,1036.288319
1166.006208,-9770.718434,842.705048,-0.000000
1166.006519,-8882.471304,1608.800546,-0.000000
1166.006831,-8438.347739,1915.238745,-444.123565
1166.007142,-8216.285956,1225.752797,-592.164754
1166.007454,-7846.182985,689.485948,-666.185348
1166.007765,-8438.347739,153.219100,-444.123565
1166.008076,-8438.347739,76.609550,-0.000000
1166.008388,-9252.574275,-995.924147,-0.000000
1166.008699,-10288.862594,-1455.581446,518.144159
1166.009011,-10807.006753,-1225.752797,814.226536
1166.009322,-11103.089130,-1225.752797,740.205942
1166.009634,-10732.986159,-842.705048,888.247130
1166.009945,-9992.780217,-1149.143247,888.247130
1166.010257,-8882.471304,229.828649,666.185348
1166.010568,-8216.285956,-306.438199,444.123565
1166.010880,-7402.059420,-306.438199,592.164754
1166.011191,-7550.100608,-459.657299,444.123565
1166.011503,-7994.224174,229.828649,666.185348
1166.011814,-8216.285956,383.047749,592.164754
1166.012126,-8586.388927,459.657299,666.185348
1166.012437,-9178.553681,1149.143247,592.164754
1166.012748,-9696.697840,1685.410096,222.061783
1166.013060,-9548.656652,1302.362347,296.082377
1166.013371,-8438.347739,1302.362347,518.144159
1166.013683,-8216.285956,1838.629195,666.185348
1166.013994,-8068.244768,1455.581446,592.164754
1166.014306,-6957.935855,612.876398,444.123565
1166.014617,-6661.853478,0.000000,148.041188
1166.014929,-6661.853478,0.000000,592.164754
1166.015240,-7105.977043,-459.657299,518.144159
1166.015552,-8586.388927,-1532.190996,518.144159
1166.015863,-8882.471304,-1455.581446,1480.411884
1166.016175,-9104.533087,-1762.019645,1332.370696
1166.016486,-9770.718434,-2451.505594,1480.411884
1166.016798,-9548.656652,-2221.676944,1258.350101
1166.017109,-9178.553681,-1991.848295,1184.329507
1166.017420,-8512.368333,-1762.019645,1036.288319
1166.017732,-8512.368333,-995.924147,666.185348
1166.018043,-8216.285956,0.000000,1332.370696
1166.018355,-8808.450710,0.000000,518.144159
1166.018666,-8808.450710,766.095498,888.247130
1166.018978,-9474.636058,1149.143247,296.082377
1166.019289,-9548.656652,1302.362347,-0.000000
1166.019601,-9918.759623,1302.362347,-0.000000
1166.019912,-9696.697840,1225.752797,-74.020594
1166.020224,-9474.636058,995.924147,-148.041188
1166.020535,-10214.842000,383.047749,-592.164754
1166.020847,-9252.574275,153.219100,148.041188
1166.021158,-9326.594869,229.828649,-0.000000
1166.021469,-9030.512492,-153.219100,-0.000000
1166.021781,-9030.512492,-842.705048,-148.041188
1166.022092,-9178.553681,-1149.143247,-74.020594
1166.022404,-9326.594869,0.000000,-370.102971
1166.022715,-9770.718434,-842.705048,148.041188
1166.023027,-9992.780217,-1225.752797,1036.288319
1166.023338,-10510.924376,-1532.190996,888.247130
1166.023650,-10732.986159,-1455.581446,1110.308913
1166.023961,-9918.759623,-1072.533697,1110.308913
1166.024273,-9252.574275,-612.876398,814.226536
1166.024584,-8734.430116,0.000000,592.164754
1166.024895,-7994.224174,229.828649,444.123565
1166.025207,-7254.018232,612.876398,370.102971
1166.025518,-7698.141797,995.924147,-0.000000
1166.025830,-7920.203579,1608.800546,-0.000000
1166.026141,-8734.430116,1532.190996,-0.000000
1166.026453,-8364.327145,1302.362347,740.205942
1166.026764,-7920.203579,1378.971896,518.144159
1166.027075,-8364.327145,1149.143247,444.123565
1166.027387,-8660.409521,612.876398,296.082377
1166.027698,-7846.182985,0.000000,740.205942
1166.028010,-8068.244768,0.000000,740.205942
1166.028321,-8142.265362,-153.219100,666.185348
1166.028633,-8142.265362,-153.219100,740.205942
1166.028944,-8290.306550,-689.485948,1110.308913
1166.029256,-7994.224174,-919.314598,592.164754
1166.029567,-7772.162391,-612.876398,666.185348
1166.029878,-7846.182985,-995.924147,518.144159
1166.030190,-8438.347739,-766.095498,370.102971
1166.030501,-9104.533087,-612.876398,666.185348
1166.030813,-9104.533087,-1532.190996,814.226536
1166.031124,-9252.574275,-1302.362347,1480.411884
1166.031436,-9548.656652,-842.705048,1258.350101
1166.031747,-9474.636058,-383.047749,1258.350101
1166.032058,-9770.718434,0.000000,962.267725
1166.032370,-9548.656652,459.657299,444.123565
1166.032681,-9252.574275,1225.752797,444.123565
1166.032993,-9252.574275,1838.629195,-148.041188
1166.033304,-9030.512492,1915.238745,-222.061783
1166.033616,-9252.574275,1455.581446,-222.061783
1166.033927,-8882.471304,995.924147,-148.041188
1166.034239,-8808.450710,306.438199,-444.123565
1166.034550,-8734.430116,153.219100,-148.041188
1166.034861,-8660.409521,-153.219100,222.061783
1166.035173,-9474.636058,-1838.629195,370.102971
1166.035484,-10362.883188,-1838.629195,148.041188
1166.035796,-11103.089130,-1532.190996,814.226536
1166.036107,-11029.068536,-919.314598,888.247130
1166.036419,-10436.903782,-1072.533697,1332.370696
1166.036730,-9844.739029,-995.924147,962.267725
1166.037041,-9252.574275,-766.095498,518.144159
1166.037353,-8364.327145,229.828649,740.205942
1166.037664,-7550.100608,-383.047749,296.082377
1166.037976,-7920.203579,0.000000,-0.000000
1166.038287,-8142.265362,0.000000,148.041188
1166.038599,-8364.327145,306.438199,370.102971
1166.038910,-8882.471304,0.000000,370.102971
1166.039221,-9252.574275,842.705048,592.164754
1166.039533,-9400.615463,612.876398,296.082377
1166.039844,-9104.533087,1302.362347,740.205942
1166.040156,-9030.512492,1149.143247,370.102971
1166.040467,-8512.368333,1455.581446,222.061783
1166.040779,-7179.997637,1378.971896,592.164754
1166.041090,-6809.894666,766.095498,74.020594
1166.041402,-6365.771101,153.219100,222.061783
1166.041713,-6809.894666,-306.438199,-0.000000
1166.042024,-7476.080014,-1072.533697,-74.020594
1166.042336,-8438.347739,-1149.143247,740.205942
1166.042647,-8956.491898,-1532.190996,740.205942
1166.042959,-9400.615463,-2374.896044,888.247130
1166.043270,-9992.780217,-2374.896044,962.267725
1166.043582,-9548.656652,-1915.238745,1258.350101
1166.043893,-9474.636058,-1532.190996,1036.288319
1166.044204,-9030.512492,-612.876398,1110.308913
1166.044516,-8512.368333,0.000000,1110.308913
1166.044827,-8438.347739,-459.657299,444.123565
1166.045139,-7846.182985,459.657299,148.041188
1166.045450,-8808.450710,995.924147,518.144159
1166.045762,-9474.636058,1225.752797,148.041188
1166.046073,-9918.759623,995.924147,222.061783
1166.046385,-10436.903782,766.095498,148.041188
1166.046696,-10066.800811,766.095498,148.041188
1166.047007,-10510.924376,689.485948,-0.000000
1166.047319,-9918.759623,1378.971896,-0.000000
1166.047630,-9030.512492,153.219100,222.061783
1166.047942,-8882.471304,-153.219100,-0.000000
1166.048253,-8660.409521,-229.828649,148.041188
1166.048565,-9030.512492,-383.047749,-0.000000
1166.048876,-9252.574275,-459.657299,148.041188
1166.049187,-9252.574275,-306.438199,222.061783
1166.049499,-9326.594869,-1608.800546,296.082377
1166.049810,-9844.739029,-995.924147,518.144159
1166.050122,-9474.636058,-1302.362347,592.164754
1166.050433,-9696.697840,-1225.752797,962.267725
1166.050745,-9326.594869,-919.314598,1036.288319
1166.051056,-9030.512492,-383.047749,962.267725
1166.051367,-8512.368333,-229.828649,740.205942
1166.051679,-7846.182985,0.000000,518.144159
1166.051990,-7254.018232,536.266849,370.102971
1166.052302,-7846.182985,1378.971896,-148.041188
1166.052613,-7624.121203,1455.581446,-222.061783
1166.052925,-8364.327145,1225.752797,222.061783
1166.053236,-8364.327145,1455.581446,592.164754
1166.053548,-8808.450710,1302.362347,370.102971
1166.053859,-8882.471304,995.924147,518.144159
1166.054170,-7994.224174,306.438199,592.164754
1166.054482,-8438.347739,0.000000,444.123565
1166.054793,-7994.224174,-383.047749,592.164754
1166.055105,-7698.141797,-383.047749,592.164754
1166.055416,-8290.306550,-766.095498,592.164754
1166.055728,-8660.409521,-536.266849,1110.308913
1166.056039,-8660.409521,-995.924147,592.164754
1166.056350,-7994.224174,-995.924147,444.123565
1166.056662,-8438.347739,-1149.143247,222.061783
1166.056973,-7994.224174,-1608.800546,814.226536
1166.057285,-8142.265362,-1302.362347,740.205942
1166.057596,-9178.553681,-1762.019645,1332.370696
1166.057908,-9326.594869,-1225.752797,1480.411884
1166.058219,-9474.636058,-842.705048,1332.370696
1166.058530,-9770.718434,0.000000,1480.411884
1166.058842,-9622.677246,229.828649,740.205942
1166.059153,-9622.677246,1302.362347,518.144159
1166.059465,-9844.739029,1915.238745,444.123565
1166.059776,-9030.512492,1991.848295,-0.000000
1166.060088,-8882.471304,2068.457845,-296.082377
1166.060399,-8956.491898,1302.362347,-222.061783
1166.060711,-8364.327145,536.266849,-148.041188
1166.061022,-8216.285956,0.000000,-444.123565
1166.061333,-8068.244768,-306.438199,-0.000000
1166.061645,-8882.471304,-766.095498,222.061783
1166.061956,-10658.965565,-1915.238745,222.061783
1166.062268,-10807.006753,-1225.752797,592.164754
1166.062579,-10955.047942,-1302.362347,1036.288319
1166.062891,-10658.965565,-919.314598,814.226536
1166.063202,-10362.883188,-995.924147,666.185348
1166.063513,-9326.594869,-689.485948,444.123565
1166.063825,-8660.409521,0.000000,222.061783
1166.064136,-8142.265362,-1149.143247,592.164754
1166.064448,-7920.203579,-383.047749,740.205942
1166.064759,-8512.368333,-383.047749,592.164754
1166.065071,-8512.368333,-383.047749,518.144159
1166.065382,-8956.491898,0.000000,444.123565
1166.065694,-9474.636058,612.876398,148.041188
1166.066005,-9474.636058,842.705048,444.123565
1166.066316,-9252.574275,612.876398,444.123565
1166.066628,-8882.471304,919.314598,814.226536
1166.066939,-8142.265362,2221.676944,444.123565
1166.067251,-8216.285956,2221.676944,222.061783
1166.067562,-7031.956449,1455.581446,370.102971
1166.067874,-6513.812290,919.314598,-0.000000
1166.068185,-6661.853478,153.219100,-0.000000
1166.068496,-7105.977043,0.000000,-370.102971
1166.068808,-8438.347739,-536.266849,148.041188
1166.069119,-8660.409521,-1072.533697,814.226536
1166.069431,-9252.574275,-1378.971896,1036.288319
1166.069742,-9918.759623,-2068.457845,1184.329507
1166.070054,-9770.718434,-2145.067394,1480.411884
1166.070365,-9104.533087,-1302.362347,1554.432478
1166.070676,-8808.450710,-1072.533697,1110.308913
1166.070988,-7994.224174,-306.438199,1258.350101
1166.071299,-8438.347739,0.000000,592.164754
1166.071611,-8808.450710,459.657299,666.185348
1166.071922,-8808.450710,1072.533697,962.267725
1166.072234,-9474.636058,995.924147,518.144159
1166.072545,-9844.739029,1532.190996,444.123565
1166.072857,-10214.842000,1685.410096,-0.000000
1166.073168,-9622.677246,2451.505594,222.061783
1166.073479,-9548.656652,842.705048,-0.000000
1166.073791,-9770.718434,1149.143247,74.020594
1166.074102,-9326.594869,612.876398,-0.000000
1166.074414,-8882.471304,383.047749,-0.000000
1166.074725,-8586.388927,229.828649,296.082377
1166.075037,-8734.430116,-536.266849,-0.000000
1166.075348,-9030.512492,-1072.533697,-0.000000
1166.075659,-9178.553681,-689.485948,370.102971
1166.075971,-9326.594869,-842.705048,518.144159
1166.076282,-9622.677246,-842.705048,666.185348
1166.076594,-10214.842000,-995.924147,1110.308913
1166.076905,-9918.759623,-1685.410096,1406.391290
1166.077217,-9696.697840,-1608.800546,1184.329507
1166.077528,-8882.471304,-995.924147,962.267725
1166.077839,-8808.450710,-459.657299,814.226536
1166.078151,-8438.347739,-306.438199,518.144159
1166.078462,-8068.244768,842.705048,296.082377
1166.078774,-8438.347739,1378.971896,296.082377
1166.079085,-8364.327145,1225.752797,-0.000000
1166.079397,-8660.409521,1532.190996,-0.000000
1166.079708,-8660.409521,1455.581446,-0.000000
1166.080020,-8068.244768,1532.190996,370.102971
1166.080331,-8364.327145,919.314598,296.082377
1166.080642,-8364.327145,306.438199,666.185348
1166.080954,-7846.182985,-229.828649,888.247130
1166.081265,-7846.182985,-306.438199,666.185348
1166.081577,-7846.182985,-689.485948,740.205942
1166.081888,-8364.327145,-919.314598,592.164754
1166.082200,-8808.450710,-995.924147,666.185348
1166.082511,-8586.388927,-1072.533697,370.102971
1166.082822,-8734.430116,-1149.143247,518.144159
1166.083134,-9104.533087,-919.314598,222.061783
1166.083445,-8882.471304,-1608.800546,740.205942
1166.083757,-8512.368333,-1455.581446,1036.288319
1166.084068,-8142.265362,-2145.067394,1332.370696
1166.084380,-8586.388927,-1608.800546,1406.391290
1166.084691,-9030.512492,-766.095498,1110.308913
1166.085003,-9400.615463,0.000000,1036.288319
1166.085314,-9696.697840,229.828649,962.267725
1166.085625,-9622.677246,1302.362347,444.123565
1166.085937,-9474.636058,1378.971896,296.082377
1166.086248,-9326.594869,1991.848295,-296.082377
1166.086560,-9030.512492,2145.067394,-518.144159
1166.086871,-9030.512492,1762.019645,-592.164754
1166.087183,-8660.409521,1149.143247,-370.102971
1166.087494,-8290.306550,153.219100,-296.082377
1166.087805,-8956.491898,0.000000,-74.020594
1166.088117,-8808.450710,-383.047749,-0.000000
1166.088428,-9252.574275,-1378.971896,148.041188
1166.088740,-10214.842000,-1991.848295,518.144159
1166.089051,-10510.924376,-1378.971896,740.205942
1166.089363,-10807.006753,-1302.362347,518.144159
1166.089674,-10510.924376,-1302.362347,888.247130
1166.089985,-10214.842000,-1532.190996,740.205942
1166.090297,-9400.615463,153.219100,888.247130
1166.090608,-8734.430116,-1455.581446,666.185348
1166.090920,-7920.203579,-842.705048,814.226536
1166.091231,-7624.121203,-612.876398,592.164754
1166.091543,-7698.141797,-612.876398,814.226536
1166.091854,-7994.224174,-229.828649,592.164754
1166.092166,-8512.368333,0.000000,518.144159
1166.092477,-8956.491898,842.705048,962.267725
1166.092788,-9474.636058,689.485948,370.102971
1166.093100,-9622.677246,612.876398,740.205942
1166.093411,-8660.409521,1991.848295,666.185348
1166.093723,-8586.388927,1149.143247,518.144159
1166.094034,-8068.244768,1455.581446,592.164754
1166.094346,-6883.915261,919.314598,444.123565
1166.094657,-6809.894666,229.828649,148.041188
1166.094968,-6735.874072,0.000000,592.164754
1166.095280,-7846.182985,-459.657299,370.102971
1166.095591,-8956.491898,-1915.238745,444.123565
1166.095903,-8290.306550,-1455.581446,814.226536
1166.096214,-8808.450710,-1685.410096,740.205942
1166.096526,-9548.656652,-2068.457845,1110.308913
1166.096837,-9770.718434,-1915.238745,1184.329507
1166.097148,-9400.615463,-1455.581446,1406.391290
1166.097460,-8956.491898,-383.047749,1850.514855
1166.097771,-8660.409521,0.000000,1184.329507
1166.098083,-8956.491898,-229.828649,962.267725
1166.098394,-8586.388927,612.876398,814.226536
1166.098706,-8512.368333,919.314598,592.164754
1166.099017,-9178.553681,1608.800546,148.041188
1166.099329,-9622.677246,1991.848295,-0.000000
1166.099640,-9548.656652,1455.581446,-74.020594
1166.099951,-9622.677246,1532.190996,-0.000000
1166.100263,-9696.697840,995.924147,-0.000000
1166.100574,-9918.759623,536.266849,-0.000000
1166.100886,-8956.491898,383.047749,-0.000000
1166.101197,-8660.409521,153.219100,296.082377
1166.101509,-8364.327145,-536.266849,222.061783
1166.101820,-8808.450710,-995.924147,-0.000000
1166.102131,-8956.491898,-1455.581446,-0.000000
1166.102443,-8956.491898,-842.705048,370.102971
1166.102754,-9622.677246,-766.095498,518.144159
1166.103066,-10214.842000,-995.924147,444.123565
1166.103377,-9696.697840,-1608.800546,740.205942
1166.103689,-9474.636058,-1378.971896,1110.308913
1166.104000,-9474.636058,-1072.533697,962.267725
1166.104312,-9030.512492,-459.657299,740.205942
1166.104623,-8882.471304,-153.219100,592.164754
1166.104934,-8438.347739,0.000000,592.164754
1166.105246,-8290.306550,536.266849,444.123565
1166.105557,-8068.244768,1455.581446,-0.000000
1166.105869,-8216.285956,1685.410096,222.061783
1166.106180,-8660.409521,1149.143247,148.041188
1166.106492,-8512.368333,919.314598,370.102971
1166.106803,-8512.368333,1072.533697,222.061783
1166.107114,-8512.368333,459.657299,-148.041188
1166.107426,-8142.265362,536.266849,592.164754
1166.107737,-8438.347739,76.609550,148.041188
1166.108049,-8290.306550,0.000000,962.267725
1166.108360,-8068.244768,-153.219100,666.185348
1166.108672,-8364.327145,-919.314598,666.185348
1166.108983,-8882.471304,-919.314598,962.267725
1166.109294,-8660.409521,-612.876398,370.102971
1166.109606,-8216.285956,-612.876398,222.061783
1166.109917,-8734.430116,0.000000,222.061783
1166.110229,-8364.327145,-1302.362347,666.185348
1166.110540,-8956.491898,-1302.362347,592.164754
1166.110852,-8734.430116,-1378.971896,962.267725
1166.111163,-9178.553681,-1072.533697,1332.370696
1166.111475,-9474.636058,-919.314598,1110.308913
1166.111786,-9844.739029,536.266849,962.267725
1166.112097,-9918.759623,-459.657299,888.247130
1166.112409,-9844.739029,766.095498,296.082377
1166.112720,-9474.636058,2068.457845,-0.000000
1166.113032,-9474.636058,1685.410096,-296.082377
1166.113343,-8734.430116,2145.067394,-0.000000
1166.113655,-8734.430116,1608.800546,-0.000000
1166.113966,-8512.368333,995.924147,-0.000000
1166.114277,-8364.327145,536.266849,-222.061783
1166.114589,-8438.347739,0.000000,-0.000000
1166.114900,-8734.430116,-383.047749,-0.000000
1166.115212,-9622.677246,-1455.581446,-0.000000
1166.115523,-10436.903782,-1532.190996,296.082377
1166.115835,-10584.944971,-1225.752797,592.164754
1166.116146,-10362.883188,-995.924147,888.247130
1166.116457,-9992.780217,-842.705048,1184.329507
1166.116769,-9400.615463,-842.705048,814.226536
1166.117080,-8290.306550,-153.219100,962.267725
1166.117392,-7846.182985,-689.485948,1036.288319
1166.117703,-7105.977043,0.000000,370.102971
1166.118015,-7624.121203,-383.047749,518.144159
1166.118326,-7994.224174,-229.828649,592.164754
1166.118638,-8364.327145,-229.828649,666.185348
1166.118949,-9326.594869,76.609550,592.164754
1166.119260,-9178.553681,383.047749,370.102971
1166.119572,-9696.697840,919.314598,296.082377
1166.119883,-9622.677246,995.924147,444.123565
1166.120195,-8808.450710,1532.190996,518.144159
1166.120506,-8364.327145,1455.581446,592.164754
1166.120818,-7624.121203,1455.581446,518.144159
1166.121129,-7031.956449,612.876398,444.123565
1166.121440,-6957.935855,383.047749,370.102971
1166.121752,-7328.038826,-383.047749,-0.000000
1166.122063,-8216.285956,-995.924147,-0.000000
1166.122375,-8808.450710,-1455.581446,370.102971
1166.122686,-9030.512492,-1378.971896,444.123565
1166.122998,-9548.656652,-1915.238745,814.226536
1166.123309,-9844.739029,-2145.067394,740.205942
1166.123621,-9474.636058,-1685.410096,1184.329507
1166.123932,-9474.636058,-919.314598,1110.308913
1166.124243,-8956.491898,-536.266849,1258.350101
1166.124555,-9030.512492,76.609550,1110.308913
1166.124866,-8290.306550,842.705048,1184.329507
1166.125178,-7994.224174,612.876398,888.247130
1166.125489,-8586.388927,995.924147,444.123565
1166.125801,-9252.574275,1302.362347,-0.000000
1166.126112,-9770.718434,1455.581446,-0.000000
1166.126424,-9918.759623,1608.800546,-296.082377
1166.126735,-9622.677246,1762.019645,-222.061783
1166.127047,-10066.800811,1225.752797,-222.061783
1166.127358,-9326.594869,153.219100,444.123565
1166.127670,-9178.553681,0.000000,-0.000000
1166.127981,-8586.388927,0.000000,296.082377
1166.128292,-8438.347739,-153.219100,222.061783
1166.128604,-8734.430116,-306.438199,-0.000000
1166.128915,-8586.388927,-536.266849,-0.000000
1166.129227,-9104.533087,-842.705048,-148.041188
1166.129538,-9474.636058,-2145.067394,222.061783
1166.129850,-9992.780217,-1378.971896,666.185348
1166.130161,-10584.944971,-1302.362347,740.205942
1166.130473,-10362.883188,-1225.752797,962.267725
1166.130784,-9548.656652,-995.924147,1184.329507
1166.131096,-9252.574275,-689.485948,888.247130
1166.131407,-7994.224174,-612.876398,740.205942
1166.131719,-7179.997637,0.000000,222.061783
1166.132030,-7698.141797,1685.410096,444.123565
1166.132341,-8142.265362,1378.971896,444.123565
1166.132653,-8660.409521,1302.362347,444.123565
1166.132964,-8808.450710,1302.362347,148.041188
1166.133276,-8660.409521,1302.362347,370.102971
1166.133587,-8882.471304,1072.533697,-0.000000
1166.133899,-8882.471304,689.485948,148.041188
1166.134210,-8364.327145,306.438199,518.144159
1166.134522,-8734.430116,-383.047749,296.082377
1166.134833,-8142.265362,-536.266849,814.226536
1166.135145,-8216.285956,-612.876398,814.226536
1166.135456,-8512.368333,-919.314598,814.226536
1166.135768,-8216.285956,-842.705048,888.247130
1166.136079,-8290.306550,-689.485948,518.144159
1166.136390,-7994.224174,-1225.752797,296.082377
1166.136702,-8734.430116,-1149.143247,-222.061783
1166.137013,-8438.347739,-1532.190996,1406.391290
1166.137325,-8956.491898,-1378.971896,962.267725
1166.137636,-9474.636058,-1302.362347,1036.288319
1166.137948,-9548.656652,-1149.143247,1184.329507
1166.138259,-9622.677246,-383.047749,1258.350101
1166.138571,-9400.615463,0.000000,1332.370696
1166.138882,-9474.636058,995.924147,888.247130
1166.139194,-9104.533087,1455.581446,666.185348
1166.139505,-9252.574275,1685.410096,-0.000000
1166.139817,-8512.368333,2451.505594,-0.000000
1166.140128,-8438.347739,2145.067394,-0.000000
1166.140439,-8660.409521,1532.190996,-0.000000
1166.140751,-8290.306550,612.876398,148.041188
1166.141062,-8512.368333,153.219100,-444.123565
1166.141374,-8808.450710,-76.609550,296.082377
1166.141685,-9326.594869,-919.314598,518.144159
1166.141997,-9992.780217,-1608.800546,888.247130
1166.142308,-10436.903782,-1378.971896,1258.350101
1166.142620,-10288.862594,-995.924147,1332.370696
1166.142931,-10066.800811,-612.876398,1258.350101
1166.143243,-9844.739029,-383.047749,962.267725
1166.143554,-8956.491898,-459.657299,740.205942
1166.143865,-8438.347739,0.000000,592.164754
1166.144177,-7846.182985,76.609550,222.061783
1166.144488,-7994.224174,0.000000,296.082377
1166.144800,-8660.409521,-306.438199,444.123565
1166.145111,-8512.368333,-459.657299,740.205942
1166.145423,-8734.430116,-229.828649,740.205942
1166.145734,-9474.636058,0.000000,962.267725
1166.146046,-9326.594869,919.314598,888.247130
1166.146357,-9326.594869,1225.752797,888.247130
1166.146669,-8882.471304,1302.362347,1184.329507
1166.146980,-8586.388927,1838.629195,444.123565
1166.147292,-8438.347739,1532.190996,-0.000000
1166.147603,-7105.977043,1455.581446,296.082377
1166.147914,-6587.832884,612.876398,-0.000000
1166.148226,-7254.018232,229.828649,-222.061783
1166.148537,-7550.100608,-306.438199,222.061783
1166.148849,-8956.491898,-842.705048,-0.000000
1166.149160,-9178.553681,-1302.362347,666.185348
1166.149472,-9548.656652,-1762.019645,1036.288319
1166.149783,-10214.842000,-2298.286494,1036.288319
1166.150095,-9918.759623,-2221.676944,962.267725
1166.150406,-9252.574275,-1838.629195,888.247130
1166.150718,-8438.347739,-766.095498,1184.329507
1166.151029,-7994.224174,-383.047749,222.061783
1166.151341,-8068.244768,919.314598,518.144159
1166.151652,-8216.285956,306.438199,592.164754
1166.151963,-8438.347739,459.657299,740.205942
1166.152275,-9474.636058,919.314598,370.102971
1166.152586,-9770.718434,689.485948,-0.000000
1166.152898,-10140.821405,919.314598,-74.020594
1166.153209,-10288.862594,995.924147,-0.000000
1166.153521,-9918.759623,995.924147,-0.000000
1166.153832,-9770.718434,459.657299,-0.000000
1166.154144,-9252.574275,612.876398,148.041188
1166.154455,-8734.430116,76.609550,-0.000000
1166.154767,-8438.347739,383.047749,148.041188
1166.155078,-8438.347739,-306.438199,-74.020594
1166.155390,-8660.409521,-459.657299,-222.061783
1166.155701,-9104.533087,-919.314598,444.123565
1166.156012,-9400.615463,-612.876398,222.061783
1166.156324,-9622.677246,-689.485948,666.185348
1166.156635,-10214.842000,-1302.362347,740.205942
1166.156947,-9844.739029,-1532.190996,1406.391290
1166.157258,-9918.759623,-1455.581446,1332.370696
1166.157570,-9178.553681,-689.485948,962.267725
1166.157881,-8734.430116,-383.047749,888.247130
1166.158193,-8216.285956,536.266849,740.205942
1166.158504,-7772.162391,1302.362347,962.267725
1166.158816,-8068.244768,766.095498,222.061783
1166.159127,-8068.244768,1378.971896,296.082377
1166.159439,-8438.347739,1302.362347,444.123565
1166.159750,-8734.430116,919.314598,444.123565
1166.160061,-8808.450710,612.876398,814.226536
1166.160373,-9030.512492,383.047749,444.123565
1166.160684,-8364.327145,0.000000,1110.308913
1166.160996,-7846.182985,-306.438199,592.164754
1166.161307,-8290.306550,0.000000,666.185348
1166.161619,-8586.388927,-536.266849,1258.350101
1166.161930,-8142.265362,-459.657299,814.226536
1166.162242,-7772.162391,0.000000,518.144159
1166.162553,-7772.162391,-383.047749,296.082377
1166.162865,-7624.121203,-383.047749,-0.000000
1166.163176,-8216.285956,-995.924147,-148.041188
1166.163488,-8216.285956,-995.924147,962.267725
1166.163799,-8808.450710,-1225.752797,518.144159
1166.164110,-9178.553681,-1608.800546,814.226536
1166.164422,-9770.718434,-1302.362347,1258.350101
1166.164733,-9622.677246,-1072.533697,1258.350101
1166.165045,-9770.718434,-612.876398,740.205942
1166.165356,-9326.594869,306.438199,1184.329507
1166.165668,-9400.615463,459.657299,444.123565
1166.165979,-9326.594869,1225.752797,296.082377
1166.166291,-9178.553681,1915.238745,-0.000000
1166.166602,-8956.491898,2298.286494,-222.061783
1166.166914,-9104.533087,1991.848295,-222.061783
1166.167225,-9178.553681,1072.533697,-518.144159
1166.167537,-8660.409521,612.876398,-518.144159
1166.167848,-8882.471304,229.828649,-370.102971
1166.168159,-8882.471304,-306.438199,296.082377
1166.168471,-9918.759623,-1532.190996,370.102971
1166.168782,-10732.986159,-1302.362347,222.061783
1166.169094,-10732.986159,-689.485948,666.185348
1166.169405,-10881.027347,-383.047749,444.123565
1166.169717,-10214.842000,-689.485948,444.123565
1166.170028,-9474.636058,-689.485948,296.082377
1166.170340,-8882.471304,-1225.752797,296.082377
1166.170651,-8142.265362,-1072.533697,444.123565
1166.170963,-7994.224174,-153.219100,-0.000000
1166.171274,-8068.244768,-612.876398,592.164754
1166.171585,-8068.244768,-995.924147,592.164754
1166.171897,-8438.347739,-536.266849,888.247130
1166.172208,-9178.553681,-229.828649,444.123565
1166.172520,-9178.553681,383.047749,666.185348
1166.172831,-9400.615463,766.095498,444.123565
1166.173143,-9252.574275,766.095498,592.164754
1166.173454,-8216.285956,1915.238745,740.205942
1166.173766,-8216.285956,1532.190996,370.102971
1166.174077,-7402.059420,1302.362347,592.164754
1166.174389,-6809.894666,612.876398,148.041188
1166.174700,-6883.915261,383.047749,-0.000000
1166.175012,-7328.038826,-153.219100,222.061783
1166.175323,-8290.306550,-536.266849,-0.000000
1166.175634,-9104.533087,-919.314598,888.247130
1166.175946,-8586.388927,-1532.190996,1406.391290
1166.176257,-9252.574275,-1685.410096,962.267725
1166.176569,-9400.615463,-1762.019645,1184.329507
1166.176880,-9474.636058,-1455.581446,1258.350101
1166.177192,-9474.636058,-1225.752797,1184.329507
1166.177503,-8512.368333,-689.485948,962.267725
1166.177815,-8734.430116,76.609550,740.205942
1166.178126,-8956.491898,459.657299,888.247130
1166.178438,-8734.430116,0.000000,592.164754
1166.178749,-8956.491898,383.047749,592.164754
1166.179061,-9548.656652,995.924147,444.123565
1166.179372,-10066.800811,1378.971896,518.144159
1166.179683,-10214.842000,1455.581446,-0.000000
1166.179995,-9622.677246,1302.362347,370.102971
1166.180306,-9030.512492,1072.533697,-0.000000
1166.180618,-8734.430116,1225.752797,-0.000000
1166.180929,-8364.327145,612.876398,-148.041188
1166.181241,-8216.285956,612.876398,-0.000000
1166.181552,-8216.285956,0.000000,-74.020594
1166.181864,-8586.388927,-459.657299,-0.000000
1166.182175,-8808.450710,-842.705048,222.061783
1166.182487,-9326.594869,-612.876398,370.102971
1166.182798,-9918.759623,-995.924147,592.164754
1166.183110,-10140.821405,-1608.800546,444.123565
1166.183421,-9918.759623,-1532.190996,814.226536
1166.183732,-9696.697840,-1149.143247,888.247130
1166.184044,-9400.615463,-919.314598,962.267725
1166.184355,-8734.430116,-612.876398,814.226536
1166.184667,-8290.306550,0.000000,518.144159
1166.184978,-7772.162391,-766.095498,740.205942
1166.185290,-7402.059420,689.485948,-0.000000
1166.185601,-7920.203579,995.924147,-518.144159
1166.185913,-8068.244768,1302.362347,-148.041188
1166.186224,-8438.347739,766.095498,-0.000000
1166.186536,-9030.512492,995.924147,-0.000000
1166.186847,-9178.553681,1072.533697,296.082377
1166.187159,-9326.594869,689.485948,518.144159
1166.187470,-8882.471304,-153.219100,814.226536
1166.187781,-8512.368333,76.609550,518.144159
1166.188093,-8364.327145,-229.828649,444.123565
1166.188404,-8364.327145,-229.828649,148.041188
1166.188716,-8290.306550,-306.438199,-0.000000
1166.189027,-8586.388927,-536.266849,148.041188
1166.189339,-8660.409521,-689.485948,-0.000000
1166.189650,-8734.430116,-1302.362347,148.041188
1166.189962,-8734.430116,-919.314598,296.082377
1166.190273,-8512.368333,-995.924147,1036.288319
1166.190585,-8734.430116,-1915.238745,1036.288319
1166.190896,-8882.471304,-1608.800546,1258.350101
1166.191208,-9104.533087,-1072.533697,1258.350101
1166.191519,-9252.574275,-612.876398,1332.370696
1166.191830,-9178.553681,0.000000,1184.329507
1166.192142,-9548.656652,229.828649,296.082377
1166.192453,-9474.636058,1149.143247,592.164754
1166.192765,-9178.553681,1378.971896,518.144159
1166.193076,-8808.450710,1608.800546,444.123565
1166.193388,-9104.533087,1302.362347,-0.000000
1166.193699,-9326.594869,919.314598,-0.000000
1166.194011,-9030.512492,536.266849,222.061783
1166.194322,-8660.409521,459.657299,148.041188
1166.194634,-9178.553681,0.000000,444.123565
1166.194945,-8586.388927,-1302.362347,962.267725
1166.195256,-9474.636058,-1762.019645,962.267725
1166.195568,-9770.718434,-1532.190996,1036.288319
1166.195879,-10214.842000,-995.924147,888.247130
1166.196191,-10362.883188,-459.657299,592.164754
1166.196502,-9696.697840,0.000000,1184.329507
1166.196814,-9252.574275,-919.314598,592.164754
1166.197125,-8660.409521,-1225.752797,666.185348
1166.197437,-7772.162391,153.219100,814.226536
1166.197748,-8068.244768,229.828649,148.041188
1166.198060,-8216.285956,229.828649,518.144159
1166.198371,-8438.347739,153.219100,814.226536
1166.198683,-8586.388927,459.657299,666.185348
1166.198994,-9104.533087,1072.533697,222.061783
1166.199305,-9252.574275,1225.752797,370.102971
1166.199617,-9252.574275,1225.752797,370.102971
1166.199928,-8660.409521,1762.019645,888.247130
1166.200240,-8660.409521,1532.190996,370.102971
1166.200551,-8142.265362,919.314598,444.123565
1166.200863,-7179.997637,842.705048,592.164754
1166.201174,-6957.935855,612.876398,518.144159
1166.201486,-6809.894666,229.828649,444.123565
1166.201797,-7031.956449,-383.047749,222.061783
1166.202109,-8364.327145,-1225.752797,-74.020594
1166.202420,-9104.533087,-919.314598,518.144159
1166.202732,-9252.574275,-1378.971896,962.267725
1166.203043,-9696.697840,-1685.410096,444.123565
1166.203354,-9770.718434,-1685.410096,740.205942
1166.203666,-9474.636058,-1532.190996,1110.308913
1166.203977,-9030.512492,-1072.533697,888.247130
1166.204289,-8660.409521,-1915.238745,1036.288319
1166.204600,-8438.347739,-536.266849,888.247130
1166.204912,-8660.409521,-536.266849,518.144159
1166.205223,-8808.450710,-153.219100,592.164754
1166.205535,-9178.553681,306.438199,666.185348
1166.205846,-9696.697840,229.828649,518.144159
1166.206158,-10436.903782,383.047749,222.061783
1166.206469,-10288.862594,1302.362347,222.061783
1166.206781,-9918.759623,1225.752797,-74.020594
1166.207092,-9400.615463,919.314598,296.082377
1166.207403,-9104.533087,536.266849,-222.061783
1166.207715,-8660.409521,306.438199,-296.082377
1166.208026,-8216.285956,229.828649,-0.000000
1166.208338,-8216.285956,0.000000,-0.000000
1166.208649,-9252.574275,-153.219100,-0.000000
1166.208961,-9252.574275,-306.438199,222.061783
1166.209272,-9474.636058,-459.657299,222.061783
1166.209584,-9696.697840,-1149.143247,814.226536
1166.209895,-9918.759623,-1225.752797,962.267725
1166.210207,-10214.842000,-1225.752797,888.247130
1166.210518,-9548.656652,-995.924147,1110.308913
1166.210830,-9104.533087,-536.266849,1110.308913
1166.211141,-8290.306550,-153.219100,592.164754
1166.211452,-8068.244768,0.000000,888.247130
1166.211764,-7846.182985,306.438199,740.205942
1166.212075,-7920.203579,0.000000,592.164754
1166.212387,-8290.306550,1378.971896,296.082377
1166.212698,-8512.368333,1302.362347,296.082377
1166.213010,-8956.491898,1072.533697,222.061783
1166.213321,-8956.491898,1149.143247,888.247130
1166.213633,-8586.388927,1378.971896,666.185348
1166.213944,-8660.409521,689.485948,370.102971
1166.214256,-7772.162391,689.485948,666.185348
1166.214567,-7994.224174,0.000000,518.144159
1166.214879,-7698.141797,-229.828649,888.247130
1166.215190,-7550.100608,-153.219100,740.205942
1166.215501,-8290.306550,-459.657299,592.164754
1166.215813,-8068.244768,-459.657299,518.144159
1166.216124,-8142.265362,0.000000,222.061783
1166.216436,-8512.368333,-995.924147,148.041188
1166.216747,-7994.224174,-1302.362347,740.205942
1166.217059,-8586.388927,-1685.410096,666.185348
1166.217370,-8882.471304,-2068.457845,814.226536
1166.217682,-8956.491898,-1915.238745,1036.288319
1166.217993,-9326.594869,-1455.581446,1184.329507
1166.218305,-9252.574275,-919.314598,1406.391290
1166.218616,-9918.759623,-689.485948,740.205942
1166.218928,-10066.800811,0.000000,1110.308913
1166.219239,-9474.636058,1225.752797,666.185348
1166.219550,-9474.636058,1072.533697,-0.000000
1166.219862,-9400.615463,1685.410096,-444.123565
1166.220173,-8956.491898,1302.362347,-666.185348
1166.220485,-9104.533087,995.924147,-592.164754
1166.220796,-8734.430116,383.047749,-222.061783
1166.221108,-9030.512492,76.609550,-74.020594
1166.221419,-9252.574275,-766.095498,222.061783
1166.221731,-9474.636058,-766.095498,148.041188
1166.222042,-10510.924376,-1378.971896,444.123565
1166.222354,-10362.883188,-842.705048,740.205942
1166.222665,-10288.862594,-459.657299,370.102971
1166.222976,-10066.800811,-689.485948,296.082377
1166.223288,-9474.636058,-612.876398,-0.000000
1166.223599,-8438.347739,-689.485948,814.226536
1166.223911,-8438.347739,0.000000,370.102971
1166.224222,-8142.265362,0.000000,444.123565
1166.224534,-8512.368333,-229.828649,592.164754
1166.224845,-8586.388927,0.000000,962.267725
1166.225157,-8586.388927,0.000000,888.247130
1166.225468,-9104.533087,0.000000,814.226536
1166.225780,-9178.553681,689.485948,444.123565
1166.226091,-8734.430116,1149.143247,888.247130
1166.226403,-8882.471304,1225.752797,592.164754
1166.226714,-8290.306550,1532.190996,814.226536
1166.227025,-8142.265362,1455.581446,666.185348
1166.227337,-7624.121203,1455.581446,592.164754
1166.227648,-6587.832884,1302.362347,592.164754
1166.227960,-6587.832884,919.314598,-0.000000
1166.228271,-7254.018232,459.657299,148.041188
1166.228583,-8068.244768,-919.314598,222.061783
1166.228894,-8216.285956,-612.876398,518.144159
1166.229206,-8956.491898,-689.485948,740.205942
1166.229517,-9030.512492,-1072.533697,814.226536
1166.229829,-9474.636058,-1378.971896,888.247130
1166.230140,-9178.553681,-1225.752797,1406.391290
1166.230451,-8734.430116,-1225.752797,962.267725
1166.230763,-8216.285956,-1149.143247,592.164754
1166.231074,-8068.244768,76.609550,592.164754
1166.231386,-8512.368333,-383.047749,666.185348
1166.231697,-8142.265362,0.000000,962.267725
1166.232009,-8956.491898,153.219100,666.185348
1166.232320,-9696.697840,306.438199,666.185348
1166.232631,-10362.883188,536.266849,444.123565
1166.232943,-10732.986159,536.266849,740.205942
1166.233254,-9918.759623,1225.752797,-0.000000
1166.233566,-9474.636058,1225.752797,-74.020594
1166.233877,-9400.615463,689.485948,148.041188
1166.234189,-9252.574275,306.438199,-74.020594
1166.234500,-8512.368333,76.609550,-222.061783
1166.234811,-8438.347739,0.000000,148.041188
1166.235123,-8734.430116,-612.876398,-74.020594
1166.235434,-9622.677246,-919.314598,-370.102971
1166.235746,-9474.636058,-689.485948,-0.000000
1166.236057,-10066.800811,-766.095498,-0.000000
1166.236369,-10510.924376,-766.095498,518.144159
1166.236680,-10510.924376,-1378.971896,740.205942
1166.236991,-10066.800811,-1378.971896,1036.288319
1166.237303,-9696.697840,-1608.800546,962.267725
1166.237614,-9178.553681,-919.314598,888.247130
1166.237926,-8734.430116,153.219100,518.144159
1166.238237,-7698.141797,0.000000,666.185348
1166.238549,-8142.265362,306.438199,296.082377
1166.238860,-8364.327145,612.876398,-0.000000
1166.239172,-8142.265362,1378.971896,-0.000000
1166.239483,-8512.368333,1685.410096,-74.020594
1166.239794,-8734.430116,1532.190996,148.041188
1166.240106,-8216.285956,1455.581446,592.164754
1166.240417,-8586.388927,1072.533697,592.164754
1166.240729,-8438.347739,766.095498,814.226536
1166.241040,-7772.162391,459.657299,888.247130
1166.241352,-7920.203579,153.219100,592.164754
1166.241663,-7698.141797,153.219100,740.205942
1166.241974,-7846.182985,0.000000,444.123565
1166.242286,-8290.306550,-536.266849,370.102971
1166.242597,-8290.306550,-306.438199,444.123565
1166.242909,-8068.244768,-689.485948,-0.000000
1166.243220,-7402.059420,-459.657299,666.185348
1166.243532,-8290.306550,-1225.752797,740.205942
1166.243843,-8290.306550,-1378.971896,1554.432478
1166.244154,-8808.450710,-1838.629195,1406.391290
1166.244466,-9252.574275,-1532.190996,1702.473667
1166.244777,-9252.574275,-536.266849,1702.473667
1166.245089,-9252.574275,76.609550,1036.288319
1166.245400,-9548.656652,459.657299,1184.329507
1166.245712,-9474.636058,689.485948,592.164754
1166.246023,-9104.533087,1378.971896,222.061783
1166.246334,-9178.553681,1608.800546,-74.020594
1166.246646,-8882.471304,1532.190996,-148.041188
1166.246957,-9178.553681,1455.581446,-74.020594
1166.247269,-8956.491898,689.485948,-0.000000
1166.247580,-8438.347739,306.438199,-0.000000
1166.247892,-9178.553681,-76.609550,-148.041188
1166.248203,-9474.636058,-459.657299,370.102971
1166.248515,-9770.718434,-842.705048,148.041188
1166.248826,-10362.883188,-1378.971896,370.102971
1166.249137,-10658.965565,-919.314598,740.205942
1166.249449,-10510.924376,-766.095498,592.164754
1166.249760,-10066.800811,-766.095498,444.123565
1166.250072,-9474.636058,-1149.143247,444.123565
1166.250383,-8882.471304,-1685.410096,666.185348
1166.250695,-8142.265362,-536.266849,444.123565
1166.251006,-8216.285956,-383.047749,148.041188
1166.251317,-8216.285956,-612.876398,444.123565
1166.251629,-8586.388927,-612.876398,740.205942
1166.251940,-9400.615463,-229.828649,592.164754
1166.252252,-9548.656652,0.000000,296.082377
1166.252563,-9548.656652,842.705048,370.102971
1166.252875,-9030.512492,1149.143247,370.102971
1166.253186,-8734.430116,1378.971896,518.144159
1166.253497,-8216.285956,1915.238745,370.102971
1166.253809,-7994.224174,1532.190996,296.082377
1166.254120,-7402.059420,1225.752797,592.164754
1166.254432,-6883.915261,1225.752797,148.041188
1166.254743,-6661.853478,766.095498,-0.000000
1166.255055,-7624.121203,0.000000,-0.000000
1166.255366,-8068.244768,-459.657299,370.102971
1166.255677,-8586.388927,-612.876398,370.102971
1166.255989,-8586.388927,-766.095498,740.205942
1166.256300,-9252.574275,-1455.581446,814.226536
1166.256612,-9622.677246,-1915.238745,1184.329507
1166.256923,-9178.553681,-1685.410096,1406.391290
1166.257235,-8512.368333,-919.314598,1036.288319
1166.257546,-7772.162391,-1072.533697,1258.350101
1166.257858,-7994.224174,0.000000,814.226536
1166.258169,-8512.368333,76.609550,740.205942
1166.258480,-8660.409521,0.000000,740.205942
1166.258792,-9474.636058,536.266849,740.205942
1166.259103,-10140.821405,689.485948,592.164754
1166.259415,-10510.924376,919.314598,222.061783
1166.259726,-10288.862594,995.924147,222.061783
1166.260038,-9252.574275,1149.143247,-0.000000
1166.260349,-9400.615463,995.924147,222.061783
1166.260660,-8808.450710,995.924147,444.123565
1166.260972,-8660.409521,383.047749,-74.020594
1166.261283,-8142.265362,383.047749,-0.000000
1166.261595,-8068.244768,0.000000,-0.000000
1166.261906,-8956.491898,-612.876398,-148.041188
1166.262218,-9474.636058,-919.314598,-74.020594
1166.262529,-9696.697840,-995.924147,-0.000000
1166.262840,-9918.759623,-766.095498,666.185348
1166.263152,-10362.883188,-1532.190996,814.226536
1166.263463,-10362.883188,-1302.362347,962.267725
1166.263775,-9696.697840,-1378.971896,1184.329507
1166.264086,-9474.636058,-1378.971896,1184.329507
1166.264398,-9030.512492,-995.924147,888.247130
1166.264709,-8734.430116,0.000000,592.164754
1166.265020,-7994.224174,0.000000,814.226536
1166.265332,-8290.306550,153.219100,296.082377
1166.265643,-8142.265362,842.705048,-0.000000
1166.265955,-8290.306550,1378.971896,-0.000000
1166.266266,-8586.388927,1072.533697,222.061783
1166.266578,-8734.430116,1149.143247,666.185348
1166.266889,-8512.368333,1225.752797,222.061783
1166.267200,-8216.285956,766.095498,814.226536
1166.267512,-6957.935855,0.000000,962.267725
1166.267823,-7772.162391,229.828649,814.226536
1166.268135,-8068.244768,229.828649,666.185348
1166.268446,-7920.203579,0.000000,666.185348
1166.268758,-8068.244768,0.000000,444.123565
1166.269069,-8216.285956,-459.657299,444.123565
1166.269381,-8364.327145,-383.047749,518.144159
1166.269692,-8586.388927,-995.924147,296.082377
1166.270003,-8290.306550,-995.924147,444.123565
1166.270315,-8734.430116,-1378.971896,740.205942
1166.270626,-8808.450710,-1608.800546,814.226536
1166.270938,-9104.533087,-1225.752797,1332.370696
1166.271249,-9474.636058,-1225.752797,1480.411884
1166.271561,-9770.718434,-766.095498,1850.514855
1166.271872,-9844.739029,0.000000,1036.288319
1166.272183,-9696.697840,842.705048,962.267725
1166.272495,-8882.471304,1378.971896,518.144159
1166.272806,-9178.553681,1378.971896,-370.102971
1166.273118,-8956.491898,1915.238745,-444.123565
1166.273429,-8660.409521,1991.848295,-666.185348
1166.273741,-9030.512492,1225.752797,-592.164754
1166.274052,-9030.512492,383.047749,-74.020594
1166.274363,-9474.636058,229.828649,-74.020594
1166.274675,-9178.553681,306.438199,296.082377
1166.274986,-9252.574275,-229.828649,370.102971
1166.275298,-9622.677246,-995.924147,518.144159
1166.275609,-9844.739029,-1072.533697,740.205942
1166.275921,-9918.759623,-766.095498,592.164754
1166.276232,-9918.759623,-995.924147,592.164754
1166.276543,-9622.677246,-1072.533697,148.041188
1166.276855,-9030.512492,-689.485948,888.247130
1166.277166,-8438.347739,-1455.581446,370.102971
1166.277478,-7920.203579,-1455.581446,666.185348
1166.277789,-7994.224174,-1225.752797,592.164754
1166.278101,-8586.388927,-1149.143247,666.185348
1166.278412,-9104.533087,-1072.533697,1036.288319
1166.278724,-9474.636058,-612.876398,962.267725
1166.279035,-9474.636058,536.266849,814.226536
1166.279346,-9178.553681,1225.752797,444.123565
1166.279658,-8586.388927,1378.971896,148.041188
1166.279969,-7994.224174,1455.581446,-0.000000
1166.280281,-7994.224174,1072.533697,444.123565
1166.280592,-8290.306550,1072.533697,296.082377
1166.280904,-7476.080014,919.314598,222.061783
1166.281215,-7550.100608,383.047749,-0.000000
1166.281526,-7846.182985,536.266849,370.102971
1166.281838,-7772.162391,-383.047749,-0.000000
1166.282149,-8660.409521,-689.485948,592.164754
1166.282461,-9030.512492,-919.314598,962.267725
1166.282772,-9474.636058,-1302.362347,1332.370696
1166.283084,-9844.739029,-1762.019645,1258.350101
1166.283395,-9326.594869,-1532.190996,1332.370696
1166.283706,-8512.368333,-1302.362347,1036.288319
1166.284018,-8068.244768,-612.876398,740.205942
1166.284329,-7624.121203,153.219100,518.144159
1166.284641,-8364.327145,-689.485948,296.082377
1166.284952,-8660.409521,-229.828649,592.164754
1166.285264,-9104.533087,229.828649,1036.288319
1166.285575,-9770.718434,383.047749,814.226536
1166.285886,-10140.821405,459.657299,740.205942
1166.286198,-9918.759623,995.924147,740.205942
1166.286509,-9474.636058,1225.752797,296.082377
1166.286821,-8956.491898,1378.971896,-0.000000
1166.287132,-8808.450710,995.924147,296.082377
1166.287444,-8660.409521,689.485948,-0.000000
1166.287755,-8438.347739,306.438199,-296.082377
1166.288066,-7994.224174,76.609550,-0.000000
1166.288378,-8586.388927,0.000000,-74.020594
1166.288689,-9326.594869,-459.657299,-148.041188
1166.289001,-9844.739029,-153.219100,-0.000000
1166.289312,-10214.842000,-229.828649,444.123565
1166.289624,-10288.862594,-919.314598,962.267725
1166.289935,-10436.903782,-1072.533697,740.205942
1166.290247,-9918.759623,-842.705048,1036.288319
1166.290558,-9326.594869,-766.095498,814.226536
1166.290869,-8660.409521,-383.047749,962.267725
1166.291181,-8586.388927,-229.828649,814.226536
1166.291492,-8586.388927,-306.438199,592.164754
1166.291804,-8290.306550,76.609550,-0.000000
1166.292115,-8734.430116,919.314598,-74.020594
1166.292427,-8438.347739,1302.362347,-222.061783
1166.292738,-8956.491898,1378.971896,-0.000000
1166.293049,-9178.553681,842.705048,296.082377
1166.293361,-8956.491898,689.485948,592.164754
1166.293672,-9178.553681,-153.219100,518.144159
1166.293984,-8660.409521,612.876398,1184.329507
1166.294295,-9030.512492,459.657299,444.123565
1166.294607,-7772.162391,0.000000,592.164754
1166.294918,-7846.182985,-383.047749,666.185348
1166.295229,-7772.162391,-459.657299,518.144159
1166.295541,-7772.162391,-689.485948,444.123565
1166.295852,-7994.224174,-766.095498,148.041188
1166.296164,-7846.182985,-1225.752797,370.102971
1166.296475,-8364.327145,-2451.505594,296.082377
1166.296787,-8734.430116,-1915.238745,740.205942
1166.297098,-8956.491898,-2145.067394,888.247130
1166.297409,-9104.533087,-1532.190996,962.267725
1166.297721,-9400.615463,-1149.143247,962.267725
1166.298032,-8956.491898,-995.924147,1184.329507
1166.298344,-8956.491898,-383.047749,1110.308913
1166.298655,-9326.594869,612.876398,666.185348
1166.298967,-9622.677246,1149.143247,444.123565
1166.299278,-9474.636058,1608.800546,-0.000000
1166.299590,-9474.636058,1455.581446,-148.041188
1166.299901,-9474.636058,1685.410096,-148.041188
1166.300212,-9104.533087,1455.581446,-74.020594
1166.300524,-9326.594869,536.266849,-296.082377
1166.300835,-8956.491898,459.657299,-0.000000
1166.301147,-9030.512492,612.876398,-0.000000
1166.301458,-9474.636058,-153.219100,-0.000000
1166.301770,-9252.574275,-766.095498,444.123565
1166.302081,-10214.842000,-1225.752797,518.144159
1166.302392,-10066.800811,-383.047749,814.226536
1166.302704,-10066.800811,0.000000,666.185348
1166.303015,-10140.821405,-536.266849,592.164754
1166.303327,-9474.636058,-459.657299,518.144159
1166.303638,-8734.430116,-536.266849,592.164754
1166.303950,-8216.285956,-689.485948,518.144159
1166.304261,-8290.306550,-1149.143247,444.123565
1166.304572,-8808.450710,-459.657299,518.144159
1166.304884,-8660.409521,0.000000,666.185348
1166.305195,-8734.430116,306.438199,814.226536
1166.305507,-9400.615463,919.314598,888.247130
1166.305818,-8808.450710,689.485948,666.185348
1166.306130,-9030.512492,995.924147,666.185348
1166.306441,-8438.347739,1225.752797,518.144159
1166.306752,-8068.244768,1762.019645,518.144159
1166.307064,-7772.162391,1532.190996,666.185348
1166.307375,-7328.038826,1378.971896,444.123565
1166.307687,-7328.038826,842.705048,222.061783
1166.307998,-7179.997637,229.828649,-0.000000
1166.308310,-7698.141797,76.609550,-0.000000
1166.308621,-7994.224174,0.000000,666.185348
1166.308933,-8660.409521,-689.485948,740.205942
1166.309244,-8882.471304,-1149.143247,962.267725
1166.309555,-8808.450710,-1302.362347,814.226536
1166.309867,-9178.553681,-1225.752797,962.267725
1166.310178,-8512.368333,-1302.362347,1258.350101
1166.310490,-8882.471304,-1225.752797,666.185348
1166.310801,-8734.430116,-1149.143247,1036.288319
1166.311113,-7920.203579,-842.705048,1036.288319
1166.311424,-8808.450710,-1149.143247,370.102971
1166.311735,-8586.388927,-153.219100,1036.288319
1166.312047,-9178.553681,-306.438199,296.082377
1166.312358,-9992.780217,229.828649,222.061783
1166.312670,-10214.842000,459.657299,296.082377
1166.312981,-10288.862594,1072.533697,148.041188
1166.313293,-10066.800811,919.314598,-0.000000
1166.313604,-9918.759623,766.095498,-0.000000
1166.313915,-9178.553681,536.266849,-444.123565
1166.314227,-8586.388927,306.438199,-148.041188
1166.314538,-8290.306550,153.219100,-296.082377
1166.314850,-8290.306550,0.000000,-0.000000
1166.315161,-9178.553681,-842.705048,-148.041188
1166.315473,-9474.636058,-1225.752797,-74.020594
1166.315784,-10140.821405,-1378.971896,666.185348
1166.316095,-10214.842000,-919.314598,592.164754
1166.316407,-10510.924376,-1072.533697,666.185348
1166.316718,-10066.800811,-689.485948,814.226536
1166.317030,-9474.636058,-383.047749,1184.329507
1166.317341,-9178.553681,-383.047749,1184.329507
1166.317653,-8142.265362,-536.266849,1036.288319
1166.317964,-8364.327145,-229.828649,962.267725
1166.318275,-7772.162391,612.876398,740.205942
1166.318587,-7328.038826,689.485948,666.185348
1166.318898,-7846.182985,919.314598,148.041188
1166.319210,-8216.285956,919.314598,370.102971
1166.319521,-8660.409521,766.095498,444.123565
1166.319833,-9252.574275,842.705048,592.164754
1166.320144,-8808.450710,1072.533697,814.226536
1166.320456,-8956.491898,1149.143247,518.144159
1166.320767,-7920.203579,459.657299,1406.391290
1166.321078,-7179.997637,689.485948,666.185348
1166.321390,-7550.100608,76.609550,740.205942
1166.321701,-7254.018232,0.000000,518.144159
1166.322013,-7772.162391,-383.047749,296.082377
1166.322324,-8216.285956,-766.095498,296.082377
1166.322636,-8512.368333,-689.485948,222.061783
1166.322947,-8438.347739,-1072.533697,222.061783
1166.323258,-8882.471304,-1532.190996,740.205942
1166.323570,-9400.615463,-1915.238745,296.082377
1166.323881,-9104.533087,-1991.848295,814.226536
1166.324193,-9104.533087,-1378.971896,1110.308913
1166.324504,-9474.636058,-995.924147,1110.308913
1166.324816,-9474.636058,-612.876398,1110.308913
1166.325127,-9252.574275,-153.219100,666.185348
1166.325438,-9400.615463,383.047749,222.061783
1166.325750,-9178.553681,1072.533697,-0.000000
1166.326061,-9400.615463,995.924147,-148.041188
1166.326373,-9548.656652,1072.533697,-74.020594
1166.326684,-9326.594869,1225.752797,-222.061783
1166.326996,-9548.656652,1149.143247,-74.020594
1166.327307,-9992.780217,842.705048,-0.000000
1166.327618,-9696.697840,-383.047749,-0.000000
1166.327930,-9474.636058,-1149.143247,-0.000000
1166.328241,-9104.533087,-612.876398,370.102971
1166.328553,-9326.594869,-1072.533697,518.144159
1166.328864,-10362.883188,-919.314598,370.102971
1166.329176,-10288.862594,-612.876398,666.185348
1166.329487,-10066.800811,-689.485948,592.164754
1166.329799,-9622.677246,-1302.362347,666.185348
1166.330110,-8882.471304,-1072.533697,666.185348
1166.330422,-8586.388927,-842.705048,740.205942
1166.330733,-8364.327145,-689.485948,740.205942
1166.331045,-8068.244768,-229.828649,592.164754
1166.331356,-8512.368333,0.000000,962.267725
1166.331668,-8512.368333,0.000000,962.267725
1166.331979,-8512.368333,153.219100,888.247130
1166.332291,-8142.265362,612.876398,666.185348
1166.332602,-8290.306550,1225.752797,518.144159
1166.332913,-8808.450710,1378.971896,370.102971
1166.333225,-8438.347739,2068.457845,592.164754
1166.333536,-7920.203579,1915.238745,592.164754
1166.333848,-7698.141797,1685.410096,592.164754
1166.334159,-7328.038826,1149.143247,592.164754
1166.334471,-7254.018232,842.705048,296.082377
1166.334782,-7105.977043,229.828649,518.144159
1166.335094,-7402.059420,0.000000,518.144159
1166.335405,-7846.182985,-1072.533697,962.267725
1166.335717,-9030.512492,-842.705048,814.226536
1166.336028,-9178.553681,-995.924147,1110.308913
1166.336340,-9030.512492,-1532.190996,1258.350101
1166.336651,-8586.388927,-1762.019645,1258.350101
1166.336963,-8586.388927,-1685.410096,1258.350101
1166.337274,-8808.450710,-1532.190996,740.205942
1166.337586,-8142.265362,-919.314598,962.267725
1166.337897,-8512.368333,-229.828649,1110.308913
1166.338209,-9252.574275,-766.095498,1110.308913
1166.338520,-9252.574275,0.000000,962.267725
1166.338832,-9474.636058,459.657299,814.226536
1166.339143,-9548.656652,689.485948,444.123565
1166.339455,-10066.800811,383.047749,222.061783
1166.339766,-10066.800811,1302.362347,296.082377
1166.340078,-9400.615463,1991.848295,-74.020594
1166.340389,-9474.636058,1072.533697,-296.082377
1166.340700,-9252.574275,995.924147,-0.000000
1166.341012,-8660.409521,536.266849,-370.102971
1166.341323,-8290.306550,153.219100,-296.082377
1166.341635,-8512.368333,-306.438199,-148.041188
1166.341946,-9400.615463,-1149.143247,-0.000000
1166.342258,-9992.780217,0.000000,370.102971
1166.342569,-10510.924376,-1225.752797,666.185348
1166.342881,-10732.986159,-1532.190996,888.247130
1166.343192,-10658.965565,-1072.533697,666.185348
1166.343504,-9918.759623,-536.266849,814.226536
1166.343815,-9400.615463,-1149.143247,740.205942
1166.344127,-8512.368333,-612.876398,740.205942
1166.344438,-8512.368333,0.000000,296.082377
1166.344750,-7994.224174,306.438199,592.164754
1166.345061,-8068.244768,0.000000,444.123565
1166.345373,-8364.327145,306.438199,296.082377
1166.345684,-8068.244768,995.924147,-0.000000
1166.345996,-7550.100608,1225.752797,-74.020594
1166.346307,-8142.265362,766.095498,296.082377
1166.346619,-8438.347739,612.876398,592.164754
1166.346930,-8512.368333,1302.362347,666.185348
1166.347242,-8438.347739,919.314598,666.185348
1166.347553,-7846.182985,689.485948,1258.350101
1166.347865,-7698.141797,536.266849,666.185348
1166.348176,-7402.059420,76.609550,518.144159
1166.348487,-7254.018232,-229.828649,296.082377
1166.348799,-7846.182985,-459.657299,296.082377
1166.349110,-8216.285956,-536.266849,518.144159
1166.349422,-8586.388927,-1072.533697,-0.000000
1166.349733,-8734.430116,-919.314598,370.102971
1166.350045,-8882.471304,-2451.505594,1036.288319
1166.350356,-8734.430116,-2221.676944,1184.329507
1166.350668,-8956.491898,-1532.190996,814.226536
1166.350979,-9474.636058,-1149.143247,888.247130
1166.351291,-9622.677246,-612.876398,1184.329507
1166.351602,-9844.739029,-153.219100,1258.350101
1166.351914,-9770.718434,0.000000,962.267725
1166.352225,-9992.780217,153.219100,518.144159
1166.352537,-9474.636058,1072.533697,518.144159
1166.352848,-9104.533087,919.314598,-148.041188
1166.353160,-9326.594869,1225.752797,-444.123565
1166.353471,-9030.512492,1378.971896,-444.123565
1166.353783,-9474.636058,1072.533697,-148.041188
1166.354094,-9400.615463,689.485948,370.102971
1166.354406,-9770.718434,0.000000,-148.041188
1166.354717,-9770.718434,153.219100,-0.000000
1166.355029,-9474.636058,0.000000,-0.000000
1166.355340,-9622.677246,-1149.143247,222.061783
1166.355652,-9770.718434,-842.705048,370.102971
1166.355963,-9918.759623,-842.705048,518.144159
1166.356274,-9622.677246,-919.314598,666.185348
1166.356586,-9474.636058,-919.314598,370.102971
1166.356897,-8956.491898,-459.657299,666.185348
1166.357209,-8808.450710,-919.314598,370.102971
1166.357520,-7846.182985,-459.657299,888.247130
1166.357832,-8438.347739,-689.485948,666.185348
1166.358143,-8216.285956,76.609550,1036.288319
1166.358455,-8216.285956,229.828649,592.164754
1166.358766,-8512.368333,459.657299,814.226536
1166.359078,-8882.471304,1072.533697,740.205942
1166.359389,-9252.574275,1225.752797,666.185348
1166.359701,-8734.430116,1685.410096,666.185348
1166.360012,-7550.100608,1302.362347,814.226536
1166.360324,-7698.141797,1072.533697,814.226536
1166.360635,-7550.100608,1072.533697,518.144159
1166.360947,-7328.038826,536.266849,518.144159
1166.361258,-7550.100608,766.095498,444.123565
1166.361570,-7624.121203,0.000000,370.102971
1166.361881,-7550.100608,-383.047749,518.144159
1166.362193,-8438.347739,0.000000,962.267725
1166.362504,-8882.471304,-536.266849,1036.288319
1166.362816,-8660.409521,-766.095498,888.247130
1166.363127,-8956.491898,-1225.752797,888.247130
1166.363438,-8808.450710,-1072.533697,1036.288319
1166.363750,-8956.491898,-919.314598,1184.329507
1166.364061,-8882.471304,-842.705048,592.164754
1166.364373,-8586.388927,-306.438199,518.144159
1166.364684,-8438.347739,-612.876398,296.082377
1166.364996,-9104.533087,229.828649,370.102971
1166.365307,-9326.594869,383.047749,740.205942
1166.365619,-9844.739029,0.000000,148.041188
1166.365930,-10140.821405,76.609550,370.102971
1166.366242,-10140.821405,689.485948,444.123565
1166.366553,-9918.759623,766.095498,-0.000000
1166.366865,-9474.636058,995.924147,-74.020594
1166.367176,-9992.780217,383.047749,-518.144159
1166.367488,-9252.574275,229.828649,-0.000000
1166.367799,-8734.430116,-153.219100,-0.000000
1166.368111,-8956.491898,-153.219100,-222.061783
1166.368422,-9178.553681,-459.657299,-74.020594
1166.368734,-9622.677246,-1302.362347,-148.041188
1166.369045,-10362.883188,-1762.019645,148.041188
1166.369357,-10066.800811,-766.095498,370.102971
1166.369668,-10140.821405,-1378.971896,666.185348
1166.369980,-10066.800811,-842.705048,444.123565
1166.370291,-9622.677246,-383.047749,666.185348
1166.370603,-9104.533087,-536.266849,740.205942
1166.370914,-8290.306550,-459.657299,888.247130
1166.371225,-8512.368333,-306.438199,592.164754
1166.371537,-8364.327145,0.000000,518.144159
1166.371848,-7772.162391,229.828649,74.020594
1166.372160,-7624.121203,842.705048,444.123565
1166.372471,-7254.018232,1072.533697,370.102971
1166.372783,-8364.327145,842.705048,-0.000000
1166.373094,-8438.347739,919.314598,592.164754
1166.373406,-8438.347739,1455.581446,1110.308913
1166.373717,-8734.430116,1225.752797,666.185348
1166.374029,-8882.471304,1302.362347,888.247130
1166.374340,-8438.347739,612.876398,592.164754
1166.374652,-7846.182985,0.000000,666.185348
1166.374963,-7328.038826,0.000000,888.247130
1166.375275,-7772.162391,76.609550,518.144159
1166.375586,-7994.224174,-153.219100,370.102971
1166.375898,-7994.224174,-689.485948,666.185348
1166.376209,-8290.306550,-842.705048,740.205942
1166.376521,-8068.244768,-919.314598,518.144159
1166.376832,-8068.244768,-995.924147,666.185348
1166.377144,-8734.430116,-1149.143247,740.205942
1166.377455,-9252.574275,-995.924147,888.247130
1166.377767,-9474.636058,-995.924147,1110.308913
1166.378078,-9622.677246,-766.095498,888.247130
1166.378390,-9548.656652,-612.876398,1036.288319
1166.378701,-9696.697840,0.000000,518.144159
1166.379012,-9844.739029,1302.362347,-0.000000
1166.379324,-9770.718434,153.219100,296.082377
1166.379635,-9844.739029,612.876398,-0.000000
1166.379947,-9622.677246,1149.143247,-0.000000
1166.380258,-9696.697840,919.314598,-0.000000
1166.380570,-9696.697840,842.705048,-148.041188
1166.380881,-9474.636058,459.657299,-148.041188
1166.381193,-8882.471304,0.000000,222.061783
1166.381504,-9326.594869,-306.438199,-74.020594
1166.381816,-9400.615463,-536.266849,296.082377
1166.382127,-9918.759623,-919.314598,296.082377
1166.382439,-10140.821405,-766.095498,592.164754
1166.382750,-10214.842000,-689.485948,814.226536
1166.383062,-10140.821405,-612.876398,666.185348
1166.383373,-8956.491898,-459.657299,518.144159
1166.383685,-8364.327145,-536.266849,222.061783
1166.383996,-8216.285956,-995.924147,518.144159
1166.384308,-7846.182985,-995.924147,222.061783
1166.384619,-8364.327145,-459.657299,444.123565
1166.384931,-8512.368333,-229.828649,666.185348
1166.385242,-8586.388927,0.000000,370.102971
1166.385554,-9400.615463,0.000000,740.205942
1166.385865,-9252.574275,459.657299,962.267725
1166.386177,-9104.533087,995.924147,1036.288319
1166.386488,-8734.430116,1455.581446,814.226536
1166.386799,-8216.285956,1455.581446,740.205942
1166.387111,-7920.203579,1455.581446,444.123565
1166.387422,-7328.038826,1455.581446,370.102971
1166.387734,-7031.956449,1455.581446,148.041188
1166.388045,-7254.018232,995.924147,-0.000000
1166.388357,-7772.162391,0.000000,370.102971
1166.388668,-8438.347739,153.219100,148.041188
1166.388980,-8956.491898,0.000000,518.144159
1166.389291,-8882.471304,-612.876398,592.164754
1166.389603,-9030.512492,-1072.533697,444.123565
1166.389914,-9178.553681,-1072.533697,888.247130
1166.390226,-8660.409521,-1149.143247,1258.350101
1166.390537,-9030.512492,-919.314598,1110.308913
1166.390849,-8586.388927,-612.876398,1184.329507
1166.391160,-8438.347739,-383.047749,1036.288319
1166.391472,-8586.388927,-459.657299,666.185348
1166.391783,-8364.327145,-229.828649,740.205942
1166.392095,-8956.491898,459.657299,592.164754
1166.392406,-9400.615463,689.485948,592.164754
1166.392718,-10214.842000,919.314598,222.061783
1166.393029,-10362.883188,689.485948,444.123565
1166.393341,-9696.697840,1149.143247,666.185348
1166.393652,-10066.800811,1378.971896,-0.000000
1166.393963,-9474.636058,766.095498,-0.000000
1166.394275,-8512.368333,153.219100,-0.000000
1166.394586,-8068.244768,0.000000,-0.000000
1166.394898,-8364.327145,-536.266849,148.041188
1166.395209,-9474.636058,-612.876398,-0.000000
1166.395521,-9992.780217,-1225.752797,-0.000000
1166.395832,-9622.677246,-995.924147,592.164754
1166.396144,-10584.944971,-1225.752797,592.164754
1166.396455,-10288.862594,-1302.362347,666.185348
1166.396767,-9992.780217,-1149.143247,666.185348
1166.397078,-9400.615463,-1225.752797,962.267725
1166.397390,-9030.512492,-1378.971896,1184.329507
1166.397701,-8512.368333,-612.876398,1036.288319
1166.398013,-8586.388927,-689.485948,814.226536
1166.398324,-7920.203579,383.047749,740.205942
1166.398636,-8068.244768,766.095498,296.082377
1166.398947,-8142.265362,459.657299,222.061783
1166.399259,-8364.327145,766.095498,-0.000000
1166.399570,-8660.409521,766.095498,-0.000000
1166.399882,-8808.450710,766.095498,370.102971
1166.400193,-8808.450710,689.485948,444.123565
1166.400505,-8660.409521,229.828649,592.164754
1166.400816,-7550.100608,0.000000,962.267725
1166.401128,-8068.244768,-306.438199,444.123565
1166.401439,-7846.182985,0.000000,962.267725
1166.401750,-7846.182985,0.000000,666.185348
1166.402062,-8216.285956,0.000000,592.164754
1166.402373,-8290.306550,536.266849,518.144159
1166.402685,-8438.347739,-1225.752797,222.061783
1166.402996,-7994.224174,-766.095498,222.061783
1166.403308,-8734.430116,-766.095498,-0.000000
1166.403619,-8808.450710,-1378.971896,518.144159
1166.403931,-8882.471304,-689.485948,740.205942
1166.404242,-9326.594869,-229.828649,592.164754
1166.404554,-9696.697840,-689.485948,888.247130
1166.404865,-9178.553681,-919.314598,814.226536
1166.405177,-9326.594869,536.266849,888.247130
1166.405488,-9326.594869,919.314598,222.061783
1166.405800,-9030.512492,1455.581446,518.144159
1166.406111,-9548.656652,1149.143247,222.061783
1166.406423,-9474.636058,1149.143247,-0.000000
1166.406734,-8808.450710,1608.800546,-74.020594
1166.407046,-9326.594869,1072.533697,-148.041188
1166.407357,-9474.636058,995.924147,-370.102971
1166.407669,-9030.512492,0.000000,-74.020594
1166.407980,-8956.491898,-383.047749,-0.000000
1166.408292,-9400.615463,-919.314598,666.185348
1166.408603,-9548.656652,-1072.533697,888.247130
1166.408915,-10214.842000,-1225.752797,814.226536
1166.409226,-9918.759623,-995.924147,1184.329507
1166.409537,-9770.718434,-842.705048,888.247130
1166.409849,-8808.450710,0.000000,666.185348
1166.410160,-8586.388927,-306.438199,-0.000000
1166.410472,-8438.347739,-919.314598,444.123565
1166.410783,-7846.182985,-766.095498,740.205942
1166.411095,-8290.306550,-766.095498,888.247130
1166.411406,-8734.430116,-229.828649,962.267725
1166.411718,-8438.347739,-306.438199,1110.308913
1166.412029,-8956.491898,153.219100,962.267725
1166.412341,-8956.491898,-153.219100,1036.288319
1166.412652,-8438.347739,536.266849,962.267725
1166.412964,-8882.471304,1149.143247,444.123565
1166.413275,-8660.409521,1302.362347,444.123565
1166.413587,-8512.368333,1225.752797,592.164754
1166.413898,-8364.327145,919.314598,444.123565
1166.414210,-7994.224174,766.095498,518.144159
1166.414521,-8068.244768,153.219100,-0.000000
1166.414833,-7772.162391,229.828649,-0.000000
1166.415144,-7476.080014,229.828649,74.020594
1166.415456,-8364.327145,-919.314598,-74.020594
1166.415767,-9030.512492,-1149.143247,740.205942
1166.416079,-9178.553681,-842.705048,1036.288319
1166.416390,-9400.615463,-1225.752797,740.205942
1166.416702,-9178.553681,-1455.581446,962.267725
1166.417013,-8586.388927,-1225.752797,1036.288319
1166.417324,-8438.347739,-689.485948,296.082377
1166.417636,-7920.203579,-536.266849,370.102971
1166.417947,-8734.430116,0.000000,-0.000000
1166.418259,-9104.533087,0.000000,518.144159
1166.418570,-9178.553681,612.876398,444.123565
1166.418882,-9844.739029,459.657299,-0.000000
1166.419193,-9918.759623,536.266849,370.102971
1166.419505,-9844.739029,459.657299,296.082377
1166.419816,-9770.718434,306.438199,-0.000000
1166.420128,-9474.636058,1455.581446,-0.000000
1166.420439,-9178.553681,766.095498,-222.061783
1166.420751,-8882.471304,842.705048,-0.000000
1166.421062,-8364.327145,229.828649,-296.082377
1166.421374,-7994.224174,229.828649,-74.020594
1166.421685,-8290.306550,-229.828649,-0.000000
1166.421997,-9030.512492,-459.657299,-296.082377
1166.422308,-9696.697840,-612.876398,296.082377
1166.422620,-9918.759623,-919.314598,444.123565
1166.422931,-10140.821405,-919.314598,592.164754
1166.423243,-10214.842000,-919.314598,740.205942
1166.423554,-9918.759623,-919.314598,740.205942
1166.423866,-9622.677246,-842.705048,666.185348
1166.424177,-9104.533087,-919.314598,814.226536
1166.424488,-8586.388927,-306.438199,1184.329507
1166.424800,-8364.327145,0.000000,888.247130
1166.425111,-7698.141797,689.485948,666.185348
1166.425423,-8290.306550,383.047749,518.144159
1166.425734,-7920.203579,383.047749,518.144159
1166.426046,-8660.409521,612.876398,148.041188
1166.426357,-8734.430116,689.485948,518.144159
1166.426669,-8290.306550,536.266849,518.144159
1166.426980,-8808.450710,536.266849,888.247130
1166.427292,-8882.471304,766.095498,1480.411884
1166.427603,-8068.244768,0.000000,1036.288319
1166.427915,-8216.285956,0.000000,1036.288319
1166.428226,-7772.162391,306.438199,592.164754
1166.428538,-7772.162391,306.438199,296.082377
1166.428849,-7994.224174,-153.219100,148.041188
1166.429161,-7772.162391,-229.828649,296.082377
1166.429472,-8660.409521,-536.266849,370.102971
1166.429784,-8068.244768,-1685.410096,518.144159
1166.430095,-8808.450710,-1532.190996,592.164754
1166.430407,-9178.553681,-1762.019645,962.267725
1166.430718,-9400.615463,-1302.362347,1036.288319
1166.431030,-9326.594869,-1072.533697,1110.308913
1166.431341,-9400.615463,-842.705048,1110.308913
1166.431653,-9548.656652,0.000000,888.247130
1166.431964,-9400.615463,306.438199,740.205942
1166.432276,-9622.677246,995.924147,370.102971
1166.432587,-9178.553681,1608.800546,-0.000000
1166.432899,-9400.615463,1378.971896,-148.041188
1166.433210,-9178.553681,1532.190996,-74.020594
1166.433522,-8882.471304,1915.238745,-222.061783
1166.433833,-9252.574275,1455.581446,-370.102971
1166.434144,-9030.512492,842.705048,370.102971
1166.434456,-9474.636058,0.000000,-0.000000
1166.434767,-8956.491898,153.219100,296.082377
1166.435079,-9474.636058,0.000000,74.020594
1166.435390,-9844.739029,-689.485948,222.061783
1166.435702,-9622.677246,-612.876398,592.164754
1166.436013,-9622.677246,-612.876398,370.102971
1166.436325,-9918.759623,-689.485948,-0.000000
1166.436636,-9178.553681,-842.705048,222.061783
1166.436948,-8660.409521,-766.095498,518.144159
1166.437259,-8956.491898,-919.314598,296.082377
1166.437571,-8512.368333,-1378.971896,444.123565
1166.437882,-8660.409521,-1072.533697,444.123565
1166.438194,-8808.450710,-766.095498,592.164754
1166.438505,-8438.347739,-306.438199,592.164754
1166.438817,-8734.430116,459.657299,814.226536
1166.439128,-8808.450710,306.438199,962.267725
1166.439440,-9400.615463,766.095498,518.144159
1166.439751,-8586.388927,1149.143247,1110.308913
1166.440063,-8438.347739,1072.533697,444.123565
1166.440374,-8068.244768,1149.143247,296.082377
1166.440686,-7698.141797,766.095498,-0.000000
1166.440997,-7179.997637,459.657299,148.041188
1166.441309,-7105.977043,0.000000,370.102971
1166.441620,-7402.059420,-153.219100,296.082377
1166.441932,-8512.368333,-612.876398,666.185348
1166.442243,-8882.471304,-1225.752797,814.226536
1166.442555,-9104.533087,-995.924147,1332.370696
1166.442866,-9104.533087,-919.314598,1110.308913
1166.443178,-9400.615463,-1302.362347,740.205942
1166.443489,-8734.430116,-1149.143247,962.267725
1166.443801,-8734.430116,-1149.143247,592.164754
1166.444112,-9030.512492,-1685.410096,666.185348
1166.444424,-8364.327145,-229.828649,1036.288319
1166.444735,-9104.533087,-306.438199,444.123565
1166.445046,-8882.471304,0.000000,592.164754
1166.445358,-9030.512492,229.828649,518.144159
1166.445669,-9326.594869,766.095498,148.041188
1166.445981,-9474.636058,689.485948,370.102971
1166.446292,-10066.800811,766.095498,296.082377
1166.446604,-9622.677246,1225.752797,296.082377
1166.446915,-9030.512492,1532.190996,370.102971
1166.447227,-9252.574275,1149.143247,-74.020594
1166.447538,-8660.409521,766.095498,-222.061783
1166.447850,-8512.368333,383.047749,-296.082377
1166.448161,-8364.327145,383.047749,-222.061783
1166.448473,-8956.491898,0.000000,-518.144159
1166.448784,-9918.759623,-536.266849,296.082377
1166.449096,-10214.842000,-153.219100,444.123565
1166.449407,-10140.821405,-995.924147,296.082377
1166.449719,-10288.862594,-689.485948,814.226536
1166.450030,-9770.718434,-766.095498,592.164754
1166.450342,-9252.574275,-383.047749,962.267725
1166.450653,-9178.553681,-689.485948,1036.288319
1166.450965,-8512.368333,-383.047749,1184.329507
1166.451276,-8216.285956,-306.438199,888.247130
1166.451588,-7105.977043,76.609550,148.041188
1166.451899,-7476.080014,-153.219100,222.061783
1166.452211,-8068.244768,306.438199,296.082377
1166.452522,-7772.162391,229.828649,296.082377
1166.452834,-9030.512492,153.219100,444.123565
1166.453145,-8882.471304,229.828649,888.247130
1166.453457,-9030.512492,536.266849,444.123565
1166.453768,-8882.471304,306.438199,888.247130
1166.454080,-8438.347739,76.609550,740.205942
1166.454391,-7920.203579,0.000000,444.123565
1166.454703,-7402.059420,0.000000,666.185348
1166.455014,-7476.080014,0.000000,592.164754
1166.455326,-8216.285956,-229.828649,296.082377
1166.455637,-8660.409521,-306.438199,518.144159
1166.455949,-8586.388927,-306.438199,592.164754
1166.456260,-8438.347739,-766.095498,370.102971
1166.456571,-7994.224174,-1455.581446,666.185348
1166.456883,-8808.450710,-1455.581446,518.144159
1166.457194,-9104.533087,-1532.190996,888.247130
1166.457506,-9252.574275,-1302.362347,1110.308913
1166.457817,-9622.677246,-766.095498,1110.308913
1166.458129,-9474.636058,-383.047749,1036.288319
1166.458440,-9770.718434,-383.047749,740.205942
1166.458752,-9030.512492,459.657299,1036.288319
1166.459063,-8956.491898,1149.143247,296.082377
1166.459375,-9326.594869,1072.533697,592.164754
1166.459686,-9770.718434,689.485948,-0.000000
1166.459998,-9252.574275,1149.143247,-0.000000
1166.460309,-9474.636058,1302.362347,148.041188
1166.460621,-9326.594869,995.924147,222.061783
1166.460932,-9030.512492,536.266849,296.082377
1166.461244,-8882.471304,0.000000,444.123565
1166.461555,-8438.347739,76.609550,-0.000000
1166.461867,-9252.574275,-229.828649,222.061783
1166.462178,-9548.656652,-383.047749,518.144159
1166.462490,-9474.636058,-459.657299,666.185348
1166.462801,-9696.697840,-536.266849,370.102971
1166.463113,-9400.615463,-612.876398,-0.000000
1166.463424,-9104.533087,-689.485948,888.247130
1166.463736,-8586.388927,-536.266849,296.082377
1166.464047,-8512.368333,-612.876398,296.082377
1166.464359,-8364.327145,-919.314598,592.164754
1166.464670,-8734.430116,-459.657299,518.144159
1166.464982,-8438.347739,0.000000,592.164754
1166.465293,-8142.265362,0.000000,592.164754
1166.465605,-8882.471304,0.000000,296.082377
1166.465916,-8882.471304,459.657299,888.247130
1166.466228,-9326.594869,766.095498,370.102971
1166.466539,-9104.533087,995.924147,518.144159
1166.466851,-8586.388927,1072.533697,666.185348
1166.467162,-8586.388927,842.705048,296.082377
1166.467473,-7846.182985,689.485948,444.123565
1166.467785,-7328.038826,459.657299,370.102971
1166.468096,-7254.018232,536.266849,370.102971
1166.468408,-7550.100608,-459.657299,592.164754
1166.468719,-7772.162391,-766.095498,370.102971
1166.469031,-9178.553681,-842.705048,666.185348
1166.469342,-9104.533087,-919.314598,888.247130
1166.469654,-9400.615463,-995.924147,1110.308913
1166.469965,-9474.636058,-1532.190996,666.185348
1166.470277,-9474.636058,-1685.410096,592.164754
1166.470588,-9474.636058,-1225.752797,444.123565
1166.470900,-8882.471304,-459.657299,740.205942
1166.471211,-8956.491898,-1149.143247,518.144159
1166.471523,-8956.491898,-995.924147,888.247130
1166.471834,-9104.533087,-536.266849,1110.308913
1166.472146,-9326.594869,306.438199,814.226536
1166.472457,-9474.636058,536.266849,814.226536
1166.472769,-10214.842000,1072.533697,-0.000000
1166.473080,-10066.800811,1915.238745,296.082377
1166.473392,-9178.553681,1608.800546,-0.000000
1166.473703,-9178.553681,1838.629195,-0.000000
1166.474015,-9030.512492,1378.971896,-74.020594
1166.474326,-8734.430116,919.314598,-222.061783
1166.474638,-8734.430116,612.876398,-0.000000
1166.474949,-8660.409521,229.828649,148.041188
1166.475261,-9326.594869,0.000000,-0.000000
1166.475572,-9474.636058,-612.876398,296.082377
1166.475884,-9696.697840,-383.047749,296.082377
1166.476195,-9770.718434,-1149.143247,962.267725
1166.476507,-9548.656652,-459.657299,888.247130
1166.476818,-9400.615463,-536.266849,814.226536
1166.477130,-9030.512492,-612.876398,1184.329507
1166.477441,-8438.347739,-1225.752797,888.247130
1166.477753,-7920.203579,-229.828649,1036.288319
1166.478064,-7698.141797,-536.266849,1184.329507
1166.478375,-7624.121203,-153.219100,592.164754
1166.478687,-8512.368333,229.828649,222.061783
1166.478998,-8512.368333,459.657299,370.102971
1166.479310,-8364.327145,766.095498,296.082377
1166.479621,-8734.430116,306.438199,592.164754
1166.479933,-8956.491898,383.047749,444.123565
1166.480244,-8956.491898,536.266849,222.061783
1166.480556,-7920.203579,153.219100,666.185348
1166.480867,-7550.100608,229.828649,888.247130
1166.481179,-7624.121203,0.000000,370.102971
1166.481490,-7772.162391,-229.828649,592.164754
1166.481802,-7772.162391,-306.438199,296.082377
1166.482113,-7994.224174,-919.314598,518.144159
1166.482425,-8512.368333,-612.876398,296.082377
1166.482736,-9326.594869,-1072.533697,370.102971
1166.483048,-9400.615463,-1608.800546,74.020594
1166.483359,-9474.636058,-1991.848295,370.102971
1166.483671,-9474.636058,-1685.410096,518.144159
1166.483982,-9326.594869,-1149.143247,444.123565
1166.484294,-9474.636058,-1225.752797,444.123565
1166.484605,-9474.636058,-919.314598,888.247130
1166.484917,-8956.491898,-689.485948,592.164754
1166.485228,-9548.656652,-306.438199,666.185348
1166.485540,-9252.574275,229.828649,592.164754
1166.485851,-9326.594869,919.314598,296.082377
1166.486163,-10066.800811,536.266849,-0.000000
1166.486474,-9548.656652,766.095498,222.061783
1166.486786,-9252.574275,842.705048,-0.000000
1166.487097,-9400.615463,919.314598,148.041188
1166.487409,-9252.574275,459.657299,148.041188
1166.487720,-8586.388927,536.266849,296.082377
1166.488032,-8808.450710,-383.047749,-0.000000
1166.488343,-8660.409521,-153.219100,592.164754
1166.488655,-9400.615463,-612.876398,296.082377
1166.488966,-9918.759623,-229.828649,296.082377
1166.489277,-9770.718434,76.609550,740.205942
1166.489589,-9326.594869,76.609550,666.185348
1166.489900,-9474.636058,-306.438199,444.123565
1166.490212,-8290.306550,383.047749,1110.308913
1166.490523,-8364.327145,-766.095498,888.247130
1166.490835,-7920.203579,-842.705048,814.226536
1166.491146,-8216.285956,-229.828649,592.164754
1166.491458,-8216.285956,306.438199,518.144159
1166.491769,-8216.285956,383.047749,740.205942
1166.492081,-8660.409521,612.876398,666.185348
1166.492392,-8364.327145,612.876398,666.185348
1166.492704,-8882.471304,1225.752797,666.185348
1166.493015,-8734.430116,1685.410096,666.185348
1166.493327,-8142.265362,1455.581446,814.226536
1166.493638,-8438.347739,1149.143247,592.164754
1166.493950,-8216.285956,766.095498,666.185348
1166.494261,-7846.182985,919.314598,666.185348
1166.494573,-7846.182985,459.657299,148.041188
1166.494884,-7920.203579,0.000000,666.185348
1166.495196,-8216.285956,-689.485948,740.205942
1166.495507,-8364.327145,-995.924147,1036.288319
1166.495819,-8808.450710,-919.314598,814.226536
1166.496130,-8808.450710,-689.485948,592.164754
1166.496442,-9178.553681,-842.705048,666.185348
1166.496753,-8956.491898,-1455.581446,814.226536
1166.497065,-8734.430116,-689.485948,1184.329507
1166.497376,-8808.450710,-919.314598,666.185348
1166.497688,-8142.265362,-536.266849,888.247130
1166.497999,-8956.491898,-1225.752797,814.226536
1166.498311,-9326.594869,-1072.533697,888.247130
1166.498622,-9474.636058,-383.047749,740.205942
1166.498934,-10066.800811,0.000000,444.123565
1166.499245,-9992.780217,229.828649,370.102971
1166.499557,-10436.903782,306.438199,-0.000000
1166.499868,-10066.800811,1149.143247,296.082377
1166.500180,-9326.594869,919.314598,-0.000000
1166.500491,-9326.594869,1072.533697,-0.000000
1166.500802,-9030.512492,536.266849,-0.000000
1166.501114,-8660.409521,459.657299,-222.061783
1166.501425,-8512.368333,383.047749,-0.000000
1166.501737,-8364.327145,76.609550,-0.000000
1166.502048,-9030.512492,-383.047749,-74.020594
1166.502360,-9992.780217,0.000000,296.082377
1166.502671,-10066.800811,-459.657299,296.082377
1166.502983,-10066.800811,-766.095498,444.123565
1166.503294,-9992.780217,-689.485948,444.123565
1166.503606,-9474.636058,-383.047749,666.185348
1166.503917,-9030.512492,-612.876398,444.123565
1166.504229,-8660.409521,-306.438199,666.185348
1166.504540,-8364.327145,-229.828649,666.185348
1166.504852,-8216.285956,229.828649,666.185348
1166.505163,-7846.182985,459.657299,370.102971
1166.505475,-7846.182985,306.438199,518.144159
1166.505786,-8142.265362,612.876398,296.082377
1166.506098,-8438.347739,919.314598,444.123565
1166.506409,-8512.368333,1072.533697,888.247130
1166.506721,-7994.224174,842.705048,962.267725
1166.507032,-8216.285956,689.485948,962.267725
1166.507344,-8438.347739,612.876398,1110.308913
1166.507655,-7846.182985,76.609550,962.267725
1166.507967,-7698.141797,229.828649,592.164754
1166.508278,-7698.141797,306.438199,518.144159
1166.508590,-7920.203579,383.047749,296.082377
1166.508901,-8438.347739,0.000000,-0.000000
1166.509213,-8586.388927,-459.657299,1036.288319
1166.509524,-8660.409521,-1072.533697,740.205942
1166.509836,-8586.388927,-1302.362347,666.185348
1166.510147,-8956.491898,-1532.190996,814.226536
1166.510459,-9030.512492,-1378.971896,1036.288319
1166.510770,-9252.574275,-1072.533697,888.247130
1166.511082,-9474.636058,-1149.143247,888.247130
1166.511393,-9474.636058,-689.485948,740.205942
1166.511704,-9252.574275,0.000000,740.205942
1166.512016,-9474.636058,-153.219100,444.123565
1166.512327,-9548.656652,229.828649,-0.000000
1166.512639,-9474.636058,229.828649,222.061783
1166.512950,-9770.718434,383.047749,222.061783
1166.513262,-9474.636058,842.705048,-74.020594
1166.513573,-9696.697840,995.924147,-296.082377
1166.513885,-9918.759623,689.485948,-148.041188
1166.514196,-9400.615463,-383.047749,444.123565
1166.514508,-8956.491898,-536.266849,296.082377
1166.514819,-9178.553681,-536.266849,370.102971
1166.515131,-9400.615463,-536.266849,444.123565
1166.515442,-9696.697840,-842.705048,592.164754
1166.515754,-9918.759623,-689.485948,444.123565
1166.516065,-9474.636058,-536.266849,518.144159
1166.516377,-9548.656652,-1225.752797,296.082377
1166.516688,-9252.574275,-842.705048,370.102971
1166.517000,-9548.656652,-536.266849,-0.000000
1166.517311,-9326.594869,-689.485948,-0.000000
1166.517623,-8438.347739,-689.485948,592.164754
1166.517934,-8512.368333,-689.485948,666.185348
1166.518246,-8290.306550,-229.828649,592.164754
1166.518557,-8216.285956,459.657299,518.144159
1166.518869,-8808.450710,995.924147,370.102971
1166.519180,-9030.512492,1838.629195,444.123565
1166.519492,-8808.450710,1378.971896,148.041188
1166.519803,-8438.347739,1762.019645,518.144159
1166.520115,-7994.224174,1685.410096,444.123565
1166.520426,-8142.265362,1532.190996,666.185348
1166.520738,-7846.182985,1378.971896,592.164754
1166.521049,-7550.100608,1532.190996,296.082377
1166.521361,-7105.977043,153.219100,370.102971
1166.521672,-7772.162391,306.438199,296.082377
1166.521984,-8290.306550,-306.438199,592.164754
1166.522295,-9104.533087,-689.485948,666.185348
1166.522606,-9326.594869,-689.485948,888.247130
1166.522918,-8882.471304,-995.924147,814.226536
1166.523229,-8882.471304,-1455.581446,814.226536
1166.523541,-8068.244768,-1532.190996,1110.308913
1166.523852,-8882.471304,-1378.971896,888.247130
1166.524164,-8586.388927,-766.095498,666.185348
1166.524475,-8364.327145,-459.657299,1110.308913
1166.524787,-8956.491898,-689.485948,740.205942
1166.525098,-9178.553681,-383.047749,740.205942
1166.525410,-9326.594869,-306.438199,592.164754
1166.525721,-9474.636058,153.219100,296.082377
1166.526033,-10288.862594,766.095498,444.123565
1166.526344,-10510.924376,919.314598,148.041188
1166.526656,-9622.677246,1225.752797,370.102971
1166.526967,-9696.697840,1378.971896,-0.000000
1166.527279,-9178.553681,842.705048,222.061783
1166.527590,-8586.388927,459.657299,-0.000000
1166.527902,-8290.306550,0.000000,-148.041188
1166.528213,-8438.347739,0.000000,-0.000000
1166.528525,-9104.533087,-612.876398,-222.061783
1166.528836,-9844.739029,-995.924147,444.123565
1166.529148,-10214.842000,-689.485948,592.164754
1166.529459,-10584.944971,-1072.533697,592.164754
1166.529771,-9992.780217,-995.924147,814.226536
1166.530082,-9474.636058,-842.705048,518.144159
1166.530394,-9252.574275,-919.314598,962.267725
