#time,accel_x,accel_y,accel_z
1349.474979,-8956.491898,-153.219100,444.123565
1349.475291,-9030.512492,-229.828649,518.144159
1349.475602,-8734.430116,-383.047749,666.185348
1349.475914,-8882.471304,0.000000,518.144159
1349.476226,-8734.430116,-383.047749,814.226536
1349.476537,-8512.368333,0.000000,814.226536
1349.476849,-9030.512492,229.828649,370.102971
1349.477161,-9178.553681,-536.266849,518.144159
1349.477472,-9178.553681,0.000000,666.185348
1349.477784,-8882.471304,0.000000,666.185348
1349.478096,-8956.491898,0.000000,592.164754
1349.478407,-9104.533087,0.000000,370.102971
1349.478719,-9104.533087,76.609550,-0.000000
1349.479031,-8660.409521,76.609550,518.144159
1349.479342,-8956.491898,76.609550,222.061783
1349.479654,-9030.512492,-383.047749,370.102971
1349.479966,-8882.471304,0.000000,518.144159
1349.480277,-8882.471304,0.000000,592.164754
1349.480589,-9178.553681,0.000000,444.123565
1349.480901,-8882.471304,-153.219100,518.144159
1349.481212,-8882.471304,76.609550,814.226536
1349.481524,-8586.388927,-153.219100,370.102971
1349.481836,-8882.471304,0.000000,518.144159
1349.482147,-9178.553681,0.000000,148.041188
1349.482459,-8882.471304,-229.828649,518.144159
1349.482771,-8882.471304,-153.219100,592.164754
1349.483082,-8882.471304,0.000000,444.123565
1349.483394,-8808.450710,0.000000,518.144159
1349.483706,-8882.471304,-306.438199,370.102971
1349.484017,-9178.553681,-842.705048,592.164754
1349.484329,-8438.347739,-153.219100,814.226536
1349.484641,-8808.450710,-766.095498,888.247130
1349.484952,-9030.512492,-153.219100,740.205942
1349.485264,-8882.471304,0.000000,592.164754
1349.485576,-8734.430116,0.000000,592.164754
1349.485887,-8586.388927,0.000000,444.123565
1349.486199,-8660.409521,0.000000,962.267725
1349.486511,-8882.471304,153.219100,666.185348
1349.486822,-8734.430116,536.266849,1184.329507
1349.487134,-9104.533087,0.000000,296.082377
1349.487446,-8956.491898,0.000000,444.123565
1349.487757,-8882.471304,-229.828649,518.144159
1349.488069,-9030.512492,-153.219100,444.123565
1349.488381,-8808.450710,0.000000,592.164754
1349.488692,-8660.409521,306.438199,740.205942
1349.489004,-8734.430116,-383.047749,296.082377
1349.489316,-8808.450710,76.609550,666.185348
1349.489627,-8956.491898,0.000000,592.164754
1349.489939,-8956.491898,0.000000,444.123565
1349.490251,-8956.491898,0.000000,518.144159
1349.490562,-8956.491898,76.609550,592.164754
1349.490874,-9030.512492,229.828649,444.123565
1349.491186,-8734.430116,-536.266849,666.185348
1349.491497,-8660.409521,-153.219100,666.185348
1349.491809,-8660.409521,-306.438199,296.082377
1349.492121,-8882.471304,0.000000,444.123565
1349.492432,-8882.471304,153.219100,444.123565
1349.492744,-9030.512492,0.000000,592.164754
1349.493056,-8956.491898,0.000000,444.123565
1349.493367,-8956.491898,153.219100,296.082377
1349.493679,-8882.471304,766.095498,296.082377
1349.493991,-8660.409521,-689.485948,296.082377
1349.494302,-9030.512492,76.609550,296.082377
1349.494614,-9104.533087,0.000000,444.123565
1349.494926,-8956.491898,0.000000,518.144159
1349.495237,-9030.512492,0.000000,666.185348
1349.495549,-8956.491898,0.000000,518.144159
1349.495861,-8660.409521,153.219100,370.102971
1349.496172,-8808.450710,459.657299,222.061783
1349.496484,-8882.471304,76.609550,444.123565
1349.496796,-8808.450710,0.000000,518.144159
1349.497107,-9030.512492,-153.219100,666.185348
1349.497419,-8956.491898,0.000000,592.164754
1349.497731,-9104.533087,0.000000,518.144159
1349.498042,-9030.512492,0.000000,370.102971
1349.498354,-8660.409521,229.828649,370.102971
1349.498666,-8956.491898,-306.438199,296.082377
1349.498977,-8660.409521,0.000000,666.185348
1349.499289,-9030.512492,-306.438199,444.123565
1349.499601,-8808.450710,0.000000,592.164754
1349.499912,-8808.450710,153.219100,518.144159
1349.500224,-8734.430116,0.000000,518.144159
1349.500536,-8808.450710,-306.438199,296.082377
1349.500847,-9030.512492,306.438199,-0.000000
1349.501159,-8734.430116,383.047749,592.164754
1349.501471,-8808.450710,-229.828649,296.082377
1349.501782,-8956.491898,0.000000,592.164754
1349.502094,-9030.512492,0.000000,592.164754
1349.502406,-8956.491898,0.000000,444.123565
1349.502717,-9252.574275,0.000000,518.144159
1349.503029,-11251.130318,306.438199,-296.082377
1349.503341,-11547.212695,2681.334243,370.102971
1349.503652,-8290.306550,4903.011187,1036.288319
1349.503964,-7254.018232,3447.429741,962.267725
1349.504276,-6439.791695,689.485948,1480.411884
1349.504587,-6735.874072,-1302.362347,-0.000000
1349.504899,-7179.997637,-1072.533697,-0.000000
1349.505211,-7550.100608,-306.438199,-148.041188
1349.505522,-11769.274478,-919.314598,-1480.411884
1349.505834,-12879.583391,459.657299,-296.082377
1349.506146,-10066.800811,689.485948,962.267725
1349.506457,-8734.430116,0.000000,1850.514855
1349.506769,-9474.636058,-766.095498,3034.844362
1349.507081,-11843.295072,842.705048,1628.453072
1349.507392,-7772.162391,4596.572988,2516.700203
1349.507704,-4885.359217,5822.325785,1850.514855
1349.508016,-7550.100608,3370.820191,666.185348
1349.508327,-7550.100608,2757.943793,-814.226536
1349.508639,-7105.977043,3524.039291,-1850.514855
1349.508951,-9104.533087,3370.820191,-1184.329507
1349.509262,-9104.533087,3983.696590,-222.061783
1349.509574,-13323.706956,1915.238745,-1406.391290
1349.509886,-13545.768739,-842.705048,1332.370696
1349.510197,-8290.306550,-766.095498,2664.741391
1349.510509,-10140.821405,1072.533697,518.144159
1349.510821,-7179.997637,6511.811733,2738.761985
1349.511132,-8142.265362,5209.449386,1332.370696
1349.511444,-7624.121203,2604.724693,2738.761985
1349.511756,-5847.626942,4519.963438,1998.556043
1349.512067,-7476.080014,7201.297681,-74.020594
1349.512379,-7772.162391,7354.516781,-1258.350101
1349.512691,-10288.862594,5515.887586,-1110.308913
1349.513002,-9548.656652,4136.915689,-1036.288319
1349.513314,-10510.924376,5515.887586,-814.226536
1349.513626,-11917.315666,4826.401637,518.144159
1349.513937,-10881.027347,4443.353888,1702.473667
1349.514249,-10807.006753,4060.306139,1924.535449
1349.514561,-8438.347739,4979.620737,2664.741391
1349.514872,-6439.791695,4596.572988,1480.411884
1349.515184,-5403.503377,5132.839837,-0.000000
1349.515496,-5181.441594,5515.887586,-0.000000
1349.515807,-5847.626942,4903.011187,-370.102971
1349.516119,-6661.853478,4213.525239,-962.267725
1349.516431,-9030.512492,4060.306139,-222.061783
1349.516742,-9918.759623,2757.943793,-296.082377
1349.517054,-9844.739029,1685.410096,518.144159
1349.517366,-10140.821405,612.876398,1036.288319
1349.517677,-10584.944971,-153.219100,1406.391290
1349.517989,-10658.965565,1149.143247,1850.514855
1349.518301,-9326.594869,2451.505594,2146.597232
1349.518612,-8142.265362,4519.963438,1184.329507
1349.518924,-6661.853478,3677.258390,444.123565
1349.519235,-6513.812290,2834.553343,-592.164754
1349.519547,-6883.915261,3294.210641,-592.164754
1349.519859,-6217.729913,3753.867940,-1184.329507
1349.520170,-8142.265362,1532.190996,-1480.411884
1349.520482,-9918.759623,-1149.143247,-666.185348
1349.520794,-11325.150913,-2221.676944,148.041188
1349.521105,-12361.439231,-2298.286494,888.247130
1349.521417,-12879.583391,-1915.238745,1850.514855
1349.521729,-13545.768739,-919.314598,1554.432478
1349.522040,-12583.501014,1302.362347,1184.329507
1349.522352,-10955.047942,2757.943793,-0.000000
1349.522664,-8290.306550,4443.353888,-74.020594
1349.522975,-6143.709319,4749.792088,-0.000000
1349.523287,-6365.771101,5286.058936,-0.000000
1349.523599,-6661.853478,4979.620737,-0.000000
1349.523910,-7846.182985,3907.087040,-666.185348
1349.524222,-9992.780217,2068.457845,-74.020594
1349.524534,-11843.295072,536.266849,-0.000000
1349.524845,-13471.748144,-383.047749,148.041188
1349.525157,-14063.912898,-536.266849,592.164754
1349.525469,-13545.768739,766.095498,888.247130
1349.525780,-11029.068536,2834.553343,1036.288319
1349.526092,-9178.553681,4060.306139,1628.453072
1349.526404,-6883.915261,4366.744339,2368.659014
1349.526715,-3997.112087,4749.792088,1554.432478
1349.527027,-1406.391290,6435.202183,-0.000000
1349.527339,-1332.370696,6741.640382,-888.247130
1349.527650,-2960.823768,4673.182538,-888.247130
1349.527962,-6957.935855,2757.943793,-1628.453072
1349.528274,-11103.089130,2068.457845,-444.123565
1349.528585,-14211.954086,2681.334243,666.185348
1349.528897,-15618.345376,3217.601092,2368.659014
1349.529209,-15174.221811,3140.991542,3182.885551
1349.529520,-11547.212695,3217.601092,3478.967927
1349.529832,-6883.915261,2451.505594,2516.700203
1349.530144,-2886.803174,3524.039291,1554.432478
1349.530455,-1554.432478,5515.887586,-222.061783
1349.530767,-2072.576638,6818.249932,-1554.432478
1349.531079,-3923.091493,7048.078582,-1998.556043
1349.531390,-7105.977043,5132.839837,-1924.535449
1349.531702,-8956.491898,3217.601092,-74.020594
1349.532014,-10510.924376,306.438199,-74.020594
1349.532325,-12361.439231,-1991.848295,1184.329507
1349.532637,-12509.480420,-3677.258390,1702.473667
1349.532949,-12583.501014,-2451.505594,1702.473667
1349.533260,-12583.501014,-459.657299,1406.391290
1349.533572,-12657.521608,1991.848295,1628.453072
1349.533884,-11325.150913,4290.134789,1332.370696
1349.534195,-9030.512492,5822.325785,1628.453072
1349.534507,-7105.977043,5822.325785,1628.453072
1349.534819,-6439.791695,3830.477490,-0.000000
1349.535130,-5699.585753,2451.505594,-740.205942
1349.535442,-6217.729913,2834.553343,-1480.411884
1349.535754,-7624.121203,3524.039291,-2368.659014
1349.536065,-9252.574275,2145.067394,-2442.679609
1349.536377,-11399.171507,459.657299,-592.164754
1349.536689,-12361.439231,-995.924147,518.144159
1349.537000,-12583.501014,-1915.238745,2072.576638
1349.537312,-12583.501014,-1149.143247,1924.535449
1349.537624,-12805.562797,76.609550,1332.370696
1349.537935,-11029.068536,2757.943793,666.185348
1349.538247,-8660.409521,4213.525239,-814.226536
1349.538559,-6735.874072,4366.744339,-740.205942
1349.538870,-5107.421000,3753.867940,148.041188
1349.539182,-5033.400406,1762.019645,370.102971
1349.539494,-6217.729913,-153.219100,962.267725
1349.539805,-7254.018232,-1225.752797,888.247130
1349.540117,-8734.430116,-766.095498,814.226536
1349.540429,-9178.553681,-919.314598,740.205942
1349.540740,-8808.450710,-1762.019645,518.144159
1349.541052,-8586.388927,-1915.238745,666.185348
1349.541364,-8956.491898,306.438199,-0.000000
1349.541675,-9622.677246,2911.162892,-962.267725
1349.541987,-11029.068536,5056.230287,-1480.411884
1349.542299,-10881.027347,5745.716235,-1110.308913
1349.542610,-9178.553681,4519.963438,370.102971
1349.542922,-7402.059420,1149.143247,1850.514855
1349.543234,-5329.482782,-1685.410096,3627.009116
1349.543545,-4589.276840,-3217.601092,3701.029710
1349.543857,-7031.956449,-4749.792088,3404.947333
1349.544169,-7550.100608,-4673.182538,3108.864956
1349.544480,-7179.997637,-3217.601092,296.082377
1349.544792,-7550.100608,-1991.848295,-1332.370696
1349.545104,-9030.512492,-1532.190996,-1480.411884
1349.545415,-11177.109724,-536.266849,-2368.659014
1349.545727,-13101.645173,1378.971896,-1924.535449
1349.546039,-14063.912898,3677.258390,-148.041188
1349.546350,-14211.954086,3753.867940,1258.350101
1349.546662,-12139.377449,3447.429741,1998.556043
1349.546973,-10362.883188,0.000000,2590.720797
1349.547285,-7698.141797,-2068.457845,2812.782580
1349.547596,-5255.462188,-2834.553343,2886.803174
1349.547908,-5255.462188,-2451.505594,2590.720797
1349.548220,-5181.441594,-2757.943793,1924.535449
1349.548531,-7328.038826,-3907.087040,370.102971
1349.548843,-7105.977043,-3753.867940,-74.020594
1349.549154,-6809.894666,-153.219100,-2664.741391
1349.549466,-8956.491898,-153.219100,-3256.906145
1349.549777,-11843.295072,1302.362347,-3775.050304
1349.550089,-14137.933492,2987.772442,-1184.329507
1349.550401,-14359.995275,2681.334243,740.205942
1349.550712,-13249.686362,766.095498,3775.050304
1349.551024,-11621.233289,-2298.286494,5033.400406
1349.551335,-9696.697840,-3064.381992,5625.565159
1349.551647,-6291.750507,-2604.724693,5255.462188
1349.551958,-3552.988522,-2451.505594,1480.411884
1349.552270,-3330.926739,-306.438199,-148.041188
1349.552581,-3478.967927,459.657299,-3034.844362
1349.552893,-4219.173869,459.657299,-4589.276840
1349.553205,-5551.544565,1302.362347,-4441.235652
1349.553516,-9030.512492,2451.505594,-4515.256246
1349.553828,-13249.686362,3370.820191,-2516.700203
1349.554139,-15026.180623,3677.258390,592.164754
1349.554451,-15544.324782,2374.896044,2664.741391
1349.554762,-13915.871710,689.485948,4441.235652
1349.555074,-11177.109724,-1149.143247,5255.462188
1349.555386,-7179.997637,-2451.505594,5551.544565
1349.555697,-2590.720797,-2451.505594,2664.741391
1349.556009,-2368.659014,-2145.067394,148.041188
1349.556320,-4589.276840,-689.485948,-1850.514855
1349.556632,-4219.173869,1302.362347,-4367.215058
1349.556943,-5033.400406,1685.410096,-4367.215058
1349.557255,-7920.203579,306.438199,-4441.235652
1349.557566,-11473.192101,-383.047749,-3256.906145
1349.557878,-15396.283594,919.314598,-1036.288319
1349.558190,-16802.674883,2068.457845,888.247130
1349.558501,-16654.633695,2528.115143,3923.091493
1349.558813,-14434.015869,842.705048,5033.400406
1349.559124,-10807.006753,-919.314598,5847.626942
1349.559436,-5995.668130,-2451.505594,5699.585753
1349.559747,-1554.432478,-2757.943793,3478.967927
1349.560059,-1776.494261,-1149.143247,740.205942
1349.560371,-2812.782580,689.485948,-1998.556043
1349.560682,-3923.091493,1838.629195,-4737.318029
1349.560994,-6439.791695,2911.162892,-5181.441594
1349.561305,-9252.574275,2451.505594,-4441.235652
1349.561617,-13323.706956,995.924147,-2812.782580
1349.561928,-17246.798449,842.705048,-814.226536
1349.562240,-18357.107362,2451.505594,3034.844362
1349.562551,-16358.551318,1455.581446,6217.729913
1349.562863,-14285.974681,-2298.286494,7031.956449
1349.563175,-9474.636058,-4136.915689,7105.977043
1349.563486,-3108.864956,-3064.381992,5625.565159
1349.563798,-1702.473667,-2451.505594,2664.741391
1349.564109,370.102971,-2068.457845,-0.000000
1349.564421,666.185348,536.266849,-4293.194464
1349.564732,-1184.329507,459.657299,-4367.215058
1349.565044,-4589.276840,-919.314598,-4663.297435
1349.565356,-8956.491898,-2451.505594,-3404.947333
1349.565667,-14285.974681,-1762.019645,-2294.638420
1349.565979,-18431.127956,76.609550,1628.453072
1349.566290,-19023.292709,0.000000,5699.585753
1349.566602,-19615.457463,-1685.410096,7550.100608
1349.566913,-16802.674883,-2451.505594,8586.388927
1349.567225,-9770.718434,-2987.772442,6513.812290
1349.567537,-2368.659014,-1762.019645,3404.947333
1349.567848,1924.535449,842.705048,-370.102971
1349.568160,2738.761985,383.047749,-3775.050304
1349.568471,2960.823768,1302.362347,-6587.832884
1349.568783,0.000000,1915.238745,-6069.688724
1349.569094,-5773.606348,1838.629195,-5181.441594
1349.569406,-13397.727550,383.047749,-3849.070898
1349.569717,-19319.375086,766.095498,-888.247130
1349.570029,-20725.766376,766.095498,2220.617826
1349.570341,-19541.436869,-995.924147,5107.421000
1349.570652,-17764.942608,-2221.676944,6069.688724
1349.570964,-13767.830521,-1378.971896,5625.565159
1349.571275,-8142.265362,-2604.724693,4145.153275
1349.571587,-1036.288319,-2681.334243,2220.617826
1349.571898,1110.308913,-1072.533697,-222.061783
1349.572210,-370.102971,-536.266849,-3775.050304
1349.572522,962.267725,-459.657299,-5699.585753
1349.572833,-962.267725,0.000000,-7105.977043
1349.573145,-5847.626942,-689.485948,-6069.688724
1349.573456,-13323.706956,-919.314598,-4515.256246
1349.573768,-20207.622217,-459.657299,-666.185348
1349.574079,-23686.590144,1072.533697,3108.864956
1349.574391,-23760.610738,1838.629195,7254.018232
1349.574702,-20429.683999,0.000000,8068.244768
1349.575014,-14878.139434,-536.266849,6587.832884
1349.575326,-6587.832884,-612.876398,4367.215058
1349.575637,3478.967927,-306.438199,-370.102971
1349.575949,6217.729913,1915.238745,-3182.885551
1349.576260,2960.823768,2298.286494,-6365.771101
1349.576572,1480.411884,842.705048,-7624.121203
1349.576883,-3404.947333,2298.286494,-6587.832884
1349.577195,-9252.574275,1532.190996,-4293.194464
1349.577507,-16580.613101,1378.971896,-1554.432478
1349.577818,-22354.219448,0.000000,2738.761985
1349.578130,-22946.384202,76.609550,5403.503377
1349.578441,-21021.848753,383.047749,8068.244768
1349.578753,-15840.407159,0.000000,8512.368333
1349.579064,-8290.306550,383.047749,7031.956449
1349.579376,-1480.411884,-995.924147,4885.359217
1349.579687,2960.823768,-1915.238745,592.164754
1349.579999,6513.812290,-766.095498,-2368.659014
1349.580311,5921.647536,2221.676944,-5921.647536
1349.580622,74.020594,689.485948,-6365.771101
1349.580934,-4589.276840,-383.047749,-5255.462188
1349.581245,-11473.192101,-1455.581446,-3552.988522
1349.581557,-16876.695478,-1762.019645,666.185348
1349.581868,-21614.013506,-1225.752797,5033.400406
1349.582180,-23834.631332,536.266849,7031.956449
1349.582492,-21539.992912,1915.238745,8364.327145
1349.582803,-15396.283594,1378.971896,7772.162391
1349.583115,-7105.977043,76.609550,6661.853478
1349.583426,-518.144159,229.828649,3404.947333
1349.583738,5921.647536,612.876398,-1850.514855
1349.584049,7550.100608,-306.438199,-5551.544565
1349.584361,4663.297435,1532.190996,-6883.915261
1349.584672,-888.247130,1762.019645,-7920.203579
1349.584984,-7846.182985,-229.828649,-5699.585753
1349.585296,-15766.386565,-2757.943793,-2368.659014
1349.585607,-21836.075289,-2221.676944,2294.638420
1349.585919,-24574.837274,306.438199,5625.565159
1349.586230,-24944.940245,459.657299,6809.894666
1349.586542,-21688.034101,612.876398,7550.100608
1349.586853,-13767.830521,995.924147,6365.771101
1349.587165,-5699.585753,229.828649,4589.276840
1349.587477,2516.700203,-459.657299,-296.082377
1349.587788,7920.203579,-536.266849,-2442.679609
1349.588100,5921.647536,-1378.971896,-5699.585753
1349.588411,1776.494261,-1991.848295,-7402.059420
1349.588723,-3034.844362,-842.705048,-7031.956449
1349.589034,-10584.944971,-1455.581446,-4367.215058
1349.589346,-17098.757260,-3294.210641,-518.144159
1349.589658,-22650.301825,-4290.134789,3108.864956
1349.589969,-24130.713709,-2451.505594,5773.606348
1349.590281,-22280.198854,-306.438199,7254.018232
1349.590592,-18061.024985,153.219100,7254.018232
1349.590904,-12065.356855,1302.362347,5477.523971
1349.591215,-5181.441594,1072.533697,3108.864956
1349.591527,4515.256246,306.438199,-0.000000
1349.591838,8142.265362,0.000000,-2664.741391
1349.592150,6809.894666,-306.438199,-5181.441594
1349.592462,3997.112087,0.000000,-7624.121203
1349.592773,-2442.679609,-612.876398,-5921.647536
1349.593085,-10066.800811,-1455.581446,-3775.050304
1349.593396,-18727.210333,-459.657299,-0.000000
1349.593708,-24204.734303,0.000000,3330.926739
1349.594019,-25092.981434,689.485948,5181.441594
1349.594331,-21762.054695,2451.505594,6957.935855
1349.594643,-15692.365970,3830.477490,5551.544565
1349.594954,-8882.471304,2528.115143,4737.318029
1349.595266,0.000000,76.609550,1998.556043
1349.595577,6661.853478,536.266849,-1332.370696
1349.595889,6661.853478,0.000000,-4589.276840
1349.596200,3330.926739,229.828649,-6217.729913
1349.596512,-1998.556043,383.047749,-7254.018232
1349.596823,-7994.224174,-689.485948,-5181.441594
1349.597135,-13767.830521,-2757.943793,-1702.473667
1349.597447,-20281.642811,-3524.039291,2220.617826
1349.597758,-24574.837274,-3140.991542,4219.173869
1349.598070,-24648.857869,459.657299,5847.626942
1349.598381,-21169.889941,2604.724693,6661.853478
1349.598693,-14952.160028,3524.039291,6291.750507
1349.599004,-7772.162391,3140.991542,5033.400406
1349.599316,296.082377,1378.971896,888.247130
1349.599628,7254.018232,919.314598,-2368.659014
1349.599939,6069.688724,995.924147,-5181.441594
1349.600251,2368.659014,995.924147,-6069.688724
1349.600562,-1850.514855,919.314598,-6883.915261
1349.600874,-8438.347739,-766.095498,-3256.906145
1349.601185,-14137.933492,-2451.505594,592.164754
1349.601497,-20503.704593,-2911.162892,3478.967927
1349.601808,-23094.425390,0.000000,4737.318029
1349.602120,-21910.095883,3140.991542,5329.482782
1349.602432,-17838.963202,4673.182538,6661.853478
1349.602743,-11473.192101,3677.258390,3849.070898
1349.603055,-3923.091493,2451.505594,4145.153275
1349.603366,3627.009116,-536.266849,1184.329507
1349.603678,5773.606348,-1762.019645,-592.164754
1349.603989,5403.503377,-1532.190996,-1850.514855
1349.604301,2072.576638,0.000000,-5403.503377
1349.604613,-4885.359217,-1225.752797,-4589.276840
1349.604924,-9992.780217,-2757.943793,-3034.844362
1349.605236,-16432.571912,-2068.457845,-370.102971
1349.605547,-20651.745782,-1532.190996,2294.638420
1349.605859,-23390.507767,-1225.752797,4663.297435
1349.606170,-22206.178260,-306.438199,6587.832884
1349.606482,-17987.004391,1532.190996,6365.771101
1349.606793,-11991.336260,1685.410096,6143.709319
1349.607105,-3404.947333,-842.705048,3775.050304
1349.607417,2886.803174,-229.828649,296.082377
1349.607728,4737.318029,0.000000,-2960.823768
1349.608040,4885.359217,0.000000,-5477.523971
1349.608351,1036.288319,766.095498,-5181.441594
1349.608663,-5255.462188,-153.219100,-4293.194464
1349.608974,-11917.315666,-1915.238745,-1480.411884
1349.609286,-18061.024985,-2528.115143,1184.329507
1349.609598,-21317.931130,-689.485948,3256.906145
1349.609909,-21836.075289,1455.581446,4219.173869
1349.610221,-19763.498651,1608.800546,4071.132681
1349.610532,-16506.592507,3217.601092,3330.926739
1349.610844,-10288.862594,3524.039291,2590.720797
1349.611155,-3034.844362,1302.362347,1406.391290
1349.611467,2886.803174,-1149.143247,-518.144159
1349.611779,5181.441594,-1685.410096,-1258.350101
1349.612090,2960.823768,-2451.505594,-2442.679609
1349.612402,444.123565,-3217.601092,-3923.091493
1349.612713,-4737.318029,-1685.410096,-4071.132681
1349.613025,-11251.130318,-1915.238745,-2442.679609
1349.613336,-16654.633695,-1838.629195,-592.164754
1349.613648,-21243.910535,-229.828649,1924.535449
1349.613959,-22650.301825,766.095498,2738.761985
1349.614271,-20799.786970,1608.800546,4811.338623
1349.614583,-15840.407159,1302.362347,4737.318029
1349.614894,-9474.636058,995.924147,4663.297435
1349.615206,-3182.885551,-612.876398,2072.576638
1349.615517,3923.091493,-1608.800546,-740.205942
1349.615829,4589.276840,-1225.752797,-2368.659014
1349.616140,2516.700203,-1072.533697,-3701.029710
1349.616452,-1258.350101,0.000000,-5699.585753
1349.616764,-7105.977043,1532.190996,-3775.050304
1349.617075,-12953.603985,766.095498,-2368.659014
1349.617387,-18135.045579,459.657299,740.205942
1349.617698,-21317.931130,612.876398,2294.638420
1349.618010,-21317.931130,3294.210641,2590.720797
1349.618321,-17616.901420,4903.011187,3330.926739
1349.618633,-13101.645173,4596.572988,3256.906145
1349.618944,-7328.038826,2757.943793,3404.947333
1349.619256,-222.061783,229.828649,1332.370696
1349.619568,2812.782580,-1455.581446,222.061783
1349.619879,1480.411884,-2068.457845,-592.164754
1349.620191,1036.288319,-1072.533697,-2738.761985
1349.620502,-3627.009116,-383.047749,-3256.906145
1349.620814,-8290.306550,-1762.019645,-2812.782580
1349.621125,-12805.562797,-1608.800546,-1258.350101
1349.621437,-17172.777854,-919.314598,666.185348
1349.621749,-19985.560434,1378.971896,2146.597232
1349.622060,-20059.581028,2681.334243,4145.153275
1349.622372,-17246.798449,1302.362347,5403.503377
1349.622683,-12435.459826,1225.752797,6217.729913
1349.622995,-5921.647536,76.609550,5255.462188
1349.623306,-1184.329507,-1762.019645,2738.761985
1349.623618,2442.679609,-1762.019645,666.185348
1349.623929,4589.276840,-1225.752797,-2442.679609
1349.624241,1924.535449,-383.047749,-4515.256246
1349.624553,-2812.782580,-536.266849,-4367.215058
1349.624864,-8808.450710,-459.657299,-3627.009116
1349.625176,-13915.871710,-995.924147,-518.144159
1349.625487,-17690.922014,-689.485948,1924.535449
1349.625799,-19911.539840,1149.143247,3182.885551
1349.626110,-19837.519246,2374.896044,3701.029710
1349.626422,-16950.716072,2298.286494,3552.988522
1349.626734,-11251.130318,2145.067394,3108.864956
1349.627045,-5699.585753,689.485948,3330.926739
1349.627357,-518.144159,-1302.362347,1998.556043
1349.627668,1776.494261,-3524.039291,370.102971
1349.627980,1110.308913,-3294.210641,-1628.453072
1349.628291,-518.144159,-1302.362347,-3182.885551
1349.628603,-4367.215058,-1149.143247,-3404.947333
1349.628914,-9844.739029,-1991.848295,-2664.741391
1349.629226,-15026.180623,-1838.629195,-1628.453072
1349.629538,-18283.086767,-995.924147,-0.000000
1349.629849,-20429.683999,-153.219100,1998.556043
1349.630161,-20059.581028,459.657299,4145.153275
1349.630472,-17616.901420,612.876398,4663.297435
1349.630784,-12953.603985,-383.047749,4885.359217
1349.631095,-5551.544565,-1225.752797,3701.029710
1349.631407,-296.082377,-2145.067394,1332.370696
1349.631719,2812.782580,-1838.629195,-222.061783
1349.632030,4071.132681,-2757.943793,-3552.988522
1349.632342,666.185348,-1608.800546,-4663.297435
1349.632653,-3997.112087,-459.657299,-3997.112087
1349.632965,-9918.759623,-612.876398,-2812.782580
1349.633276,-14508.036463,-1378.971896,-518.144159
1349.633588,-18357.107362,-995.924147,1110.308913
1349.633900,-19837.519246,689.485948,2516.700203
1349.634211,-19171.333898,1532.190996,2738.761985
1349.634523,-16358.551318,2987.772442,3478.967927
1349.634834,-11473.192101,1915.238745,3552.988522
1349.635146,-5699.585753,306.438199,2590.720797
1349.635457,222.061783,-383.047749,888.247130
1349.635769,3404.947333,-229.828649,-740.205942
1349.636080,2368.659014,-459.657299,-2664.741391
1349.636392,0.000000,0.000000,-4737.318029
1349.636704,-4959.379811,459.657299,-5181.441594
1349.637015,-10140.821405,459.657299,-3330.926739
1349.637327,-15766.386565,76.609550,-740.205942
1349.637638,-20355.663405,536.266849,1110.308913
1349.637950,-22354.219448,1225.752797,3034.844362
1349.638261,-19615.457463,1225.752797,5847.626942
1349.638573,-15544.324782,1072.533697,6587.832884
1349.638885,-9178.553681,383.047749,6069.688724
1349.639196,-3108.864956,-842.705048,2886.803174
1349.639508,370.102971,-612.876398,-518.144159
1349.639819,1258.350101,153.219100,-1998.556043
1349.640131,1850.514855,1532.190996,-6291.750507
1349.640442,-2368.659014,2604.724693,-5773.606348
1349.640754,-7328.038826,1149.143247,-4663.297435
1349.641065,-11325.150913,-153.219100,-1406.391290
1349.641377,-14730.098246,-536.266849,814.226536
1349.641689,-17320.819043,0.000000,3182.885551
1349.642000,-18875.251521,0.000000,4811.338623
1349.642312,-17246.798449,1455.581446,4811.338623
1349.642623,-13249.686362,2834.553343,5699.585753
1349.642935,-6069.688724,2221.676944,4589.276840
1349.643246,-2294.638420,0.000000,2590.720797
1349.643558,370.102971,-1685.410096,444.123565
1349.643870,2886.803174,-1378.971896,-3256.906145
1349.644181,888.247130,-612.876398,-4885.359217
1349.644493,-2368.659014,-383.047749,-4959.379811
1349.644804,-7105.977043,-1378.971896,-4071.132681
1349.645116,-12361.439231,-3447.429741,-1480.411884
1349.645427,-15988.448347,-3524.039291,2146.597232
1349.645739,-19393.395680,-2757.943793,3849.070898
1349.646050,-20725.766376,-1072.533697,5699.585753
1349.646362,-19985.560434,-689.485948,7105.977043
1349.646673,-14804.118840,-306.438199,6365.771101
1349.646985,-7772.162391,-383.047749,5329.482782
1349.647296,-2146.597232,-1225.752797,1776.494261
1349.647608,2442.679609,-1685.410096,-814.226536
1349.647919,3701.029710,-995.924147,-3775.050304
1349.648230,1776.494261,229.828649,-5033.400406
1349.648542,-3330.926739,1455.581446,-5181.441594
1349.648853,-9400.615463,-459.657299,-3034.844362
1349.649165,-13841.851115,-1762.019645,-148.041188
1349.649476,-17616.901420,-1225.752797,1850.514855
1349.649788,-20503.704593,-536.266849,3478.967927
1349.650099,-20355.663405,76.609550,4663.297435
1349.650411,-17912.983796,2221.676944,4737.318029
1349.650722,-13101.645173,1378.971896,5107.421000
1349.651033,-6587.832884,0.000000,4219.173869
1349.651345,370.102971,-1455.581446,1850.514855
1349.651656,2442.679609,-2528.115143,-592.164754
1349.651968,3256.906145,-2221.676944,-2812.782580
1349.652279,2294.638420,-612.876398,-5403.503377
1349.652591,-2738.761985,459.657299,-5181.441594
1349.652902,-7846.182985,-995.924147,-4145.153275
1349.653213,-13767.830521,-919.314598,-1924.535449
1349.653525,-17838.963202,306.438199,1036.288319
1349.653836,-20651.745782,919.314598,2516.700203
1349.654148,-20133.601622,1072.533697,4515.256246
1349.654459,-17690.922014,2068.457845,4737.318029
1349.654771,-13175.665768,1991.848295,5403.503377
1349.655082,-5699.585753,536.266849,2664.741391
1349.655394,518.144159,0.000000,148.041188
1349.655705,2516.700203,-229.828649,-2368.659014
1349.656016,2442.679609,-842.705048,-4145.153275
1349.656328,0.000000,229.828649,-5847.626942
1349.656639,-4589.276840,842.705048,-4885.359217
1349.656951,-10214.842000,306.438199,-3478.967927
1349.657262,-15322.262999,-153.219100,-518.144159
1349.657574,-18727.210333,995.924147,814.226536
1349.657885,-20429.683999,2681.334243,3108.864956
1349.658196,-18653.189738,3600.648841,4367.215058
1349.658508,-15322.262999,3447.429741,5033.400406
1349.658819,-10732.986159,2834.553343,5033.400406
1349.659131,-3256.906145,0.000000,3108.864956
1349.659442,148.041188,-1378.971896,962.267725
1349.659754,444.123565,-1685.410096,-1036.288319
1349.660065,888.247130,-612.876398,-5033.400406
1349.660377,-1628.453072,919.314598,-5995.668130
1349.660688,-5625.565159,-459.657299,-5329.482782
1349.660999,-10066.800811,-689.485948,-2590.720797
1349.661311,-14063.912898,-2068.457845,296.082377
1349.661622,-19393.395680,-2757.943793,2664.741391
1349.661934,-21762.054695,-995.924147,5773.606348
1349.662245,-19023.292709,1149.143247,6143.709319
1349.662557,-16876.695478,1991.848295,6439.791695
1349.662868,-8734.430116,1149.143247,6661.853478
1349.663180,-3478.967927,-1838.629195,2886.803174
1349.663491,1110.308913,-2757.943793,1036.288319
1349.663802,5255.462188,-2145.067394,-1554.432478
1349.664114,2664.741391,-536.266849,-4959.379811
1349.664425,-1776.494261,536.266849,-5107.421000
1349.664737,-7328.038826,536.266849,-3775.050304
1349.665048,-11769.274478,-1225.752797,-1480.411884
1349.665360,-15766.386565,-1378.971896,814.226536
1349.665671,-19689.478057,1991.848295,3627.009116
1349.665982,-19985.560434,2374.896044,4219.173869
1349.666294,-19245.354492,1608.800546,4959.379811
1349.666605,-14063.912898,2374.896044,5995.668130
1349.666917,-6809.894666,1685.410096,5699.585753
1349.667228,-1332.370696,-1455.581446,3108.864956
1349.667540,2590.720797,-2987.772442,1036.288319
1349.667851,3775.050304,-2757.943793,-3182.885551
1349.668163,2516.700203,-229.828649,-4441.235652
1349.668474,-2812.782580,306.438199,-5107.421000
1349.668785,-8808.450710,-689.485948,-3923.091493
1349.669097,-13915.871710,-919.314598,-1998.556043
1349.669408,-17838.963202,-1072.533697,888.247130
1349.669720,-20059.581028,-612.876398,2738.761985
1349.670031,-20429.683999,612.876398,4219.173869
1349.670343,-17764.942608,2374.896044,5181.441594
1349.670654,-12953.603985,1991.848295,5551.544565
1349.670966,-6883.915261,0.000000,4219.173869
1349.671277,-1702.473667,-1608.800546,2516.700203
1349.671588,2072.576638,-2451.505594,-296.082377
1349.671900,4219.173869,-2451.505594,-3997.112087
1349.672211,1998.556043,-1378.971896,-5477.523971
1349.672523,-3404.947333,-689.485948,-5773.606348
1349.672834,-8882.471304,-1072.533697,-4293.194464
1349.673146,-13989.892304,-1302.362347,-1554.432478
1349.673457,-18061.024985,-766.095498,962.267725
1349.673768,-21317.931130,995.924147,2590.720797
1349.674080,-21317.931130,2374.896044,3478.967927
1349.674391,-18579.169144,3830.477490,4071.132681
1349.674703,-12879.583391,4519.963438,4145.153275
1349.675014,-5773.606348,2528.115143,4293.194464
1349.675326,518.144159,-1225.752797,1850.514855
1349.675637,3108.864956,-2757.943793,-592.164754
1349.675949,3701.029710,-2911.162892,-3330.926739
1349.676260,1332.370696,-536.266849,-6365.771101
1349.676571,-3997.112087,1072.533697,-6143.709319
1349.676883,-9474.636058,153.219100,-4663.297435
1349.677194,-15544.324782,-1685.410096,-2072.576638
1349.677506,-19689.478057,-536.266849,1258.350101
1349.677817,-22576.281231,919.314598,3478.967927
1349.678129,-21539.992912,2221.676944,5551.544565
1349.678440,-18357.107362,2451.505594,6143.709319
1349.678751,-11843.295072,1762.019645,6143.709319
1349.679063,-3330.926739,-306.438199,4663.297435
1349.679374,1776.494261,-1072.533697,1184.329507
1349.679686,4293.194464,-995.924147,-962.267725
1349.679997,2812.782580,-919.314598,-5255.462188
1349.680309,-1332.370696,1072.533697,-4885.359217
1349.680620,-6883.915261,1838.629195,-4959.379811
1349.680932,-11917.315666,842.705048,-2368.659014
1349.681243,-15766.386565,-229.828649,518.144159
1349.681554,-17912.983796,-153.219100,2220.617826
1349.681866,-18135.045579,1302.362347,3923.091493
1349.682177,-17320.819043,3140.991542,4293.194464
1349.682489,-14063.912898,4673.182538,5625.565159
1349.682800,-7476.080014,3677.258390,5847.626942
1349.683112,-2886.803174,-306.438199,4811.338623
1349.683423,666.185348,-2757.943793,2590.720797
1349.683735,3256.906145,-3217.601092,-666.185348
1349.684046,2220.617826,-1302.362347,-4071.132681
1349.684357,-1406.391290,229.828649,-5403.503377
1349.684669,-6143.709319,306.438199,-4737.318029
1349.684980,-12731.542202,-766.095498,-3404.947333
1349.685292,-16506.592507,-1608.800546,518.144159
1349.685603,-19245.354492,-1072.533697,2812.782580
1349.685915,-20799.786970,76.609550,4885.359217
1349.686226,-18949.272115,1072.533697,6143.709319
1349.686537,-15100.201217,1149.143247,6809.894666
1349.686849,-8438.347739,0.000000,6365.771101
1349.687160,-1998.556043,-842.705048,3330.926739
1349.687472,1480.411884,-1685.410096,222.061783
1349.687783,3478.967927,-2681.334243,-3182.885551
1349.688095,2220.617826,-1072.533697,-5477.523971
1349.688406,-2368.659014,76.609550,-5403.503377
1349.688718,-8290.306550,-153.219100,-3775.050304
1349.689029,-13397.727550,-1838.629195,-1184.329507
1349.689340,-17172.777854,-1532.190996,1036.288319
1349.689652,-19541.436869,0.000000,2516.700203
1349.689963,-20281.642811,1225.752797,2960.823768
1349.690275,-18283.086767,2451.505594,4293.194464
1349.690586,-14285.974681,2374.896044,3997.112087
1349.690898,-7698.141797,459.657299,4885.359217
1349.691209,-2664.741391,-2681.334243,3256.906145
1349.691520,518.144159,-4366.744339,1036.288319
1349.691832,3404.947333,-4136.915689,-2516.700203
1349.692143,3478.967927,-2451.505594,-4959.379811
1349.692455,-1110.308913,-536.266849,-5773.606348
1349.692766,-7179.997637,-1838.629195,-4811.338623
1349.693078,-13101.645173,-1915.238745,-2442.679609
1349.693389,-17616.901420,-995.924147,518.144159
1349.693701,-21465.972318,153.219100,2738.761985
1349.694012,-21984.116477,383.047749,3923.091493
1349.694323,-19615.457463,2528.115143,3627.009116
1349.694635,-14952.160028,2528.115143,3478.967927
1349.694946,-6883.915261,1072.533697,3552.988522
1349.695258,-370.102971,-459.657299,1332.370696
1349.695569,2960.823768,-1378.971896,-666.185348
1349.695881,2442.679609,-2451.505594,-2960.823768
1349.696192,370.102971,-689.485948,-4885.359217
1349.696504,-3775.050304,2145.067394,-5181.441594
1349.696815,-9474.636058,1991.848295,-4367.215058
1349.697126,-14878.139434,1072.533697,-2368.659014
1349.697438,-18505.148550,1685.410096,-148.041188
1349.697749,-19985.560434,3447.429741,2146.597232
1349.698061,-19245.354492,4213.525239,4367.215058
1349.698372,-16062.468941,3294.210641,5477.523971
1349.698684,-11103.089130,2221.676944,6217.729913
1349.698995,-4885.359217,306.438199,5033.400406
1349.699306,0.000000,-1149.143247,2146.597232
1349.699618,1702.473667,-2374.896044,-1702.473667
1349.699929,1776.494261,-459.657299,-4737.318029
1349.700241,-1332.370696,995.924147,-5773.606348
1349.700552,-5403.503377,1302.362347,-4663.297435
1349.700864,-9918.759623,0.000000,-2368.659014
1349.701175,-13915.871710,-1532.190996,444.123565
1349.701487,-15914.427753,-1455.581446,3034.844362
1349.701798,-17912.983796,689.485948,4219.173869
1349.702109,-16432.571912,3447.429741,5477.523971
1349.702421,-14137.933492,3140.991542,5625.565159
1349.702732,-9400.615463,2374.896044,5181.441594
1349.703044,-3627.009116,1302.362347,4145.153275
1349.703355,-1110.308913,-842.705048,444.123565
1349.703667,518.144159,-1915.238745,-1258.350101
1349.703978,74.020594,-919.314598,-3923.091493
1349.704290,-1850.514855,1072.533697,-4737.318029
1349.704601,-5329.482782,-1378.971896,-3552.988522
1349.704912,-10140.821405,-2451.505594,-1628.453072
1349.705224,-14434.015869,-1685.410096,444.123565
1349.705535,-17987.004391,-1378.971896,2220.617826
1349.705847,-19319.375086,0.000000,4441.235652
1349.706158,-18431.127956,766.095498,5625.565159
1349.706470,-14878.139434,1685.410096,6291.750507
1349.706781,-10807.006753,-919.314598,7105.977043
1349.707092,-4441.235652,-3907.087040,4737.318029
1349.707404,370.102971,-3907.087040,1998.556043
1349.707715,3034.844362,-2681.334243,-2516.700203
1349.708027,1924.535449,-995.924147,-5921.647536
1349.708338,-1776.494261,229.828649,-6735.874072
1349.708650,-5995.668130,0.000000,-4959.379811
1349.708961,-12065.356855,-842.705048,-2368.659014
1349.709273,-16802.674883,-2834.553343,1406.391290
1349.709584,-20503.704593,-2298.286494,3849.070898
1349.709895,-21539.992912,-1608.800546,4737.318029
1349.710207,-19171.333898,-153.219100,5107.421000
1349.710518,-15322.262999,459.657299,4885.359217
1349.710830,-9326.594869,383.047749,3775.050304
1349.711141,-3552.988522,-612.876398,1554.432478
1349.711453,0.000000,-1991.848295,-1184.329507
1349.711764,2368.659014,-1378.971896,-4219.173869
1349.712075,1776.494261,0.000000,-5699.585753
1349.712387,-1258.350101,842.705048,-5255.462188
1349.712698,-6143.709319,689.485948,-4441.235652
1349.713010,-11325.150913,0.000000,-2590.720797
1349.713321,-15026.180623,-383.047749,-666.185348
1349.713633,-18801.230927,689.485948,740.205942
1349.713944,-19245.354492,2681.334243,3034.844362
1349.714256,-17394.839637,3294.210641,3256.906145
1349.714567,-14730.098246,1762.019645,4515.256246
1349.714878,-8586.388927,-919.314598,4441.235652
1349.715190,-3034.844362,-2451.505594,2590.720797
1349.715501,1036.288319,-3064.381992,148.041188
1349.715813,2960.823768,-1991.848295,-2590.720797
1349.716124,1554.432478,-689.485948,-4959.379811
1349.716436,-2516.700203,383.047749,-5699.585753
1349.716747,-7105.977043,306.438199,-4737.318029
1349.717059,-11843.295072,306.438199,-2516.700203
1349.717370,-16432.571912,919.314598,296.082377
1349.717681,-19541.436869,1225.752797,2220.617826
1349.717993,-19985.560434,1915.238745,4219.173869
1349.718304,-17912.983796,1838.629195,4811.338623
1349.718616,-13471.748144,383.047749,5773.606348
1349.718927,-7328.038826,0.000000,4885.359217
1349.719239,-3034.844362,-1302.362347,2590.720797
1349.719550,-222.061783,-1685.410096,-148.041188
1349.719861,740.205942,-536.266849,-3478.967927
1349.720173,-370.102971,1838.629195,-4515.256246
1349.720484,-3997.112087,2451.505594,-4515.256246
1349.720796,-7994.224174,1149.143247,-3552.988522
1349.721107,-12509.480420,536.266849,-1258.350101
1349.721419,-15840.407159,919.314598,962.267725
1349.721730,-18653.189738,1991.848295,3552.988522
1349.722042,-18949.272115,2451.505594,5107.421000
1349.722353,-16580.613101,2068.457845,6661.853478
1349.722664,-11547.212695,383.047749,6883.915261
1349.722976,-6291.750507,-2221.676944,5995.668130
1349.723287,-1406.391290,-2834.553343,2886.803174
1349.723599,1110.308913,-2987.772442,-444.123565
1349.723910,1110.308913,-612.876398,-3330.926739
1349.724222,-1850.514855,306.438199,-4589.276840
1349.724533,-5033.400406,76.609550,-4219.173869
1349.724845,-8512.368333,-1302.362347,-2442.679609
1349.725156,-12213.398043,-1302.362347,-370.102971
1349.725467,-15248.242405,-1378.971896,1628.453072
1349.725779,-17764.942608,-766.095498,3849.070898
1349.726090,-16654.633695,0.000000,5477.523971
1349.726402,-14434.015869,0.000000,6217.729913
1349.726713,-11029.068536,-306.438199,6217.729913
1349.727025,-6661.853478,-1838.629195,4737.318029
1349.727336,-2368.659014,-2451.505594,2072.576638
1349.727647,296.082377,-2221.676944,-74.020594
1349.727959,1554.432478,-689.485948,-3997.112087
1349.728270,148.041188,842.705048,-5033.400406
1349.728582,-4071.132681,2374.896044,-5107.421000
1349.728893,-8290.306550,919.314598,-3256.906145
1349.729205,-13101.645173,229.828649,-1702.473667
1349.729516,-17320.819043,689.485948,1036.288319
1349.729828,-19171.333898,1838.629195,3108.864956
1349.730139,-18579.169144,1991.848295,4219.173869
1349.730450,-16358.551318,1915.238745,4737.318029
1349.730762,-10955.047942,689.485948,5255.462188
1349.731073,-5699.585753,-1915.238745,3108.864956
1349.731385,-1776.494261,-2987.772442,296.082377
1349.731696,888.247130,-2604.724693,-2442.679609
1349.732008,1184.329507,-1378.971896,-5107.421000
1349.732319,-1924.535449,-995.924147,-5773.606348
1349.732630,-6439.791695,-1532.190996,-4959.379811
1349.732942,-10732.986159,-1685.410096,-3627.009116
1349.733253,-14656.077652,-1378.971896,-1184.329507
1349.733565,-18727.210333,-612.876398,1258.350101
1349.733876,-20947.828159,-919.314598,3182.885551
1349.734188,-20059.581028,383.047749,4071.132681
1349.734499,-16506.592507,1532.190996,4959.379811
1349.734811,-10955.047942,536.266849,5181.441594
1349.735122,-4959.379811,-1378.971896,2886.803174
1349.735433,74.020594,-1915.238745,-222.061783
1349.735745,1184.329507,-1072.533697,-2886.803174
1349.736056,296.082377,-995.924147,-4515.256246
1349.736368,-1184.329507,1455.581446,-6439.791695
1349.736679,-5847.626942,2451.505594,-4737.318029
1349.736991,-10066.800811,306.438199,-2960.823768
1349.737302,-14730.098246,-459.657299,-444.123565
1349.737614,-18209.066173,1455.581446,1702.473667
1349.737925,-20059.581028,2528.115143,3701.029710
1349.738236,-18727.210333,2681.334243,5625.565159
1349.738548,-14508.036463,2757.943793,5329.482782
1349.738859,-8734.430116,2145.067394,5181.441594
1349.739171,-3256.906145,-689.485948,2812.782580
1349.739482,518.144159,-2145.067394,888.247130
1349.739794,3182.885551,-766.095498,-1998.556043
1349.740105,222.061783,-229.828649,-5033.400406
1349.740416,-2664.741391,229.828649,-4589.276840
1349.740728,-6217.729913,383.047749,-3552.988522
1349.741039,-10732.986159,-383.047749,-1480.411884
1349.741351,-14211.954086,-1685.410096,1628.453072
1349.741662,-17468.860231,-1225.752797,3849.070898
1349.741974,-18431.127956,766.095498,5551.544565
1349.742285,-17024.736666,2451.505594,7550.100608
1349.742597,-13397.727550,1225.752797,7698.141797
1349.742908,-7105.977043,306.438199,6661.853478
1349.743219,-3330.926739,-1225.752797,1776.494261
1349.743531,888.247130,-1532.190996,-518.144159
1349.743842,2220.617826,0.000000,-4145.153275
1349.744154,1036.288319,2528.115143,-5329.482782
1349.744465,-2146.597232,2298.286494,-4885.359217
1349.744777,-7846.182985,-153.219100,-3478.967927
1349.745088,-12805.562797,0.000000,-518.144159
1349.745399,-16580.613101,2221.676944,1628.453072
1349.745711,-19319.375086,2604.724693,2812.782580
1349.746022,-19467.416275,3140.991542,4219.173869
1349.746334,-17394.839637,3447.429741,4737.318029
1349.746645,-11843.295072,2068.457845,5403.503377
1349.746957,-6365.771101,-383.047749,4219.173869
1349.747268,-3701.029710,-2604.724693,2146.597232
1349.747580,0.000000,-2681.334243,-740.205942
1349.747891,962.267725,-2298.286494,-3775.050304
1349.748202,-222.061783,-2068.457845,-5255.462188
1349.748514,-3701.029710,-2681.334243,-4589.276840
1349.748826,-8438.347739,-3370.820191,-3404.947333
1349.749137,-13027.624579,-3983.696590,-592.164754
1349.749449,-17172.777854,-2987.772442,1554.432478
1349.749760,-20059.581028,-1685.410096,3849.070898
1349.750072,-20725.766376,689.485948,5107.421000
1349.750384,-17542.880825,306.438199,5551.544565
1349.750695,-12435.459826,0.000000,5773.606348
1349.751007,-6217.729913,-1225.752797,4145.153275
1349.751318,-1406.391290,-1302.362347,1110.308913
1349.751630,1924.535449,-1685.410096,-2220.617826
1349.751942,2886.803174,-1072.533697,-5107.421000
1349.752253,666.185348,153.219100,-6513.812290
1349.752565,-2590.720797,766.095498,-5181.441594
1349.752877,-8216.285956,-1378.971896,-3627.009116
1349.753188,-13915.871710,-2145.067394,-962.267725
1349.753500,-18283.086767,-1302.362347,1628.453072
1349.753811,-20873.807564,76.609550,3775.050304
1349.754123,-21317.931130,1838.629195,4145.153275
1349.754435,-19171.333898,3983.696590,4145.153275
1349.754746,-12953.603985,3600.648841,3478.967927
1349.755058,-5255.462188,2068.457845,1776.494261
1349.755370,296.082377,-383.047749,222.061783
1349.755681,3552.988522,-1991.848295,-1628.453072
1349.755993,3701.029710,-1149.143247,-3849.070898
1349.756304,74.020594,0.000000,-4737.318029
1349.756616,-5403.503377,919.314598,-5033.400406
1349.756928,-10066.800811,383.047749,-4071.132681
1349.757239,-14582.057057,536.266849,-1628.453072
1349.757551,-19171.333898,0.000000,962.267725
1349.757862,-20873.807564,612.876398,3627.009116
1349.758174,-20133.601622,1685.410096,5773.606348
1349.758486,-16654.633695,2145.067394,7031.956449
1349.758797,-10436.903782,612.876398,7105.977043
1349.759109,-4219.173869,-1149.143247,4811.338623
1349.759421,592.164754,-1838.629195,518.144159
1349.759732,3701.029710,842.705048,-2886.803174
1349.760044,2590.720797,1685.410096,-6069.688724
1349.760355,-666.185348,2911.162892,-6735.874072
1349.760667,-6143.709319,2451.505594,-4959.379811
1349.760979,-11473.192101,0.000000,-1924.535449
1349.761290,-15322.262999,-383.047749,1332.370696
1349.761602,-18505.148550,459.657299,3627.009116
1349.761914,-19097.313304,2451.505594,5181.441594
1349.762225,-18727.210333,3064.381992,4959.379811
1349.762537,-13767.830521,2834.553343,6217.729913
1349.762848,-7254.018232,2068.457845,5329.482782
1349.763160,-1850.514855,-536.266849,3552.988522
1349.763472,1554.432478,-2681.334243,962.267725
1349.763783,2664.741391,-3064.381992,-1628.453072
1349.764095,1628.453072,-919.314598,-4219.173869
1349.764406,-1702.473667,-1149.143247,-3923.091493
1349.764718,-7105.977043,-1762.019645,-3330.926739
1349.765030,-12139.377449,-2911.162892,-1184.329507
1349.765341,-16136.489536,-2834.553343,1406.391290
1349.765653,-19467.416275,-2298.286494,3478.967927
1349.765965,-21169.889941,-306.438199,5033.400406
1349.766276,-19541.436869,919.314598,5847.626942
1349.766588,-14878.139434,612.876398,5699.585753
1349.766899,-8438.347739,76.609550,5847.626942
1349.767211,-2294.638420,-2068.457845,3627.009116
1349.767523,2738.761985,-2604.724693,444.123565
1349.767834,4293.194464,-2145.067394,-3330.926739
1349.768146,1998.556043,-842.705048,-5847.626942
1349.768458,-2294.638420,1149.143247,-5995.668130
1349.768769,-8290.306550,1072.533697,-4663.297435
1349.769081,-13693.809927,0.000000,-2294.638420
1349.769392,-17246.798449,-766.095498,666.185348
1349.769704,-21021.848753,153.219100,2812.782580
1349.770016,-21465.972318,842.705048,4441.235652
1349.770327,-18875.251521,1915.238745,4737.318029
1349.770639,-14359.995275,2374.896044,4515.256246
1349.770950,-7031.956449,1072.533697,4737.318029
1349.771262,-1184.329507,-1991.848295,1480.411884
1349.771574,2664.741391,-3370.820191,-1110.308913
1349.771885,4811.338623,-1991.848295,-4219.173869
1349.772197,1776.494261,-689.485948,-5773.606348
1349.772509,-2590.720797,-229.828649,-5107.421000
1349.772820,-8364.327145,-1532.190996,-4515.256246
1349.773132,-13841.851115,-2221.676944,-1702.473667
1349.773443,-17320.819043,-1685.410096,1480.411884
1349.773755,-21095.869347,-383.047749,1776.494261
1349.774067,-21243.910535,1991.848295,2886.803174
1349.774378,-18505.148550,2451.505594,3849.070898
1349.774690,-13027.624579,1608.800546,4515.256246
1349.775002,-6661.853478,229.828649,4737.318029
1349.775313,-1110.308913,-1838.629195,2220.617826
1349.775625,3552.988522,-3447.429741,-814.226536
1349.775936,4589.276840,-3447.429741,-3923.091493
1349.776248,1406.391290,-153.219100,-5551.544565
1349.776560,-4145.153275,1378.971896,-5403.503377
1349.776871,-10362.883188,306.438199,-4219.173869
1349.777183,-15988.448347,0.000000,-1332.370696
1349.777494,-19689.478057,1532.190996,1332.370696
1349.777806,-21539.992912,2528.115143,3034.844362
1349.778118,-20947.828159,3217.601092,3923.091493
1349.778429,-16876.695478,3830.477490,4219.173869
1349.778741,-10288.862594,2834.553343,4367.215058
1349.779053,-3701.029710,1149.143247,4367.215058
1349.779364,1628.453072,-1149.143247,1998.556043
1349.779676,4219.173869,-3370.820191,-148.041188
1349.779987,2886.803174,-2757.943793,-2960.823768
1349.780299,-814.226536,76.609550,-4737.318029
1349.780611,-6291.750507,919.314598,-4811.338623
1349.780922,-11547.212695,76.609550,-3108.864956
1349.781234,-15618.345376,-153.219100,-888.247130
1349.781546,-19171.333898,-612.876398,1850.514855
1349.781857,-21317.931130,536.266849,4071.132681
1349.782169,-19837.519246,1838.629195,5403.503377
1349.782480,-15544.324782,2528.115143,7254.018232
1349.782792,-9178.553681,919.314598,8142.265362
1349.783104,-2738.761985,-1838.629195,6143.709319
1349.783415,1406.391290,-2834.553343,1480.411884
1349.783727,4367.215058,-2374.896044,-1998.556043
1349.784038,3627.009116,153.219100,-4811.338623
1349.784350,0.000000,1838.629195,-5403.503377
1349.784662,-6661.853478,919.314598,-4441.235652
1349.784973,-12509.480420,-1072.533697,-1480.411884
1349.785285,-16580.613101,-919.314598,1480.411884
1349.785597,-18949.272115,383.047749,3182.885551
1349.785908,-19763.498651,2145.067394,3701.029710
1349.786220,-18579.169144,3524.039291,4071.132681
1349.786531,-13471.748144,2604.724693,3849.070898
1349.786843,-7254.018232,2221.676944,5255.462188
1349.787155,-1332.370696,-1149.143247,4959.379811
1349.787466,2146.597232,-4060.306139,2146.597232
1349.787778,3404.947333,-4979.620737,-962.267725
1349.788090,1850.514855,-3064.381992,-4145.153275
1349.788401,-1702.473667,-1072.533697,-5551.544565
1349.788713,-7698.141797,-689.485948,-5107.421000
1349.789024,-13841.851115,-536.266849,-3330.926739
1349.789336,-17838.963202,-612.876398,-740.205942
1349.789648,-21317.931130,0.000000,1702.473667
1349.789959,-21836.075289,842.705048,3701.029710
1349.790271,-19171.333898,995.924147,4515.256246
1349.790582,-14730.098246,383.047749,4737.318029
1349.790894,-8142.265362,-1455.581446,4589.276840
1349.791206,-1850.514855,-1915.238745,2442.679609
1349.791517,2516.700203,-2911.162892,-888.247130
1349.791829,3923.091493,-3600.648841,-4293.194464
1349.792141,2664.741391,-2374.896044,-5773.606348
1349.792452,-1332.370696,-1149.143247,-4885.359217
1349.792764,-8142.265362,-1225.752797,-4071.132681
1349.793075,-14804.118840,-3140.991542,-1776.494261
1349.793387,-19689.478057,-2298.286494,814.226536
1349.793699,-22650.301825,612.876398,3108.864956
1349.794010,-22058.137072,2068.457845,4145.153275
1349.794322,-19911.539840,3064.381992,4515.256246
1349.794634,-14211.954086,2451.505594,3701.029710
1349.794945,-6883.915261,1455.581446,3182.885551
1349.795257,0.000000,229.828649,1480.411884
1349.795568,3182.885551,-306.438199,-592.164754
1349.795880,4219.173869,-1838.629195,-3552.988522
1349.796192,2442.679609,306.438199,-4959.379811
1349.796503,-2738.761985,1685.410096,-4663.297435
1349.796815,-8660.409521,1378.971896,-4219.173869
1349.797126,-14508.036463,842.705048,-1554.432478
1349.797438,-18949.272115,1072.533697,592.164754
1349.797750,-21465.972318,1685.410096,2664.741391
1349.798061,-19393.395680,2528.115143,4737.318029
1349.798373,-15840.407159,2068.457845,5995.668130
1349.798685,-10955.047942,383.047749,6809.894666
1349.798996,-4737.318029,-2528.115143,5847.626942
1349.799308,-962.267725,-3064.381992,2294.638420
1349.799619,1332.370696,-1762.019645,-1406.391290
1349.799931,888.247130,0.000000,-4737.318029
1349.800243,-1776.494261,1762.019645,-6217.729913
1349.800554,-5033.400406,3447.429741,-5477.523971
1349.800866,-10140.821405,1455.581446,-2516.700203
1349.801178,-13175.665768,0.000000,814.226536
1349.801489,-16432.571912,766.095498,3256.906145
1349.801801,-17764.942608,2528.115143,4885.359217
1349.802112,-16136.489536,3830.477490,5551.544565
1349.802424,-12805.562797,4060.306139,6513.812290
1349.802736,-7031.956449,3370.820191,4663.297435
1349.803047,-2738.761985,1378.971896,2812.782580
1349.803359,-222.061783,-1225.752797,-222.061783
1349.803671,962.267725,-1915.238745,-2516.700203
1349.803982,-518.144159,0.000000,-4885.359217
1349.804294,-3108.864956,-383.047749,-4367.215058
1349.804605,-7179.997637,-1532.190996,-3404.947333
1349.804917,-11177.109724,-2451.505594,-1258.350101
1349.805229,-15322.262999,-1762.019645,148.041188
1349.805540,-18579.169144,-1991.848295,2590.720797
1349.805852,-18801.230927,76.609550,4589.276840
1349.806163,-18357.107362,536.266849,5699.585753
1349.806475,-14211.954086,-229.828649,5921.647536
1349.806787,-9622.677246,-2374.896044,6439.791695
1349.807098,-4145.153275,-4213.525239,4071.132681
1349.807410,-592.164754,-3830.477490,666.185348
1349.807722,1110.308913,-2451.505594,-3256.906145
1349.808033,740.205942,-536.266849,-5625.565159
1349.808345,-2812.782580,766.095498,-5995.668130
1349.808656,-6661.853478,536.266849,-4441.235652
1349.808968,-11621.233289,-383.047749,-2146.597232
1349.809280,-16062.468941,-995.924147,518.144159
1349.809591,-18505.148550,-612.876398,3478.967927
1349.809903,-19097.313304,153.219100,4293.194464
1349.810215,-16876.695478,919.314598,3997.112087
1349.810526,-13101.645173,1378.971896,4293.194464
1349.810838,-8512.368333,-306.438199,3256.906145
1349.811149,-3775.050304,-1532.190996,1998.556043
1349.811461,-592.164754,-3064.381992,-222.061783
1349.811773,592.164754,-2528.115143,-2516.700203
1349.812084,-518.144159,-1532.190996,-4071.132681
1349.812396,-3478.967927,459.657299,-4589.276840
1349.812707,-7105.977043,0.000000,-4071.132681
1349.813019,-10362.883188,153.219100,-1702.473667
1349.813331,-13915.871710,229.828649,-0.000000
1349.813642,-18061.024985,536.266849,962.267725
1349.813954,-19763.498651,1608.800546,3256.906145
1349.814266,-17912.983796,2528.115143,4737.318029
1349.814577,-14211.954086,919.314598,5477.523971
1349.814889,-7698.141797,-383.047749,4959.379811
1349.815200,-3330.926739,-1455.581446,1850.514855
1349.815512,222.061783,-2068.457845,-518.144159
1349.815824,2220.617826,-1762.019645,-3849.070898
1349.816135,-666.185348,612.876398,-5773.606348
1349.816447,-4071.132681,2528.115143,-4959.379811
1349.816759,-8660.409521,2068.457845,-4071.132681
1349.817070,-12657.521608,689.485948,-1258.350101
1349.817382,-14804.118840,536.266849,592.164754
1349.817693,-17024.736666,1608.800546,2590.720797
1349.818005,-16876.695478,2911.162892,3923.091493
1349.818317,-15396.283594,3524.039291,4293.194464
1349.818628,-11399.171507,2757.943793,5329.482782
1349.818940,-6217.729913,1149.143247,4515.256246
1349.819251,-3404.947333,-1225.752797,2368.659014
1349.819563,-1554.432478,-2145.067394,-518.144159
1349.819875,-740.205942,-612.876398,-3034.844362
1349.820186,-1924.535449,2221.676944,-4737.318029
1349.820498,-4959.379811,1455.581446,-4663.297435
1349.820810,-8364.327145,306.438199,-3775.050304
1349.821121,-11177.109724,0.000000,-814.226536
1349.821433,-14508.036463,-459.657299,1110.308913
1349.821744,-17320.819043,383.047749,3330.926739
1349.822056,-17987.004391,2451.505594,5033.400406
1349.822368,-15840.407159,1762.019645,6217.729913
1349.822679,-11547.212695,536.266849,6291.750507
1349.822991,-7031.956449,-1915.238745,5625.565159
1349.823303,-2664.741391,-3064.381992,2294.638420
1349.823614,518.144159,-2834.553343,-0.000000
1349.823926,814.226536,-1378.971896,-3478.967927
1349.824237,-2072.576638,229.828649,-4737.318029
1349.824549,-6069.688724,1072.533697,-4219.173869
1349.824861,-9474.636058,0.000000,-1924.535449
1349.825172,-12805.562797,-842.705048,444.123565
1349.825484,-15322.262999,0.000000,1628.453072
1349.825795,-17024.736666,842.705048,3330.926739
1349.826107,-17172.777854,1149.143247,4145.153275
1349.826419,-14656.077652,1838.629195,4737.318029
1349.826730,-10214.842000,1455.581446,5403.503377
1349.827042,-5403.503377,-766.095498,4145.153275
1349.827354,-1776.494261,-2757.943793,2368.659014
1349.827665,148.041188,-3064.381992,-666.185348
1349.827977,518.144159,-766.095498,-3478.967927
1349.828288,-1406.391290,153.219100,-4663.297435
1349.828600,-5329.482782,-459.657299,-4515.256246
1349.828912,-9252.574275,-766.095498,-3256.906145
1349.829223,-13027.624579,-1455.581446,-1110.308913
1349.829535,-15988.448347,-1762.019645,1036.288319
1349.829847,-18357.107362,-995.924147,2812.782580
1349.830158,-18505.148550,153.219100,4293.194464
1349.830470,-16506.592507,-459.657299,4811.338623
1349.830781,-12065.356855,-766.095498,5181.441594
1349.831093,-6365.771101,-1762.019645,3478.967927
1349.831405,-1998.556043,-2604.724693,444.123565
1349.831716,518.144159,-2221.676944,-2590.720797
1349.832028,296.082377,-612.876398,-4885.359217
1349.832339,-2220.617826,76.609550,-5477.523971
1349.832651,-5181.441594,1991.848295,-4737.318029
1349.832963,-10362.883188,229.828649,-3182.885551
1349.833274,-15026.180623,-306.438199,-1258.350101
1349.833586,-17912.983796,536.266849,296.082377
1349.833898,-18653.189738,1838.629195,2294.638420
1349.834209,-17616.901420,2374.896044,3034.844362
1349.834521,-14656.077652,1762.019645,3775.050304
1349.834832,-10584.944971,76.609550,3775.050304
1349.835144,-4959.379811,-1608.800546,3404.947333
1349.835456,-1184.329507,-3140.991542,1776.494261
1349.835767,74.020594,-2451.505594,-1332.370696
1349.836079,-888.247130,-1072.533697,-3701.029710
1349.836391,-2886.803174,459.657299,-4515.256246
1349.836702,-5551.544565,1685.410096,-4515.256246
1349.837014,-9770.718434,1302.362347,-3034.844362
1349.837325,-13323.706956,689.485948,-888.247130
1349.837637,-16876.695478,0.000000,1628.453072
1349.837949,-18283.086767,1072.533697,4515.256246
1349.838260,-16876.695478,1378.971896,6143.709319
1349.838572,-14359.995275,306.438199,6513.812290
1349.838883,-10214.842000,-459.657299,5773.606348
1349.839195,-5107.421000,-536.266849,3256.906145
1349.839507,-296.082377,0.000000,-0.000000
1349.839818,962.267725,1302.362347,-3108.864956
1349.840130,296.082377,689.485948,-4737.318029
1349.840442,-1998.556043,1762.019645,-4663.297435
1349.840753,-5699.585753,995.924147,-3330.926739
1349.841065,-9918.759623,0.000000,-1184.329507
1349.841376,-14285.974681,-459.657299,740.205942
1349.841688,-17024.736666,842.705048,3404.947333
1349.842000,-17616.901420,1915.238745,4737.318029
1349.842311,-16136.489536,2068.457845,6069.688724
1349.842623,-13175.665768,1225.752797,5847.626942
1349.842935,-8586.388927,153.219100,5477.523971
1349.843246,-3997.112087,-1608.800546,2590.720797
1349.843558,-740.205942,-1838.629195,148.041188
1349.843869,888.247130,-306.438199,-3108.864956
1349.844181,0.000000,536.266849,-4737.318029
1349.844493,-2960.823768,766.095498,-4293.194464
1349.844804,-6365.771101,-842.705048,-3256.906145
1349.845116,-10881.027347,-2068.457845,-1184.329507
1349.845427,-15174.221811,-2298.286494,1184.329507
1349.845739,-18135.045579,-1302.362347,3404.947333
1349.846051,-18949.272115,0.000000,5033.400406
1349.846362,-17690.922014,1532.190996,5329.482782
1349.846674,-13249.686362,1072.533697,5921.647536
1349.846986,-8512.368333,-383.047749,4515.256246
1349.847297,-3923.091493,-1225.752797,1628.453072
1349.847609,-370.102971,-919.314598,-962.267725
1349.847920,962.267725,-612.876398,-4293.194464
1349.848232,-444.123565,0.000000,-5181.441594
1349.848544,-3775.050304,306.438199,-5477.523971
1349.848855,-8512.368333,-766.095498,-3849.070898
1349.849167,-13027.624579,-1608.800546,-1554.432478
1349.849479,-16062.468941,-1072.533697,888.247130
1349.849790,-18357.107362,-306.438199,2812.782580
1349.850102,-18653.189738,0.000000,4367.215058
1349.850414,-16802.674883,229.828649,4441.235652
1349.850725,-11917.315666,459.657299,5107.421000
1349.851037,-6661.853478,-612.876398,3182.885551
1349.851349,-2442.679609,-2298.286494,1110.308913
1349.851660,-444.123565,-2604.724693,-1850.514855
1349.851972,888.247130,-1838.629195,-4663.297435
1349.852284,-518.144159,0.000000,-5403.503377
1349.852595,-3478.967927,0.000000,-5255.462188
1349.852907,-7624.121203,-1455.581446,-4071.132681
1349.853219,-12361.439231,-2298.286494,-1036.288319
1349.853530,-17024.736666,-2451.505594,1258.350101
1349.853842,-19615.457463,-1302.362347,4071.132681
1349.854153,-19763.498651,1915.238745,5033.400406
1349.854465,-18505.148550,2451.505594,5329.482782
1349.854777,-13101.645173,995.924147,5403.503377
1349.855088,-7105.977043,-689.485948,3552.988522
1349.855400,-1776.494261,-766.095498,592.164754
1349.855712,1184.329507,-766.095498,-2516.700203
1349.856023,2146.597232,0.000000,-4663.297435
1349.856335,-666.185348,689.485948,-5403.503377
1349.856647,-4219.173869,766.095498,-4737.318029
1349.856958,-8882.471304,-459.657299,-3034.844362
1349.857270,-13471.748144,-383.047749,-740.205942
1349.857582,-17024.736666,612.876398,1554.432478
1349.857893,-19023.292709,1762.019645,3478.967927
1349.858205,-18135.045579,2298.286494,4885.359217
1349.858517,-16062.468941,2604.724693,5403.503377
1349.858828,-11177.109724,2221.676944,5847.626942
1349.859140,-4737.318029,153.219100,4589.276840
1349.859452,-740.205942,-1225.752797,1924.535449
1349.859763,2220.617826,-995.924147,-1258.350101
1349.860075,1406.391290,153.219100,-4367.215058
1349.860387,-1258.350101,689.485948,-5329.482782
1349.860698,-4959.379811,1225.752797,-4959.379811
1349.861010,-9400.615463,919.314598,-3552.988522
1349.861322,-13397.727550,-536.266849,-592.164754
1349.861633,-16950.716072,0.000000,2442.679609
1349.861945,-19467.416275,842.705048,4811.338623
1349.862256,-18949.272115,1762.019645,6439.791695
1349.862568,-15914.427753,1991.848295,7254.018232
1349.862880,-10066.800811,919.314598,6661.853478
1349.863191,-4293.194464,-689.485948,3997.112087
1349.863503,370.102971,-1532.190996,148.041188
1349.863815,2664.741391,-536.266849,-3034.844362
1349.864126,2146.597232,306.438199,-4959.379811
1349.864438,-740.205942,1072.533697,-4663.297435
1349.864750,-6587.832884,-153.219100,-4293.194464
1349.865061,-11843.295072,-1915.238745,-2072.576638
1349.865373,-16358.551318,-1762.019645,592.164754
1349.865685,-19097.313304,-536.266849,2960.823768
1349.865996,-19837.519246,1302.362347,4145.153275
1349.866308,-18801.230927,1915.238745,5033.400406
1349.866620,-14434.015869,1685.410096,5551.544565
1349.866931,-8290.306550,0.000000,6587.832884
1349.867243,-2590.720797,-2604.724693,4219.173869
1349.867555,814.226536,-3907.087040,1406.391290
1349.867866,1998.556043,-3064.381992,-3034.844362
1349.868178,1628.453072,-842.705048,-5329.482782
1349.868490,-1480.411884,689.485948,-6217.729913
1349.868801,-6365.771101,-919.314598,-5033.400406
1349.869113,-11991.336260,-2221.676944,-2368.659014
1349.869425,-17098.757260,-2528.115143,444.123565
1349.869736,-20429.683999,-766.095498,3404.947333
1349.870048,-21243.910535,612.876398,5255.462188
1349.870359,-19245.354492,1455.581446,5477.523971
1349.870671,-14434.015869,536.266849,5329.482782
1349.870983,-7031.956449,-459.657299,4293.194464
1349.871294,-888.247130,-842.705048,1998.556043
1349.871606,2886.803174,-919.314598,-888.247130
1349.871918,2960.823768,-1991.848295,-3775.050304
1349.872229,962.267725,-1378.971896,-5033.400406
1349.872541,-2812.782580,-689.485948,-5477.523971
1349.872853,-8438.347739,-536.266849,-4219.173869
1349.873164,-13101.645173,-766.095498,-2812.782580
1349.873476,-16876.695478,-995.924147,-370.102971
1349.873788,-19763.498651,612.876398,2368.659014
1349.874099,-20873.807564,1455.581446,3997.112087
1349.874411,-19615.457463,2374.896044,5625.565159
1349.874723,-14359.995275,1455.581446,6217.729913
1349.875034,-6809.894666,0.000000,5699.585753
1349.875346,0.000000,-1532.190996,2072.576638
1349.875658,3997.112087,-1455.581446,-1258.350101
1349.875969,3627.009116,-1378.971896,-5921.647536
1349.876281,222.061783,459.657299,-6809.894666
1349.876593,-4219.173869,1762.019645,-6513.812290
1349.876904,-10436.903782,459.657299,-4959.379811
1349.877216,-15692.365970,-1225.752797,-1184.329507
1349.877528,-19837.519246,-1762.019645,1924.535449
1349.877839,-21317.931130,-383.047749,4293.194464
1349.878151,-19763.498651,919.314598,5033.400406
1349.878462,-15322.262999,2451.505594,5477.523971
1349.878774,-10214.842000,2451.505594,5625.565159
1349.879086,-3775.050304,766.095498,4293.194464
1349.879397,814.226536,-919.314598,1332.370696
1349.879709,2886.803174,-1532.190996,-1776.494261
1349.880021,1184.329507,-306.438199,-4441.235652
1349.880332,-1776.494261,2451.505594,-5403.503377
1349.880644,-5329.482782,2681.334243,-4071.132681
1349.880956,-10732.986159,153.219100,-2590.720797
1349.881267,-15470.304188,0.000000,-740.205942
1349.881579,-18061.024985,842.705048,1776.494261
1349.881891,-18949.272115,3370.820191,3849.070898
1349.882202,-17616.901420,4290.134789,5699.585753
1349.882514,-14359.995275,3830.477490,6735.874072
1349.882826,-8660.409521,1762.019645,6809.894666
1349.883137,-3182.885551,-229.828649,5107.421000
1349.883449,-444.123565,-2681.334243,1628.453072
1349.883761,2220.617826,-1455.581446,-1998.556043
1349.884072,1258.350101,-153.219100,-5181.441594
1349.884384,-1184.329507,0.000000,-5995.668130
1349.884696,-5403.503377,-1072.533697,-4959.379811
1349.885007,-10807.006753,-2374.896044,-2590.720797
1349.885319,-14730.098246,-2298.286494,592.164754
1349.885631,-18209.066173,-1991.848295,3849.070898
1349.885942,-20725.766376,0.000000,5921.647536
1349.886254,-19393.395680,1455.581446,6957.935855
1349.886565,-15396.283594,1838.629195,6883.915261
1349.886877,-9474.636058,1225.752797,6217.729913
1349.887189,-3478.967927,0.000000,3108.864956
1349.887500,740.205942,-1072.533697,-222.061783
1349.887812,2960.823768,-1762.019645,-3627.009116
1349.888124,1998.556043,-383.047749,-5773.606348
1349.888435,-1628.453072,-536.266849,-5255.462188
1349.888747,-7105.977043,-383.047749,-4071.132681
1349.889059,-12583.501014,-1915.238745,-1776.494261
1349.889370,-16284.530724,-1838.629195,444.123565
1349.889682,-18283.086767,-229.828649,2590.720797
1349.889994,-19763.498651,1149.143247,3997.112087
1349.890305,-17912.983796,2681.334243,4145.153275
1349.890617,-13841.851115,1991.848295,4811.338623
1349.890929,-8586.388927,-229.828649,4145.153275
1349.891240,-2812.782580,-2145.067394,2738.761985
1349.891552,592.164754,-3140.991542,-666.185348
1349.891864,2072.576638,-2834.553343,-3997.112087
1349.892175,2072.576638,-1915.238745,-5773.606348
1349.892487,-1998.556043,-1762.019645,-5625.565159
1349.892799,-7846.182985,-2145.067394,-4959.379811
1349.893110,-12731.542202,-2834.553343,-2220.617826
1349.893422,-16950.716072,-2374.896044,1110.308913
1349.893734,-20651.745782,-1072.533697,3182.885551
1349.894045,-22058.137072,1149.143247,4441.235652
1349.894357,-19467.416275,2911.162892,4589.276840
1349.894668,-14434.015869,2834.553343,4737.318029
1349.894980,-7105.977043,1532.190996,3923.091493
1349.895292,-2146.597232,-229.828649,962.267725
1349.895603,1406.391290,-612.876398,-1628.453072
1349.895915,3256.906145,-1149.143247,-4071.132681
1349.896227,370.102971,0.000000,-4959.379811
1349.896538,-3775.050304,1302.362347,-4885.359217
1349.896850,-9030.512492,689.485948,-4293.194464
1349.897162,-14063.912898,306.438199,-1776.494261
1349.897473,-16728.654289,459.657299,444.123565
1349.897785,-20281.642811,2528.115143,1924.535449
1349.898097,-19837.519246,4443.353888,3849.070898
1349.898408,-17172.777854,4749.792088,4663.297435
1349.898720,-11251.130318,2987.772442,5921.647536
1349.899032,-4145.153275,689.485948,5699.585753
1349.899343,0.000000,-2221.676944,2886.803174
1349.899655,2146.597232,-3370.820191,-222.061783
1349.899967,2368.659014,-2374.896044,-2738.761985
1349.900278,148.041188,1225.752797,-4959.379811
1349.900590,-4293.194464,1838.629195,-5181.441594
1349.900902,-10066.800811,-536.266849,-3478.967927
1349.901213,-14211.954086,-1072.533697,-222.061783
1349.901525,-16876.695478,-612.876398,2220.617826
1349.901836,-18875.251521,842.705048,4367.215058
1349.902148,-18505.148550,2221.676944,5625.565159
1349.902460,-15100.201217,3140.991542,6291.750507
1349.902771,-9844.739029,1455.581446,7254.018232
1349.903083,-3108.864956,459.657299,5551.544565
1349.903395,0.000000,-1455.581446,2220.617826
1349.903706,1406.391290,-1991.848295,-1036.288319
1349.904018,1184.329507,-995.924147,-3775.050304
1349.904330,-1480.411884,1149.143247,-4959.379811
1349.904641,-5477.523971,1302.362347,-4589.276840
1349.904953,-9548.656652,-383.047749,-2590.720797
1349.905265,-14359.995275,-2298.286494,-814.226536
1349.905576,-17616.901420,-1149.143247,1332.370696
1349.905888,-19467.416275,1302.362347,3701.029710
1349.906200,-19837.519246,2298.286494,4293.194464
1349.906511,-17246.798449,2298.286494,5625.565159
1349.906823,-11917.315666,383.047749,5847.626942
1349.907135,-4663.297435,-2221.676944,4885.359217
1349.907446,74.020594,-3370.820191,1702.473667
1349.907758,3034.844362,-2987.772442,-1184.329507
1349.908070,2812.782580,-2374.896044,-4367.215058
1349.908381,0.000000,-1225.752797,-6217.729913
1349.908693,-5477.523971,-612.876398,-5329.482782
1349.909005,-11769.274478,-1225.752797,-3478.967927
1349.909316,-16876.695478,-1378.971896,-518.144159
1349.909628,-19911.539840,-536.266849,2220.617826
1349.909939,-21317.931130,0.000000,3330.926739
1349.910251,-18801.230927,153.219100,4737.318029
1349.910563,-15248.242405,0.000000,4811.338623
1349.910874,-9400.615463,-689.485948,4737.318029
1349.911186,-3775.050304,-1685.410096,2368.659014
1349.911498,296.082377,-1838.629195,-296.082377
1349.911809,2664.741391,-1302.362347,-3404.947333
1349.912121,1332.370696,-766.095498,-4959.379811
1349.912433,-1924.535449,76.609550,-5181.441594
1349.912744,-5995.668130,612.876398,-4811.338623
1349.913056,-11547.212695,-383.047749,-3256.906145
1349.913368,-15470.304188,76.609550,-666.185348
1349.913679,-18949.272115,995.924147,888.247130
1349.913991,-19689.478057,1685.410096,2368.659014
1349.914303,-18283.086767,2681.334243,3849.070898
1349.914614,-15470.304188,2451.505594,3997.112087
1349.914926,-10140.821405,842.705048,4515.256246
1349.915238,-4293.194464,-1685.410096,2738.761985
1349.915549,518.144159,-2911.162892,1110.308913
1349.915861,3182.885551,-2757.943793,-1998.556043
1349.916173,1850.514855,-1225.752797,-4663.297435
1349.916484,-2368.659014,306.438199,-5477.523971
1349.916796,-6513.812290,766.095498,-4811.338623
1349.917108,-11917.315666,153.219100,-2516.700203
1349.917419,-16358.551318,-383.047749,-148.041188
1349.917731,-20059.581028,-689.485948,2294.638420
1349.918042,-20503.704593,1149.143247,4293.194464
1349.918354,-18431.127956,2221.676944,5699.585753
1349.918666,-13471.748144,1685.410096,6069.688724
1349.918977,-6957.935855,383.047749,5033.400406
1349.919289,-1702.473667,-1838.629195,2590.720797
1349.919601,1628.453072,-1302.362347,-0.000000
1349.919912,1258.350101,306.438199,-3849.070898
1349.920224,-222.061783,3140.991542,-5477.523971
1349.920536,-3627.009116,3753.867940,-4885.359217
1349.920847,-7846.182985,1302.362347,-3330.926739
1349.921159,-12065.356855,-612.876398,-666.185348
1349.921471,-15544.324782,-689.485948,1554.432478
1349.921782,-17912.983796,995.924147,3997.112087
1349.922094,-18949.272115,995.924147,5329.482782
1349.922406,-17468.860231,1608.800546,5773.606348
1349.922717,-12435.459826,1302.362347,5995.668130
1349.923029,-5699.585753,-536.266849,5699.585753
1349.923341,-962.267725,-2298.286494,2960.823768
1349.923652,1184.329507,-2604.724693,666.185348
1349.923964,2294.638420,-1072.533697,-2664.741391
1349.924276,444.123565,1149.143247,-4071.132681
1349.924587,-3404.947333,1455.581446,-3552.988522
1349.924899,-8142.265362,0.000000,-2516.700203
1349.925211,-12287.418637,-1378.971896,-370.102971
1349.925522,-15766.386565,-1762.019645,1628.453072
1349.925834,-18505.148550,-536.266849,3627.009116
1349.926145,-18949.272115,612.876398,4441.235652
1349.926457,-17690.922014,1455.581446,5255.462188
1349.926769,-12509.480420,612.876398,5477.523971
1349.927080,-6957.935855,-1302.362347,4663.297435
1349.927392,-3034.844362,-2451.505594,2294.638420
1349.927704,888.247130,-1685.410096,-370.102971
1349.928015,1702.473667,-536.266849,-3849.070898
1349.928327,962.267725,689.485948,-4589.276840
1349.928639,-3256.906145,689.485948,-4663.297435
1349.928950,-8586.388927,-536.266849,-3627.009116
1349.929262,-14211.954086,-919.314598,-1702.473667
1349.929574,-18431.127956,153.219100,814.226536
1349.929885,-19837.519246,1991.848295,3108.864956
1349.930197,-20355.663405,1532.190996,4219.173869
1349.930509,-17246.798449,536.266849,4737.318029
1349.930820,-11621.233289,-383.047749,4293.194464
1349.931132,-5699.585753,-1378.971896,2664.741391
1349.931444,-1258.350101,-1991.848295,-74.020594
1349.931755,1110.308913,-1991.848295,-3330.926739
1349.932067,2664.741391,-1149.143247,-4885.359217
1349.932379,-296.082377,-1072.533697,-4663.297435
1349.932690,-4145.153275,-1455.581446,-3849.070898
1349.933002,-9178.553681,-2068.457845,-2590.720797
1349.933314,-13989.892304,-2834.553343,-370.102971
1349.933625,-17172.777854,-2068.457845,2294.638420
1349.933937,-19615.457463,-383.047749,2368.659014
1349.934248,-18801.230927,1072.533697,4145.153275
1349.934560,-17172.777854,1455.581446,4145.153275
1349.934872,-12657.521608,76.609550,3775.050304
1349.935183,-6809.894666,0.000000,2294.638420
1349.935495,-2516.700203,-1149.143247,-222.061783
1349.935807,814.226536,-1302.362347,-1998.556043
1349.936118,1110.308913,-383.047749,-4367.215058
1349.936430,-814.226536,306.438199,-4293.194464
1349.936742,-4663.297435,1378.971896,-4219.173869
1349.937053,-9474.636058,612.876398,-2886.803174
1349.937365,-14137.933492,536.266849,-666.185348
1349.937677,-17320.819043,1532.190996,1702.473667
1349.937988,-19615.457463,2145.067394,3256.906145
1349.938300,-19245.354492,2221.676944,4737.318029
1349.938612,-15544.324782,1991.848295,4441.235652
1349.938923,-9696.697840,1455.581446,5033.400406
1349.939235,-4663.297435,-306.438199,3256.906145
1349.939547,-740.205942,-1532.190996,814.226536
1349.939858,1036.288319,-1455.581446,-2294.638420
1349.940170,222.061783,-153.219100,-3775.050304
1349.940482,-1850.514855,1838.629195,-3627.009116
1349.940793,-5773.606348,1302.362347,-3182.885551
1349.941105,-10362.883188,-229.828649,-962.267725
1349.941417,-13471.748144,-1608.800546,1036.288319
1349.941728,-16506.592507,-383.047749,2886.803174
1349.942040,-18209.066173,1225.752797,4663.297435
1349.942351,-17098.757260,2451.505594,5773.606348
1349.942663,-14211.954086,1685.410096,5773.606348
1349.942975,-9178.553681,842.705048,5329.482782
1349.943286,-4737.318029,-612.876398,2590.720797
1349.943598,-148.041188,-306.438199,222.061783
1349.943910,1406.391290,536.266849,-2368.659014
1349.944221,1184.329507,1838.629195,-4145.153275
1349.944533,-1036.288319,1838.629195,-3997.112087
1349.944845,-5181.441594,536.266849,-3552.988522
1349.945156,-10362.883188,-612.876398,-888.247130
1349.945468,-14582.057057,-459.657299,740.205942
1349.945780,-18653.189738,1455.581446,2664.741391
1349.946091,-19615.457463,2221.676944,4737.318029
1349.946403,-18061.024985,1608.800546,5329.482782
1349.946715,-14285.974681,459.657299,5625.565159
1349.947026,-8956.491898,-612.876398,5847.626942
1349.947338,-3849.070898,-2221.676944,2516.700203
1349.947650,0.000000,-2298.286494,296.082377
1349.947961,1406.391290,-1378.971896,-2738.761985
1349.948273,592.164754,153.219100,-4737.318029
1349.948584,-1406.391290,-229.828649,-4885.359217
1349.948896,-5255.462188,-1532.190996,-4145.153275
1349.949208,-10807.006753,-2681.334243,-2146.597232
1349.949519,-15914.427753,-2451.505594,444.123565
1349.949831,-19393.395680,-1608.800546,2442.679609
1349.950143,-21243.910535,-229.828649,4145.153275
1349.950454,-19023.292709,383.047749,5255.462188
1349.950766,-14730.098246,-1072.533697,5181.441594
1349.951077,-8882.471304,-1685.410096,4293.194464
1349.951389,-4367.215058,-1991.848295,1184.329507
1349.951701,370.102971,-1762.019645,-1258.350101
1349.952012,2442.679609,-689.485948,-4219.173869
1349.952324,1924.535449,383.047749,-5625.565159
1349.952636,-888.247130,-229.828649,-6069.688724
1349.952947,-5699.585753,-536.266849,-4737.318029
1349.953259,-11621.233289,-995.924147,-2220.617826
1349.953570,-16728.654289,-459.657299,-74.020594
1349.953882,-21095.869347,689.485948,3034.844362
1349.954194,-22650.301825,1302.362347,4441.235652
1349.954505,-20577.725188,1455.581446,5255.462188
1349.954817,-15174.221811,1455.581446,3701.029710
1349.955129,-8438.347739,1378.971896,3108.864956
1349.955440,-2738.761985,-76.609550,444.123565
1349.955752,2368.659014,-1455.581446,-1702.473667
1349.956063,4737.318029,-995.924147,-3849.070898
1349.956375,2516.700203,-383.047749,-5033.400406
1349.956687,-1924.535449,0.000000,-4737.318029
1349.956998,-7698.141797,-689.485948,-3849.070898
1349.957310,-13619.789333,-1072.533697,-1850.514855
1349.957622,-17987.004391,-306.438199,1110.308913
1349.957933,-20947.828159,459.657299,3478.967927
1349.958245,-21614.013506,1378.971896,5181.441594
1349.958556,-18949.272115,1225.752797,6143.709319
1349.958868,-12953.603985,612.876398,6513.812290
1349.959180,-5921.647536,-459.657299,5033.400406
1349.959491,-518.144159,-766.095498,1924.535449
1349.959803,3478.967927,0.000000,-1258.350101
1349.960115,3627.009116,1225.752797,-4737.318029
1349.960426,1332.370696,2068.457845,-5551.544565
1349.960738,-2960.823768,2681.334243,-5033.400406
1349.961049,-9252.574275,2145.067394,-3108.864956
1349.961361,-14137.933492,842.705048,-0.000000
1349.961673,-17912.983796,766.095498,2812.782580
1349.961984,-20355.663405,1455.581446,4737.318029
1349.962296,-20133.601622,2757.943793,5403.503377
1349.962608,-15914.427753,3140.991542,5773.606348
1349.962919,-9400.615463,2068.457845,5699.585753
1349.963231,-2738.761985,-536.266849,4885.359217
1349.963542,518.144159,-2068.457845,1850.514855
1349.963854,2812.782580,-1532.190996,-1184.329507
1349.964166,2664.741391,229.828649,-3997.112087
1349.964477,-666.185348,689.485948,-5181.441594
1349.964789,-4959.379811,153.219100,-5033.400406
1349.965101,-9992.780217,-1762.019645,-3478.967927
1349.965412,-14730.098246,-2987.772442,-74.020594
1349.965724,-19245.354492,-3064.381992,2960.823768
1349.966035,-21836.075289,-766.095498,4885.359217
1349.966347,-21836.075289,459.657299,6143.709319
1349.966659,-18209.066173,459.657299,7105.977043
1349.966970,-10066.800811,-842.705048,7179.997637
1349.967282,-3108.864956,-2298.286494,4811.338623
1349.967594,1776.494261,-2681.334243,1258.350101
1349.967905,5107.421000,-1991.848295,-2516.700203
1349.968217,4441.235652,536.266849,-5181.441594
1349.968528,1258.350101,2451.505594,-6513.812290
1349.968840,-5107.421000,2068.457845,-5255.462188
1349.969152,-12139.377449,-919.314598,-2812.782580
1349.969463,-17542.880825,-1302.362347,148.041188
1349.969775,-21391.951724,306.438199,2738.761985
1349.970087,-22576.281231,2451.505594,4293.194464
1349.970398,-21836.075289,2911.162892,5255.462188
1349.970710,-16580.613101,1455.581446,4441.235652
1349.971021,-8956.491898,306.438199,3775.050304
1349.971333,-2146.597232,-1149.143247,1776.494261
1349.971645,3182.885551,-2834.553343,-148.041188
1349.971956,5773.606348,-3064.381992,-3256.906145
1349.972268,4589.276840,-2298.286494,-4441.235652
1349.972579,444.123565,-3217.601092,-4737.318029
1349.972891,-5995.668130,-3907.087040,-4145.153275
1349.973203,-12287.418637,-3447.429741,-2368.659014
1349.973514,-18357.107362,-1991.848295,-0.000000
1349.973826,-22724.322419,-229.828649,2516.700203
1349.974138,-23686.590144,842.705048,3849.070898
1349.974449,-22058.137072,2145.067394,4441.235652
1349.974761,-16728.654289,1072.533697,4737.318029
1349.975072,-8882.471304,459.657299,3923.091493
1349.975384,-2516.700203,0.000000,888.247130
1349.975696,3330.926739,-383.047749,-1258.350101
1349.976007,5995.668130,-459.657299,-4367.215058
1349.976319,4145.153275,0.000000,-5625.565159
1349.976631,-370.102971,995.924147,-5255.462188
1349.976942,-7254.018232,536.266849,-3997.112087
1349.977254,-13323.706956,0.000000,-1184.329507
1349.977565,-18727.210333,995.924147,1258.350101
1349.977877,-21910.095883,2374.896044,3034.844362
1349.978189,-21984.116477,3447.429741,3775.050304
1349.978500,-19245.354492,2834.553343,4589.276840
1349.978812,-13397.727550,2374.896044,3849.070898
1349.979124,-6883.915261,2068.457845,3330.926739
1349.979435,-962.267725,76.609550,1628.453072
1349.979747,4145.153275,-1608.800546,-444.123565
1349.980058,4811.338623,-2068.457845,-2886.803174
1349.980370,1850.514855,-1838.629195,-3701.029710
1349.980682,-2812.782580,-306.438199,-4293.194464
1349.980993,-9252.574275,-229.828649,-2738.761985
1349.981305,-14730.098246,0.000000,-666.185348
1349.981617,-19393.395680,0.000000,2146.597232
1349.981928,-22058.137072,306.438199,3849.070898
1349.982240,-20799.786970,2757.943793,6069.688724
1349.982551,-17172.777854,2145.067394,6365.771101
1349.982863,-10732.986159,1455.581446,6883.915261
1349.983175,-4293.194464,-995.924147,5181.441594
1349.983486,740.205942,-2221.676944,1776.494261
1349.983798,4959.379811,-919.314598,-1702.473667
1349.984110,4515.256246,229.828649,-4515.256246
1349.984421,1406.391290,1532.190996,-5847.626942
1349.984733,-3478.967927,612.876398,-4737.318029
1349.985044,-9548.656652,-1302.362347,-1998.556043
1349.985356,-14582.057057,-1991.848295,1406.391290
1349.985668,-19985.560434,-1915.238745,3478.967927
1349.985979,-22946.384202,76.609550,4737.318029
1349.986291,-21021.848753,3064.381992,4959.379811
1349.986603,-16580.613101,3677.258390,4441.235652
1349.986914,-9696.697840,3140.991542,3923.091493
1349.987226,-3997.112087,153.219100,2886.803174
1349.987537,592.164754,-2374.896044,814.226536
1349.987849,4293.194464,-2221.676944,-740.205942
1349.988161,4293.194464,-1149.143247,-3108.864956
1349.988472,222.061783,-229.828649,-4663.297435
1349.988784,-4885.359217,-1225.752797,-4293.194464
1349.989096,-10288.862594,-2068.457845,-3108.864956
1349.989407,-15840.407159,-1762.019645,-1480.411884
1349.989719,-20577.725188,-536.266849,1924.535449
1349.990030,-23168.445985,0.000000,3701.029710
1349.990342,-22354.219448,-459.657299,5255.462188
1349.990654,-17838.963202,-766.095498,5551.544565
1349.990965,-10881.027347,-1762.019645,5773.606348
1349.991277,-3775.050304,-3140.991542,2960.823768
1349.991589,1480.411884,-2987.772442,-0.000000
1349.991900,5033.400406,-1915.238745,-3775.050304
1349.992212,6143.709319,-383.047749,-5699.585753
1349.992523,1702.473667,-306.438199,-6291.750507
1349.992835,-5107.421000,-1072.533697,-4293.194464
1349.993147,-11769.274478,-1838.629195,-1998.556043
1349.993458,-16950.716072,-1532.190996,592.164754
1349.993770,-21021.848753,0.000000,3330.926739
1349.994081,-22502.260637,1072.533697,3330.926739
1349.994393,-20651.745782,2528.115143,3330.926739
1349.994705,-15692.365970,3217.601092,2590.720797
1349.995016,-9326.594869,2145.067394,1776.494261
1349.995328,-4293.194464,1149.143247,-222.061783
1349.995640,444.123565,0.000000,-1184.329507
1349.995951,3775.050304,-459.657299,-2960.823768
1349.996263,3478.967927,-842.705048,-4071.132681
1349.996574,-444.123565,-1302.362347,-4293.194464
1349.996886,-6143.709319,-1838.629195,-3478.967927
1349.997198,-10584.944971,-1225.752797,-1258.350101
1349.997509,-16358.551318,-1225.752797,1332.370696
1349.997821,-21391.951724,-536.266849,2812.782580
1349.998133,-23168.445985,459.657299,4071.132681
1349.998444,-21317.931130,1685.410096,5107.421000
1349.998756,-15988.448347,383.047749,6143.709319
1349.999067,-9030.512492,-766.095498,4737.318029
1349.999379,-2590.720797,-3524.039291,3256.906145
1349.999691,2886.803174,-3600.648841,-0.000000
1350.000002,5255.462188,-1378.971896,-2886.803174
1350.000314,3108.864956,612.876398,-4737.318029
1350.000626,-1628.453072,1762.019645,-5107.421000
1350.000937,-7624.121203,1838.629195,-3552.988522
1350.001249,-13175.665768,1762.019645,-592.164754
1350.001560,-17098.757260,2374.896044,2072.576638
1350.001872,-19763.498651,2604.724693,3997.112087
1350.002184,-19911.539840,4136.915689,4589.276840
1350.002495,-16432.571912,3830.477490,4959.379811
1350.002807,-10510.924376,3140.991542,5107.421000
1350.003119,-4589.276840,1378.971896,4589.276840
1350.003430,-666.185348,-919.314598,1850.514855
1350.003742,2442.679609,-1915.238745,-740.205942
1350.004053,2738.761985,-995.924147,-3034.844362
1350.004365,222.061783,1149.143247,-3997.112087
1350.004677,-3997.112087,-383.047749,-3182.885551
1350.004988,-9696.697840,-2528.115143,-1998.556043
1350.005300,-13619.789333,-3064.381992,740.205942
1350.005612,-17246.798449,-2221.676944,2220.617826
1350.005923,-20503.704593,-919.314598,3552.988522
1350.006235,-20355.663405,1378.971896,4589.276840
1350.006546,-17987.004391,2068.457845,4589.276840
1350.006858,-11621.233289,2681.334243,4515.256246
1350.007170,-4737.318029,153.219100,4145.153275
1350.007481,-666.185348,-1838.629195,1332.370696
1350.007793,2516.700203,-2221.676944,-814.226536
1350.008105,3182.885551,-842.705048,-4219.173869
1350.008416,814.226536,919.314598,-5033.400406
1350.008728,-4071.132681,842.705048,-4663.297435
1350.009039,-9400.615463,-1455.581446,-2442.679609
1350.009351,-14211.954086,-1915.238745,-370.102971
1350.009663,-18209.066173,-1608.800546,1776.494261
1350.009974,-21021.848753,-689.485948,3627.009116
1350.010286,-21762.054695,0.000000,4441.235652
1350.010598,-18061.024985,153.219100,5181.441594
1350.010909,-12213.398043,229.828649,4441.235652
1350.011221,-6291.750507,-1225.752797,3478.967927
1350.011532,-1406.391290,-2451.505594,1406.391290
1350.011844,1850.514855,-2374.896044,-1998.556043
1350.012156,4293.194464,-383.047749,-4219.173869
1350.012467,2590.720797,612.876398,-4811.338623
1350.012779,-2220.617826,-612.876398,-4441.235652
1350.013091,-8438.347739,-2068.457845,-3034.844362
1350.013402,-14063.912898,-1838.629195,-1406.391290
1350.013714,-18801.230927,383.047749,1702.473667
1350.014025,-22280.198854,1532.190996,2738.761985
1350.014337,-22058.137072,1915.238745,4293.194464
1350.014649,-18505.148550,766.095498,4441.235652
1350.014960,-11695.253884,-995.924147,4071.132681
1350.015272,-5477.523971,-1991.848295,2220.617826
1350.015583,-740.205942,-2145.067394,-0.000000
1350.015895,3182.885551,-1149.143247,-2738.761985
1350.016207,3627.009116,-383.047749,-3997.112087
1350.016518,1110.308913,0.000000,-4293.194464
1350.016830,-5699.585753,306.438199,-3701.029710
1350.017142,-11769.274478,0.000000,-1924.535449
1350.017453,-16506.592507,536.266849,-0.000000
1350.017765,-20059.581028,1991.848295,2146.597232
1350.018076,-21243.910535,3140.991542,3701.029710
1350.018388,-19171.333898,2757.943793,4515.256246
1350.018700,-13841.851115,1608.800546,4737.318029
1350.019011,-8290.306550,995.924147,4441.235652
1350.019323,-2960.823768,0.000000,1776.494261
1350.019635,370.102971,0.000000,-518.144159
1350.019946,2294.638420,306.438199,-2960.823768
1350.020258,2072.576638,1302.362347,-4441.235652
1350.020569,-962.267725,2145.067394,-4737.318029
1350.020881,-5255.462188,1838.629195,-3627.009116
1350.021193,-10436.903782,689.485948,-1554.432478
1350.021504,-14434.015869,229.828649,1110.308913
1350.021816,-18875.251521,459.657299,3330.926739
1350.022128,-20281.642811,1608.800546,4737.318029
1350.022439,-18357.107362,1991.848295,5773.606348
1350.022751,-13915.871710,919.314598,6217.729913
1350.023062,-7476.080014,-612.876398,4885.359217
1350.023374,-2812.782580,-2451.505594,2146.597232
1350.023686,592.164754,-2451.505594,-444.123565
1350.023997,2368.659014,-1225.752797,-3034.844362
1350.024309,814.226536,1149.143247,-4589.276840
1350.024621,-2886.803174,1532.190996,-3923.091493
1350.024932,-7772.162391,459.657299,-2368.659014
1350.025244,-12361.439231,-1378.971896,-0.000000
1350.025555,-15988.448347,-689.485948,1702.473667
1350.025867,-18283.086767,153.219100,3478.967927
1350.026179,-18431.127956,1838.629195,3997.112087
1350.026490,-17468.860231,1225.752797,4367.215058
1350.026802,-12879.583391,842.705048,4293.194464
1350.027114,-7476.080014,0.000000,3478.967927
1350.027425,-3478.967927,-1685.410096,2368.659014
1350.027737,0.000000,-2298.286494,962.267725
1350.028048,1110.308913,-1838.629195,-2220.617826
1350.028360,74.020594,-766.095498,-3404.947333
1350.028672,-3256.906145,-459.657299,-4589.276840
1350.028983,-6439.791695,-612.876398,-3034.844362
1350.029295,-11843.295072,-1302.362347,-1702.473667
1350.029607,-16580.613101,-1072.533697,1184.329507
1350.029918,-20281.642811,-1225.752797,3330.926739
1350.030230,-21169.889941,-459.657299,5329.482782
1350.030541,-19023.292709,153.219100,5921.647536
1350.030853,-14434.015869,-1225.752797,5033.400406
1350.031165,-7994.224174,-1685.410096,3034.844362
1350.031476,-2146.597232,-2298.286494,592.164754
1350.031788,2220.617826,-1302.362347,-2146.597232
1350.032100,3923.091493,0.000000,-4441.235652
1350.032411,2812.782580,1072.533697,-4589.276840
1350.032723,-1332.370696,536.266849,-4071.132681
1350.033034,-7402.059420,-1225.752797,-2960.823768
1350.033346,-13175.665768,-766.095498,-1184.329507
1350.033658,-16950.716072,0.000000,592.164754
1350.033969,-19837.519246,1608.800546,2072.576638
1350.034281,-20059.581028,1762.019645,3182.885551
1350.034593,-18135.045579,995.924147,3182.885551
1350.034904,-13397.727550,689.485948,3404.947333
1350.035216,-7624.121203,-153.219100,2960.823768
1350.035527,-2664.741391,-1149.143247,1332.370696
1350.035839,1776.494261,-919.314598,-888.247130
1350.036151,2738.761985,-306.438199,-3849.070898
1350.036462,1480.411884,-459.657299,-4589.276840
1350.036774,-3923.091493,459.657299,-5181.441594
1350.037086,-9474.636058,1149.143247,-3775.050304
1350.037397,-14285.974681,1302.362347,-1332.370696
1350.037709,-19541.436869,612.876398,962.267725
1350.038020,-21614.013506,306.438199,3552.988522
1350.038332,-20429.683999,766.095498,4367.215058
1350.038644,-17320.819043,383.047749,4663.297435
1350.038955,-10584.944971,306.438199,4663.297435
1350.039267,-4737.318029,-153.219100,2072.576638
1350.039578,-666.185348,-306.438199,222.061783
1350.039890,2590.720797,76.609550,-2294.638420
1350.040202,1702.473667,766.095498,-4145.153275
1350.040513,-814.226536,1991.848295,-4441.235652
1350.040825,-5773.606348,1838.629195,-3478.967927
1350.041137,-10807.006753,153.219100,-1554.432478
1350.041448,-14137.933492,-536.266849,518.144159
1350.041760,-16950.716072,-689.485948,2516.700203
1350.042071,-18801.230927,153.219100,4367.215058
1350.042383,-18357.107362,1762.019645,4663.297435
1350.042695,-15322.262999,1915.238745,4737.318029
1350.043006,-8512.368333,995.924147,5699.585753
1350.043318,-3256.906145,-1225.752797,4071.132681
1350.043630,74.020594,-2145.067394,1258.350101
1350.043941,2664.741391,-1455.581446,-1702.473667
1350.044253,2590.720797,459.657299,-4441.235652
1350.044564,0.000000,2068.457845,-4589.276840
1350.044876,-4367.215058,1302.362347,-3923.091493
1350.045188,-10214.842000,-1455.581446,-2146.597232
1350.045499,-15544.324782,-2451.505594,1110.308913
1350.045811,-19837.519246,-1532.190996,3627.009116
1350.046123,-21317.931130,306.438199,5625.565159
1350.046434,-20281.642811,612.876398,5847.626942
1350.046746,-16136.489536,-766.095498,5477.523971
1350.047057,-9252.574275,-1378.971896,5033.400406
1350.047369,-2886.803174,-1302.362347,2368.659014
1350.047681,1258.350101,-1149.143247,222.061783
1350.047992,3182.885551,-1378.971896,-2886.803174
1350.048304,1998.556043,-153.219100,-3627.009116
1350.048616,-1628.453072,612.876398,-3923.091493
1350.048927,-6883.915261,0.000000,-2368.659014
1350.049239,-12657.521608,-1072.533697,-814.226536
1350.049550,-17024.736666,-919.314598,666.185348
1350.049862,-19319.375086,-1149.143247,2368.659014
1350.050174,-20355.663405,0.000000,2960.823768
1350.050485,-18061.024985,1685.410096,4293.194464
1350.050797,-14211.954086,459.657299,3330.926739
1350.051108,-8438.347739,-689.485948,3330.926739
1350.051420,-3478.967927,-1532.190996,1480.411884
1350.051731,1184.329507,-2298.286494,-74.020594
1350.052043,3849.070898,-689.485948,-2812.782580
1350.052354,3108.864956,-1455.581446,-3627.009116
1350.052666,-296.082377,-1455.581446,-3923.091493
1350.052977,-5699.585753,-2528.115143,-3108.864956
1350.053289,-12509.480420,-1991.848295,-1850.514855
1350.053600,-18209.066173,-1302.362347,518.144159
1350.053911,-22206.178260,-383.047749,2812.782580
1350.054223,-22798.343014,612.876398,4219.173869
1350.054534,-20577.725188,1378.971896,4367.215058
1350.054846,-15396.283594,153.219100,4367.215058
1350.055157,-7920.203579,-153.219100,3404.947333
1350.055469,-1998.556043,229.828649,592.164754
1350.055780,2664.741391,995.924147,-1850.514855
1350.056092,4219.173869,383.047749,-3552.988522
1350.056403,2664.741391,459.657299,-4737.318029
1350.056715,-2294.638420,766.095498,-4589.276840
1350.057026,-8216.285956,536.266849,-2886.803174
1350.057337,-13619.789333,842.705048,-1184.329507
1350.057649,-18579.169144,0.000000,1332.370696
1350.057960,-21169.889941,1225.752797,3330.926739
1350.058272,-21391.951724,2221.676944,4071.132681
1350.058583,-17690.922014,2298.286494,4589.276840
1350.058895,-11843.295072,1838.629195,3997.112087
1350.059206,-5033.400406,229.828649,3849.070898
1350.059518,0.000000,-1302.362347,1406.391290
1350.059829,2590.720797,-1991.848295,-814.226536
1350.060141,2812.782580,-1991.848295,-3923.091493
1350.060452,-444.123565,0.000000,-5033.400406
1350.060763,-4959.379811,1072.533697,-4885.359217
1350.061075,-9400.615463,689.485948,-2664.741391
1350.061386,-14137.933492,-1225.752797,444.123565
1350.061698,-17838.963202,-2298.286494,3256.906145
1350.062009,-20059.581028,-383.047749,5477.523971
1350.062321,-18579.169144,1838.629195,6513.812290
1350.062632,-14508.036463,2528.115143,5551.544565
1350.062944,-9400.615463,1838.629195,4515.256246
1350.063255,-3478.967927,153.219100,2886.803174
1350.063566,962.267725,-766.095498,-222.061783
1350.063878,3034.844362,-766.095498,-2516.700203
1350.064189,1776.494261,383.047749,-4145.153275
1350.064501,-962.267725,1455.581446,-4441.235652
1350.064812,-5847.626942,306.438199,-2812.782580
1350.065124,-11029.068536,-1532.190996,-1184.329507
1350.065435,-15840.407159,-2604.724693,814.226536
1350.065747,-18949.272115,-1149.143247,3256.906145
1350.066058,-20799.786970,995.924147,4219.173869
1350.066370,-19689.478057,1455.581446,5107.421000
1350.066681,-14878.139434,1455.581446,4737.318029
1350.066992,-9474.636058,76.609550,5255.462188
1350.067304,-3627.009116,-1762.019645,2738.761985
1350.067615,370.102971,-2604.724693,592.164754
1350.067927,2886.803174,-1608.800546,-2664.741391
1350.068238,2664.741391,-76.609550,-4663.297435
1350.068550,-1184.329507,0.000000,-4959.379811
1350.068861,-7031.956449,-536.266849,-4219.173869
1350.069173,-11917.315666,-842.705048,-1406.391290
1350.069484,-16284.530724,-612.876398,1110.308913
1350.069796,-20133.601622,-1762.019645,3478.967927
1350.070107,-21465.972318,-612.876398,4959.379811
1350.070418,-19911.539840,-229.828649,5477.523971
1350.070730,-14508.036463,-306.438199,5033.400406
1350.071041,-8364.327145,-842.705048,4219.173869
1350.071353,-2516.700203,-1225.752797,1850.514855
1350.071664,1628.453072,-1378.971896,-1258.350101
1350.071976,3256.906145,-842.705048,-4145.153275
1350.072287,3182.885551,383.047749,-4737.318029
1350.072599,-740.205942,842.705048,-4737.318029
1350.072910,-6365.771101,-153.219100,-3108.864956
1350.073222,-11917.315666,-1455.581446,-1628.453072
1350.073533,-17542.880825,-1149.143247,518.144159
1350.073844,-20207.622217,1532.190996,2960.823768
1350.074156,-20947.828159,2987.772442,2960.823768
1350.074467,-19023.292709,3370.820191,3997.112087
1350.074779,-13619.789333,2221.676944,3701.029710
1350.075090,-7105.977043,153.219100,2960.823768
1350.075402,-1480.411884,-1225.752797,1702.473667
1350.075713,2516.700203,-1991.848295,-1110.308913
1350.076025,3256.906145,-1762.019645,-3701.029710
1350.076336,814.226536,0.000000,-4811.338623
1350.076648,-4293.194464,689.485948,-5329.482782
1350.076959,-9030.512492,459.657299,-3775.050304
1350.077270,-14211.954086,0.000000,-1702.473667
1350.077582,-18209.066173,-766.095498,1628.453072
1350.077893,-20651.745782,-153.219100,3701.029710
1350.078205,-20873.807564,689.485948,4959.379811
1350.078516,-17468.860231,1225.752797,5551.544565
1350.078828,-12139.377449,1455.581446,4959.379811
1350.079139,-5847.626942,0.000000,3701.029710
1350.079451,-592.164754,0.000000,814.226536
1350.079762,2368.659014,-612.876398,-2442.679609
1350.080073,3108.864956,-153.219100,-3923.091493
1350.080385,148.041188,766.095498,-4663.297435
1350.080696,-4737.318029,1225.752797,-3701.029710
1350.081008,-10955.047942,76.609550,-1406.391290
1350.081319,-15174.221811,-612.876398,666.185348
1350.081631,-17838.963202,459.657299,2960.823768
1350.081942,-19467.416275,1915.238745,4071.132681
1350.082254,-18727.210333,2911.162892,4367.215058
1350.082565,-14878.139434,3064.381992,4663.297435
1350.082877,-8660.409521,1762.019645,5181.441594
1350.083188,-3108.864956,-842.705048,4737.318029
1350.083499,222.061783,-3753.867940,1628.453072
1350.083811,1628.453072,-3294.210641,-1036.288319
1350.084122,1332.370696,0.000000,-4219.173869
1350.084434,-222.061783,1532.190996,-4737.318029
1350.084745,-5403.503377,766.095498,-3849.070898
1350.085057,-10510.924376,-1532.190996,-1776.494261
1350.085368,-14952.160028,-2451.505594,814.226536
1350.085680,-18431.127956,-1225.752797,3330.926739
1350.085991,-19467.416275,766.095498,4811.338623
1350.086303,-19023.292709,1225.752797,5181.441594
1350.086614,-14878.139434,919.314598,5477.523971
1350.086925,-8882.471304,0.000000,5181.441594
1350.087237,-3108.864956,-1072.533697,3256.906145
1350.087548,148.041188,-1915.238745,370.102971
1350.087860,1702.473667,-2145.067394,-2812.782580
1350.088171,740.205942,-689.485948,-4811.338623
1350.088483,-1924.535449,306.438199,-4737.318029
1350.088794,-7031.956449,1072.533697,-3627.009116
1350.089106,-11917.315666,-766.095498,-1554.432478
1350.089417,-16432.571912,-1302.362347,740.205942
1350.089729,-18727.210333,153.219100,2886.803174
1350.090040,-19319.375086,1762.019645,3478.967927
1350.090351,-17394.839637,2068.457845,3997.112087
1350.090663,-13989.892304,536.266849,3330.926739
1350.090974,-7402.059420,306.438199,3330.926739
1350.091286,-1776.494261,76.609550,1406.391290
1350.091597,740.205942,-3064.381992,-962.267725
1350.091909,2072.576638,-2834.553343,-3108.864956
1350.092220,148.041188,-1838.629195,-4589.276840
1350.092532,-2812.782580,-842.705048,-4515.256246
1350.092843,-7550.100608,-1685.410096,-3627.009116
1350.093155,-12657.521608,-2528.115143,-1406.391290
1350.093466,-16506.592507,-3064.381992,814.226536
1350.093777,-19541.436869,-2451.505594,2368.659014
1350.094089,-19245.354492,459.657299,3478.967927
1350.094400,-18209.066173,1455.581446,3775.050304
1350.094712,-14656.077652,919.314598,3849.070898
1350.095023,-8364.327145,-306.438199,3775.050304
1350.095335,-2812.782580,-1302.362347,2220.617826
1350.095646,1480.411884,-1455.581446,-74.020594
1350.095958,1480.411884,-689.485948,-2812.782580
1350.096269,-1628.453072,1378.971896,-4737.318029
1350.096581,-3997.112087,2987.772442,-4811.338623
1350.096892,-8660.409521,2528.115143,-3849.070898
1350.097203,-13397.727550,1225.752797,-1554.432478
1350.097515,-17764.942608,919.314598,518.144159
1350.097826,-19985.560434,1302.362347,2590.720797
1350.098138,-18283.086767,2757.943793,4663.297435
1350.098449,-16284.530724,2451.505594,4811.338623
1350.098761,-12361.439231,1838.629195,5403.503377
1350.099072,-6069.688724,229.828649,4145.153275
1350.099384,-1184.329507,-1225.752797,1776.494261
1350.099695,1998.556043,-1455.581446,-814.226536
1350.100006,1850.514855,-229.828649,-3923.091493
1350.100318,-814.226536,1302.362347,-4663.297435
1350.100629,-4441.235652,1991.848295,-4145.153275
1350.100941,-8586.388927,1762.019645,-2368.659014
1350.101252,-12805.562797,-1302.362347,740.205942
1350.101564,-16432.571912,-1225.752797,2812.782580
1350.101875,-17468.860231,-153.219100,4663.297435
1350.102187,-16580.613101,689.485948,5329.482782
1350.102498,-13915.871710,1302.362347,5699.585753
1350.102810,-9696.697840,-153.219100,4811.338623
1350.103121,-3701.029710,-1915.238745,4589.276840
1350.103432,0.000000,-3677.258390,1258.350101
1350.103744,1924.535449,-3753.867940,-888.247130
1350.104055,74.020594,-3447.429741,-3034.844362
1350.104367,-2738.761985,-2145.067394,-3256.906145
1350.104678,-6069.688724,-1378.971896,-2368.659014
1350.104990,-10584.944971,-2068.457845,-1036.288319
1350.105301,-13693.809927,-2451.505594,666.185348
1350.105613,-16654.633695,-1455.581446,1850.514855
1350.105924,-16950.716072,-766.095498,3923.091493
1350.106236,-15766.386565,-919.314598,4071.132681
1350.106547,-14211.954086,-383.047749,3404.947333
1350.106858,-11103.089130,-842.705048,3034.844362
1350.107170,-6809.894666,-1762.019645,2294.638420
1350.107481,-2220.617826,-3064.381992,370.102971
1350.107793,370.102971,-4213.525239,-1998.556043
1350.108104,-814.226536,-4596.572988,-3775.050304
1350.108416,-2664.741391,-4903.011187,-4293.194464
1350.108727,-6513.812290,-3753.867940,-2960.823768
1350.109039,-11103.089130,-3294.210641,-1702.473667
1350.109350,-15174.221811,-4060.306139,518.144159
1350.109662,-16654.633695,-4673.182538,2220.617826
1350.109973,-16802.674883,-5056.230287,3701.029710
1350.110284,-15322.262999,-7124.688131,4293.194464
1350.110596,-12065.356855,-6894.859482,3701.029710
1350.110907,-10288.862594,-6894.859482,1776.494261
1350.111219,-7179.997637,-5286.058936,148.041188
1350.111530,-5181.441594,-3830.477490,-1406.391290
1350.111842,-4219.173869,-2757.943793,-2442.679609
1350.112153,-4145.153275,-2757.943793,-2220.617826
1350.112465,-5551.544565,-3447.429741,-1036.288319
1350.112776,-7624.121203,-3830.477490,-444.123565
1350.113088,-9992.780217,-3140.991542,-74.020594
1350.113399,-11399.171507,-1302.362347,148.041188
1350.113710,-11547.212695,-766.095498,222.061783
1350.114022,-11843.295072,-689.485948,222.061783
1350.114333,-11399.171507,-612.876398,888.247130
1350.114645,-9844.739029,-1225.752797,370.102971
1350.114956,-7772.162391,-2451.505594,740.205942
1350.115268,-6365.771101,-3140.991542,-222.061783
1350.115579,-4811.338623,-3830.477490,-1184.329507
1350.115891,-4219.173869,-4596.572988,-1998.556043
1350.116202,-5847.626942,-4749.792088,-1628.453072
1350.116513,-8586.388927,-3830.477490,-370.102971
1350.116825,-11103.089130,-2451.505594,888.247130
1350.117136,-13545.768739,-1762.019645,1998.556043
1350.117448,-13841.851115,-1991.848295,2960.823768
1350.117759,-12509.480420,-2911.162892,2812.782580
1350.118071,-9696.697840,-2068.457845,2442.679609
1350.118382,-6513.812290,-2987.772442,1628.453072
1350.118694,-5107.421000,-4366.744339,1258.350101
1350.119005,-4959.379811,-4443.353888,888.247130
1350.119317,-5921.647536,-3064.381992,222.061783
1350.119628,-7402.059420,-2451.505594,-222.061783
1350.119939,-9178.553681,-1608.800546,-814.226536
1350.120251,-10510.924376,-229.828649,-148.041188
1350.120562,-11177.109724,0.000000,-666.185348
1350.120874,-10510.924376,-306.438199,296.082377
1350.121185,-9622.677246,-1378.971896,1036.288319
1350.121497,-8290.306550,-1762.019645,1924.535449
1350.121808,-7254.018232,-3447.429741,2368.659014
1350.122120,-6143.709319,-4443.353888,2146.597232
1350.122431,-7105.977043,-5132.839837,1702.473667
1350.122743,-7031.956449,-5286.058936,1258.350101
1350.123054,-8216.285956,-4903.011187,592.164754
1350.123365,-9474.636058,-4596.572988,296.082377
1350.123677,-10658.965565,-3294.210641,-0.000000
1350.123988,-10732.986159,-1685.410096,370.102971
1350.124300,-10584.944971,0.000000,148.041188
1350.124611,-10214.842000,1149.143247,740.205942
1350.124923,-9326.594869,1378.971896,1184.329507
1350.125234,-8068.244768,536.266849,1850.514855
1350.125546,-7328.038826,-612.876398,1850.514855
1350.125857,-6291.750507,-1838.629195,1776.494261
1350.126169,-6957.935855,-3064.381992,1110.308913
1350.126480,-7772.162391,-4826.401637,222.061783
1350.126791,-8438.347739,-5362.668486,-666.185348
1350.127103,-8586.388927,-4979.620737,-1258.350101
1350.127414,-9696.697840,-4826.401637,-592.164754
1350.127726,-10732.986159,-5822.325785,-666.185348
1350.128037,-10955.047942,-5592.497135,666.185348
1350.128349,-10214.842000,-5132.839837,1924.535449
1350.128660,-9252.574275,-3830.477490,2516.700203
1350.128972,-8364.327145,-2298.286494,2664.741391
1350.129283,-7105.977043,-1838.629195,1924.535449
1350.129595,-6661.853478,-1532.190996,1480.411884
1350.129906,-6365.771101,-1915.238745,-0.000000
1350.130217,-6217.729913,-1991.848295,-518.144159
1350.130529,-7402.059420,-2451.505594,-1554.432478
1350.130840,-9474.636058,-3677.258390,-1776.494261
1350.131152,-10881.027347,-4136.915689,-1702.473667
1350.131463,-11547.212695,-3294.210641,-1702.473667
1350.131775,-10362.883188,-2528.115143,-592.164754
1350.132086,-12287.418637,-3447.429741,-518.144159
1350.132398,-10214.842000,-2757.943793,2146.597232
1350.132709,-8216.285956,-2604.724693,814.226536
1350.133020,-7328.038826,-3677.258390,2294.638420
1350.133332,-8364.327145,-5056.230287,2368.659014
1350.133643,-9918.759623,-4749.792088,1628.453072
1350.133955,-8808.450710,-2451.505594,444.123565
1350.134266,-8586.388927,-766.095498,-0.000000
1350.134578,-8586.388927,-3140.991542,-666.185348
1350.134889,-9992.780217,-3907.087040,-1110.308913
1350.135201,-10584.944971,-4213.525239,-518.144159
1350.135512,-9918.759623,-3370.820191,962.267725
1350.135824,-11103.089130,-2298.286494,2442.679609
1350.136135,-13175.665768,-995.924147,2812.782580
1350.136446,-11843.295072,-1149.143247,4367.215058
1350.136758,-9770.718434,-2451.505594,3627.009116
1350.137069,-6217.729913,-919.314598,4663.297435
1350.137381,-5107.421000,0.000000,2960.823768
1350.137692,-4885.359217,-1225.752797,3108.864956
1350.138004,-5699.585753,-3294.210641,2738.761985
1350.138315,-6587.832884,-2374.896044,2368.659014
1350.138627,-8142.265362,229.828649,3627.009116
1350.138938,-11843.295072,0.000000,3182.885551
1350.139250,-11769.274478,-919.314598,4663.297435
1350.139561,-9548.656652,76.609550,3404.947333
1350.139872,-8586.388927,2145.067394,4293.194464
1350.140184,-8364.327145,2068.457845,3997.112087
1350.140495,-8142.265362,0.000000,3997.112087
1350.140807,-8290.306550,153.219100,4737.318029
1350.141118,-4959.379811,612.876398,5921.647536
1350.141430,-7772.162391,-612.876398,4663.297435
1350.141741,-8586.388927,-306.438199,6365.771101
1350.142053,-8438.347739,-459.657299,5551.544565
1350.142364,-7846.182985,-1225.752797,5107.421000
1350.142676,-7846.182985,-306.438199,4441.235652
1350.142987,-9252.574275,383.047749,3478.967927
1350.143298,-8660.409521,766.095498,4293.194464
1350.143610,-8068.244768,459.657299,4071.132681
1350.143921,-7105.977043,459.657299,4959.379811
1350.144233,-9474.636058,1225.752797,4737.318029
1350.144544,-9474.636058,1072.533697,5699.585753
1350.144856,-8808.450710,612.876398,5255.462188
1350.145167,-7179.997637,0.000000,5329.482782
1350.145479,-7031.956449,0.000000,4441.235652
1350.145790,-7550.100608,-1149.143247,3849.070898
1350.146102,-7698.141797,-1838.629195,3404.947333
1350.146413,-7772.162391,459.657299,3256.906145
1350.146724,-8586.388927,995.924147,3034.844362
1350.147036,-10140.821405,995.924147,3034.844362
1350.147347,-11843.295072,995.924147,3256.906145
1350.147659,-10288.862594,2221.676944,4219.173869
1350.147970,-9474.636058,1915.238745,3997.112087
1350.148282,-8438.347739,842.705048,4293.194464
1350.148593,-7254.018232,-919.314598,3701.029710
1350.148905,-6661.853478,-1532.190996,2812.782580
1350.149216,-4959.379811,-1149.143247,2590.720797
1350.149527,-6883.915261,-2298.286494,1776.494261
1350.149839,-8364.327145,-1608.800546,2516.700203
1350.150150,-9844.739029,-1991.848295,2664.741391
1350.150462,-10510.924376,-1838.629195,3182.885551
1350.150777,-11177.109724,-1149.143247,3701.029710
1350.151088,-11769.274478,-383.047749,3775.050304
1350.151400,-11991.336260,0.000000,3182.885551
1350.151711,-9696.697840,229.828649,3108.864956
1350.152023,-7920.203579,1685.410096,2442.679609
1350.152334,-7624.121203,612.876398,2294.638420
1350.152646,-8734.430116,-919.314598,2590.720797
1350.152957,-8586.388927,-1532.190996,3034.844362
1350.153269,-8882.471304,-1072.533697,3404.947333
1350.153580,-8364.327145,-1225.752797,3182.885551
1350.153892,-8364.327145,-2604.724693,2590.720797
1350.154203,-7772.162391,-2451.505594,1850.514855
1350.154515,-6809.894666,-1378.971896,1258.350101
1350.154826,-7328.038826,306.438199,222.061783
1350.155138,-8734.430116,536.266849,740.205942
1350.155449,-10658.965565,1302.362347,1924.535449
1350.155761,-12435.459826,995.924147,2886.803174
1350.156072,-13619.789333,766.095498,4219.173869
1350.156384,-12213.398043,1225.752797,4811.338623
1350.156695,-11103.089130,229.828649,4219.173869
1350.157007,-8438.347739,-536.266849,3923.091493
1350.157318,-5107.421000,-1608.800546,2294.638420
1350.157630,-2812.782580,-1838.629195,962.267725
1350.157941,-2664.741391,-1302.362347,592.164754
1350.158253,-5107.421000,-995.924147,1332.370696
1350.158564,-9326.594869,-612.876398,2886.803174
1350.158876,-12583.501014,919.314598,4737.318029
1350.159187,-14952.160028,1302.362347,6143.709319
1350.159499,-14952.160028,995.924147,6661.853478
1350.159810,-12287.418637,383.047749,6069.688724
1350.160122,-8068.244768,229.828649,4515.256246
1350.160433,-4737.318029,689.485948,2442.679609
1350.160745,-3108.864956,459.657299,1332.370696
1350.161056,-2368.659014,1225.752797,518.144159
1350.161368,-4441.235652,766.095498,1332.370696
1350.161679,-8290.306550,459.657299,2516.700203
1350.161991,-12065.356855,0.000000,4589.276840
1350.162302,-14359.995275,306.438199,5995.668130
1350.162614,-13841.851115,0.000000,6661.853478
1350.162925,-11029.068536,-842.705048,5995.668130
1350.163237,-8290.306550,-1149.143247,4737.318029
1350.163548,-6143.709319,-995.924147,3849.070898
1350.163860,-5477.523971,306.438199,3775.050304
1350.164171,-7105.977043,1149.143247,4293.194464
1350.164483,-8956.491898,1302.362347,5329.482782
1350.164794,-10955.047942,1532.190996,6217.729913
1350.165106,-10807.006753,1378.971896,6143.709319
1350.165417,-8586.388927,1608.800546,4441.235652
1350.165729,-5551.544565,2681.334243,2368.659014
1350.166040,-3997.112087,2911.162892,296.082377
1350.166352,-4219.173869,2374.896044,-222.061783
1350.166663,-6069.688724,1532.190996,296.082377
1350.166975,-9474.636058,1608.800546,1998.556043
1350.167286,-11843.295072,919.314598,4293.194464
1350.167598,-13397.727550,-919.314598,6143.709319
1350.167910,-13027.624579,-2681.334243,7105.977043
1350.168221,-11251.130318,-3677.258390,7031.956449
1350.168533,-9178.553681,-2757.943793,5329.482782
1350.168844,-6217.729913,-842.705048,4219.173869
1350.169156,-4811.338623,0.000000,1628.453072
1350.169467,-4441.235652,919.314598,-0.000000
1350.169779,-4367.215058,1915.238745,-962.267725
1350.170090,-4589.276840,2834.553343,-1480.411884
1350.170402,-4811.338623,2681.334243,-1184.329507
1350.170713,-7624.121203,1302.362347,-74.020594
1350.171025,-10066.800811,536.266849,1554.432478
1350.171336,-13249.686362,-766.095498,2590.720797
1350.171648,-14434.015869,-1762.019645,3034.844362
1350.171959,-14063.912898,-1532.190996,2220.617826
1350.172271,-11843.295072,-1149.143247,666.185348
1350.172582,-9474.636058,-919.314598,-0.000000
1350.172894,-7328.038826,-1762.019645,-296.082377
1350.173205,-6883.915261,-842.705048,222.061783
1350.173517,-8364.327145,-1225.752797,444.123565
1350.173828,-8364.327145,-383.047749,1036.288319
1350.174140,-8142.265362,-919.314598,296.082377
1350.174451,-7920.203579,-383.047749,-444.123565
1350.174763,-7994.224174,-306.438199,-1406.391290
1350.175074,-9400.615463,-536.266849,-2590.720797
1350.175386,-10140.821405,-306.438199,-2072.576638
1350.175697,-11843.295072,-536.266849,-1702.473667
1350.176009,-13471.748144,-1378.971896,-0.000000
1350.176320,-14952.160028,-1302.362347,1406.391290
1350.176632,-15396.283594,-995.924147,2294.638420
1350.176943,-13397.727550,306.438199,2590.720797
1350.177255,-10140.821405,2068.457845,1628.453072
1350.177566,-6217.729913,2528.115143,-370.102971
1350.177878,-2960.823768,1915.238745,-2516.700203
1350.178189,-814.226536,2757.943793,-2960.823768
1350.178501,-1110.308913,2757.943793,-3997.112087
1350.178812,-3256.906145,1608.800546,-2516.700203
1350.179124,-7994.224174,0.000000,-814.226536
1350.179435,-11177.109724,-1685.410096,1110.308913
1350.179747,-13027.624579,-3524.039291,2146.597232
1350.180058,-12953.603985,-3294.210641,2072.576638
1350.180370,-13101.645173,-1915.238745,1776.494261
1350.180681,-12879.583391,-153.219100,2442.679609
1350.180993,-12065.356855,-459.657299,2960.823768
1350.181304,-10955.047942,153.219100,2516.700203
1350.181616,-8142.265362,1149.143247,2146.597232
1350.181927,-4515.256246,1762.019645,296.082377
1350.182239,-740.205942,1991.848295,-1480.411884
1350.182550,148.041188,1302.362347,-3552.988522
1350.182862,-2516.700203,1149.143247,-3997.112087
1350.183173,-7031.956449,76.609550,-2368.659014
1350.183485,-11547.212695,0.000000,-666.185348
1350.183796,-16654.633695,-612.876398,1628.453072
1350.184108,-19245.354492,-995.924147,3478.967927
1350.184419,-18135.045579,-919.314598,3923.091493
1350.184731,-14582.057057,153.219100,3923.091493
1350.185042,-9696.697840,1072.533697,2886.803174
1350.185354,-5329.482782,1072.533697,1702.473667
1350.185665,-2368.659014,842.705048,222.061783
1350.185977,-814.226536,1685.410096,-1554.432478
1350.186288,-666.185348,1532.190996,-2886.803174
1350.186600,-2886.803174,1915.238745,-3330.926739
1350.186911,-6587.832884,1838.629195,-2664.741391
1350.187223,-10955.047942,153.219100,-1480.411884
1350.187534,-14878.139434,-1915.238745,888.247130
1350.187846,-17616.901420,-3140.991542,2960.823768
1350.188157,-17987.004391,-3064.381992,4515.256246
1350.188469,-15766.386565,-2145.067394,5255.462188
1350.188781,-12139.377449,-919.314598,5181.441594
1350.189092,-7254.018232,-612.876398,4145.153275
1350.189404,-3849.070898,689.485948,2886.803174
1350.189715,-592.164754,1762.019645,814.226536
1350.190027,1184.329507,2298.286494,-1184.329507
1350.190338,0.000000,2221.676944,-2664.741391
1350.190650,-2220.617826,1532.190996,-3034.844362
1350.190961,-6291.750507,0.000000,-2590.720797
1350.191273,-10881.027347,-995.924147,-962.267725
1350.191584,-15174.221811,-1915.238745,740.205942
1350.191896,-18801.230927,-2757.943793,2886.803174
1350.192207,-19985.560434,-2604.724693,4441.235652
1350.192519,-17987.004391,-1838.629195,5403.503377
1350.192830,-14063.912898,-1225.752797,4885.359217
1350.193142,-8586.388927,-153.219100,4589.276840
1350.193453,-4219.173869,612.876398,2220.617826
1350.193765,-148.041188,1838.629195,444.123565
1350.194076,3108.864956,1838.629195,-2146.597232
1350.194388,3552.988522,1685.410096,-3701.029710
1350.194699,296.082377,919.314598,-5181.441594
1350.195011,-5107.421000,-459.657299,-5181.441594
1350.195322,-10658.965565,-612.876398,-2738.761985
1350.195634,-16654.633695,-1532.190996,-0.000000
1350.195945,-21688.034101,-1915.238745,2812.782580
1350.196257,-23464.528361,-2451.505594,4515.256246
1350.196568,-21317.931130,-1608.800546,4885.359217
1350.196880,-15026.180623,306.438199,4737.318029
1350.197191,-7328.038826,2145.067394,1702.473667
1350.197503,-814.226536,1532.190996,-1628.453072
1350.197814,4071.132681,1915.238745,-4441.235652
1350.198126,6735.874072,1072.533697,-6809.894666
1350.198437,4663.297435,842.705048,-7105.977043
1350.198749,-2368.659014,-536.266849,-6513.812290
1350.199060,-11177.109724,-1608.800546,-4219.173869
1350.199372,-18579.169144,-2528.115143,-74.020594
1350.199683,-23908.651927,-3983.696590,3330.926739
1350.199995,-25759.166782,-4290.134789,5255.462188
1350.200306,-23094.425390,-2987.772442,4959.379811
1350.200618,-18357.107362,-1991.848295,3330.926739
1350.200929,-10362.883188,995.924147,1628.453072
1350.201241,-2516.700203,2604.724693,-666.185348
1350.201552,2294.638420,2987.772442,-2590.720797
1350.201864,5329.482782,2298.286494,-3552.988522
1350.202175,5921.647536,536.266849,-4219.173869
1350.202487,2146.597232,306.438199,-5107.421000
1350.202798,-3775.050304,-153.219100,-5033.400406
1350.203110,-10658.965565,-612.876398,-3404.947333
1350.203421,-17394.839637,-1838.629195,-1258.350101
1350.203733,-22132.157666,-2757.943793,1628.453072
1350.204044,-23834.631332,-2451.505594,3775.050304
1350.204356,-21836.075289,-1378.971896,4367.215058
1350.204667,-16654.633695,1225.752797,4441.235652
1350.204979,-9252.574275,1991.848295,3182.885551
1350.205290,-2368.659014,2451.505594,666.185348
1350.205602,3034.844362,2298.286494,-1332.370696
1350.205913,6439.791695,2911.162892,-3701.029710
1350.206225,6661.853478,2451.505594,-5107.421000
1350.206536,2146.597232,1302.362347,-5255.462188
1350.206848,-5995.668130,0.000000,-4293.194464
1350.207159,-13249.686362,-1532.190996,-1776.494261
1350.207471,-20281.642811,-2451.505594,1850.514855
1350.207782,-25537.104999,-2604.724693,5551.544565
1350.208094,-26055.249158,-2757.943793,7698.141797
1350.208405,-22576.281231,-2451.505594,8142.265362
1350.208717,-14137.933492,-1225.752797,7105.977043
1350.209028,-4071.132681,536.266849,3108.864956
1350.209340,3775.050304,2298.286494,-0.000000
1350.209652,7698.141797,3677.258390,-3108.864956
1350.209963,8216.285956,2221.676944,-3627.009116
1350.210275,3849.070898,842.705048,-3478.967927
1350.210586,-3478.967927,-689.485948,-2516.700203
1350.210898,-10140.821405,-1532.190996,-444.123565
1350.211209,-16136.489536,-2911.162892,1776.494261
1350.211521,-20873.807564,-4290.134789,3108.864956
1350.211832,-22872.363608,-3830.477490,4441.235652
1350.212144,-21465.972318,-2374.896044,5181.441594
1350.212455,-18505.148550,-1072.533697,5033.400406
1350.212767,-12435.459826,766.095498,4959.379811
1350.213078,-5847.626942,2681.334243,2812.782580
1350.213390,-666.185348,2911.162892,592.164754
1350.213701,4515.256246,3370.820191,-1702.473667
1350.214013,7846.182985,2451.505594,-4737.318029
1350.214324,7179.997637,2068.457845,-6513.812290
1350.214636,740.205942,383.047749,-6365.771101
1350.214947,-8364.327145,-766.095498,-4441.235652
1350.215259,-17320.819043,-1838.629195,-518.144159
1350.215570,-24130.713709,-3600.648841,4367.215058
1350.215882,-27313.599260,-4366.744339,8068.244768
1350.216193,-26499.372724,-4213.525239,8142.265362
1350.216505,-19541.436869,-2298.286494,7031.956449
1350.216816,-9992.780217,-459.657299,3997.112087
1350.217128,-740.205942,1302.362347,222.061783
1350.217439,5181.441594,2987.772442,-2886.803174
1350.217751,8142.265362,2221.676944,-5477.523971
1350.218062,7179.997637,842.705048,-5255.462188
1350.218374,2516.700203,459.657299,-4367.215058
1350.218685,-5329.482782,229.828649,-3034.844362
1350.218997,-13767.830521,-383.047749,-74.020594
1350.219308,-19837.519246,-3064.381992,2960.823768
1350.219620,-23686.590144,-3677.258390,5181.441594
1350.219931,-24056.693115,-3294.210641,6069.688724
1350.220243,-20799.786970,-2221.676944,5107.421000
1350.220554,-14211.954086,-689.485948,3701.029710
1350.220866,-7105.977043,536.266849,1184.329507
1350.221177,-962.267725,2145.067394,-370.102971
1350.221489,3034.844362,1991.848295,-3552.988522
1350.221800,4959.379811,1991.848295,-4293.194464
1350.222112,2960.823768,689.485948,-4293.194464
1350.222423,148.041188,-306.438199,-3849.070898
1350.222735,-6661.853478,-919.314598,-2664.741391
1350.223046,-14582.057057,-1762.019645,-148.041188
1350.223358,-20799.786970,-2451.505594,2516.700203
1350.223669,-24352.775492,-2528.115143,4515.256246
1350.223981,-23464.528361,-1378.971896,4811.338623
1350.224292,-19245.354492,612.876398,3627.009116
1350.224604,-12731.542202,2528.115143,2072.576638
1350.224915,-6217.729913,3600.648841,-0.000000
1350.225227,-1036.288319,4673.182538,-1036.288319
1350.225538,2294.638420,4749.792088,-2590.720797
1350.225850,4071.132681,3217.601092,-3627.009116
1350.226161,3997.112087,2681.334243,-4737.318029
1350.226473,1332.370696,612.876398,-5033.400406
1350.226784,-4737.318029,-536.266849,-3627.009116
1350.227096,-11473.192101,-2068.457845,-592.164754
1350.227407,-19541.436869,-2987.772442,2886.803174
1350.227719,-25981.228564,-3524.039291,6957.935855
1350.228030,-27313.599260,-3064.381992,8364.327145
1350.228342,-22946.384202,-1685.410096,7624.121203
1350.228653,-13767.830521,-153.219100,5255.462188
1350.228965,-3997.112087,459.657299,1258.350101
1350.229276,3627.009116,1455.581446,-2442.679609
1350.229588,7476.080014,1302.362347,-4663.297435
1350.229899,6735.874072,1072.533697,-4441.235652
1350.230211,1110.308913,612.876398,-2368.659014
1350.230523,-5847.626942,-919.314598,-0.000000
1350.230834,-12731.542202,-1915.238745,1776.494261
1350.231146,-18505.148550,-2298.286494,4293.194464
1350.231457,-20725.766376,-2451.505594,5773.606348
1350.231769,-20281.642811,-2834.553343,5921.647536
1350.232080,-17690.922014,-2068.457845,4959.379811
1350.232392,-14434.015869,-612.876398,3923.091493
1350.232703,-9770.718434,1915.238745,3108.864956
1350.233015,-4589.276840,3830.477490,1850.514855
1350.233326,-370.102971,3983.696590,-0.000000
