#time,accel_x,accel_y,accel_z
1331.273527,-8956.491898,-153.219100,370.102971
1331.273839,-9326.594869,-612.876398,296.082377
1331.274150,-8586.388927,0.000000,740.205942
1331.274462,-8882.471304,-766.095498,592.164754
1331.274773,-8808.450710,-229.828649,518.144159
1331.275084,-8956.491898,0.000000,370.102971
1331.275396,-8956.491898,-229.828649,888.247130
1331.275707,-9030.512492,0.000000,518.144159
1331.276019,-9030.512492,-306.438199,592.164754
1331.276330,-8660.409521,76.609550,518.144159
1331.276642,-8882.471304,-229.828649,370.102971
1331.276953,-8734.430116,76.609550,444.123565
1331.277264,-8808.450710,0.000000,370.102971
1331.277576,-8956.491898,-229.828649,592.164754
1331.277887,-9030.512492,0.000000,666.185348
1331.278199,-8882.471304,0.000000,518.144159
1331.278510,-8808.450710,229.828649,222.061783
1331.278822,-8956.491898,153.219100,296.082377
1331.279133,-8808.450710,-229.828649,444.123565
1331.279444,-9104.533087,76.609550,296.082377
1331.279756,-9030.512492,76.609550,592.164754
1331.280067,-8956.491898,76.609550,592.164754
1331.280379,-8808.450710,0.000000,666.185348
1331.280690,-8956.491898,0.000000,444.123565
1331.281002,-8734.430116,0.000000,444.123565
1331.281313,-8586.388927,-383.047749,296.082377
1331.281624,-9400.615463,0.000000,-74.020594
1331.281936,-8734.430116,-306.438199,592.164754
1331.282247,-9030.512492,0.000000,518.144159
1331.282559,-8956.491898,-229.828649,518.144159
1331.282870,-8882.471304,-229.828649,518.144159
1331.283182,-9030.512492,0.000000,444.123565
1331.283493,-8808.450710,0.000000,444.123565
1331.283804,-8808.450710,0.000000,222.061783
1331.284116,-9030.512492,459.657299,444.123565
1331.284427,-8956.491898,229.828649,222.061783
1331.284739,-9030.512492,-153.219100,518.144159
1331.285050,-8808.450710,0.000000,518.144159
1331.285362,-8734.430116,-229.828649,666.185348
1331.285673,-8734.430116,0.000000,592.164754
1331.285985,-9030.512492,153.219100,444.123565
1331.286296,-8438.347739,-612.876398,888.247130
1331.286607,-8808.450710,-612.876398,370.102971
1331.286919,-9030.512492,0.000000,740.205942
1331.287230,-9030.512492,0.000000,518.144159
1331.287542,-8956.491898,-153.219100,592.164754
1331.287853,-8956.491898,76.609550,444.123565
1331.288165,-9178.553681,-229.828649,444.123565
1331.288476,-9030.512492,-306.438199,444.123565
1331.288787,-9178.553681,383.047749,370.102971
1331.289099,-8956.491898,536.266849,444.123565
1331.289410,-9104.533087,-153.219100,518.144159
1331.289722,-8956.491898,0.000000,592.164754
1331.290033,-8956.491898,0.000000,518.144159
1331.290345,-8734.430116,-153.219100,518.144159
1331.290656,-8660.409521,0.000000,518.144159
1331.290967,-8438.347739,-306.438199,444.123565
1331.291279,-9104.533087,-229.828649,148.041188
1331.291590,-8734.430116,0.000000,370.102971
1331.291902,-8882.471304,76.609550,592.164754
1331.292213,-8956.491898,0.000000,666.185348
1331.292525,-8882.471304,76.609550,592.164754
1331.292836,-8956.491898,0.000000,518.144159
1331.293147,-8808.450710,0.000000,296.082377
1331.293459,-9178.553681,229.828649,-0.000000
1331.293770,-8660.409521,0.000000,740.205942
1331.294082,-8808.450710,76.609550,296.082377
1331.294393,-9030.512492,0.000000,592.164754
1331.294705,-8808.450710,0.000000,666.185348
1331.295016,-8808.450710,0.000000,518.144159
1331.295327,-8808.450710,0.000000,592.164754
1331.295639,-8956.491898,-153.219100,518.144159
1331.295950,-8882.471304,459.657299,740.205942
1331.296262,-8956.491898,-459.657299,666.185348
1331.296573,-9178.553681,0.000000,370.102971
1331.296885,-8956.491898,-229.828649,518.144159
1331.297196,-8808.450710,-153.219100,592.164754
1331.297507,-8882.471304,0.000000,518.144159
1331.297819,-9178.553681,229.828649,518.144159
1331.298130,-8956.491898,0.000000,518.144159
1331.298442,-9178.553681,153.219100,-0.000000
1331.298753,-8882.471304,0.000000,888.247130
1331.299065,-8956.491898,76.609550,296.082377
1331.299376,-8882.471304,-153.219100,592.164754
1331.299687,-8882.471304,0.000000,518.144159
1331.299999,-8734.430116,0.000000,592.164754
1331.300310,-8438.347739,229.828649,518.144159
1331.300622,-8660.409521,459.657299,740.205942
1331.300933,-8956.491898,0.000000,296.082377
1331.301245,-9104.533087,-459.657299,296.082377
1331.301556,-9104.533087,-153.219100,148.041188
1331.301867,-8956.491898,0.000000,518.144159
1331.302179,-8808.450710,0.000000,444.123565
1331.302490,-8956.491898,0.000000,666.185348
1331.302802,-9030.512492,0.000000,296.082377
1331.303113,-9844.739029,0.000000,222.061783
1331.303425,-11547.212695,1532.190996,296.082377
1331.303736,-9622.677246,4443.353888,962.267725
1331.304047,-8142.265362,4596.572988,592.164754
1331.304359,-7105.977043,2374.896044,1332.370696
1331.304670,-6587.832884,-459.657299,888.247130
1331.304982,-7254.018232,-1378.971896,-370.102971
1331.305293,-7105.977043,-766.095498,-518.144159
1331.305605,-9474.636058,-689.485948,-1110.308913
1331.305916,-12879.583391,-306.438199,-962.267725
1331.306227,-11251.130318,689.485948,370.102971
1331.306539,-9770.718434,153.219100,1110.308913
1331.306850,-9030.512492,-612.876398,2812.782580
1331.307162,-11473.192101,-153.219100,2146.597232
1331.307473,-10658.965565,3064.381992,2072.576638
1331.307785,-5255.462188,5362.668486,2590.720797
1331.308096,-6069.688724,3830.477490,1258.350101
1331.308407,-7846.182985,2451.505594,-370.102971
1331.308719,-6957.935855,3217.601092,-1776.494261
1331.309030,-8512.368333,3447.429741,-2072.576638
1331.309342,-9252.574275,3753.867940,-148.041188
1331.309653,-10584.944971,3217.601092,-888.247130
1331.309965,-14730.098246,459.657299,-0.000000
1331.310276,-9992.780217,-1072.533697,3034.844362
1331.310588,-9252.574275,-689.485948,1480.411884
1331.310899,-8956.491898,3600.648841,1850.514855
1331.311210,-7328.038826,7124.688131,2220.617826
1331.311522,-8364.327145,4213.525239,1702.473667
1331.311833,-5847.626942,3600.648841,2442.679609
1331.312145,-6587.832884,6588.421283,592.164754
1331.312456,-8068.244768,7507.735880,-1110.308913
1331.312768,-8956.491898,6358.592633,-1258.350101
1331.313079,-9622.677246,4979.620737,-888.247130
1331.313390,-9474.636058,5515.887586,-1924.535449
1331.313702,-11695.253884,5056.230287,148.041188
1331.314013,-11621.233289,4213.525239,592.164754
1331.314325,-10658.965565,3830.477490,2072.576638
1331.314636,-9770.718434,4673.182538,2368.659014
1331.314948,-7402.059420,5132.839837,2368.659014
1331.315259,-5699.585753,4979.620737,444.123565
1331.315570,-5033.400406,4903.011187,592.164754
1331.315882,-5033.400406,4903.011187,148.041188
1331.316193,-5921.647536,4290.134789,-1036.288319
1331.316505,-8364.327145,3983.696590,-518.144159
1331.316816,-9474.636058,2987.772442,-592.164754
1331.317128,-10066.800811,1991.848295,-148.041188
1331.317439,-10658.965565,842.705048,296.082377
1331.317750,-10362.883188,612.876398,1702.473667
1331.318062,-11399.171507,0.000000,1184.329507
1331.318373,-10732.986159,1838.629195,2516.700203
1331.318685,-8290.306550,4060.306139,2146.597232
1331.318996,-7402.059420,4519.963438,-0.000000
1331.319308,-6661.853478,2987.772442,-0.000000
1331.319619,-6661.853478,2834.553343,-666.185348
1331.319930,-6883.915261,3140.991542,-1258.350101
1331.320242,-6587.832884,2451.505594,-1776.494261
1331.320553,-8956.491898,76.609550,-1332.370696
1331.320865,-11103.089130,-2374.896044,-444.123565
1331.321176,-11917.315666,-2681.334243,1036.288319
1331.321488,-13101.645173,-2528.115143,1776.494261
1331.321799,-13767.830521,-1608.800546,2072.576638
1331.322110,-13693.809927,383.047749,1702.473667
1331.322422,-11843.295072,2298.286494,666.185348
1331.322733,-8586.388927,4213.525239,592.164754
1331.323045,-6809.894666,3830.477490,222.061783
1331.323356,-6069.688724,5209.449386,148.041188
1331.323668,-6513.812290,5362.668486,-0.000000
1331.323979,-7179.997637,4519.963438,-0.000000
1331.324290,-9104.533087,2911.162892,-666.185348
1331.324602,-11843.295072,2221.676944,-592.164754
1331.324913,-12731.542202,536.266849,-296.082377
1331.325225,-13101.645173,459.657299,-0.000000
1331.325536,-13101.645173,306.438199,666.185348
1331.325848,-11843.295072,1838.629195,962.267725
1331.326159,-9474.636058,3294.210641,1924.535449
1331.326470,-7994.224174,4136.915689,2220.617826
1331.326782,-4737.318029,4903.011187,2146.597232
1331.327093,-2368.659014,5515.887586,444.123565
1331.327405,-1850.514855,6435.202183,-592.164754
1331.327716,-2368.659014,5286.058936,-1554.432478
1331.328028,-5773.606348,3447.429741,-1406.391290
1331.328339,-9696.697840,2374.896044,-814.226536
1331.328650,-13619.789333,2374.896044,666.185348
1331.328962,-15396.283594,2604.724693,1998.556043
1331.329273,-15470.304188,3217.601092,3182.885551
1331.329585,-13323.706956,2528.115143,3478.967927
1331.329896,-7994.224174,3217.601092,3034.844362
1331.330208,-4663.297435,3677.258390,1628.453072
1331.330519,-1924.535449,5209.449386,-0.000000
1331.330830,-2072.576638,6971.469032,-1036.288319
1331.331142,-3330.926739,6818.249932,-2220.617826
1331.331453,-5403.503377,5439.278036,-2072.576638
1331.331765,-8364.327145,3294.210641,-1406.391290
1331.332076,-9844.739029,536.266849,-0.000000
1331.332388,-11621.233289,-1685.410096,518.144159
1331.332699,-11991.336260,-3753.867940,1998.556043
1331.333010,-12583.501014,-4519.963438,1776.494261
1331.333322,-12731.542202,-3600.648841,1554.432478
1331.333633,-11991.336260,-689.485948,1702.473667
1331.333945,-11843.295072,1915.238745,1258.350101
1331.334256,-9474.636058,3907.087040,1850.514855
1331.334568,-7994.224174,4903.011187,1184.329507
1331.334879,-6587.832884,3753.867940,962.267725
1331.335191,-5477.523971,1072.533697,296.082377
1331.335502,-6365.771101,-383.047749,-888.247130
1331.335813,-7920.203579,383.047749,-1998.556043
1331.336125,-10140.821405,1685.410096,-2738.761985
1331.336436,-11991.336260,1378.971896,-1776.494261
1331.336748,-12731.542202,459.657299,-592.164754
1331.337059,-12805.562797,-459.657299,1406.391290
1331.337371,-11325.150913,-995.924147,2590.720797
1331.337682,-10881.027347,-153.219100,1850.514855
1331.337993,-10066.800811,1762.019645,814.226536
1331.338305,-8586.388927,3677.258390,-1184.329507
1331.338616,-7105.977043,4749.792088,-1776.494261
1331.338928,-5847.626942,3600.648841,-1628.453072
1331.339239,-6291.750507,1991.848295,-370.102971
1331.339551,-7550.100608,-459.657299,518.144159
1331.339862,-8956.491898,-2451.505594,1480.411884
1331.340173,-10214.842000,-3524.039291,1998.556043
1331.340485,-10362.883188,-3753.867940,2294.638420
1331.340796,-9844.739029,-3600.648841,2072.576638
1331.341108,-8882.471304,-2604.724693,1554.432478
1331.341419,-7179.997637,-153.219100,592.164754
1331.341731,-5995.668130,1685.410096,-222.061783
1331.342042,-7328.038826,3140.991542,-1554.432478
1331.342353,-8438.347739,3753.867940,-666.185348
1331.342665,-8956.491898,3524.039291,-1406.391290
1331.342976,-8290.306550,3140.991542,-888.247130
1331.343288,-7994.224174,2221.676944,296.082377
1331.343599,-8438.347739,689.485948,1554.432478
1331.343911,-8216.285956,-1532.190996,2664.741391
1331.344222,-8660.409521,-3294.210641,3923.091493
1331.344533,-10214.842000,-4366.744339,4663.297435
1331.344845,-9918.759623,-2911.162892,2886.803174
1331.345156,-8438.347739,536.266849,222.061783
1331.345468,-6883.915261,2374.896044,-1776.494261
1331.345779,-5773.606348,2374.896044,-2590.720797
1331.346091,-7402.059420,1915.238745,-2738.761985
1331.346402,-7624.121203,1072.533697,-1258.350101
1331.346714,-9844.739029,766.095498,-0.000000
1331.347025,-13249.686362,0.000000,1110.308913
1331.347337,-13397.727550,0.000000,2368.659014
1331.347648,-14285.974681,-1225.752797,2368.659014
1331.347960,-12139.377449,-1762.019645,3404.947333
1331.348271,-10066.800811,-2068.457845,4367.215058
1331.348583,-9178.553681,-2451.505594,3701.029710
1331.348894,-6957.935855,-2221.676944,2664.741391
1331.349206,-6735.874072,-1149.143247,1110.308913
1331.349517,-5847.626942,-306.438199,-1036.288319
1331.349829,-3627.009116,2145.067394,-3775.050304
1331.350140,-4959.379811,2145.067394,-4071.132681
1331.350452,-5921.647536,383.047749,-3182.885551
1331.350763,-8290.306550,-1532.190996,-962.267725
1331.351075,-10955.047942,-3600.648841,2368.659014
1331.351386,-14063.912898,-3830.477490,3108.864956
1331.351698,-15100.201217,-3217.601092,4589.276840
1331.352009,-14211.954086,-1149.143247,3997.112087
1331.352321,-13175.665768,459.657299,2812.782580
1331.352632,-8956.491898,995.924147,1850.514855
1331.352944,-6217.729913,995.924147,666.185348
1331.353255,-3997.112087,612.876398,-148.041188
1331.353567,-2664.741391,306.438199,-2812.782580
1331.353878,-3478.967927,1532.190996,-3108.864956
1331.354190,-5033.400406,1762.019645,-3108.864956
1331.354501,-6069.688724,1149.143247,-3552.988522
1331.354813,-8290.306550,0.000000,-1628.453072
1331.355124,-11621.233289,-1838.629195,296.082377
1331.355436,-13323.706956,-2374.896044,2220.617826
1331.355747,-14508.036463,-1915.238745,3849.070898
1331.356059,-14952.160028,0.000000,2590.720797
1331.356370,-13397.727550,3217.601092,2886.803174
1331.356682,-10807.006753,3983.696590,1258.350101
1331.356993,-7105.977043,4060.306139,-0.000000
1331.357305,-3849.070898,2604.724693,-1628.453072
1331.357616,-3034.844362,919.314598,-2368.659014
1331.357928,-4663.297435,-306.438199,-2886.803174
1331.358239,-7105.977043,-1072.533697,-3775.050304
1331.358551,-9030.512492,-689.485948,-2294.638420
1331.358862,-11325.150913,-383.047749,-74.020594
1331.359174,-12435.459826,-2068.457845,2146.597232
1331.359485,-11547.212695,-4136.915689,3182.885551
1331.359797,-10732.986159,-4213.525239,3775.050304
1331.360108,-10214.842000,-2451.505594,3775.050304
1331.360420,-11029.068536,536.266849,1850.514855
1331.360731,-10140.821405,3370.820191,370.102971
1331.361043,-9030.512492,4290.134789,-962.267725
1331.361354,-7698.141797,4366.744339,-444.123565
1331.361666,-6513.812290,2681.334243,-1110.308913
1331.361977,-7105.977043,766.095498,-0.000000
1331.362289,-7105.977043,-2221.676944,740.205942
1331.362600,-7920.203579,-2911.162892,1628.453072
1331.362912,-8882.471304,-1685.410096,1406.391290
1331.363223,-9474.636058,306.438199,1036.288319
1331.363535,-9474.636058,76.609550,1628.453072
1331.363846,-8586.388927,612.876398,666.185348
1331.364158,-8586.388927,536.266849,2072.576638
1331.364469,-8956.491898,459.657299,1480.411884
1331.364781,-9770.718434,459.657299,1332.370696
1331.365092,-9696.697840,842.705048,1184.329507
1331.365404,-8068.244768,1149.143247,-0.000000
1331.365715,-7476.080014,536.266849,-148.041188
1331.366027,-6883.915261,-612.876398,-0.000000
1331.366338,-8290.306550,-1838.629195,1480.411884
1331.366650,-9252.574275,-3907.087040,2516.700203
1331.366961,-9178.553681,-4136.915689,3404.947333
1331.367273,-9104.533087,-3217.601092,2812.782580
1331.367584,-8216.285956,-1915.238745,1480.411884
1331.367895,-8142.265362,-842.705048,-0.000000
1331.368207,-7328.038826,0.000000,-1110.308913
1331.368518,-6883.915261,-383.047749,-1258.350101
1331.368830,-8290.306550,-995.924147,-740.205942
1331.369141,-10436.903782,-1149.143247,-592.164754
1331.369453,-12361.439231,229.828649,-74.020594
1331.369764,-12139.377449,689.485948,666.185348
1331.370076,-12139.377449,766.095498,1406.391290
1331.370387,-11029.068536,306.438199,2368.659014
1331.370699,-9770.718434,-459.657299,1850.514855
1331.371010,-7846.182985,-459.657299,1184.329507
1331.371322,-6217.729913,-612.876398,592.164754
1331.371633,-5699.585753,383.047749,-1628.453072
1331.371945,-6365.771101,1838.629195,-3108.864956
1331.372256,-6957.935855,2604.724693,-4219.173869
1331.372568,-8438.347739,1991.848295,-3627.009116
1331.372879,-9104.533087,919.314598,-1998.556043
1331.373191,-10881.027347,-1302.362347,-370.102971
1331.373502,-12435.459826,-2451.505594,962.267725
1331.373814,-12361.439231,-2145.067394,2368.659014
1331.374125,-12509.480420,-842.705048,2294.638420
1331.374437,-11843.295072,306.438199,2960.823768
1331.374748,-9622.677246,766.095498,2664.741391
1331.375060,-8364.327145,0.000000,2368.659014
1331.375371,-7031.956449,-1532.190996,1258.350101
1331.375683,-6069.688724,-1072.533697,-444.123565
1331.375994,-5255.462188,383.047749,-1776.494261
1331.376306,-5625.565159,459.657299,-2886.803174
1331.376617,-6143.709319,-229.828649,-2516.700203
1331.376929,-6439.791695,-1532.190996,-1998.556043
1331.377240,-7920.203579,-2451.505594,-296.082377
1331.377552,-9178.553681,-2451.505594,2146.597232
1331.377863,-11325.150913,-2911.162892,2664.741391
1331.378175,-13027.624579,-1608.800546,3330.926739
1331.378486,-13471.748144,919.314598,3627.009116
1331.378798,-12805.562797,2604.724693,2960.823768
1331.379109,-10658.965565,3907.087040,2294.638420
1331.379421,-7846.182985,3140.991542,1184.329507
1331.379732,-5181.441594,1302.362347,-222.061783
1331.380044,-4071.132681,0.000000,-666.185348
1331.380355,-4737.318029,306.438199,-1554.432478
1331.380667,-5773.606348,-1225.752797,-2220.617826
1331.380978,-7031.956449,0.000000,-1850.514855
1331.381290,-9178.553681,153.219100,-962.267725
1331.381601,-11251.130318,-229.828649,1110.308913
1331.381913,-12805.562797,-995.924147,2812.782580
1331.382224,-13323.706956,-1072.533697,3701.029710
1331.382536,-12879.583391,0.000000,3552.988522
1331.382847,-11695.253884,1149.143247,2738.761985
1331.383159,-9844.739029,2451.505594,1036.288319
1331.383470,-7920.203579,2757.943793,-0.000000
1331.383782,-6291.750507,1532.190996,-666.185348
1331.384093,-5477.523971,0.000000,-222.061783
1331.384405,-5921.647536,-1225.752797,-666.185348
1331.384716,-7254.018232,-1991.848295,-666.185348
1331.385028,-8808.450710,-2451.505594,-1036.288319
1331.385339,-8364.327145,-2068.457845,-74.020594
1331.385651,-8290.306550,-1532.190996,296.082377
1331.385962,-8512.368333,-766.095498,1036.288319
1331.386274,-9548.656652,-1762.019645,1554.432478
1331.386585,-9770.718434,-1378.971896,2294.638420
1331.386897,-10288.862594,76.609550,1850.514855
1331.387208,-10955.047942,1608.800546,1258.350101
1331.387520,-10955.047942,2911.162892,148.041188
1331.387831,-10288.862594,3217.601092,-1110.308913
1331.388143,-7698.141797,2528.115143,-222.061783
1331.388454,-6439.791695,689.485948,222.061783
1331.388766,-6587.832884,-1302.362347,-0.000000
1331.389077,-6291.750507,-2068.457845,-0.000000
1331.389389,-8068.244768,-1532.190996,-444.123565
1331.389700,-9030.512492,919.314598,-592.164754
1331.390012,-8882.471304,1838.629195,-1406.391290
1331.390323,-9548.656652,1378.971896,-888.247130
1331.390635,-9918.759623,153.219100,-0.000000
1331.390946,-10362.883188,-995.924147,1110.308913
1331.391258,-10584.944971,-1378.971896,1184.329507
1331.391569,-10584.944971,-1455.581446,1258.350101
1331.391881,-11029.068536,-842.705048,1110.308913
1331.392192,-10510.924376,-229.828649,592.164754
1331.392504,-9844.739029,536.266849,666.185348
1331.392815,-8586.388927,306.438199,888.247130
1331.393127,-8142.265362,-1838.629195,1628.453072
1331.393438,-8438.347739,-2298.286494,1036.288319
1331.393750,-8142.265362,-1532.190996,1184.329507
1331.394061,-8068.244768,-1225.752797,444.123565
1331.394373,-7846.182985,-536.266849,-0.000000
1331.394684,-6883.915261,306.438199,-518.144159
1331.394996,-6809.894666,-229.828649,-444.123565
1331.395307,-7402.059420,-1838.629195,-0.000000
1331.395619,-9030.512492,-1378.971896,592.164754
1331.395930,-10807.006753,-459.657299,1554.432478
1331.396242,-11991.336260,1225.752797,1850.514855
1331.396553,-12139.377449,2298.286494,2368.659014
1331.396865,-11325.150913,2451.505594,1924.535449
1331.397176,-9992.780217,2068.457845,1850.514855
1331.397488,-7179.997637,766.095498,1850.514855
1331.397799,-5107.421000,919.314598,296.082377
1331.398111,-5033.400406,76.609550,-444.123565
1331.398422,-4737.318029,536.266849,-1480.411884
1331.398734,-5255.462188,383.047749,-2220.617826
1331.399045,-6439.791695,383.047749,-1850.514855
1331.399357,-8438.347739,-1378.971896,-666.185348
1331.399668,-9992.780217,-1838.629195,814.226536
1331.399980,-11473.192101,-3294.210641,2220.617826
1331.400291,-12435.459826,-3140.991542,2886.803174
1331.400603,-12731.542202,-1838.629195,2738.761985
1331.400914,-12361.439231,689.485948,1628.453072
1331.401226,-10658.965565,2681.334243,1184.329507
1331.401537,-8660.409521,2298.286494,296.082377
1331.401849,-7402.059420,1302.362347,296.082377
1331.402160,-6661.853478,0.000000,148.041188
1331.402472,-5847.626942,-459.657299,-1036.288319
1331.402783,-6439.791695,-383.047749,-1406.391290
1331.403095,-7179.997637,-383.047749,-740.205942
1331.403406,-7772.162391,-229.828649,-1406.391290
1331.403718,-8142.265362,-995.924147,-1110.308913
1331.404029,-9400.615463,-1685.410096,-0.000000
1331.404341,-10881.027347,-1302.362347,1406.391290
1331.404652,-12805.562797,-383.047749,1036.288319
1331.404964,-13915.871710,1302.362347,1406.391290
1331.405275,-13027.624579,2528.115143,1776.494261
1331.405587,-11991.336260,3600.648841,666.185348
1331.405898,-8956.491898,2757.943793,888.247130
1331.406210,-7254.018232,612.876398,-148.041188
1331.406521,-5255.462188,-919.314598,-296.082377
1331.406833,-3182.885551,-1378.971896,-888.247130
1331.407144,-4959.379811,-1225.752797,-1480.411884
1331.407456,-8290.306550,-1072.533697,-1110.308913
1331.407767,-8734.430116,-153.219100,-1258.350101
1331.408078,-9326.594869,459.657299,-148.041188
1331.408390,-10732.986159,0.000000,740.205942
1331.408701,-11621.233289,-536.266849,1998.556043
1331.409013,-11991.336260,-383.047749,3108.864956
1331.409324,-11621.233289,-1532.190996,2738.761985
1331.409636,-10658.965565,536.266849,2590.720797
1331.409947,-8808.450710,3370.820191,962.267725
1331.410259,-7772.162391,3983.696590,592.164754
1331.410570,-6439.791695,1685.410096,1258.350101
1331.410882,-6069.688724,-842.705048,1258.350101
1331.411193,-5847.626942,-1455.581446,592.164754
1331.411505,-6661.853478,0.000000,-74.020594
1331.411816,-8290.306550,-766.095498,-148.041188
1331.412128,-8956.491898,612.876398,-296.082377
1331.412439,-8438.347739,1455.581446,-296.082377
1331.412751,-8364.327145,-153.219100,296.082377
1331.413062,-8734.430116,-995.924147,1406.391290
1331.413374,-9622.677246,-383.047749,1850.514855
1331.413685,-10732.986159,76.609550,2368.659014
1331.413997,-10881.027347,76.609550,2146.597232
1331.414308,-10362.883188,1915.238745,1776.494261
1331.414620,-9474.636058,2834.553343,888.247130
1331.414931,-8512.368333,1608.800546,518.144159
1331.415243,-7550.100608,-383.047749,592.164754
1331.415554,-7031.956449,-306.438199,814.226536
1331.415866,-6735.874072,-766.095498,-74.020594
1331.416177,-7624.121203,-995.924147,-814.226536
1331.416489,-8290.306550,383.047749,-148.041188
1331.416800,-7994.224174,766.095498,-222.061783
1331.417112,-7846.182985,-612.876398,666.185348
1331.417423,-9622.677246,-1991.848295,1036.288319
1331.417735,-9918.759623,-1532.190996,1776.494261
1331.418046,-9992.780217,-995.924147,1776.494261
1331.418358,-10436.903782,-766.095498,1554.432478
1331.418669,-10066.800811,229.828649,1406.391290
1331.418981,-10658.965565,536.266849,518.144159
1331.419292,-9178.553681,0.000000,814.226536
1331.419604,-7402.059420,-459.657299,1406.391290
1331.419915,-8660.409521,-1225.752797,666.185348
1331.420227,-8734.430116,-1149.143247,814.226536
1331.420538,-7550.100608,-1455.581446,-222.061783
1331.420850,-6735.874072,-306.438199,-962.267725
1331.421161,-6587.832884,0.000000,-1554.432478
1331.421473,-6513.812290,153.219100,-1628.453072
1331.421784,-7402.059420,-2068.457845,-888.247130
1331.422096,-9474.636058,-2757.943793,518.144159
1331.422407,-11251.130318,-2068.457845,1924.535449
1331.422719,-13397.727550,-766.095498,1702.473667
1331.423030,-14063.912898,919.314598,1554.432478
1331.423342,-13249.686362,1685.410096,1554.432478
1331.423653,-11177.109724,1838.629195,888.247130
1331.423965,-8290.306550,383.047749,888.247130
1331.424276,-7105.977043,-306.438199,-0.000000
1331.424588,-5107.421000,-383.047749,-888.247130
1331.424899,-5773.606348,383.047749,-1850.514855
1331.425211,-7328.038826,1532.190996,-2146.597232
1331.425522,-7105.977043,1991.848295,-2220.617826
1331.425834,-8068.244768,1608.800546,-1110.308913
1331.426145,-8290.306550,536.266849,592.164754
1331.426457,-9548.656652,-842.705048,1850.514855
1331.426768,-11547.212695,-2145.067394,2220.617826
1331.427080,-11991.336260,-1225.752797,2072.576638
1331.427391,-11695.253884,612.876398,2368.659014
1331.427703,-11251.130318,1915.238745,814.226536
1331.428014,-10362.883188,2298.286494,444.123565
1331.428326,-8290.306550,1378.971896,222.061783
1331.428637,-7328.038826,306.438199,296.082377
1331.428949,-6069.688724,0.000000,740.205942
1331.429260,-4811.338623,229.828649,-1036.288319
1331.429572,-5847.626942,-153.219100,-1110.308913
1331.429883,-5921.647536,-306.438199,-370.102971
1331.430195,-7179.997637,-229.828649,-518.144159
1331.430506,-7994.224174,0.000000,518.144159
1331.430818,-8660.409521,-459.657299,1480.411884
1331.431129,-10732.986159,-1838.629195,2738.761985
1331.431441,-12361.439231,-1378.971896,2368.659014
1331.431752,-12213.398043,-306.438199,2516.700203
1331.432064,-10584.944971,1149.143247,1998.556043
1331.432375,-9696.697840,1532.190996,1480.411884
1331.432687,-8512.368333,1762.019645,666.185348
1331.432998,-7105.977043,612.876398,-370.102971
1331.433310,-5773.606348,-229.828649,-74.020594
1331.433621,-4367.215058,-306.438199,-74.020594
1331.433933,-6513.812290,-306.438199,-888.247130
1331.434244,-8290.306550,612.876398,-888.247130
1331.434556,-9474.636058,229.828649,-222.061783
1331.434867,-10140.821405,-459.657299,740.205942
1331.435179,-10658.965565,-1149.143247,1554.432478
1331.435490,-11325.150913,-1378.971896,1924.535449
1331.435802,-11399.171507,-1991.848295,1628.453072
1331.436113,-10658.965565,-536.266849,1332.370696
1331.436425,-10066.800811,689.485948,666.185348
1331.436736,-9252.574275,1455.581446,296.082377
1331.437048,-8882.471304,536.266849,962.267725
1331.437359,-8290.306550,-919.314598,1184.329507
1331.437671,-7624.121203,-2068.457845,814.226536
1331.437982,-7550.100608,-2528.115143,518.144159
1331.438294,-8512.368333,-2374.896044,148.041188
1331.438605,-8660.409521,-1072.533697,-666.185348
1331.438917,-8364.327145,-842.705048,-740.205942
1331.439228,-8438.347739,-229.828649,-0.000000
1331.439540,-8956.491898,-1378.971896,740.205942
1331.439851,-9548.656652,-1991.848295,1480.411884
1331.440163,-9992.780217,-1608.800546,1406.391290
1331.440474,-10066.800811,76.609550,1332.370696
1331.440786,-10362.883188,1608.800546,1628.453072
1331.441097,-10214.842000,1149.143247,1554.432478
1331.441409,-8734.430116,1302.362347,1480.411884
1331.441720,-7254.018232,-229.828649,1184.329507
1331.442032,-7105.977043,-1302.362347,666.185348
1331.442343,-7105.977043,-1225.752797,-444.123565
1331.442655,-6661.853478,-459.657299,-1258.350101
1331.442966,-7476.080014,229.828649,-1628.453072
1331.443278,-7476.080014,1762.019645,-1110.308913
1331.443589,-7920.203579,919.314598,-222.061783
1331.443901,-9474.636058,-1225.752797,-0.000000
1331.444212,-9252.574275,-1991.848295,1702.473667
1331.444524,-9474.636058,-1991.848295,1702.473667
1331.444835,-10066.800811,-1532.190996,1628.453072
1331.445147,-10881.027347,-383.047749,740.205942
1331.445458,-10214.842000,1685.410096,222.061783
1331.445770,-10436.903782,1685.410096,148.041188
1331.446081,-9696.697840,229.828649,518.144159
1331.446393,-9030.512492,-153.219100,666.185348
1331.446704,-8364.327145,-689.485948,444.123565
1331.447015,-7550.100608,-995.924147,-0.000000
1331.447327,-6661.853478,-612.876398,-962.267725
1331.447638,-6365.771101,689.485948,-1258.350101
1331.447950,-6957.935855,1378.971896,-1480.411884
1331.448261,-7105.977043,995.924147,-1036.288319
1331.448573,-8586.388927,0.000000,-0.000000
1331.448884,-10881.027347,-612.876398,1332.370696
1331.449196,-12065.356855,-1149.143247,1850.514855
1331.449507,-13323.706956,0.000000,1332.370696
1331.449819,-12879.583391,2068.457845,962.267725
1331.450130,-11325.150913,2911.162892,962.267725
1331.450442,-8956.491898,1302.362347,1480.411884
1331.450753,-7402.059420,-459.657299,814.226536
1331.451065,-6365.771101,-612.876398,740.205942
1331.451376,-5181.441594,-459.657299,-0.000000
1331.451688,-6291.750507,459.657299,-1184.329507
1331.451999,-6809.894666,2068.457845,-1628.453072
1331.452311,-7402.059420,2068.457845,-2072.576638
1331.452622,-8586.388927,1149.143247,-888.247130
1331.452934,-9030.512492,-306.438199,444.123565
1331.453245,-9770.718434,-1685.410096,1850.514855
1331.453557,-10881.027347,-2451.505594,2442.679609
1331.453868,-11399.171507,-1991.848295,2146.597232
1331.454180,-11473.192101,0.000000,1702.473667
1331.454491,-10140.821405,1685.410096,1332.370696
1331.454803,-8512.368333,1302.362347,1702.473667
1331.455114,-7105.977043,-306.438199,1480.411884
1331.455426,-5995.668130,-1685.410096,1702.473667
1331.455737,-6069.688724,-1838.629195,666.185348
1331.456049,-6217.729913,-1532.190996,-148.041188
1331.456360,-7105.977043,-612.876398,-592.164754
1331.456672,-8142.265362,0.000000,-814.226536
1331.456983,-8586.388927,0.000000,-296.082377
1331.457295,-9178.553681,-229.828649,814.226536
1331.457606,-10214.842000,-919.314598,1850.514855
1331.457918,-11843.295072,-995.924147,2664.741391
1331.458229,-12213.398043,0.000000,2590.720797
1331.458541,-11917.315666,1762.019645,2442.679609
1331.458852,-11103.089130,2604.724693,1702.473667
1331.459164,-8660.409521,2987.772442,814.226536
1331.459475,-7031.956449,1455.581446,-0.000000
1331.459787,-5847.626942,153.219100,296.082377
1331.460098,-5921.647536,-1302.362347,-518.144159
1331.460410,-6365.771101,-766.095498,-1184.329507
1331.460721,-7624.121203,-919.314598,-370.102971
1331.461033,-8586.388927,-1225.752797,-296.082377
1331.461344,-9474.636058,-1685.410096,444.123565
1331.461656,-10584.944971,-1991.848295,1258.350101
1331.461967,-11029.068536,-2221.676944,1998.556043
1331.462279,-11029.068536,-2221.676944,2590.720797
1331.462590,-10362.883188,-1838.629195,2368.659014
1331.462902,-9844.739029,0.000000,1332.370696
1331.463213,-10510.924376,1532.190996,-296.082377
1331.463525,-8956.491898,2298.286494,-0.000000
1331.463836,-7550.100608,1915.238745,148.041188
1331.464148,-7179.997637,-229.828649,740.205942
1331.464459,-7105.977043,-2451.505594,888.247130
1331.464771,-6957.935855,-2451.505594,444.123565
1331.465082,-6883.915261,-1149.143247,-814.226536
1331.465394,-6439.791695,612.876398,-1850.514855
1331.465705,-7698.141797,459.657299,-2368.659014
1331.466017,-7328.038826,229.828649,-1702.473667
1331.466328,-8290.306550,0.000000,-148.041188
1331.466640,-10658.965565,-766.095498,1036.288319
1331.466951,-11843.295072,-612.876398,2146.597232
1331.467263,-12213.398043,612.876398,1776.494261
1331.467574,-11103.089130,1838.629195,1702.473667
1331.467886,-10214.842000,1991.848295,518.144159
1331.468197,-8660.409521,1072.533697,-0.000000
1331.468509,-8290.306550,536.266849,-370.102971
1331.468820,-7254.018232,-766.095498,-296.082377
1331.469132,-7624.121203,-1225.752797,-148.041188
1331.469443,-9104.533087,-766.095498,-888.247130
1331.469755,-9326.594869,842.705048,-962.267725
1331.470066,-9770.718434,919.314598,-1110.308913
1331.470378,-8882.471304,1072.533697,-0.000000
1331.470689,-7846.182985,995.924147,222.061783
1331.471000,-8734.430116,0.000000,370.102971
1331.471312,-9400.615463,-612.876398,1776.494261
1331.471623,-9622.677246,-229.828649,1998.556043
1331.471935,-10288.862594,1149.143247,1554.432478
1331.472246,-11103.089130,2451.505594,740.205942
1331.472558,-10658.965565,2145.067394,666.185348
1331.472869,-9178.553681,689.485948,814.226536
1331.473181,-8068.244768,-383.047749,370.102971
1331.473492,-6735.874072,-536.266849,-74.020594
1331.473804,-5847.626942,-919.314598,-444.123565
1331.474115,-7179.997637,0.000000,-740.205942
1331.474427,-6661.853478,1455.581446,-296.082377
1331.474738,-7105.977043,2221.676944,-222.061783
1331.475050,-7846.182985,766.095498,962.267725
1331.475361,-8068.244768,-536.266849,2072.576638
1331.475673,-10584.944971,-766.095498,2072.576638
1331.475984,-11695.253884,-229.828649,2812.782580
1331.476296,-11399.171507,842.705048,2812.782580
1331.476607,-11251.130318,1455.581446,1924.535449
1331.476919,-10066.800811,1915.238745,1702.473667
1331.477230,-7179.997637,229.828649,1110.308913
1331.477542,-7031.956449,-1762.019645,-74.020594
1331.477853,-5995.668130,-995.924147,222.061783
1331.478165,-5699.585753,306.438199,-814.226536
1331.478476,-8068.244768,0.000000,-1036.288319
1331.478788,-7846.182985,306.438199,-0.000000
1331.479099,-8216.285956,-842.705048,-148.041188
1331.479411,-9474.636058,-1455.581446,666.185348
1331.479722,-9326.594869,-1302.362347,2072.576638
1331.480034,-10140.821405,-2757.943793,1702.473667
1331.480345,-11251.130318,-1991.848295,1998.556043
1331.480657,-11251.130318,-612.876398,2146.597232
1331.480968,-11843.295072,612.876398,1036.288319
1331.481280,-10955.047942,1762.019645,1110.308913
1331.481591,-9548.656652,1838.629195,592.164754
1331.481903,-7698.141797,153.219100,370.102971
1331.482214,-6735.874072,-1608.800546,-370.102971
1331.482526,-5699.585753,-1455.581446,-962.267725
1331.482837,-6143.709319,-766.095498,-1406.391290
1331.483149,-7105.977043,-689.485948,-1184.329507
1331.483460,-8808.450710,-536.266849,-888.247130
1331.483772,-9622.677246,-153.219100,-222.061783
1331.484083,-9844.739029,-766.095498,1332.370696
1331.484395,-11251.130318,-1532.190996,2960.823768
1331.484706,-11473.192101,-1608.800546,2812.782580
1331.485018,-11251.130318,-995.924147,1850.514855
1331.485329,-10510.924376,919.314598,814.226536
1331.485641,-9252.574275,1608.800546,222.061783
1331.485952,-7920.203579,995.924147,-296.082377
1331.486264,-7105.977043,-229.828649,-296.082377
1331.486575,-6661.853478,-1455.581446,-74.020594
1331.486887,-6217.729913,-1455.581446,-0.000000
1331.487198,-7698.141797,-1302.362347,-222.061783
1331.487510,-8290.306550,-842.705048,-740.205942
1331.487821,-8364.327145,-153.219100,-518.144159
1331.488133,-8364.327145,-1149.143247,370.102971
1331.488444,-8808.450710,-842.705048,740.205942
1331.488756,-10066.800811,-766.095498,962.267725
1331.489067,-11177.109724,-689.485948,1554.432478
1331.489379,-10807.006753,0.000000,1332.370696
1331.489690,-11473.192101,1455.581446,888.247130
1331.490002,-11621.233289,2987.772442,148.041188
1331.490313,-10066.800811,2757.943793,-370.102971
1331.490625,-8142.265362,2068.457845,-0.000000
1331.490936,-6809.894666,536.266849,-0.000000
1331.491248,-6069.688724,-612.876398,-296.082377
1331.491559,-7031.956449,-1225.752797,-962.267725
1331.491871,-6809.894666,-306.438199,-518.144159
1331.492182,-7254.018232,1532.190996,-666.185348
1331.492494,-8882.471304,1378.971896,-592.164754
1331.492805,-9548.656652,612.876398,666.185348
1331.493117,-10510.924376,0.000000,1406.391290
1331.493428,-11547.212695,-919.314598,2072.576638
1331.493740,-11251.130318,459.657299,2072.576638
1331.494051,-11843.295072,2298.286494,1554.432478
1331.494363,-11029.068536,2604.724693,1184.329507
1331.494674,-9326.594869,1532.190996,1258.350101
1331.494985,-6957.935855,612.876398,666.185348
1331.495297,-6143.709319,0.000000,666.185348
1331.495608,-6439.791695,-919.314598,444.123565
1331.495920,-6439.791695,-1149.143247,-74.020594
1331.496231,-7698.141797,0.000000,-370.102971
1331.496543,-7402.059420,536.266849,-0.000000
1331.496854,-8068.244768,76.609550,-0.000000
1331.497166,-8956.491898,-536.266849,888.247130
1331.497477,-9474.636058,-1378.971896,1850.514855
1331.497789,-9918.759623,-1762.019645,1776.494261
1331.498100,-10288.862594,-612.876398,1628.453072
1331.498412,-10807.006753,842.705048,1702.473667
1331.498723,-11029.068536,1532.190996,1406.391290
1331.499035,-10140.821405,995.924147,1480.411884
1331.499346,-8068.244768,383.047749,1332.370696
1331.499658,-6735.874072,-229.828649,1110.308913
1331.499969,-6365.771101,-842.705048,222.061783
1331.500281,-6439.791695,-1762.019645,-592.164754
1331.500592,-6883.915261,-1915.238745,-1332.370696
1331.500904,-7105.977043,-1072.533697,-1184.329507
1331.501215,-8512.368333,76.609550,-888.247130
1331.501527,-9844.739029,0.000000,-518.144159
1331.501838,-10807.006753,-1532.190996,592.164754
1331.502150,-11029.068536,-2528.115143,2220.617826
1331.502461,-11473.192101,-2604.724693,2368.659014
1331.502773,-11251.130318,-1149.143247,2220.617826
1331.503084,-11103.089130,536.266849,1406.391290
1331.503396,-10288.862594,1302.362347,444.123565
1331.503707,-9178.553681,919.314598,-0.000000
1331.504019,-6735.874072,612.876398,-0.000000
1331.504330,-6661.853478,-995.924147,-666.185348
1331.504642,-7402.059420,-1608.800546,-296.082377
1331.504953,-8142.265362,-1455.581446,-814.226536
1331.505265,-8586.388927,-689.485948,-888.247130
1331.505576,-9030.512492,0.000000,-518.144159
1331.505888,-9474.636058,-689.485948,148.041188
1331.506199,-10214.842000,-1455.581446,888.247130
1331.506511,-9844.739029,-1072.533697,1332.370696
1331.506822,-9992.780217,-995.924147,1036.288319
1331.507134,-9918.759623,0.000000,1480.411884
1331.507445,-10066.800811,842.705048,962.267725
1331.507757,-9770.718434,1685.410096,740.205942
1331.508068,-9178.553681,919.314598,740.205942
1331.508380,-7772.162391,-306.438199,814.226536
1331.508691,-7254.018232,-459.657299,-148.041188
1331.509003,-7402.059420,-995.924147,-592.164754
1331.509314,-6735.874072,-1915.238745,-962.267725
1331.509626,-6143.709319,-1762.019645,-1258.350101
1331.509937,-6957.935855,-383.047749,-1258.350101
1331.510249,-8808.450710,-612.876398,-592.164754
1331.510560,-9178.553681,-919.314598,518.144159
1331.510872,-9844.739029,-995.924147,1924.535449
1331.511183,-10584.944971,-1685.410096,2960.823768
1331.511495,-10955.047942,-995.924147,2220.617826
1331.511806,-11325.150913,536.266849,1406.391290
1331.512118,-10066.800811,2911.162892,1036.288319
1331.512429,-8882.471304,3140.991542,-148.041188
1331.512741,-7994.224174,2298.286494,-666.185348
1331.513052,-7846.182985,612.876398,-222.061783
1331.513364,-7550.100608,-536.266849,74.020594
1331.513675,-7402.059420,-536.266849,-222.061783
1331.513987,-8956.491898,-153.219100,-518.144159
1331.514298,-8956.491898,2145.067394,-444.123565
1331.514610,-9030.512492,2068.457845,-370.102971
1331.514921,-8956.491898,1072.533697,296.082377
1331.515233,-8512.368333,306.438199,666.185348
1331.515544,-9474.636058,-306.438199,962.267725
1331.515856,-10066.800811,229.828649,2146.597232
1331.516167,-10732.986159,689.485948,1480.411884
1331.516479,-10510.924376,1378.971896,1332.370696
1331.516790,-10955.047942,1838.629195,1110.308913
1331.517102,-9474.636058,1225.752797,1480.411884
1331.517413,-7846.182985,153.219100,1036.288319
1331.517725,-6365.771101,-995.924147,666.185348
1331.518036,-5625.565159,-1302.362347,-518.144159
1331.518348,-5921.647536,-1072.533697,-1332.370696
1331.518659,-5847.626942,612.876398,-1110.308913
1331.518970,-6661.853478,1149.143247,-666.185348
1331.519282,-8068.244768,459.657299,-74.020594
1331.519593,-9696.697840,-612.876398,1184.329507
1331.519905,-10510.924376,-1608.800546,2146.597232
1331.520216,-10658.965565,-1378.971896,2516.700203
1331.520528,-11473.192101,0.000000,1850.514855
1331.520839,-10881.027347,842.705048,888.247130
1331.521151,-10584.944971,1455.581446,518.144159
1331.521462,-8882.471304,1455.581446,518.144159
1331.521774,-7698.141797,0.000000,740.205942
1331.522085,-7254.018232,-1072.533697,518.144159
1331.522397,-6883.915261,-2145.067394,-0.000000
1331.522708,-7846.182985,-1149.143247,-0.000000
1331.523020,-7772.162391,383.047749,-518.144159
1331.523331,-7920.203579,1302.362347,-1258.350101
1331.523643,-9178.553681,1378.971896,-1406.391290
1331.523954,-9104.533087,689.485948,-296.082377
1331.524266,-10140.821405,-919.314598,74.020594
1331.524577,-10807.006753,-1685.410096,1628.453072
1331.524889,-11769.274478,-1302.362347,1776.494261
1331.525200,-12435.459826,-612.876398,2072.576638
1331.525512,-11769.274478,229.828649,1776.494261
1331.525823,-10066.800811,-153.219100,888.247130
1331.526135,-7624.121203,-229.828649,296.082377
1331.526446,-6809.894666,-1915.238745,-0.000000
1331.526758,-6069.688724,-2987.772442,-0.000000
1331.527069,-6365.771101,-3064.381992,-592.164754
1331.527381,-8068.244768,-2145.067394,-518.144159
1331.527692,-8438.347739,-766.095498,-74.020594
1331.528004,-9326.594869,0.000000,-0.000000
1331.528315,-9474.636058,-229.828649,1184.329507
1331.528627,-9918.759623,-1225.752797,1924.535449
1331.528938,-10288.862594,-1378.971896,2072.576638
1331.529250,-9844.739029,-306.438199,2220.617826
1331.529561,-9992.780217,1225.752797,962.267725
1331.529873,-9400.615463,2528.115143,296.082377
1331.530184,-8808.450710,2834.553343,-0.000000
1331.530496,-7328.038826,1762.019645,-0.000000
1331.530807,-6365.771101,689.485948,148.041188
1331.531119,-5773.606348,-536.266849,296.082377
1331.531430,-6069.688724,-1532.190996,-0.000000
1331.531742,-7402.059420,-1149.143247,-74.020594
1331.532053,-7624.121203,306.438199,-0.000000
1331.532365,-7846.182985,76.609550,-222.061783
1331.532676,-8512.368333,-459.657299,592.164754
1331.532988,-9400.615463,-919.314598,1036.288319
1331.533299,-10881.027347,-689.485948,1480.411884
1331.533611,-11177.109724,-383.047749,1924.535449
1331.533922,-11473.192101,459.657299,1480.411884
1331.534234,-11917.315666,1455.581446,1332.370696
1331.534545,-11177.109724,2298.286494,666.185348
1331.534857,-9474.636058,2145.067394,444.123565
1331.535168,-7920.203579,1302.362347,-0.000000
1331.535480,-6217.729913,0.000000,-0.000000
1331.535791,-6217.729913,-306.438199,-518.144159
1331.536103,-6957.935855,0.000000,-1258.350101
1331.536414,-7402.059420,1072.533697,-888.247130
1331.536726,-8364.327145,1225.752797,-666.185348
1331.537037,-9104.533087,1072.533697,-444.123565
1331.537349,-9104.533087,229.828649,-0.000000
1331.537660,-9770.718434,0.000000,1184.329507
1331.537972,-10807.006753,-153.219100,740.205942
1331.538283,-11473.192101,995.924147,888.247130
1331.538595,-12139.377449,2451.505594,592.164754
1331.538906,-11251.130318,2834.553343,148.041188
1331.539218,-10807.006753,1991.848295,296.082377
1331.539529,-9844.739029,536.266849,444.123565
1331.539841,-7920.203579,-536.266849,962.267725
1331.540152,-6661.853478,-1762.019645,518.144159
1331.540464,-7179.997637,-1915.238745,74.020594
1331.540775,-7179.997637,-459.657299,-740.205942
1331.541087,-7846.182985,995.924147,-1332.370696
1331.541398,-7994.224174,842.705048,-444.123565
1331.541710,-7698.141797,0.000000,814.226536
1331.542021,-8586.388927,-1302.362347,888.247130
1331.542333,-9844.739029,-1455.581446,2146.597232
1331.542644,-10288.862594,-1225.752797,2146.597232
1331.542955,-11029.068536,0.000000,1184.329507
1331.543267,-10658.965565,2298.286494,1332.370696
1331.543578,-9400.615463,1608.800546,814.226536
1331.543890,-7624.121203,-536.266849,1258.350101
1331.544201,-5847.626942,-1532.190996,1258.350101
1331.544513,-5551.544565,-1762.019645,592.164754
1331.544825,-7179.997637,-1762.019645,-0.000000
1331.545136,-7846.182985,-842.705048,-74.020594
1331.545448,-8142.265362,383.047749,-74.020594
1331.545759,-8660.409521,-306.438199,592.164754
1331.546071,-8660.409521,-995.924147,962.267725
1331.546382,-9474.636058,-1762.019645,1554.432478
1331.546694,-10214.842000,-1302.362347,2220.617826
1331.547006,-10807.006753,-766.095498,2294.638420
1331.547317,-11103.089130,0.000000,1850.514855
1331.547629,-10140.821405,1455.581446,1628.453072
1331.547940,-9622.677246,1378.971896,1036.288319
1331.548252,-9104.533087,1225.752797,370.102971
1331.548564,-7920.203579,459.657299,222.061783
1331.548875,-7105.977043,76.609550,148.041188
1331.549187,-7254.018232,-689.485948,-74.020594
1331.549498,-7624.121203,-842.705048,-370.102971
1331.549810,-8216.285956,383.047749,-962.267725
1331.550121,-8808.450710,229.828649,-592.164754
1331.550433,-9104.533087,0.000000,-222.061783
1331.550745,-9326.594869,-306.438199,518.144159
1331.551056,-10214.842000,-1072.533697,1554.432478
1331.551368,-10807.006753,-1915.238745,2146.597232
1331.551679,-11177.109724,-1225.752797,1850.514855
1331.551991,-11325.150913,1072.533697,1332.370696
1331.552302,-10288.862594,2374.896044,444.123565
1331.552614,-8734.430116,1225.752797,-0.000000
1331.552926,-7994.224174,-459.657299,148.041188
1331.553237,-6883.915261,-1302.362347,-0.000000
1331.553549,-6587.832884,-689.485948,-592.164754
1331.553860,-6661.853478,-689.485948,-1184.329507
1331.554172,-6957.935855,76.609550,-1332.370696
1331.554484,-7179.997637,76.609550,-814.226536
1331.554795,-7476.080014,306.438199,-222.061783
1331.555107,-8586.388927,-1532.190996,518.144159
1331.555418,-9474.636058,-1455.581446,1332.370696
1331.555730,-11103.089130,-842.705048,1480.411884
1331.556041,-11843.295072,-383.047749,962.267725
1331.556353,-10881.027347,1225.752797,814.226536
1331.556665,-10140.821405,1915.238745,666.185348
1331.556976,-9252.574275,1378.971896,518.144159
1331.557288,-8290.306550,0.000000,222.061783
1331.557599,-7994.224174,-919.314598,-222.061783
1331.557911,-6957.935855,-919.314598,296.082377
1331.558223,-7254.018232,-536.266849,-296.082377
1331.558534,-7846.182985,0.000000,-740.205942
1331.558846,-8438.347739,306.438199,-814.226536
1331.559157,-8882.471304,459.657299,-222.061783
1331.559469,-9030.512492,766.095498,370.102971
1331.559780,-9992.780217,229.828649,888.247130
1331.560092,-11547.212695,-536.266849,1406.391290
1331.560404,-11843.295072,76.609550,1184.329507
1331.560715,-10955.047942,1532.190996,1184.329507
1331.561027,-10881.027347,2604.724693,1036.288319
1331.561338,-10658.965565,2451.505594,592.164754
1331.561650,-8290.306550,1915.238745,888.247130
1331.561961,-7105.977043,459.657299,740.205942
1331.562273,-6365.771101,-383.047749,814.226536
1331.562585,-6365.771101,-1685.410096,-0.000000
1331.562896,-6809.894666,-1072.533697,-0.000000
1331.563208,-7031.956449,689.485948,-148.041188
1331.563519,-7994.224174,919.314598,-0.000000
1331.563831,-8586.388927,306.438199,296.082377
1331.564143,-9474.636058,-1378.971896,1776.494261
1331.564454,-10362.883188,-1915.238745,2516.700203
1331.564766,-10881.027347,-2068.457845,2368.659014
1331.565077,-11103.089130,0.000000,2220.617826
1331.565389,-10288.862594,1991.848295,1554.432478
1331.565700,-9326.594869,1838.629195,1332.370696
1331.566012,-7994.224174,919.314598,1036.288319
1331.566324,-6587.832884,0.000000,740.205942
1331.566635,-5699.585753,-306.438199,592.164754
1331.566947,-5847.626942,-1302.362347,444.123565
1331.567258,-6513.812290,-153.219100,-296.082377
1331.567570,-6883.915261,689.485948,-814.226536
1331.567882,-7772.162391,306.438199,-962.267725
1331.568193,-8586.388927,-766.095498,-370.102971
1331.568505,-9992.780217,-1225.752797,518.144159
1331.568816,-11177.109724,-1608.800546,1036.288319
1331.569128,-11325.150913,-1532.190996,2294.638420
1331.569439,-11843.295072,-1532.190996,2368.659014
1331.569751,-11843.295072,-1149.143247,2146.597232
1331.570063,-10362.883188,-306.438199,1628.453072
1331.570374,-9326.594869,383.047749,222.061783
1331.570686,-7772.162391,383.047749,-74.020594
1331.570997,-6513.812290,153.219100,-518.144159
1331.571309,-6143.709319,-229.828649,-1406.391290
1331.571620,-7105.977043,-766.095498,-1998.556043
1331.571932,-7698.141797,-1225.752797,-1924.535449
1331.572244,-8660.409521,-1225.752797,-1406.391290
1331.572555,-9844.739029,-459.657299,-518.144159
1331.572867,-9992.780217,-1455.581446,444.123565
1331.573178,-10362.883188,-2834.553343,962.267725
1331.573490,-11103.089130,-2757.943793,1554.432478
1331.573802,-11103.089130,-1685.410096,1332.370696
1331.574113,-11177.109724,536.266849,888.247130
1331.574425,-10584.944971,1991.848295,888.247130
1331.574736,-8956.491898,1455.581446,592.164754
1331.575048,-8290.306550,459.657299,740.205942
1331.575359,-7402.059420,-459.657299,888.247130
1331.575671,-6587.832884,-536.266849,148.041188
1331.575983,-6587.832884,-766.095498,-814.226536
1331.576294,-7402.059420,76.609550,-1036.288319
1331.576606,-7846.182985,536.266849,-1184.329507
1331.576917,-8734.430116,229.828649,-1036.288319
1331.577229,-9400.615463,-689.485948,888.247130
1331.577541,-10214.842000,-919.314598,1924.535449
1331.577852,-10955.047942,-689.485948,2368.659014
1331.578164,-10881.027347,-612.876398,2442.679609
1331.578475,-10362.883188,76.609550,1998.556043
1331.578787,-9918.759623,1532.190996,1850.514855
1331.579098,-8290.306550,2451.505594,592.164754
1331.579410,-7328.038826,1455.581446,-518.144159
1331.579722,-6661.853478,919.314598,-0.000000
1331.580033,-6883.915261,-153.219100,-222.061783
1331.580345,-7179.997637,-153.219100,-444.123565
1331.580656,-7476.080014,-459.657299,-666.185348
1331.580968,-7476.080014,229.828649,-148.041188
1331.581280,-8586.388927,1072.533697,-296.082377
1331.581591,-8586.388927,536.266849,222.061783
1331.581903,-8882.471304,-536.266849,740.205942
1331.582214,-10066.800811,-842.705048,1776.494261
1331.582526,-11103.089130,153.219100,1850.514855
1331.582837,-11399.171507,1608.800546,1480.411884
1331.583149,-10658.965565,2451.505594,1480.411884
1331.583461,-9918.759623,2528.115143,1850.514855
1331.583772,-8586.388927,766.095498,1406.391290
1331.584084,-7105.977043,383.047749,740.205942
1331.584395,-6291.750507,0.000000,222.061783
1331.584707,-6217.729913,-612.876398,-814.226536
1331.585018,-7105.977043,0.000000,-1258.350101
1331.585330,-7994.224174,995.924147,-1628.453072
1331.585642,-8586.388927,842.705048,-1332.370696
1331.585953,-9474.636058,383.047749,-148.041188
1331.586265,-9474.636058,-612.876398,740.205942
1331.586576,-9992.780217,-1685.410096,1480.411884
1331.586888,-11029.068536,-2374.896044,2368.659014
1331.587200,-11103.089130,-1532.190996,2146.597232
1331.587511,-11325.150913,-153.219100,1480.411884
1331.587823,-10955.047942,536.266849,962.267725
1331.588134,-9474.636058,229.828649,740.205942
1331.588446,-7698.141797,-842.705048,814.226536
1331.588757,-7476.080014,-1685.410096,666.185348
1331.589069,-7105.977043,-1915.238745,-148.041188
1331.589381,-7624.121203,-2068.457845,-814.226536
1331.589692,-7994.224174,-1225.752797,-1110.308913
1331.590004,-7624.121203,-306.438199,-888.247130
1331.590315,-8142.265362,-1072.533697,-518.144159
1331.590627,-8438.347739,-1991.848295,444.123565
1331.590939,-9252.574275,-2221.676944,1332.370696
1331.591250,-10732.986159,-2451.505594,2220.617826
1331.591562,-11695.253884,-612.876398,1924.535449
1331.591873,-12139.377449,1225.752797,1480.411884
1331.592185,-11769.274478,1532.190996,1258.350101
1331.592496,-9696.697840,1532.190996,962.267725
1331.592808,-8142.265362,1455.581446,444.123565
1331.593120,-7031.956449,689.485948,-74.020594
1331.593431,-5477.523971,76.609550,-666.185348
1331.593743,-5477.523971,-383.047749,-1406.391290
1331.594054,-7328.038826,153.219100,-1554.432478
1331.594366,-7994.224174,919.314598,-1480.411884
1331.594677,-9622.677246,612.876398,-1110.308913
1331.594989,-10288.862594,459.657299,518.144159
1331.595301,-10362.883188,-383.047749,1924.535449
1331.595612,-10658.965565,-1991.848295,2664.741391
1331.595924,-10807.006753,-2298.286494,2590.720797
1331.596235,-11325.150913,-689.485948,1776.494261
1331.596547,-10214.842000,1455.581446,1554.432478
1331.596859,-8660.409521,1991.848295,518.144159
1331.597170,-8216.285956,1532.190996,-0.000000
1331.597482,-7105.977043,0.000000,148.041188
1331.597793,-6217.729913,-919.314598,-222.061783
1331.598105,-5699.585753,-995.924147,-0.000000
1331.598416,-6217.729913,-612.876398,-518.144159
1331.598728,-7031.956449,-612.876398,-222.061783
1331.599040,-7994.224174,-459.657299,-518.144159
1331.599351,-8142.265362,-536.266849,-0.000000
1331.599663,-8438.347739,-1225.752797,962.267725
1331.599974,-10066.800811,-1762.019645,2072.576638
1331.600286,-11177.109724,-1762.019645,2368.659014
1331.600598,-12139.377449,153.219100,1924.535449
1331.600909,-11843.295072,1225.752797,2072.576638
1331.601221,-10436.903782,2068.457845,1628.453072
1331.601532,-9252.574275,995.924147,592.164754
1331.601844,-7402.059420,383.047749,-74.020594
1331.602155,-5921.647536,0.000000,-370.102971
1331.602467,-5181.441594,76.609550,-1332.370696
1331.602779,-6587.832884,919.314598,-1480.411884
1331.603090,-7698.141797,1149.143247,-1628.453072
1331.603402,-9474.636058,1225.752797,-1110.308913
1331.603713,-10510.924376,153.219100,-0.000000
1331.604025,-10140.821405,0.000000,814.226536
1331.604336,-11473.192101,-383.047749,1628.453072
1331.604648,-11251.130318,-1608.800546,2294.638420
1331.604960,-10955.047942,-1608.800546,1850.514855
1331.605271,-11103.089130,0.000000,1184.329507
1331.605583,-10658.965565,2068.457845,296.082377
1331.605894,-9696.697840,2604.724693,-0.000000
1331.606206,-8438.347739,536.266849,222.061783
1331.606518,-7105.977043,-842.705048,148.041188
1331.606829,-6365.771101,-1302.362347,-148.041188
1331.607141,-6735.874072,-766.095498,-592.164754
1331.607452,-7031.956449,0.000000,-444.123565
1331.607764,-7846.182985,689.485948,-74.020594
1331.608075,-8290.306550,229.828649,-74.020594
1331.608387,-8216.285956,76.609550,592.164754
1331.608699,-9400.615463,-153.219100,1258.350101
1331.609010,-10066.800811,-612.876398,2220.617826
1331.609322,-10732.986159,766.095498,2072.576638
1331.609633,-10807.006753,1915.238745,1702.473667
1331.609945,-9770.718434,2681.334243,1554.432478
1331.610257,-8882.471304,2298.286494,1406.391290
1331.610568,-6883.915261,1072.533697,1184.329507
1331.610880,-6365.771101,-229.828649,-74.020594
1331.611191,-5477.523971,-536.266849,-222.061783
1331.611503,-5773.606348,76.609550,-1036.288319
1331.611814,-7254.018232,229.828649,-814.226536
1331.612126,-7994.224174,-153.219100,-148.041188
1331.612438,-9104.533087,-1302.362347,-0.000000
1331.612749,-9696.697840,-1915.238745,1554.432478
1331.613061,-10436.903782,-1762.019645,1998.556043
1331.613372,-11325.150913,-2068.457845,2146.597232
1331.613684,-11251.130318,-2221.676944,1998.556043
1331.613995,-10584.944971,-1225.752797,2368.659014
1331.614307,-10066.800811,0.000000,1332.370696
1331.614619,-9622.677246,919.314598,740.205942
1331.614930,-9104.533087,842.705048,666.185348
1331.615242,-7624.121203,-229.828649,296.082377
1331.615553,-6883.915261,-766.095498,296.082377
1331.615865,-7105.977043,-1455.581446,-0.000000
1331.616177,-7550.100608,-1685.410096,-814.226536
1331.616488,-7920.203579,-536.266849,-814.226536
1331.616800,-8808.450710,0.000000,-370.102971
1331.617111,-9178.553681,-153.219100,-222.061783
1331.617423,-9770.718434,-995.924147,296.082377
1331.617734,-10732.986159,-1685.410096,1332.370696
1331.618046,-10881.027347,-1608.800546,2294.638420
1331.618358,-11769.274478,-153.219100,1110.308913
1331.618669,-11917.315666,1378.971896,1406.391290
1331.618981,-10881.027347,2451.505594,888.247130
1331.619292,-8882.471304,1991.848295,-0.000000
1331.619604,-7254.018232,1302.362347,-0.000000
1331.619916,-6143.709319,0.000000,-296.082377
1331.620227,-5995.668130,-1225.752797,-962.267725
1331.620539,-6217.729913,-1302.362347,-1258.350101
1331.620850,-7624.121203,459.657299,-2368.659014
1331.621162,-8438.347739,536.266849,-1776.494261
1331.621473,-9548.656652,-842.705048,-0.000000
1331.621785,-9622.677246,-1608.800546,1628.453072
1331.622097,-10066.800811,-2145.067394,2146.597232
1331.622408,-10140.821405,-1149.143247,2886.803174
1331.622720,-10436.903782,-995.924147,2294.638420
1331.623031,-10807.006753,0.000000,2146.597232
1331.623343,-9844.739029,1225.752797,1184.329507
1331.623655,-8808.450710,2298.286494,518.144159
1331.623966,-8512.368333,1838.629195,-0.000000
1331.624278,-7476.080014,1072.533697,296.082377
1331.624589,-6809.894666,383.047749,-444.123565
1331.624901,-5995.668130,536.266849,-962.267725
1331.625212,-6735.874072,689.485948,-740.205942
1331.625524,-7772.162391,1225.752797,-444.123565
1331.625836,-7920.203579,1072.533697,-222.061783
1331.626147,-8808.450710,919.314598,-0.000000
1331.626459,-9326.594869,153.219100,1258.350101
1331.626770,-10658.965565,0.000000,1776.494261
1331.627082,-11695.253884,306.438199,2072.576638
1331.627393,-11991.336260,1838.629195,1850.514855
1331.627705,-11621.233289,2451.505594,1776.494261
1331.628017,-9992.780217,2604.724693,1480.411884
1331.628328,-8142.265362,1225.752797,962.267725
1331.628640,-6735.874072,-153.219100,-74.020594
1331.628951,-5773.606348,-995.924147,-592.164754
1331.629263,-6513.812290,-459.657299,-1184.329507
1331.629575,-8068.244768,536.266849,-1258.350101
1331.629886,-8586.388927,1378.971896,-444.123565
1331.630198,-9696.697840,0.000000,444.123565
1331.630509,-9548.656652,-1149.143247,1924.535449
1331.630821,-9400.615463,-2221.676944,2220.617826
1331.631132,-9770.718434,-2451.505594,2516.700203
1331.631444,-9474.636058,-1302.362347,2146.597232
1331.631756,-9474.636058,306.438199,1480.411884
1331.632067,-9548.656652,1915.238745,1184.329507
1331.632379,-9252.574275,2068.457845,-0.000000
1331.632690,-7698.141797,1608.800546,-0.000000
1331.633002,-6883.915261,689.485948,-0.000000
1331.633314,-6143.709319,-383.047749,-0.000000
1331.633625,-7031.956449,-1302.362347,-444.123565
1331.633937,-7550.100608,-1302.362347,-296.082377
1331.634248,-7846.182985,-536.266849,-666.185348
1331.634560,-8216.285956,-383.047749,-296.082377
1331.634871,-9104.533087,-1302.362347,-0.000000
1331.635183,-9548.656652,-1838.629195,1110.308913
1331.635495,-10807.006753,-2451.505594,1850.514855
1331.635806,-11399.171507,-2528.115143,2368.659014
1331.636118,-11991.336260,-1915.238745,2664.741391
1331.636429,-11843.295072,-612.876398,1998.556043
1331.636741,-10510.924376,459.657299,1184.329507
1331.637052,-9252.574275,383.047749,148.041188
1331.637364,-7994.224174,229.828649,-444.123565
1331.637676,-6587.832884,-229.828649,-666.185348
1331.637987,-6439.791695,-383.047749,-962.267725
1331.638299,-7179.997637,-995.924147,-888.247130
1331.638610,-7624.121203,-306.438199,-518.144159
1331.638922,-8586.388927,0.000000,-0.000000
1331.639234,-8808.450710,-536.266849,518.144159
1331.639545,-9696.697840,-1532.190996,1184.329507
1331.639857,-10732.986159,-1455.581446,1480.411884
1331.640168,-10436.903782,-1072.533697,1480.411884
1331.640480,-10510.924376,-766.095498,1110.308913
1331.640791,-10362.883188,612.876398,370.102971
1331.641103,-10214.842000,1455.581446,222.061783
1331.641415,-9252.574275,1455.581446,222.061783
1331.641726,-7994.224174,306.438199,740.205942
1331.642038,-7476.080014,-612.876398,518.144159
1331.642349,-6735.874072,-1225.752797,814.226536
1331.642661,-7402.059420,-1225.752797,-0.000000
1331.642973,-6883.915261,-536.266849,-518.144159
1331.643284,-7254.018232,153.219100,-814.226536
1331.643596,-7846.182985,0.000000,-666.185348
1331.643907,-8290.306550,0.000000,222.061783
1331.644219,-9474.636058,-153.219100,814.226536
1331.644530,-10288.862594,-842.705048,1702.473667
1331.644842,-10732.986159,-229.828649,1850.514855
1331.645154,-11621.233289,459.657299,1332.370696
1331.645465,-11029.068536,1762.019645,1110.308913
1331.645777,-10140.821405,1838.629195,444.123565
1331.646088,-8734.430116,1149.143247,-0.000000
1331.646400,-7772.162391,689.485948,-370.102971
1331.646711,-6143.709319,459.657299,-296.082377
1331.647023,-6735.874072,-229.828649,-1110.308913
1331.647335,-7402.059420,612.876398,-1184.329507
1331.647646,-7550.100608,1685.410096,-296.082377
1331.647958,-8438.347739,1225.752797,-0.000000
1331.648269,-9030.512492,0.000000,592.164754
1331.648581,-9770.718434,-306.438199,814.226536
1331.648893,-10214.842000,-459.657299,888.247130
1331.649204,-10584.944971,229.828649,1184.329507
1331.649516,-11473.192101,1072.533697,888.247130
1331.649827,-10955.047942,2068.457845,74.020594
1331.650139,-11029.068536,2374.896044,518.144159
1331.650450,-9622.677246,1225.752797,666.185348
1331.650762,-8290.306550,229.828649,962.267725
1331.651074,-7179.997637,-229.828649,888.247130
1331.651385,-6291.750507,-536.266849,-0.000000
1331.651697,-6957.935855,-612.876398,-740.205942
1331.652008,-6587.832884,383.047749,-888.247130
1331.652320,-6735.874072,995.924147,-444.123565
1331.652632,-7846.182985,-459.657299,-0.000000
1331.652943,-8364.327145,-2068.457845,1406.391290
1331.653255,-10436.903782,-2911.162892,2220.617826
1331.653566,-10881.027347,-2374.896044,2368.659014
1331.653878,-11325.150913,-842.705048,2368.659014
1331.654190,-11917.315666,-153.219100,1480.411884
1331.654501,-10732.986159,1072.533697,1332.370696
1331.654813,-9548.656652,1072.533697,592.164754
1331.655124,-8142.265362,229.828649,444.123565
1331.655436,-6661.853478,0.000000,518.144159
1331.655747,-6217.729913,-153.219100,592.164754
1331.656059,-6439.791695,-842.705048,-0.000000
1331.656371,-7328.038826,0.000000,-666.185348
1331.656682,-7328.038826,536.266849,-0.000000
1331.656994,-8882.471304,995.924147,-296.082377
1331.657305,-8364.327145,-995.924147,740.205942
1331.657617,-9030.512492,-1915.238745,1184.329507
1331.657929,-11103.089130,-2374.896044,1110.308913
1331.658240,-10955.047942,-689.485948,1776.494261
1331.658552,-11843.295072,612.876398,740.205942
1331.658863,-12287.418637,1685.410096,962.267725
1331.659175,-10658.965565,1838.629195,1036.288319
1331.659486,-9178.553681,536.266849,666.185348
1331.659798,-6809.894666,76.609550,1480.411884
1331.660110,-5921.647536,-842.705048,444.123565
1331.660421,-5773.606348,-1838.629195,-814.226536
1331.660733,-5847.626942,-919.314598,-666.185348
1331.661044,-7328.038826,-153.219100,-962.267725
1331.661356,-8438.347739,-766.095498,-666.185348
1331.661668,-10584.944971,-842.705048,-370.102971
1331.661979,-10214.842000,-1532.190996,962.267725
1331.662291,-11029.068536,-2451.505594,1924.535449
1331.662602,-12139.377449,-1991.848295,1998.556043
1331.662914,-11695.253884,0.000000,1480.411884
1331.663225,-10362.883188,1685.410096,296.082377
1331.663537,-8956.491898,1838.629195,666.185348
1331.663849,-7994.224174,689.485948,-444.123565
1331.664160,-6513.812290,689.485948,-222.061783
1331.664472,-5625.565159,-842.705048,-74.020594
1331.664783,-6143.709319,-1762.019645,-222.061783
1331.665095,-7550.100608,-766.095498,-296.082377
1331.665407,-8808.450710,0.000000,-666.185348
1331.665718,-9548.656652,0.000000,-666.185348
1331.666030,-9400.615463,-689.485948,-74.020594
1331.666341,-9770.718434,-919.314598,296.082377
1331.666653,-10584.944971,-1072.533697,518.144159
1331.666964,-10732.986159,-1302.362347,888.247130
1331.667276,-11103.089130,0.000000,444.123565
1331.667588,-10658.965565,1915.238745,666.185348
1331.667899,-9918.759623,2145.067394,518.144159
1331.668211,-9474.636058,689.485948,592.164754
1331.668522,-7402.059420,76.609550,1110.308913
1331.668834,-7402.059420,-1072.533697,444.123565
1331.669146,-6809.894666,-612.876398,814.226536
1331.669457,-7328.038826,-306.438199,-148.041188
1331.669769,-7402.059420,0.000000,-592.164754
1331.670080,-8068.244768,306.438199,-592.164754
1331.670392,-8882.471304,76.609550,-0.000000
1331.670703,-9252.574275,459.657299,888.247130
1331.671015,-9844.739029,-842.705048,1702.473667
1331.671327,-10140.821405,-306.438199,2220.617826
1331.671638,-11769.274478,1225.752797,2146.597232
1331.671950,-11843.295072,2528.115143,1406.391290
1331.672261,-10807.006753,3447.429741,1332.370696
1331.672573,-8364.327145,2757.943793,1258.350101
1331.672885,-7402.059420,1149.143247,962.267725
1331.673196,-6587.832884,0.000000,1036.288319
1331.673508,-5921.647536,-229.828649,444.123565
1331.673819,-6217.729913,-153.219100,-0.000000
1331.674131,-6957.935855,1149.143247,-74.020594
1331.674442,-7402.059420,1762.019645,-370.102971
1331.674754,-8512.368333,919.314598,-74.020594
1331.675066,-8808.450710,0.000000,1258.350101
1331.675377,-8956.491898,-459.657299,1850.514855
1331.675689,-9622.677246,-1072.533697,1850.514855
1331.676000,-10214.842000,-1225.752797,2072.576638
1331.676312,-11251.130318,-383.047749,814.226536
1331.676624,-11103.089130,612.876398,888.247130
1331.676935,-10288.862594,1608.800546,814.226536
1331.677247,-9178.553681,612.876398,1036.288319
1331.677558,-8068.244768,-612.876398,1110.308913
1331.677870,-7031.956449,-1532.190996,1406.391290
1331.678182,-5847.626942,-2374.896044,-0.000000
1331.678493,-5699.585753,-1685.410096,-666.185348
1331.678805,-5847.626942,459.657299,-740.205942
1331.679116,-7105.977043,0.000000,-1480.411884
1331.679428,-8142.265362,0.000000,-666.185348
1331.679739,-9844.739029,-1149.143247,370.102971
1331.680051,-11547.212695,-2145.067394,1628.453072
1331.680363,-12213.398043,-1532.190996,2220.617826
1331.680674,-12879.583391,-306.438199,1702.473667
1331.680986,-12065.356855,612.876398,1776.494261
1331.681297,-10955.047942,995.924147,740.205942
1331.681609,-9104.533087,-153.219100,814.226536
1331.681921,-7846.182985,-919.314598,-0.000000
1331.682232,-7105.977043,-1149.143247,-518.144159
1331.682544,-7402.059420,-919.314598,-1110.308913
1331.682855,-8290.306550,0.000000,-962.267725
1331.683167,-8512.368333,-153.219100,-1258.350101
1331.683478,-8068.244768,76.609550,-518.144159
1331.683790,-9030.512492,-995.924147,888.247130
1331.684102,-9474.636058,-2068.457845,1258.350101
1331.684413,-9696.697840,-2604.724693,1332.370696
1331.684725,-10288.862594,-1532.190996,1258.350101
1331.685036,-10436.903782,-306.438199,1110.308913
1331.685348,-10807.006753,1378.971896,740.205942
1331.685660,-10140.821405,1608.800546,444.123565
1331.685971,-9548.656652,612.876398,370.102971
1331.686283,-8068.244768,229.828649,962.267725
1331.686594,-7179.997637,-306.438199,962.267725
1331.686906,-6217.729913,-919.314598,370.102971
1331.687217,-5773.606348,-1302.362347,-592.164754
1331.687529,-5699.585753,-383.047749,-592.164754
1331.687841,-5995.668130,459.657299,-962.267725
1331.688152,-7994.224174,1455.581446,-740.205942
1331.688464,-9326.594869,153.219100,370.102971
1331.688775,-10807.006753,-995.924147,1924.535449
1331.689087,-11547.212695,-995.924147,2664.741391
1331.689399,-12287.418637,383.047749,2294.638420
1331.689710,-11843.295072,2221.676944,1850.514855
1331.690022,-10362.883188,3294.210641,814.226536
1331.690333,-8512.368333,3064.381992,-0.000000
1331.690645,-6439.791695,1762.019645,-222.061783
1331.690956,-5847.626942,1378.971896,-518.144159
1331.691268,-6217.729913,229.828649,-814.226536
1331.691580,-7254.018232,0.000000,-222.061783
1331.691891,-7920.203579,229.828649,-148.041188
1331.692203,-8512.368333,842.705048,148.041188
1331.692514,-8956.491898,-306.438199,518.144159
1331.692826,-9252.574275,-459.657299,962.267725
1331.693138,-9844.739029,-1608.800546,1184.329507
1331.693449,-10362.883188,-842.705048,1184.329507
1331.693761,-10510.924376,0.000000,1184.329507
1331.694072,-11103.089130,1225.752797,740.205942
1331.694384,-11325.150913,2451.505594,962.267725
1331.694695,-10510.924376,2145.067394,1184.329507
1331.695007,-8882.471304,1149.143247,1406.391290
1331.695319,-7402.059420,-306.438199,1776.494261
1331.695630,-6883.915261,-995.924147,444.123565
1331.695942,-5995.668130,-919.314598,-592.164754
1331.696253,-5847.626942,-842.705048,-1110.308913
1331.696565,-6365.771101,306.438199,-1406.391290
1331.696877,-7994.224174,383.047749,-1036.288319
1331.697188,-8808.450710,-383.047749,-148.041188
1331.697500,-9474.636058,-1149.143247,1184.329507
1331.697811,-11325.150913,-1532.190996,2294.638420
1331.698123,-11325.150913,-1685.410096,2368.659014
1331.698434,-11325.150913,-536.266849,2146.597232
1331.698746,-10807.006753,842.705048,1406.391290
1331.699058,-9918.759623,1608.800546,518.144159
1331.699369,-9104.533087,1302.362347,148.041188
1331.699681,-8290.306550,306.438199,-0.000000
1331.699992,-7031.956449,-153.219100,-0.000000
1331.700304,-6661.853478,-1302.362347,-222.061783
1331.700616,-7698.141797,-1685.410096,-444.123565
1331.700927,-8142.265362,-995.924147,-296.082377
1331.701239,-8364.327145,-842.705048,-74.020594
1331.701550,-8438.347739,-1149.143247,592.164754
1331.701862,-8882.471304,-1762.019645,1258.350101
1331.702174,-10066.800811,-1762.019645,1332.370696
1331.702485,-10362.883188,-1685.410096,1332.370696
1331.702797,-10955.047942,-612.876398,888.247130
1331.703108,-11103.089130,1455.581446,1184.329507
1331.703420,-11029.068536,1762.019645,740.205942
1331.703731,-9474.636058,1225.752797,1036.288319
1331.704043,-8142.265362,-306.438199,1184.329507
1331.704355,-7105.977043,-1532.190996,1184.329507
1331.704666,-6809.894666,-1915.238745,-74.020594
1331.704978,-6217.729913,-1149.143247,-1036.288319
1331.705289,-6587.832884,0.000000,-1480.411884
1331.705601,-7254.018232,536.266849,-1258.350101
1331.705913,-7920.203579,153.219100,-518.144159
1331.706224,-9548.656652,-766.095498,666.185348
1331.706536,-10214.842000,-1532.190996,1850.514855
1331.706847,-10807.006753,-766.095498,2664.741391
1331.707159,-10955.047942,0.000000,2368.659014
1331.707470,-10807.006753,1302.362347,1332.370696
1331.707782,-11251.130318,919.314598,962.267725
1331.708094,-9178.553681,1532.190996,592.164754
1331.708405,-8216.285956,1915.238745,-148.041188
1331.708717,-7550.100608,612.876398,-0.000000
1331.709028,-6587.832884,-689.485948,370.102971
1331.709340,-6735.874072,-1762.019645,-296.082377
1331.709652,-7031.956449,-842.705048,-518.144159
1331.709963,-7105.977043,306.438199,-740.205942
1331.710275,-8808.450710,459.657299,-1110.308913
1331.710586,-8882.471304,-459.657299,296.082377
1331.710898,-9104.533087,-1455.581446,1184.329507
1331.711209,-10140.821405,-2298.286494,1554.432478
1331.711521,-11251.130318,-1455.581446,1998.556043
1331.711833,-11917.315666,383.047749,1776.494261
1331.712144,-11621.233289,536.266849,1480.411884
1331.712456,-9622.677246,1685.410096,1110.308913
1331.712767,-8216.285956,153.219100,592.164754
1331.713079,-7254.018232,-536.266849,222.061783
1331.713391,-6365.771101,-842.705048,-222.061783
1331.713702,-6143.709319,-383.047749,-1850.514855
1331.714014,-6957.935855,842.705048,-2220.617826
1331.714325,-6587.832884,1149.143247,-1776.494261
1331.714637,-8068.244768,612.876398,-1184.329507
1331.714948,-9400.615463,-995.924147,-0.000000
1331.715260,-9696.697840,-1608.800546,1110.308913
1331.715572,-10732.986159,-2068.457845,1776.494261
1331.715883,-11769.274478,-919.314598,2072.576638
1331.716195,-11991.336260,153.219100,1480.411884
1331.716506,-11547.212695,1072.533697,666.185348
1331.716818,-10140.821405,1838.629195,518.144159
1331.717130,-8808.450710,1685.410096,888.247130
1331.717441,-7994.224174,1072.533697,-0.000000
1331.717753,-7254.018232,0.000000,444.123565
1331.718064,-7105.977043,-919.314598,-0.000000
1331.718376,-7328.038826,-919.314598,-296.082377
1331.718687,-7698.141797,919.314598,-592.164754
1331.718999,-8142.265362,1302.362347,-444.123565
1331.719311,-8956.491898,536.266849,-222.061783
1331.719622,-9104.533087,-536.266849,1258.350101
1331.719934,-9696.697840,-1072.533697,1998.556043
1331.720245,-11029.068536,-995.924147,1998.556043
1331.720557,-11251.130318,0.000000,2294.638420
1331.720869,-11177.109724,1915.238745,1184.329507
1331.721180,-9918.759623,3217.601092,814.226536
1331.721492,-8734.430116,2298.286494,666.185348
1331.721803,-6735.874072,1378.971896,1406.391290
1331.722115,-5551.544565,-383.047749,592.164754
1331.722426,-5255.462188,-1225.752797,-0.000000
1331.722738,-6143.709319,-1685.410096,-444.123565
1331.723050,-6661.853478,-919.314598,-222.061783
1331.723361,-7179.997637,-459.657299,-222.061783
1331.723673,-8808.450710,-1455.581446,222.061783
1331.723984,-9252.574275,-1532.190996,1258.350101
1331.724296,-10288.862594,-2221.676944,1850.514855
1331.724608,-11473.192101,-2145.067394,2442.679609
1331.724919,-12065.356855,-919.314598,2072.576638
1331.725231,-11695.253884,76.609550,1776.494261
1331.725542,-10362.883188,1072.533697,1184.329507
1331.725854,-9030.512492,1225.752797,814.226536
1331.726166,-7698.141797,383.047749,518.144159
1331.726477,-6735.874072,-383.047749,666.185348
1331.726789,-6143.709319,-612.876398,-74.020594
1331.727100,-6513.812290,-1225.752797,-1110.308913
1331.727412,-7550.100608,-1072.533697,-1332.370696
1331.727723,-8290.306550,153.219100,-1258.350101
1331.728035,-8956.491898,0.000000,-888.247130
1331.728347,-9548.656652,-383.047749,-0.000000
1331.728658,-9918.759623,-1302.362347,1258.350101
1331.728970,-11177.109724,-2145.067394,1036.288319
1331.729281,-11473.192101,-1532.190996,2072.576638
1331.729593,-11547.212695,-919.314598,1258.350101
1331.729905,-11991.336260,612.876398,666.185348
1331.730216,-10807.006753,1532.190996,222.061783
1331.730528,-9548.656652,459.657299,148.041188
1331.730839,-7698.141797,-1149.143247,296.082377
1331.731151,-6587.832884,-1685.410096,-444.123565
1331.731462,-6143.709319,-1608.800546,-814.226536
1331.731774,-6439.791695,-766.095498,-1554.432478
1331.732086,-7031.956449,-459.657299,-1332.370696
1331.732397,-7994.224174,-229.828649,-1036.288319
1331.732709,-8734.430116,-229.828649,-370.102971
1331.733020,-9326.594869,-459.657299,814.226536
1331.733332,-10436.903782,-1149.143247,1776.494261
1331.733644,-11473.192101,-689.485948,1702.473667
1331.733955,-11547.212695,995.924147,962.267725
1331.734267,-10658.965565,2757.943793,888.247130
1331.734578,-9844.739029,3217.601092,296.082377
1331.734890,-9474.636058,1915.238745,-0.000000
1331.735201,-8364.327145,919.314598,-0.000000
1331.735513,-7772.162391,229.828649,-0.000000
1331.735825,-7179.997637,229.828649,-148.041188
1331.736136,-7254.018232,459.657299,-592.164754
1331.736448,-7846.182985,1378.971896,-592.164754
1331.736759,-7476.080014,842.705048,-74.020594
1331.737071,-7624.121203,153.219100,-0.000000
1331.737383,-8734.430116,-306.438199,1258.350101
1331.737694,-9992.780217,-229.828649,1776.494261
1331.738006,-10288.862594,76.609550,1924.535449
1331.738317,-10732.986159,1072.533697,1850.514855
1331.738629,-10881.027347,1991.848295,1184.329507
1331.738940,-10510.924376,2987.772442,814.226536
1331.739252,-9252.574275,3217.601092,962.267725
1331.739564,-7846.182985,1149.143247,740.205942
1331.739875,-6439.791695,536.266849,740.205942
1331.740187,-6217.729913,-689.485948,148.041188
1331.740498,-6069.688724,-1455.581446,-444.123565
1331.740810,-6365.771101,-612.876398,-814.226536
1331.741122,-6735.874072,229.828649,-444.123565
1331.741433,-7402.059420,153.219100,370.102971
1331.741745,-8882.471304,-919.314598,962.267725
1331.742056,-10066.800811,-2834.553343,2738.761985
1331.742368,-11103.089130,-2681.334243,3330.926739
1331.742679,-11473.192101,-1608.800546,2812.782580
1331.742991,-11695.253884,383.047749,1776.494261
1331.743303,-10732.986159,2145.067394,1258.350101
1331.743614,-9400.615463,2068.457845,-0.000000
1331.743926,-8068.244768,1685.410096,222.061783
1331.744237,-7772.162391,0.000000,444.123565
1331.744549,-7624.121203,-612.876398,-0.000000
1331.744861,-7179.997637,-689.485948,-518.144159
1331.745172,-7328.038826,153.219100,-592.164754
1331.745484,-7624.121203,153.219100,-740.205942
1331.745795,-7920.203579,-689.485948,-444.123565
1331.746107,-9104.533087,-2221.676944,666.185348
1331.746418,-9770.718434,-2451.505594,1036.288319
1331.746730,-9992.780217,-1455.581446,1924.535449
1331.747042,-10807.006753,-1838.629195,1924.535449
1331.747353,-11029.068536,-2298.286494,1924.535449
1331.747665,-10732.986159,-1532.190996,1554.432478
1331.747976,-10436.903782,-306.438199,962.267725
1331.748288,-9548.656652,0.000000,592.164754
1331.748599,-8808.450710,383.047749,-0.000000
1331.748910,-7179.997637,-612.876398,-0.000000
1331.749222,-6587.832884,-2068.457845,-592.164754
1331.749533,-6587.832884,-1378.971896,-1036.288319
1331.749845,-6513.812290,153.219100,-962.267725
1331.750156,-7624.121203,1072.533697,-962.267725
1331.750468,-8364.327145,229.828649,148.041188
1331.750779,-9030.512492,-229.828649,888.247130
1331.751091,-9918.759623,-1608.800546,1776.494261
1331.751402,-10362.883188,-229.828649,1554.432478
1331.751714,-10584.944971,1149.143247,592.164754
1331.752025,-10288.862594,2145.067394,148.041188
1331.752337,-10288.862594,2221.676944,-0.000000
1331.752648,-9474.636058,1455.581446,444.123565
1331.752960,-8512.368333,689.485948,592.164754
1331.753271,-7920.203579,-459.657299,518.144159
1331.753582,-6883.915261,-612.876398,-0.000000
1331.753894,-6809.894666,0.000000,-740.205942
1331.754205,-7031.956449,842.705048,-518.144159
1331.754517,-6883.915261,1302.362347,-888.247130
1331.754828,-7846.182985,76.609550,-74.020594
1331.755140,-9030.512492,-766.095498,1406.391290
1331.755451,-9992.780217,-1915.238745,1850.514855
1331.755763,-11399.171507,-2145.067394,1554.432478
1331.756074,-11399.171507,-536.266849,2146.597232
1331.756386,-10955.047942,612.876398,888.247130
1331.756697,-10658.965565,1302.362347,666.185348
1331.757009,-9844.739029,1455.581446,962.267725
1331.757320,-8438.347739,459.657299,518.144159
1331.757632,-6513.812290,0.000000,592.164754
1331.757943,-5329.482782,-229.828649,370.102971
1331.758254,-5551.544565,-536.266849,-518.144159
1331.758566,-6513.812290,-306.438199,-1036.288319
1331.758877,-7105.977043,383.047749,-888.247130
1331.759189,-8438.347739,1072.533697,-222.061783
1331.759500,-9326.594869,536.266849,518.144159
1331.759812,-10584.944971,-1072.533697,1480.411884
1331.760123,-11325.150913,-2451.505594,1850.514855
1331.760435,-11251.130318,-1991.848295,1702.473667
1331.760746,-11621.233289,153.219100,1110.308913
1331.761058,-11547.212695,2374.896044,888.247130
1331.761369,-11325.150913,2987.772442,-0.000000
1331.761681,-9474.636058,2068.457845,740.205942
1331.761992,-7031.956449,1608.800546,962.267725
1331.762304,-5995.668130,536.266849,-0.000000
1331.762615,-5773.606348,459.657299,-296.082377
1331.762926,-6217.729913,995.924147,-1850.514855
1331.763238,-7031.956449,1225.752797,-1776.494261
1331.763549,-7624.121203,612.876398,-888.247130
1331.763861,-9326.594869,-536.266849,-0.000000
1331.764172,-10807.006753,-1991.848295,1702.473667
1331.764484,-11251.130318,-2757.943793,2220.617826
1331.764795,-11473.192101,-2528.115143,2516.700203
1331.765107,-11103.089130,-995.924147,2294.638420
1331.765418,-10732.986159,766.095498,1184.329507
1331.765730,-9252.574275,1838.629195,1776.494261
1331.766041,-8142.265362,612.876398,518.144159
1331.766353,-6883.915261,0.000000,962.267725
1331.766664,-6069.688724,-153.219100,444.123565
1331.766976,-6439.791695,-459.657299,-0.000000
1331.767287,-6883.915261,-766.095498,-148.041188
1331.767598,-7254.018232,0.000000,-592.164754
1331.767910,-7920.203579,536.266849,-370.102971
1331.768221,-8586.388927,76.609550,-0.000000
1331.768533,-9030.512492,-1072.533697,1702.473667
1331.768844,-9400.615463,-2145.067394,1850.514855
1331.769156,-9918.759623,-1532.190996,1332.370696
1331.769467,-10362.883188,153.219100,740.205942
1331.769779,-10955.047942,1762.019645,370.102971
1331.770090,-11473.192101,1762.019645,-0.000000
1331.770402,-9104.533087,1838.629195,666.185348
1331.770713,-7994.224174,0.000000,1036.288319
1331.771025,-7550.100608,-1608.800546,962.267725
1331.771336,-7772.162391,-2604.724693,814.226536
1331.771648,-7254.018232,-2068.457845,-74.020594
1331.771959,-7550.100608,-766.095498,-444.123565
1331.772270,-8216.285956,153.219100,-888.247130
1331.772582,-9400.615463,-459.657299,-518.144159
1331.772893,-10362.883188,-1302.362347,592.164754
1331.773205,-10066.800811,-2528.115143,1332.370696
1331.773516,-10881.027347,-2221.676944,1628.453072
1331.773828,-11325.150913,-536.266849,1628.453072
1331.774139,-11251.130318,689.485948,962.267725
1331.774451,-10510.924376,1302.362347,296.082377
1331.774762,-8956.491898,1685.410096,740.205942
1331.775074,-7846.182985,919.314598,370.102971
1331.775385,-7254.018232,0.000000,518.144159
1331.775697,-7105.977043,-536.266849,-148.041188
1331.776008,-6587.832884,-995.924147,-518.144159
1331.776320,-6217.729913,229.828649,-962.267725
1331.776631,-6291.750507,1302.362347,-1776.494261
1331.776942,-7105.977043,459.657299,-1184.329507
1331.777254,-7402.059420,-689.485948,-444.123565
1331.777565,-8956.491898,-1991.848295,888.247130
1331.777877,-9622.677246,-2451.505594,1924.535449
1331.778188,-11547.212695,-2298.286494,1628.453072
1331.778500,-12435.459826,-536.266849,1850.514855
1331.778811,-11769.274478,842.705048,1332.370696
1331.779123,-11621.233289,919.314598,1036.288319
1331.779434,-10066.800811,689.485948,814.226536
1331.779746,-9400.615463,383.047749,518.144159
1331.780057,-7402.059420,0.000000,518.144159
1331.780369,-6143.709319,76.609550,-814.226536
1331.780680,-6143.709319,536.266849,-1702.473667
1331.780992,-5921.647536,1225.752797,-1850.514855
1331.781303,-6735.874072,1685.410096,-1850.514855
1331.781614,-8216.285956,842.705048,-666.185348
1331.781926,-9548.656652,536.266849,962.267725
1331.782237,-11251.130318,-1302.362347,1998.556043
1331.782549,-12139.377449,-2298.286494,2294.638420
1331.782860,-12361.439231,-306.438199,2072.576638
1331.783172,-11843.295072,919.314598,888.247130
1331.783483,-11251.130318,2298.286494,518.144159
1331.783795,-9622.677246,2298.286494,666.185348
1331.784106,-7920.203579,919.314598,666.185348
1331.784418,-7550.100608,-459.657299,740.205942
1331.784729,-6217.729913,-995.924147,592.164754
1331.785041,-6365.771101,-306.438199,-296.082377
1331.785352,-6365.771101,612.876398,-888.247130
1331.785664,-7328.038826,995.924147,-1184.329507
1331.785975,-8512.368333,766.095498,-0.000000
1331.786286,-7846.182985,-153.219100,814.226536
1331.786598,-9178.553681,-1532.190996,1628.453072
1331.786909,-9918.759623,-1915.238745,2146.597232
1331.787221,-11325.150913,-383.047749,1924.535449
1331.787532,-11769.274478,1378.971896,1554.432478
1331.787844,-10288.862594,2604.724693,1258.350101
1331.788155,-9326.594869,2298.286494,1776.494261
1331.788467,-7846.182985,536.266849,1110.308913
1331.788778,-6513.812290,-842.705048,370.102971
1331.789090,-5477.523971,-1225.752797,-370.102971
1331.789401,-5477.523971,-536.266849,-666.185348
1331.789713,-6365.771101,383.047749,-1036.288319
1331.790024,-7402.059420,-459.657299,-666.185348
1331.790336,-10066.800811,-1762.019645,-222.061783
1331.790647,-11325.150913,-1915.238745,1628.453072
1331.790958,-11473.192101,-2068.457845,2442.679609
1331.791270,-11843.295072,-2298.286494,2516.700203
1331.791581,-11399.171507,-2374.896044,2812.782580
1331.791893,-11103.089130,-1532.190996,1702.473667
1331.792204,-10140.821405,1762.019645,1184.329507
1331.792516,-8290.306550,3064.381992,444.123565
1331.792827,-7920.203579,1991.848295,-74.020594
1331.793139,-7624.121203,0.000000,-0.000000
1331.793450,-6661.853478,-306.438199,-0.000000
1331.793762,-6217.729913,-536.266849,-888.247130
1331.794073,-5995.668130,-383.047749,-1110.308913
1331.794385,-7105.977043,229.828649,-666.185348
1331.794696,-7920.203579,-153.219100,-962.267725
1331.795008,-9326.594869,-1302.362347,-370.102971
1331.795319,-10214.842000,-2068.457845,888.247130
1331.795630,-11103.089130,-1915.238745,1850.514855
1331.795942,-11621.233289,-1685.410096,1924.535449
1331.796253,-12213.398043,-919.314598,1184.329507
1331.796565,-11103.089130,1149.143247,1110.308913
1331.796876,-10214.842000,1838.629195,740.205942
1331.797188,-8586.388927,1302.362347,1036.288319
1331.797499,-6883.915261,-612.876398,518.144159
1331.797811,-6809.894666,-1608.800546,-0.000000
1331.798122,-6365.771101,-1072.533697,-370.102971
1331.798434,-6661.853478,153.219100,-1332.370696
1331.798745,-6883.915261,1532.190996,-1184.329507
1331.799057,-7476.080014,1302.362347,-1332.370696
1331.799368,-9178.553681,-612.876398,-444.123565
1331.799680,-9992.780217,-995.924147,740.205942
1331.799991,-11029.068536,-766.095498,1258.350101
1331.800302,-11473.192101,-536.266849,1258.350101
1331.800614,-10881.027347,229.828649,1332.370696
1331.800925,-10807.006753,842.705048,1036.288319
1331.801237,-9622.677246,1762.019645,888.247130
1331.801548,-8734.430116,1762.019645,666.185348
1331.801860,-8438.347739,0.000000,740.205942
1331.802171,-7105.977043,-689.485948,888.247130
1331.802483,-7550.100608,-1378.971896,296.082377
1331.802794,-6735.874072,-1378.971896,-148.041188
1331.803106,-7105.977043,-459.657299,-1036.288319
1331.803417,-7772.162391,306.438199,-814.226536
1331.803729,-8216.285956,612.876398,-296.082377
1331.804040,-8882.471304,0.000000,814.226536
1331.804352,-9918.759623,-1072.533697,1184.329507
1331.804663,-10807.006753,-842.705048,1702.473667
1331.804974,-11251.130318,-153.219100,1850.514855
1331.805286,-11547.212695,1455.581446,1554.432478
1331.805597,-10881.027347,2681.334243,1332.370696
1331.805909,-9474.636058,2911.162892,1406.391290
1331.806220,-7772.162391,1608.800546,1332.370696
1331.806532,-7402.059420,0.000000,148.041188
1331.806843,-6809.894666,-153.219100,-592.164754
1331.807155,-5699.585753,766.095498,-1628.453072
1331.807466,-6883.915261,1072.533697,-1480.411884
1331.807778,-7402.059420,1072.533697,-1110.308913
1331.808089,-8956.491898,76.609550,-592.164754
1331.808401,-10658.965565,-766.095498,888.247130
1331.808712,-10436.903782,-1149.143247,1998.556043
1331.809024,-10658.965565,-2068.457845,2516.700203
1331.809335,-10807.006753,-1685.410096,2442.679609
1331.809646,-11621.233289,-766.095498,1702.473667
1331.809958,-10436.903782,842.705048,666.185348
1331.810269,-9252.574275,2987.772442,666.185348
1331.810581,-9104.533087,2834.553343,-0.000000
1331.810892,-8068.244768,1225.752797,148.041188
1331.811204,-7476.080014,-689.485948,-666.185348
1331.811515,-5625.565159,229.828649,-370.102971
1331.811827,-5773.606348,-153.219100,-1110.308913
1331.812138,-7254.018232,-766.095498,-888.247130
1331.812450,-8142.265362,-1685.410096,-0.000000
1331.812761,-8808.450710,-2145.067394,296.082377
1331.813073,-8512.368333,-2221.676944,1480.411884
1331.813384,-9770.718434,-2451.505594,2220.617826
1331.813696,-12139.377449,-2604.724693,2146.597232
1331.814007,-12435.459826,-1225.752797,2072.576638
1331.814318,-12139.377449,229.828649,1924.535449
1331.814630,-10510.924376,2068.457845,1998.556043
1331.814941,-9622.677246,1838.629195,1776.494261
1331.815253,-8586.388927,229.828649,962.267725
1331.815564,-5921.647536,-459.657299,592.164754
1331.815876,-4071.132681,-383.047749,-148.041188
1331.816187,-5477.523971,919.314598,-1628.453072
1331.816499,-6735.874072,1608.800546,-1628.453072
1331.816810,-8438.347739,1149.143247,-1480.411884
1331.817122,-10066.800811,536.266849,-0.000000
1331.817433,-10732.986159,0.000000,1184.329507
1331.817745,-11473.192101,-1149.143247,1554.432478
1331.818056,-11399.171507,-1915.238745,2368.659014
1331.818368,-10288.862594,-919.314598,2146.597232
1331.818679,-10066.800811,153.219100,1480.411884
1331.818990,-8882.471304,1532.190996,814.226536
1331.819302,-8586.388927,1149.143247,888.247130
1331.819613,-7772.162391,0.000000,814.226536
1331.819925,-7031.956449,-842.705048,-0.000000
1331.820236,-7179.997637,-1378.971896,-148.041188
1331.820548,-7402.059420,-1455.581446,-1184.329507
1331.820859,-7920.203579,-766.095498,-888.247130
1331.821171,-7624.121203,0.000000,-1036.288319
1331.821482,-8808.450710,-766.095498,-666.185348
1331.821794,-9400.615463,-1991.848295,148.041188
1331.822105,-9918.759623,-2757.943793,1998.556043
1331.822417,-10362.883188,-1838.629195,2146.597232
1331.822728,-11103.089130,-229.828649,2072.576638
1331.823040,-11029.068536,1608.800546,1702.473667
1331.823351,-11103.089130,2221.676944,1110.308913
1331.823662,-9770.718434,3830.477490,518.144159
1331.823974,-7920.203579,2145.067394,-0.000000
1331.824285,-7031.956449,1762.019645,-1110.308913
1331.824597,-5847.626942,1225.752797,-1480.411884
1331.824908,-6143.709319,689.485948,-2072.576638
1331.825220,-7402.059420,919.314598,-2294.638420
1331.825531,-8808.450710,1532.190996,-1998.556043
1331.825843,-9770.718434,1532.190996,-592.164754
1331.826154,-10510.924376,383.047749,592.164754
1331.826466,-11547.212695,-689.485948,1850.514855
1331.826777,-11177.109724,-1685.410096,2368.659014
1331.827089,-10584.944971,-1532.190996,2516.700203
1331.827400,-10066.800811,-689.485948,1850.514855
1331.827712,-9844.739029,689.485948,1258.350101
1331.828023,-9622.677246,1762.019645,-0.000000
1331.828334,-8438.347739,1608.800546,148.041188
1331.828646,-8142.265362,306.438199,-0.000000
1331.828957,-7550.100608,-459.657299,148.041188
1331.829269,-7179.997637,-995.924147,-0.000000
1331.829580,-7105.977043,-1149.143247,-518.144159
1331.829892,-6735.874072,-229.828649,148.041188
1331.830203,-6809.894666,0.000000,-222.061783
1331.830515,-7328.038826,-612.876398,-0.000000
1331.830826,-8512.368333,-766.095498,1184.329507
1331.831138,-9474.636058,-1685.410096,2368.659014
1331.831449,-10584.944971,-1225.752797,2294.638420
1331.831761,-11843.295072,612.876398,1628.453072
1331.832072,-12065.356855,2068.457845,1776.494261
1331.832384,-11399.171507,2221.676944,1332.370696
1331.832695,-9030.512492,1532.190996,1776.494261
1331.833006,-6735.874072,766.095498,962.267725
1331.833318,-5625.565159,-689.485948,-0.000000
1331.833629,-4885.359217,-1072.533697,-0.000000
1331.833941,-5699.585753,0.000000,-1332.370696
1331.834252,-6957.935855,1685.410096,-1628.453072
1331.834564,-7994.224174,1532.190996,-1184.329507
1331.834875,-9622.677246,-612.876398,-0.000000
1331.835187,-11103.089130,-1915.238745,1628.453072
1331.835498,-11917.315666,-2068.457845,2368.659014
1331.835810,-11991.336260,-1685.410096,2590.720797
1331.836121,-11399.171507,-536.266849,2294.638420
1331.836433,-10658.965565,0.000000,1998.556043
1331.836744,-9474.636058,919.314598,1332.370696
1331.837056,-8216.285956,1302.362347,740.205942
1331.837367,-7550.100608,459.657299,666.185348
1331.837678,-7105.977043,0.000000,518.144159
1331.837990,-7105.977043,-612.876398,-74.020594
1331.838301,-6587.832884,-1378.971896,-296.082377
1331.838613,-6735.874072,-1225.752797,-1110.308913
1331.838924,-7698.141797,-766.095498,-1036.288319
1331.839236,-8660.409521,-612.876398,-740.205942
1331.839547,-9252.574275,-1302.362347,148.041188
1331.839859,-9844.739029,-2451.505594,1258.350101
1331.840170,-11103.089130,-1838.629195,2072.576638
1331.840482,-11917.315666,-1685.410096,2220.617826
1331.840793,-11769.274478,995.924147,1480.411884
1331.841105,-10732.986159,2221.676944,1332.370696
1331.841416,-9104.533087,2528.115143,962.267725
1331.841728,-7994.224174,1762.019645,518.144159
1331.842039,-6661.853478,229.828649,148.041188
1331.842350,-5477.523971,-306.438199,-518.144159
1331.842662,-5107.421000,-919.314598,-1406.391290
1331.842973,-5921.647536,0.000000,-2664.741391
1331.843285,-7550.100608,766.095498,-2738.761985
1331.843596,-9474.636058,-1149.143247,-1406.391290
1331.843908,-11029.068536,-1685.410096,518.144159
1331.844219,-11991.336260,-2145.067394,2146.597232
1331.844531,-12509.480420,-2298.286494,2368.659014
1331.844842,-12953.603985,-2374.896044,2368.659014
1331.845154,-10881.027347,-536.266849,1480.411884
1331.845465,-8882.471304,1149.143247,592.164754
1331.845777,-6957.935855,2068.457845,148.041188
1331.846088,-6291.750507,1302.362347,-0.000000
1331.846400,-7624.121203,0.000000,-0.000000
1331.846711,-7328.038826,-383.047749,-370.102971
1331.847022,-7994.224174,-229.828649,-370.102971
1331.847334,-8142.265362,-229.828649,-592.164754
1331.847645,-9474.636058,612.876398,-740.205942
1331.847957,-9474.636058,536.266849,-444.123565
1331.848268,-9030.512492,0.000000,-148.041188
1331.848580,-9178.553681,-689.485948,592.164754
1331.848891,-10214.842000,-995.924147,1110.308913
1331.849203,-11029.068536,-383.047749,2146.597232
1331.849514,-11177.109724,536.266849,1628.453072
1331.849826,-10658.965565,1915.238745,1776.494261
1331.850137,-9696.697840,2757.943793,1850.514855
1331.850449,-8438.347739,1455.581446,1184.329507
1331.850760,-7698.141797,306.438199,666.185348
1331.851071,-6439.791695,-383.047749,148.041188
1331.851383,-5181.441594,-306.438199,-296.082377
1331.851694,-6143.709319,229.828649,-1332.370696
1331.852006,-7624.121203,842.705048,-1332.370696
1331.852317,-8808.450710,1608.800546,-888.247130
1331.852629,-9474.636058,842.705048,148.041188
1331.852940,-9918.759623,306.438199,1406.391290
1331.853252,-9992.780217,-1532.190996,2516.700203
1331.853563,-9178.553681,-2451.505594,2960.823768
1331.853875,-8808.450710,-2068.457845,2220.617826
1331.854186,-9548.656652,0.000000,1110.308913
1331.854497,-9474.636058,2374.896044,296.082377
1331.854809,-9400.615463,2145.067394,444.123565
1331.855120,-9252.574275,689.485948,814.226536
1331.855432,-8586.388927,-229.828649,888.247130
1331.855743,-8142.265362,-995.924147,814.226536
1331.856055,-7179.997637,-842.705048,370.102971
1331.856366,-6513.812290,-383.047749,-222.061783
1331.856678,-6735.874072,0.000000,-1258.350101
1331.856989,-7328.038826,153.219100,-888.247130
1331.857300,-7994.224174,-919.314598,-296.082377
1331.857612,-8956.491898,-995.924147,666.185348
1331.857923,-11325.150913,-1302.362347,1110.308913
1331.858235,-11917.315666,-1378.971896,1258.350101
1331.858546,-12361.439231,-1072.533697,1332.370696
1331.858858,-12435.459826,0.000000,1184.329507
1331.859169,-11251.130318,689.485948,1924.535449
1331.859481,-9622.677246,306.438199,962.267725
1331.859792,-8364.327145,-842.705048,296.082377
1331.860104,-6513.812290,-689.485948,296.082377
1331.860415,-5329.482782,-919.314598,-666.185348
1331.860726,-5477.523971,-229.828649,-1258.350101
1331.861038,-6143.709319,306.438199,-1332.370696
1331.861349,-8364.327145,0.000000,-962.267725
1331.861661,-10140.821405,-612.876398,370.102971
1331.861972,-11177.109724,-1149.143247,1480.411884
1331.862284,-11843.295072,-3524.039291,2294.638420
1331.862595,-11843.295072,-2221.676944,2368.659014
1331.862907,-11695.253884,-919.314598,1776.494261
1331.863218,-11103.089130,1608.800546,592.164754
1331.863530,-9770.718434,3140.991542,-0.000000
1331.863841,-8364.327145,2604.724693,1036.288319
1331.864152,-6513.812290,153.219100,1184.329507
1331.864464,-5403.503377,-766.095498,1036.288319
1331.864775,-5477.523971,-1302.362347,370.102971
1331.865087,-5181.441594,-229.828649,-1258.350101
1331.865398,-5773.606348,229.828649,-1776.494261
1331.865710,-7550.100608,-383.047749,-1184.329507
1331.866021,-8808.450710,-1608.800546,-888.247130
1331.866333,-9696.697840,-2451.505594,666.185348
1331.866644,-11251.130318,-2221.676944,2146.597232
1331.866955,-12805.562797,-2298.286494,2886.803174
1331.867267,-12361.439231,-766.095498,2442.679609
1331.867578,-12731.542202,1762.019645,1480.411884
1331.867890,-10881.027347,2528.115143,1036.288319
1331.868201,-7846.182985,3064.381992,740.205942
1331.868513,-6587.832884,1915.238745,-222.061783
1331.868824,-5477.523971,229.828649,-740.205942
1331.869136,-5699.585753,0.000000,-1110.308913
1331.869447,-5773.606348,1532.190996,-1258.350101
1331.869759,-7476.080014,1608.800546,-1110.308913
1331.870070,-9178.553681,229.828649,-74.020594
1331.870381,-9844.739029,-536.266849,814.226536
1331.870693,-10658.965565,-383.047749,962.267725
1331.871004,-10436.903782,-459.657299,888.247130
1331.871316,-10807.006753,-612.876398,1184.329507
1331.871627,-10955.047942,0.000000,1036.288319
1331.871939,-9844.739029,1685.410096,-0.000000
1331.872250,-9252.574275,3830.477490,-0.000000
1331.872562,-8956.491898,2911.162892,222.061783
1331.872873,-8808.450710,689.485948,1110.308913
1331.873184,-8068.244768,-229.828649,740.205942
1331.873496,-7624.121203,-153.219100,296.082377
1331.873807,-7624.121203,153.219100,-370.102971
1331.874119,-7846.182985,229.828649,-740.205942
1331.874430,-8068.244768,-229.828649,-296.082377
1331.874742,-7698.141797,-842.705048,-370.102971
1331.875053,-8068.244768,-1762.019645,666.185348
1331.875365,-9844.739029,-2298.286494,1554.432478
1331.875676,-10881.027347,-2221.676944,2072.576638
1331.875988,-11325.150913,-1838.629195,1924.535449
1331.876299,-10732.986159,-153.219100,1628.453072
1331.876610,-9992.780217,1532.190996,1110.308913
1331.876922,-9770.718434,1455.581446,814.226536
1331.877233,-9178.553681,459.657299,1036.288319
1331.877545,-7920.203579,0.000000,1406.391290
1331.877856,-6291.750507,-459.657299,1332.370696
1331.878168,-6069.688724,-842.705048,222.061783
1331.878479,-6661.853478,-459.657299,-370.102971
1331.878791,-6513.812290,689.485948,-888.247130
1331.879102,-7846.182985,1302.362347,-888.247130
1331.879413,-9474.636058,459.657299,-222.061783
1331.879725,-10362.883188,76.609550,740.205942
1331.880036,-11547.212695,-1455.581446,1480.411884
1331.880348,-10807.006753,-1991.848295,1924.535449
1331.880659,-10510.924376,-1225.752797,1036.288319
1331.880971,-10288.862594,383.047749,888.247130
1331.881282,-9696.697840,1685.410096,962.267725
1331.881594,-9474.636058,459.657299,1480.411884
1331.881905,-8512.368333,-766.095498,2368.659014
1331.882217,-7920.203579,-1378.971896,1332.370696
1331.882528,-7328.038826,-1455.581446,888.247130
1331.882839,-6217.729913,-383.047749,-518.144159
1331.883151,-5921.647536,76.609550,-1554.432478
1331.883462,-6957.935855,-153.219100,-1480.411884
1331.883774,-8586.388927,-1149.143247,-1184.329507
1331.884085,-9992.780217,-2604.724693,740.205942
1331.884397,-11029.068536,-1915.238745,2294.638420
1331.884708,-12361.439231,-2145.067394,2516.700203
1331.885020,-12435.459826,-995.924147,2146.597232
1331.885331,-11695.253884,153.219100,1850.514855
1331.885642,-10066.800811,1455.581446,1924.535449
1331.885954,-8142.265362,1685.410096,1776.494261
1331.886265,-7179.997637,689.485948,1110.308913
1331.886577,-5699.585753,0.000000,888.247130
1331.886888,-5403.503377,-153.219100,-518.144159
1331.887200,-5477.523971,383.047749,-1702.473667
1331.887511,-5699.585753,1532.190996,-2294.638420
1331.887823,-7105.977043,1455.581446,-1850.514855
1331.888134,-9178.553681,76.609550,-1184.329507
1331.888446,-10436.903782,0.000000,370.102971
1331.888757,-11695.253884,-1149.143247,1258.350101
1331.889068,-11917.315666,-919.314598,2146.597232
1331.889380,-11769.274478,-689.485948,1924.535449
1331.889691,-11103.089130,153.219100,1184.329507
1331.890003,-10362.883188,1685.410096,370.102971
1331.890314,-8586.388927,1838.629195,444.123565
1331.890626,-8068.244768,612.876398,592.164754
1331.890937,-7328.038826,0.000000,444.123565
1331.891249,-7846.182985,-1225.752797,-148.041188
1331.891560,-7550.100608,-1072.533697,-1480.411884
1331.891871,-7105.977043,0.000000,-1184.329507
1331.892183,-7550.100608,919.314598,-1628.453072
1331.892494,-8438.347739,229.828649,-1554.432478
1331.892806,-9474.636058,-229.828649,-74.020594
1331.893117,-10658.965565,-1302.362347,1184.329507
1331.893429,-11843.295072,-919.314598,2368.659014
1331.893740,-11991.336260,-766.095498,2146.597232
1331.894052,-12361.439231,1072.533697,1480.411884
1331.894363,-10732.986159,2145.067394,1258.350101
1331.894675,-9326.594869,2451.505594,296.082377
1331.894986,-7476.080014,2145.067394,-148.041188
1331.895297,-7179.997637,1302.362347,-370.102971
1331.895609,-6661.853478,306.438199,222.061783
1331.895920,-7031.956449,-459.657299,-592.164754
1331.896232,-7031.956449,229.828649,-74.020594
1331.896543,-7402.059420,1915.238745,-1036.288319
1331.896855,-8290.306550,995.924147,-592.164754
1331.897166,-8956.491898,536.266849,296.082377
1331.897478,-9030.512492,-306.438199,1258.350101
1331.897789,-9548.656652,-1685.410096,1924.535449
1331.898100,-9622.677246,-1838.629195,2368.659014
1331.898412,-10140.821405,-229.828649,1702.473667
1331.898723,-10288.862594,766.095498,888.247130
1331.899035,-9770.718434,2451.505594,814.226536
1331.899346,-9622.677246,1532.190996,222.061783
1331.899658,-8734.430116,229.828649,1628.453072
1331.899969,-7328.038826,-995.924147,1480.411884
1331.900281,-7031.956449,-1915.238745,296.082377
1331.900592,-7031.956449,-1149.143247,-0.000000
1331.900904,-6513.812290,459.657299,-888.247130
1331.901215,-6069.688724,536.266849,-1036.288319
1331.901526,-7624.121203,-536.266849,-370.102971
1331.901838,-8882.471304,-1915.238745,1036.288319
1331.902149,-10436.903782,-2757.943793,2146.597232
1331.902461,-11547.212695,-1762.019645,2590.720797
1331.902772,-12065.356855,-766.095498,2368.659014
1331.903084,-11473.192101,0.000000,1332.370696
1331.903395,-10436.903782,612.876398,1332.370696
1331.903707,-9178.553681,76.609550,962.267725
1331.904018,-9252.574275,-383.047749,592.164754
1331.904329,-8216.285956,306.438199,592.164754
1331.904641,-7105.977043,383.047749,296.082377
1331.904952,-7179.997637,-153.219100,-592.164754
1331.905264,-6365.771101,306.438199,-888.247130
1331.905575,-6513.812290,612.876398,-1924.535449
1331.905887,-7328.038826,0.000000,-1036.288319
1331.906198,-9400.615463,-1225.752797,-0.000000
1331.906510,-10436.903782,-2374.896044,592.164754
1331.906821,-11325.150913,-2757.943793,1924.535449
1331.907133,-10881.027347,-2451.505594,2146.597232
1331.907444,-11251.130318,-1685.410096,1480.411884
1331.907755,-10807.006753,76.609550,814.226536
1331.908067,-10066.800811,1608.800546,518.144159
1331.908378,-8586.388927,229.828649,1258.350101
1331.908690,-7920.203579,-689.485948,1480.411884
1331.909001,-7105.977043,-1762.019645,1406.391290
1331.909313,-5995.668130,-1608.800546,-0.000000
1331.909624,-5329.482782,-383.047749,-1036.288319
1331.909936,-5477.523971,766.095498,-1776.494261
1331.910247,-7031.956449,612.876398,-1850.514855
1331.910558,-8808.450710,76.609550,-740.205942
1331.910870,-10510.924376,-1225.752797,888.247130
1331.911181,-12509.480420,-1455.581446,2368.659014
1331.911493,-14063.912898,-229.828649,2368.659014
1331.911804,-13101.645173,1149.143247,1776.494261
1331.912116,-10955.047942,1838.629195,814.226536
1331.912427,-8660.409521,1991.848295,962.267725
1331.912739,-6143.709319,1838.629195,666.185348
1331.913050,-5477.523971,1762.019645,-0.000000
1331.913362,-5921.647536,612.876398,-444.123565
1331.913673,-6365.771101,153.219100,-518.144159
1331.913984,-7254.018232,1149.143247,-888.247130
1331.914296,-8068.244768,1225.752797,-1036.288319
1331.914607,-9400.615463,689.485948,-740.205942
1331.914919,-10066.800811,-153.219100,-222.061783
1331.915230,-9844.739029,0.000000,740.205942
1331.915542,-10732.986159,-2374.896044,1184.329507
1331.915853,-10881.027347,-1455.581446,2220.617826
1331.916165,-11695.253884,-842.705048,1924.535449
1331.916476,-10584.944971,995.924147,1332.370696
1331.916787,-9992.780217,2604.724693,1184.329507
1331.917099,-8660.409521,2681.334243,1036.288319
1331.917410,-7254.018232,766.095498,1184.329507
1331.917722,-5551.544565,-306.438199,444.123565
1331.918033,-5403.503377,-766.095498,-592.164754
1331.918345,-5255.462188,-229.828649,-1184.329507
1331.918656,-6143.709319,842.705048,-1480.411884
1331.918968,-7550.100608,919.314598,-1036.288319
1331.919279,-8364.327145,0.000000,-74.020594
1331.919591,-9474.636058,-995.924147,1036.288319
1331.919902,-11251.130318,-1838.629195,2220.617826
1331.920213,-11695.253884,-2221.676944,2516.700203
1331.920525,-11621.233289,-1225.752797,1998.556043
1331.920836,-11177.109724,383.047749,1628.453072
1331.921148,-10362.883188,1072.533697,814.226536
1331.921459,-9400.615463,459.657299,1184.329507
1331.921771,-8586.388927,-306.438199,814.226536
1331.922082,-7624.121203,-536.266849,740.205942
1331.922394,-6661.853478,-612.876398,222.061783
1331.922705,-7105.977043,-1455.581446,-148.041188
1331.923016,-7476.080014,-383.047749,-1036.288319
1331.923328,-7328.038826,-306.438199,-814.226536
1331.923639,-8364.327145,-536.266849,-444.123565
1331.923951,-9474.636058,-1225.752797,666.185348
1331.924262,-10732.986159,-1455.581446,1480.411884
1331.924574,-11695.253884,-1838.629195,1850.514855
1331.924885,-11251.130318,-1149.143247,1998.556043
1331.925197,-10881.027347,229.828649,1480.411884
1331.925508,-10584.944971,1685.410096,666.185348
1331.925820,-8956.491898,1608.800546,888.247130
1331.926131,-7994.224174,306.438199,1110.308913
1331.926442,-7624.121203,-842.705048,962.267725
1331.926754,-6883.915261,-842.705048,814.226536
1331.927065,-6883.915261,-1149.143247,-518.144159
1331.927377,-6735.874072,-612.876398,-1184.329507
1331.927688,-6957.935855,0.000000,-962.267725
1331.928000,-8290.306550,0.000000,-888.247130
1331.928311,-9252.574275,-229.828649,-74.020594
1331.928623,-9844.739029,-1149.143247,1406.391290
1331.928934,-10436.903782,-1991.848295,2368.659014
1331.929245,-11251.130318,-1991.848295,2220.617826
1331.929557,-11029.068536,0.000000,1628.453072
1331.929868,-9474.636058,1225.752797,1184.329507
1331.930180,-8734.430116,1455.581446,148.041188
1331.930491,-7698.141797,1608.800546,-0.000000
1331.930803,-7624.121203,229.828649,-0.000000
1331.931114,-7254.018232,-612.876398,-74.020594
1331.931426,-6513.812290,-306.438199,222.061783
1331.931737,-6957.935855,0.000000,-888.247130
1331.932049,-7550.100608,689.485948,-1480.411884
1331.932360,-8142.265362,383.047749,-740.205942
1331.932671,-8734.430116,-153.219100,-962.267725
1331.932983,-8882.471304,-536.266849,444.123565
1331.933294,-10955.047942,-995.924147,1184.329507
1331.933606,-11473.192101,-1072.533697,1702.473667
1331.933917,-11843.295072,-612.876398,1776.494261
1331.934229,-11325.150913,689.485948,1702.473667
1331.934540,-10881.027347,2528.115143,666.185348
1331.934852,-10288.862594,1838.629195,444.123565
1331.935163,-8586.388927,229.828649,518.144159
1331.935474,-7328.038826,229.828649,-888.247130
1331.935786,-6291.750507,-153.219100,-1184.329507
1331.936097,-6217.729913,-153.219100,-1332.370696
1331.936409,-6439.791695,0.000000,-1184.329507
1331.936720,-8068.244768,612.876398,-814.226536
1331.937032,-8808.450710,0.000000,-0.000000
1331.937343,-9770.718434,0.000000,888.247130
1331.937655,-10658.965565,-689.485948,2072.576638
1331.937966,-11177.109724,-1455.581446,2368.659014
1331.938278,-11917.315666,-383.047749,1776.494261
1331.938589,-11103.089130,1225.752797,1628.453072
1331.938900,-10584.944971,1991.848295,1110.308913
1331.939212,-9474.636058,1378.971896,1258.350101
1331.939523,-9030.512492,383.047749,740.205942
1331.939835,-7402.059420,306.438199,1184.329507
1331.940146,-5995.668130,0.000000,148.041188
1331.940458,-5699.585753,-229.828649,-666.185348
1331.940769,-6439.791695,459.657299,-814.226536
1331.941081,-7254.018232,919.314598,-518.144159
1331.941392,-8290.306550,306.438199,-74.020594
1331.941703,-8512.368333,-536.266849,1036.288319
1331.942015,-8956.491898,-689.485948,1702.473667
1331.942326,-10584.944971,-1225.752797,1628.453072
1331.942638,-10807.006753,-1072.533697,2368.659014
1331.942949,-10362.883188,153.219100,1628.453072
1331.943261,-10658.965565,2221.676944,1332.370696
1331.943572,-9622.677246,1991.848295,1110.308913
1331.943884,-8364.327145,153.219100,592.164754
1331.944195,-7402.059420,-306.438199,444.123565
1331.944507,-5773.606348,-1225.752797,592.164754
1331.944818,-5921.647536,-612.876398,-814.226536
1331.945129,-6809.894666,-995.924147,-1258.350101
1331.945441,-6957.935855,-229.828649,-518.144159
1331.945752,-8364.327145,-919.314598,-592.164754
1331.946064,-9252.574275,-1225.752797,1036.288319
1331.946375,-10881.027347,-1378.971896,1554.432478
1331.946687,-11473.192101,-1915.238745,1776.494261
1331.946998,-11621.233289,-995.924147,1776.494261
1331.947310,-11769.274478,76.609550,1406.391290
1331.947621,-11103.089130,1532.190996,740.205942
1331.947932,-10436.903782,1915.238745,592.164754
1331.948244,-9104.533087,919.314598,296.082377
1331.948555,-7772.162391,-153.219100,-0.000000
1331.948867,-6735.874072,0.000000,-222.061783
1331.949178,-5995.668130,-459.657299,-296.082377
1331.949490,-7105.977043,-995.924147,-1332.370696
1331.949801,-7994.224174,459.657299,-1184.329507
1331.950113,-8364.327145,0.000000,-370.102971
1331.950424,-9400.615463,-1225.752797,518.144159
1331.950735,-9844.739029,-2145.067394,1554.432478
1331.951047,-11177.109724,-2451.505594,1850.514855
1331.951358,-10955.047942,-1685.410096,1776.494261
1331.951670,-10362.883188,-689.485948,1702.473667
1331.951981,-10732.986159,766.095498,740.205942
1331.952292,-10214.842000,2298.286494,592.164754
1331.952604,-8364.327145,1685.410096,-0.000000
1331.952915,-7031.956449,-153.219100,370.102971
1331.953227,-5699.585753,-1072.533697,370.102971
1331.953538,-5921.647536,-1685.410096,-518.144159
1331.953850,-6143.709319,-1838.629195,-888.247130
1331.954161,-6291.750507,-919.314598,-888.247130
1331.954472,-7772.162391,-1532.190996,-666.185348
1331.954784,-8882.471304,-1149.143247,-0.000000
1331.955095,-10881.027347,-1685.410096,814.226536
1331.955407,-10732.986159,-2451.505594,2368.659014
1331.955718,-11325.150913,-1991.848295,2368.659014
1331.956029,-11251.130318,-459.657299,1480.411884
1331.956341,-10658.965565,1685.410096,666.185348
1331.956652,-10362.883188,1302.362347,888.247130
1331.956964,-8956.491898,2451.505594,666.185348
1331.957275,-8882.471304,1378.971896,444.123565
1331.957587,-8660.409521,919.314598,-0.000000
1331.957898,-8290.306550,536.266849,-74.020594
1331.958209,-8216.285956,1225.752797,-666.185348
1331.958521,-7920.203579,1608.800546,-814.226536
1331.958832,-7624.121203,2068.457845,-592.164754
1331.959144,-8290.306550,995.924147,-740.205942
1331.959455,-8438.347739,0.000000,518.144159
1331.959766,-8956.491898,153.219100,1110.308913
1331.960078,-9844.739029,76.609550,1628.453072
1331.960389,-10140.821405,0.000000,1924.535449
1331.960701,-10362.883188,1072.533697,1554.432478
1331.961012,-11251.130318,2068.457845,740.205942
1331.961324,-9622.677246,2528.115143,-0.000000
1331.961635,-8660.409521,2298.286494,148.041188
1331.961946,-7550.100608,229.828649,296.082377
1331.962258,-5921.647536,-306.438199,296.082377
1331.962569,-5995.668130,-1532.190996,-74.020594
1331.962881,-6069.688724,-1072.533697,-74.020594
1331.963192,-6735.874072,76.609550,-0.000000
1331.963503,-7402.059420,153.219100,148.041188
1331.963815,-8512.368333,-306.438199,740.205942
1331.964126,-9548.656652,-1532.190996,1480.411884
1331.964438,-10214.842000,-2145.067394,2146.597232
1331.964749,-10658.965565,-1072.533697,1924.535449
1331.965061,-10732.986159,306.438199,1184.329507
1331.965372,-10362.883188,1532.190996,1184.329507
1331.965683,-10584.944971,1685.410096,740.205942
1331.965995,-10140.821405,1608.800546,370.102971
1331.966306,-7772.162391,1455.581446,444.123565
1331.966618,-6735.874072,76.609550,444.123565
1331.966929,-6069.688724,-689.485948,296.082377
1331.967240,-7105.977043,-536.266849,-962.267725
1331.967552,-7698.141797,-229.828649,-888.247130
1331.967863,-7772.162391,0.000000,-222.061783
1331.968175,-9326.594869,-1225.752797,148.041188
1331.968486,-10288.862594,-2681.334243,888.247130
1331.968798,-10658.965565,-2834.553343,1554.432478
1331.969109,-10881.027347,-3983.696590,1628.453072
1331.969420,-10436.903782,-3370.820191,1776.494261
1331.969732,-10807.006753,-2374.896044,1258.350101
1331.970043,-10955.047942,-1455.581446,666.185348
1331.970355,-9992.780217,-1455.581446,814.226536
1331.970666,-7994.224174,-2068.457845,740.205942
1331.970977,-5255.462188,-2681.334243,962.267725
1331.971289,-5255.462188,-4673.182538,222.061783
1331.971600,-5477.523971,-4673.182538,-74.020594
1331.971912,-6587.832884,-3294.210641,-592.164754
1331.972223,-8216.285956,-1685.410096,-592.164754
1331.972535,-9770.718434,-1378.971896,-0.000000
1331.972846,-10955.047942,-3217.601092,962.267725
1331.973157,-10288.862594,-3983.696590,1332.370696
1331.973469,-9474.636058,-4443.353888,1776.494261
1331.973780,-9326.594869,-3140.991542,1184.329507
1331.974092,-9770.718434,-1762.019645,592.164754
1331.974403,-10140.821405,-1072.533697,-0.000000
1331.974714,-10510.924376,-766.095498,-296.082377
1331.975026,-9770.718434,-383.047749,-74.020594
1331.975337,-9474.636058,-459.657299,74.020594
1331.975649,-7698.141797,-1762.019645,148.041188
1331.975960,-6143.709319,-3677.258390,222.061783
1331.976272,-5995.668130,-4596.572988,-370.102971
1331.976583,-7105.977043,-4443.353888,-888.247130
1331.976894,-8290.306550,-4060.306139,-296.082377
1331.977206,-9622.677246,-3677.258390,-0.000000
1331.977517,-11103.089130,-3677.258390,518.144159
1331.977829,-11547.212695,-4060.306139,962.267725
1331.978140,-10584.944971,-3830.477490,1406.391290
1331.978451,-9252.574275,-3600.648841,1184.329507
1331.978763,-8364.327145,-2451.505594,296.082377
1331.979074,-8808.450710,-2757.943793,-222.061783
1331.979386,-9252.574275,-2298.286494,-888.247130
1331.979697,-9326.594869,-1149.143247,-0.000000
1331.980009,-9400.615463,-383.047749,370.102971
1331.980320,-9400.615463,-842.705048,592.164754
1331.980631,-9326.594869,-1302.362347,1258.350101
1331.980943,-8438.347739,-2757.943793,1332.370696
1331.981254,-6883.915261,-2604.724693,1184.329507
1331.981566,-6291.750507,-3447.429741,888.247130
1331.981877,-6069.688724,-4903.011187,444.123565
1331.982188,-7254.018232,-6052.154434,592.164754
1331.982500,-8438.347739,-5898.935335,666.185348
1331.982811,-9918.759623,-4596.572988,296.082377
1331.983123,-11325.150913,-2681.334243,296.082377
1331.983434,-12139.377449,-1838.629195,518.144159
1331.983746,-12361.439231,-1608.800546,888.247130
1331.984057,-9844.739029,-1072.533697,592.164754
1331.984368,-7476.080014,-306.438199,222.061783
1331.984680,-6217.729913,-306.438199,444.123565
1331.984991,-4959.379811,-919.314598,296.082377
1331.985303,-4515.256246,-1149.143247,370.102971
1331.985614,-5921.647536,-3600.648841,222.061783
1331.985925,-7624.121203,-4136.915689,1110.308913
1331.986237,-9326.594869,-4903.011187,1702.473667
1331.986548,-11251.130318,-5515.887586,1332.370696
1331.986860,-11917.315666,-5822.325785,1258.350101
1331.987171,-12435.459826,-5132.839837,592.164754
1331.987483,-12213.398043,-3140.991542,592.164754
1331.987794,-10658.965565,-1991.848295,518.144159
1331.988105,-9326.594869,-1302.362347,296.082377
1331.988417,-7698.141797,-1838.629195,740.205942
1331.988728,-6365.771101,-1685.410096,1110.308913
1331.989040,-5181.441594,-1762.019645,1258.350101
1331.989351,-5699.585753,-3217.601092,1036.288319
1331.989662,-6809.894666,-3830.477490,740.205942
1331.989974,-8586.388927,-3600.648841,-222.061783
1331.990285,-9622.677246,-2987.772442,-370.102971
1331.990597,-10732.986159,-3140.991542,-518.144159
1331.990908,-11251.130318,-3677.258390,-296.082377
1331.991220,-11399.171507,-4673.182538,592.164754
1331.991531,-10658.965565,-4749.792088,1406.391290
1331.991842,-9548.656652,-4366.744339,1850.514855
1331.992154,-8290.306550,-3217.601092,1776.494261
1331.992465,-6587.832884,-2298.286494,962.267725
1331.992777,-6735.874072,-1532.190996,222.061783
1331.993088,-7031.956449,-2834.553343,-74.020594
1331.993399,-6587.832884,-1225.752797,-0.000000
1331.993711,-7698.141797,-1915.238745,-74.020594
1331.994022,-9030.512492,-2911.162892,-148.041188
1331.994334,-10066.800811,-3907.087040,-0.000000
1331.994645,-10658.965565,-4060.306139,-0.000000
1331.994957,-10732.986159,-2987.772442,-74.020594
1331.995268,-8882.471304,-3217.601092,666.185348
1331.995579,-10584.944971,-4673.182538,-0.000000
1331.995891,-8586.388927,-3600.648841,1554.432478
1331.996202,-7624.121203,-3370.820191,-0.000000
1331.996514,-7550.100608,-3753.867940,1406.391290
1331.996825,-9474.636058,-4443.353888,1110.308913
1331.997136,-10807.006753,-3600.648841,1702.473667
1331.997448,-9178.553681,-1762.019645,1332.370696
1331.997759,-8882.471304,-919.314598,1702.473667
1331.998071,-8660.409521,-2221.676944,1258.350101
1331.998382,-8364.327145,-3447.429741,888.247130
1331.998694,-8142.265362,-3294.210641,1184.329507
1331.999005,-7920.203579,-2068.457845,1332.370696
1331.999316,-10510.924376,-536.266849,1850.514855
1331.999628,-12287.418637,306.438199,1776.494261
1331.999939,-11103.089130,76.609550,2590.720797
1332.000251,-10066.800811,-1762.019645,2368.659014
1332.000562,-7105.977043,-459.657299,2738.761985
1332.000873,-7550.100608,-459.657299,1628.453072
1332.001185,-7105.977043,-2298.286494,2368.659014
1332.001496,-7846.182985,-3753.867940,2886.803174
1332.001808,-8142.265362,-2834.553343,3478.967927
1332.002119,-8808.450710,-229.828649,4885.359217
1332.002431,-11917.315666,-1608.800546,4441.235652
1332.002742,-10807.006753,-1608.800546,4959.379811
1332.003053,-8290.306550,-536.266849,3478.967927
1332.003365,-7772.162391,766.095498,3701.029710
1332.003676,-6883.915261,766.095498,2960.823768
1332.003988,-7698.141797,-459.657299,2368.659014
1332.004299,-7624.121203,459.657299,3627.009116
1332.004610,-6365.771101,689.485948,4367.215058
1332.004922,-10140.821405,-1378.971896,2812.782580
1332.005233,-9918.759623,383.047749,6291.750507
1332.005545,-10140.821405,-842.705048,5699.585753
1332.005856,-8290.306550,-1455.581446,5847.626942
1332.006168,-7772.162391,-1149.143247,4811.338623
1332.006479,-8660.409521,0.000000,4367.215058
1332.006790,-7254.018232,-306.438199,4145.153275
1332.007102,-6809.894666,766.095498,3330.926739
1332.007413,-6365.771101,536.266849,4663.297435
1332.007725,-9030.512492,1149.143247,4071.132681
1332.008036,-9844.739029,919.314598,5699.585753
1332.008347,-8734.430116,0.000000,5477.523971
1332.008659,-7402.059420,-766.095498,5403.503377
1332.008970,-7624.121203,-766.095498,4515.256246
1332.009282,-7994.224174,-1838.629195,4663.297435
1332.009593,-8290.306550,-1915.238745,3849.070898
1332.009905,-8290.306550,459.657299,4737.318029
1332.010216,-9030.512492,1302.362347,3701.029710
1332.010527,-10362.883188,842.705048,4293.194464
1332.010839,-11695.253884,919.314598,4515.256246
1332.011150,-9992.780217,1608.800546,4885.359217
1332.011462,-8660.409521,1378.971896,4293.194464
1332.011773,-7254.018232,306.438199,4219.173869
1332.012084,-6735.874072,229.828649,3034.844362
1332.012396,-6143.709319,0.000000,2516.700203
1332.012707,-5403.503377,229.828649,2368.659014
1332.013019,-7031.956449,-689.485948,2368.659014
1332.013330,-8734.430116,-1072.533697,3182.885551
1332.013642,-9992.780217,-1608.800546,3256.906145
1332.013953,-10584.944971,-1762.019645,3627.009116
1332.014264,-10881.027347,-1072.533697,4145.153275
1332.014576,-11769.274478,-229.828649,3923.091493
1332.014887,-11251.130318,0.000000,2664.741391
1332.015199,-9918.759623,306.438199,1998.556043
1332.015510,-8290.306550,1149.143247,1998.556043
1332.015821,-8438.347739,536.266849,1998.556043
1332.016133,-9326.594869,-383.047749,2368.659014
1332.016444,-9030.512492,-1149.143247,3108.864956
1332.016756,-9252.574275,-459.657299,3478.967927
1332.017067,-8364.327145,-536.266849,3478.967927
1332.017379,-8216.285956,-612.876398,2442.679609
1332.017690,-7846.182985,-383.047749,1998.556043
1332.018001,-6883.915261,383.047749,1258.350101
1332.018313,-7550.100608,766.095498,370.102971
1332.018624,-8364.327145,1072.533697,814.226536
1332.018936,-9770.718434,1455.581446,1480.411884
1332.019247,-11695.253884,612.876398,2368.659014
1332.019558,-12509.480420,459.657299,4071.132681
1332.019870,-12139.377449,-153.219100,4145.153275
1332.020181,-11843.295072,-612.876398,4589.276840
1332.020493,-9474.636058,-1149.143247,3923.091493
1332.020804,-5773.606348,-2145.067394,2590.720797
1332.021116,-3256.906145,-2221.676944,1554.432478
1332.021427,-3108.864956,-1608.800546,444.123565
1332.021738,-5329.482782,-1608.800546,1110.308913
1332.022050,-8142.265362,-1149.143247,2664.741391
1332.022361,-11769.274478,766.095498,4515.256246
1332.022673,-15026.180623,919.314598,6439.791695
1332.022984,-15914.427753,229.828649,7105.977043
1332.023295,-13027.624579,-383.047749,6217.729913
1332.023607,-8068.244768,383.047749,4293.194464
1332.023918,-3849.070898,1225.752797,1702.473667
1332.024230,-2146.597232,995.924147,148.041188
1332.024541,-3034.844362,1149.143247,-740.205942
1332.024853,-5477.523971,1532.190996,1036.288319
1332.025164,-9178.553681,1915.238745,2738.761985
1332.025475,-12805.562797,1685.410096,4441.235652
1332.025787,-14878.139434,842.705048,6143.709319
1332.026098,-13767.830521,-459.657299,5995.668130
1332.026410,-10362.883188,-1762.019645,4811.338623
1332.026721,-7254.018232,-2145.067394,3256.906145
1332.027032,-4515.256246,0.000000,2368.659014
1332.027344,-3997.112087,-76.609550,1924.535449
1332.027655,-5181.441594,-306.438199,2960.823768
1332.027967,-8216.285956,459.657299,4367.215058
1332.028278,-10732.986159,1149.143247,5255.462188
1332.028590,-11103.089130,1455.581446,5181.441594
1332.028901,-9548.656652,2068.457845,4071.132681
1332.029212,-7402.059420,2451.505594,1554.432478
1332.029524,-5329.482782,1762.019645,-740.205942
1332.029835,-4811.338623,1378.971896,-1628.453072
1332.030147,-6513.812290,1532.190996,-1628.453072
1332.030458,-9400.615463,1225.752797,148.041188
1332.030769,-11843.295072,-306.438199,2368.659014
1332.031081,-13101.645173,-1685.410096,4589.276840
1332.031392,-12953.603985,-3064.381992,5477.523971
1332.031704,-9696.697840,-3983.696590,5107.421000
1332.032015,-6365.771101,-2757.943793,3478.967927
1332.032327,-5847.626942,-1532.190996,1036.288319
1332.032638,-6069.688724,0.000000,-370.102971
1332.032949,-8068.244768,1378.971896,-962.267725
1332.033261,-9474.636058,2834.553343,-592.164754
1332.033572,-10881.027347,2604.724693,444.123565
1332.033884,-11473.192101,2068.457845,592.164754
1332.034195,-10658.965565,1685.410096,666.185348
1332.034506,-8586.388927,536.266849,296.082377
1332.034818,-7105.977043,-306.438199,148.041188
1332.035129,-7254.018232,-383.047749,-444.123565
1332.035441,-8364.327145,-383.047749,-296.082377
1332.035752,-9548.656652,-383.047749,-740.205942
1332.036064,-10658.965565,-689.485948,-0.000000
1332.036375,-11177.109724,76.609550,-0.000000
1332.036686,-10436.903782,-536.266849,1554.432478
1332.036998,-10436.903782,-766.095498,2146.597232
1332.037309,-9844.739029,-1302.362347,3108.864956
1332.037621,-9252.574275,-1608.800546,2146.597232
1332.037932,-7476.080014,-612.876398,1036.288319
1332.038243,-5995.668130,612.876398,-740.205942
1332.038555,-5107.421000,842.705048,-1702.473667
1332.038866,-5551.544565,766.095498,-1554.432478
1332.039178,-7402.059420,306.438199,-962.267725
