#time,accel_x,accel_y,accel_z
1476.031754,-8882.471304,0.000000,444.123565
1476.032066,-9030.512492,0.000000,444.123565
1476.032377,-8808.450710,76.609550,444.123565
1476.032688,-8882.471304,153.219100,518.144159
1476.033000,-8956.491898,536.266849,370.102971
1476.033311,-8808.450710,0.000000,222.061783
1476.033623,-8956.491898,0.000000,518.144159
1476.033934,-8882.471304,0.000000,592.164754
1476.034245,-8808.450710,-153.219100,296.082377
1476.034557,-9030.512492,153.219100,370.102971
1476.034868,-9178.553681,153.219100,592.164754
1476.035180,-8660.409521,0.000000,666.185348
1476.035491,-8734.430116,-459.657299,740.205942
1476.035802,-8882.471304,0.000000,592.164754
1476.036114,-9104.533087,-306.438199,444.123565
1476.036425,-8808.450710,-153.219100,592.164754
1476.036736,-8882.471304,-153.219100,666.185348
1476.037048,-8734.430116,-306.438199,592.164754
1476.037359,-9326.594869,76.609550,296.082377
1476.037671,-8882.471304,0.000000,444.123565
1476.037982,-8290.306550,76.609550,370.102971
1476.038293,-8808.450710,76.609550,518.144159
1476.038605,-8882.471304,0.000000,518.144159
1476.038916,-8956.491898,-153.219100,370.102971
1476.039228,-9030.512492,76.609550,592.164754
1476.039539,-8882.471304,0.000000,518.144159
1476.039850,-9104.533087,-153.219100,592.164754
1476.040162,-9030.512492,-306.438199,962.267725
1476.040473,-8956.491898,76.609550,444.123565
1476.040785,-8956.491898,76.609550,370.102971
1476.041096,-8808.450710,-153.219100,666.185348
1476.041407,-9030.512492,-153.219100,592.164754
1476.041719,-9104.533087,-153.219100,592.164754
1476.042030,-8660.409521,-229.828649,444.123565
1476.042342,-8956.491898,383.047749,666.185348
1476.042653,-8956.491898,0.000000,592.164754
1476.042964,-8882.471304,-459.657299,592.164754
1476.043276,-9030.512492,-153.219100,370.102971
1476.043587,-9030.512492,-153.219100,518.144159
1476.043899,-9178.553681,0.000000,444.123565
1476.044210,-9030.512492,-153.219100,444.123565
1476.044521,-8882.471304,-153.219100,518.144159
1476.044833,-8364.327145,153.219100,296.082377
1476.045144,-8290.306550,-229.828649,296.082377
1476.045456,-8734.430116,-229.828649,444.123565
1476.045767,-8956.491898,-76.609550,370.102971
1476.046078,-8882.471304,0.000000,666.185348
1476.046390,-8882.471304,0.000000,592.164754
1476.046701,-9178.553681,459.657299,814.226536
1476.047013,-9104.533087,229.828649,370.102971
1476.047324,-8882.471304,76.609550,518.144159
1476.047635,-8512.368333,-459.657299,740.205942
1476.047947,-8808.450710,0.000000,592.164754
1476.048258,-9030.512492,-153.219100,370.102971
1476.048570,-8882.471304,-153.219100,666.185348
1476.048881,-8956.491898,-76.609550,592.164754
1476.049192,-9252.574275,0.000000,444.123565
1476.049504,-8586.388927,0.000000,370.102971
1476.049815,-8882.471304,0.000000,296.082377
1476.050126,-8734.430116,153.219100,370.102971
1476.050438,-8734.430116,0.000000,592.164754
1476.050749,-9030.512492,0.000000,518.144159
1476.051061,-8956.491898,-229.828649,666.185348
1476.051372,-9030.512492,-536.266849,444.123565
1476.051683,-9252.574275,-153.219100,592.164754
1476.051995,-8956.491898,76.609550,1332.370696
1476.052306,-8882.471304,-383.047749,592.164754
1476.052618,-8882.471304,-459.657299,592.164754
1476.052929,-8808.450710,0.000000,592.164754
1476.053240,-9104.533087,-153.219100,518.144159
1476.053552,-9030.512492,0.000000,444.123565
1476.053863,-8956.491898,229.828649,592.164754
1476.054175,-8734.430116,0.000000,518.144159
1476.054486,-8734.430116,0.000000,296.082377
1476.054797,-8882.471304,153.219100,148.041188
1476.055109,-8882.471304,0.000000,592.164754
1476.055420,-8956.491898,-229.828649,518.144159
1476.055732,-8882.471304,0.000000,518.144159
1476.056043,-8882.471304,0.000000,592.164754
1476.056354,-8808.450710,153.219100,814.226536
1476.056666,-8660.409521,0.000000,370.102971
1476.056977,-8956.491898,-842.705048,592.164754
1476.057289,-8882.471304,0.000000,814.226536
1476.057600,-9030.512492,0.000000,592.164754
1476.057911,-9030.512492,0.000000,444.123565
1476.058223,-9030.512492,0.000000,444.123565
1476.058534,-8956.491898,-229.828649,666.185348
1476.058846,-8882.471304,153.219100,518.144159
1476.059157,-8660.409521,0.000000,444.123565
1476.059468,-9104.533087,306.438199,370.102971
1476.059780,-9030.512492,153.219100,296.082377
1476.060091,-8956.491898,0.000000,444.123565
1476.060403,-8956.491898,0.000000,666.185348
1476.060714,-9548.656652,0.000000,370.102971
1476.061025,-11695.253884,1455.581446,-0.000000
1476.061337,-10140.821405,3294.210641,592.164754
1476.061648,-7920.203579,4903.011187,814.226536
1476.061959,-7031.956449,3140.991542,1110.308913
1476.062271,-6513.812290,76.609550,1258.350101
1476.062582,-7254.018232,-1532.190996,-0.000000
1476.062894,-7402.059420,-919.314598,222.061783
1476.063205,-8734.430116,-689.485948,-592.164754
1476.063516,-12657.521608,-995.924147,-1332.370696
1476.063828,-11843.295072,383.047749,-444.123565
1476.064139,-10436.903782,842.705048,-74.020594
1476.064451,-8438.347739,306.438199,2368.659014
1476.064762,-10140.821405,-383.047749,2590.720797
1476.065073,-11399.171507,1838.629195,1776.494261
1476.065385,-6661.853478,5132.839837,2812.782580
1476.065696,-5255.462188,4903.011187,1628.453072
1476.066008,-7920.203579,2528.115143,222.061783
1476.066319,-7550.100608,3064.381992,-1110.308913
1476.066630,-7476.080014,3064.381992,-2368.659014
1476.066942,-9104.533087,4290.134789,-1110.308913
1476.067253,-9474.636058,3677.258390,-518.144159
1476.067565,-14285.974681,842.705048,-1184.329507
1476.067876,-11917.315666,-1302.362347,1850.514855
1476.068187,-8512.368333,-919.314598,1850.514855
1476.068499,-10140.821405,1991.848295,1110.308913
1476.068810,-7920.203579,6205.373534,2294.638420
1476.069122,-8142.265362,4673.182538,888.247130
1476.069433,-6735.874072,3140.991542,2590.720797
1476.069744,-6513.812290,5056.230287,1924.535449
1476.070056,-8512.368333,6894.859482,-0.000000
1476.070367,-8290.306550,6128.763984,-1110.308913
1476.070679,-9548.656652,4596.572988,-888.247130
1476.070990,-9474.636058,4443.353888,-1480.411884
1476.071301,-10807.006753,6052.154434,-370.102971
1476.071613,-11621.233289,5669.106685,-0.000000
1476.071924,-10584.944971,3907.087040,1998.556043
1476.072236,-10214.842000,4290.134789,1776.494261
1476.072547,-8586.388927,5975.544884,2442.679609
1476.072858,-6291.750507,5975.544884,518.144159
1476.073170,-5995.668130,6358.592633,518.144159
1476.073481,-5329.482782,5515.887586,370.102971
1476.073793,-6069.688724,5362.668486,-1480.411884
1476.074104,-7105.977043,5132.839837,-1036.288319
1476.074415,-8142.265362,4213.525239,-1036.288319
1476.074727,-9474.636058,3064.381992,-0.000000
1476.075038,-10658.965565,1072.533697,962.267725
1476.075349,-10881.027347,153.219100,1702.473667
1476.075661,-11399.171507,459.657299,1628.453072
1476.075972,-10288.862594,2068.457845,2294.638420
1476.076284,-8290.306550,3140.991542,1850.514855
1476.076595,-7031.956449,3753.867940,814.226536
1476.076906,-6587.832884,2987.772442,592.164754
1476.077218,-6809.894666,3294.210641,-518.144159
1476.077529,-6957.935855,3830.477490,-444.123565
1476.077841,-7179.997637,3447.429741,-1184.329507
1476.078152,-8068.244768,1149.143247,-1036.288319
1476.078463,-9622.677246,-1378.971896,-962.267725
1476.078775,-11177.109724,-2298.286494,814.226536
1476.079086,-12879.583391,-2298.286494,1258.350101
1476.079398,-13471.748144,-1685.410096,1924.535449
1476.079709,-12953.603985,-536.266849,1554.432478
1476.080020,-11991.336260,1302.362347,592.164754
1476.080332,-9918.759623,3294.210641,-74.020594
1476.080643,-7476.080014,4366.744339,-592.164754
1476.080955,-5995.668130,4749.792088,-0.000000
1476.081266,-5995.668130,4366.744339,666.185348
1476.081577,-7031.956449,2987.772442,1110.308913
1476.081889,-9104.533087,1762.019645,296.082377
1476.082200,-10881.027347,995.924147,444.123565
1476.082512,-12435.459826,229.828649,-222.061783
1476.082823,-13027.624579,-612.876398,-148.041188
1476.083134,-13471.748144,-306.438199,-518.144159
1476.083446,-13175.665768,1149.143247,148.041188
1476.083757,-11029.068536,2681.334243,814.226536
1476.084069,-9474.636058,3753.867940,1628.453072
1476.084380,-6883.915261,4673.182538,2368.659014
1476.084691,-4515.256246,5362.668486,1332.370696
1476.085003,-2294.638420,6128.763984,-0.000000
1476.085314,-1332.370696,6052.154434,-1406.391290
1476.085626,-3256.906145,4290.134789,-1924.535449
1476.085937,-7254.018232,2451.505594,-1776.494261
1476.086248,-12065.356855,3140.991542,-814.226536
1476.086560,-15174.221811,3370.820191,1110.308913
1476.086871,-16136.489536,3600.648841,2812.782580
1476.087182,-14508.036463,2681.334243,3701.029710
1476.087494,-10955.047942,2987.772442,3182.885551
1476.087805,-5255.462188,4366.744339,2072.576638
1476.088117,-2664.741391,4290.134789,-0.000000
1476.088428,-1628.453072,6435.202183,-296.082377
1476.088739,-1924.535449,7507.735880,-2146.597232
1476.089051,-5477.523971,6894.859482,-2368.659014
1476.089362,-8142.265362,4903.011187,-1036.288319
1476.089674,-9178.553681,3064.381992,518.144159
1476.089985,-10584.944971,0.000000,518.144159
1476.090296,-11029.068536,-2068.457845,1628.453072
1476.090608,-11399.171507,-3447.429741,1702.473667
1476.090919,-12805.562797,-2145.067394,1480.411884
1476.091231,-12953.603985,1685.410096,1184.329507
1476.091542,-12139.377449,3294.210641,1406.391290
1476.091853,-10436.903782,4979.620737,1628.453072
1476.092165,-7994.224174,6128.763984,2146.597232
1476.092476,-5551.544565,5822.325785,1850.514855
1476.092788,-5773.606348,3217.601092,222.061783
1476.093099,-5699.585753,2145.067394,-444.123565
1476.093410,-7179.997637,2604.724693,-2072.576638
1476.093722,-9696.697840,3753.867940,-2368.659014
1476.094033,-12065.356855,3370.820191,-2146.597232
1476.094345,-12287.418637,2528.115143,-1036.288319
1476.094656,-12435.459826,1838.629195,518.144159
1476.094967,-11991.336260,919.314598,2220.617826
1476.095279,-12583.501014,1608.800546,2442.679609
1476.095590,-11177.109724,3830.477490,2738.761985
1476.095902,-9326.594869,5898.935335,1258.350101
1476.096213,-7105.977043,6128.763984,592.164754
1476.096524,-5995.668130,4903.011187,-1332.370696
1476.096836,-5773.606348,3524.039291,-1110.308913
1476.097147,-7105.977043,2451.505594,-1406.391290
1476.097459,-8808.450710,2374.896044,-370.102971
1476.097770,-9178.553681,1608.800546,-74.020594
1476.098081,-9474.636058,-229.828649,444.123565
1476.098393,-8290.306550,-2451.505594,1924.535449
1476.098704,-8364.327145,-3064.381992,1850.514855
1476.099016,-8808.450710,383.047749,962.267725
1476.099327,-9622.677246,4979.620737,-74.020594
1476.099638,-10955.047942,8120.612279,-666.185348
1476.099950,-10584.944971,9806.022374,-0.000000
1476.100261,-9696.697840,7660.954980,1258.350101
1476.100572,-8808.450710,4979.620737,1110.308913
1476.100884,-8142.265362,3677.258390,518.144159
1476.101195,-7179.997637,4903.011187,-0.000000
1476.101507,-5699.585753,4826.401637,444.123565
1476.101818,-4885.359217,2528.115143,592.164754
1476.102129,-5255.462188,-766.095498,222.061783
1476.102441,-7254.018232,-2068.457845,-518.144159
1476.102752,-8882.471304,1455.581446,-592.164754
1476.103064,-11843.295072,4903.011187,-1036.288319
1476.103375,-13619.789333,7048.078582,-148.041188
1476.103686,-13989.892304,5056.230287,2368.659014
1476.103998,-14508.036463,1608.800546,3404.947333
1476.104309,-12139.377449,1225.752797,3849.070898
1476.104621,-8364.327145,3217.601092,2738.761985
1476.104932,-4959.379811,2451.505594,2220.617826
1476.105243,-2960.823768,-612.876398,1036.288319
1476.105555,-2812.782580,-3217.601092,-222.061783
1476.105866,-5181.441594,-4136.915689,-1184.329507
1476.106177,-5699.585753,536.266849,-1110.308913
1476.106489,-8290.306550,5056.230287,-1406.391290
1476.106800,-12213.398043,5286.058936,-444.123565
1476.107111,-15988.448347,2528.115143,1480.411884
1476.107423,-18505.148550,2681.334243,2294.638420
1476.107734,-15544.324782,5592.497135,3182.885551
1476.108046,-10732.986159,9269.755526,2368.659014
1476.108357,-6587.832884,4903.011187,814.226536
1476.108668,-3182.885551,-383.047749,-296.082377
1476.108980,-370.102971,-1378.971896,-1406.391290
1476.109291,740.205942,1685.410096,-1110.308913
1476.109602,-2738.761985,3600.648841,-0.000000
1476.109914,-11029.068536,1838.629195,-592.164754
1476.110225,-15840.407159,536.266849,-222.061783
1476.110536,-17024.736666,2451.505594,518.144159
1476.110848,-15248.242405,5669.106685,1036.288319
1476.111159,-12657.521608,5745.716235,-0.000000
1476.111470,-11843.295072,2221.676944,-1258.350101
1476.111782,-8808.450710,689.485948,-1110.308913
1476.112093,-5255.462188,2068.457845,-592.164754
1476.112405,-5255.462188,3907.087040,222.061783
1476.112716,-6661.853478,3294.210641,2146.597232
1476.113027,-8364.327145,-1149.143247,2886.803174
1476.113339,-8438.347739,-1072.533697,2886.803174
1476.113650,-7328.038826,3753.867940,1628.453072
1476.113961,-9474.636058,7967.393179,-1332.370696
1476.114273,-10658.965565,7584.345430,-2812.782580
1476.114584,-10436.903782,5975.544884,-4219.173869
1476.114895,-8438.347739,6511.811733,-2664.741391
1476.115207,-9622.677246,9193.145976,-1628.453072
1476.115518,-13989.892304,7124.688131,-296.082377
1476.115830,-12953.603985,3370.820191,2664.741391
1476.116141,-9696.697840,0.000000,4959.379811
1476.116452,-6587.832884,-1455.581446,4737.318029
1476.116764,-4589.276840,383.047749,2294.638420
1476.117075,-3849.070898,1455.581446,-814.226536
1476.117386,-2960.823768,1608.800546,-1850.514855
1476.117698,-4959.379811,4519.963438,-2294.638420
1476.118009,-10584.944971,6588.421283,-1036.288319
1476.118320,-15396.283594,7354.516781,814.226536
1476.118632,-15396.283594,5975.544884,3627.009116
1476.118943,-11917.315666,3753.867940,3478.967927
1476.119255,-9696.697840,3524.039291,1702.473667
1476.119566,-5477.523971,2911.162892,-370.102971
1476.119877,-3330.926739,1378.971896,-1258.350101
1476.120189,-4663.297435,-1608.800546,-0.000000
1476.120500,-5477.523971,-1532.190996,1480.411884
1476.120811,-8142.265362,-1225.752797,2294.638420
1476.121123,-10510.924376,-2987.772442,3404.947333
1476.121434,-11103.089130,-3753.867940,3182.885551
1476.121745,-9400.615463,-1378.971896,740.205942
1476.122057,-6513.812290,1455.581446,-1554.432478
1476.122368,-8216.285956,2221.676944,-1184.329507
1476.122680,-10362.883188,1532.190996,-1110.308913
1476.122991,-11991.336260,2681.334243,-0.000000
1476.123302,-12065.356855,2451.505594,2886.803174
1476.123614,-11325.150913,-229.828649,3478.967927
1476.123925,-11029.068536,306.438199,1628.453072
1476.124236,-7846.182985,2298.286494,592.164754
1476.124548,-6291.750507,2298.286494,-1110.308913
1476.124859,-6661.853478,1685.410096,-1850.514855
1476.125170,-8290.306550,4519.963438,-1406.391290
1476.125482,-11325.150913,5898.935335,-1924.535449
1476.125793,-12065.356855,3600.648841,-962.267725
1476.126104,-11399.171507,1915.238745,-1406.391290
1476.126416,-9548.656652,2834.553343,-1036.288319
1476.126727,-9918.759623,2681.334243,-1258.350101
1476.127039,-10658.965565,612.876398,592.164754
1476.127350,-9696.697840,-1532.190996,1258.350101
1476.127661,-10510.924376,-2451.505594,2516.700203
1476.127973,-9548.656652,-2374.896044,4071.132681
1476.128284,-7698.141797,-1915.238745,1332.370696
1476.128595,-5033.400406,0.000000,-518.144159
1476.128907,-4219.173869,1685.410096,-1184.329507
1476.129218,-4959.379811,2681.334243,-2368.659014
1476.129529,-8438.347739,2451.505594,-2146.597232
1476.129841,-11251.130318,1991.848295,-0.000000
1476.130152,-12953.603985,-612.876398,1036.288319
1476.130464,-12065.356855,-1915.238745,1332.370696
1476.130775,-10140.821405,-1532.190996,1480.411884
1476.131086,-7328.038826,-1685.410096,1776.494261
1476.131398,-5551.544565,-3524.039291,1776.494261
1476.131709,-7698.141797,-3677.258390,1406.391290
1476.132020,-7105.977043,-766.095498,2368.659014
1476.132332,-7031.956449,-536.266849,1776.494261
1476.132643,-5921.647536,153.219100,1110.308913
1476.132954,-3997.112087,1302.362347,-148.041188
1476.133266,-4293.194464,2221.676944,-1702.473667
1476.133577,-5403.503377,1685.410096,-1184.329507
1476.133889,-8956.491898,1072.533697,-740.205942
1476.134200,-13397.727550,1455.581446,1036.288319
1476.134511,-15914.427753,0.000000,1776.494261
1476.134823,-14952.160028,-1762.019645,2294.638420
1476.135134,-13027.624579,-2911.162892,2072.576638
1476.135445,-10881.027347,-2528.115143,1406.391290
1476.135757,-8290.306550,-153.219100,518.144159
1476.136068,-7105.977043,536.266849,-666.185348
1476.136379,-7698.141797,383.047749,1258.350101
1476.136691,-6809.894666,995.924147,1406.391290
1476.137002,-7402.059420,2145.067394,-888.247130
1476.137314,-8216.285956,1302.362347,-814.226536
1476.137625,-8216.285956,1378.971896,-962.267725
1476.137936,-9696.697840,1532.190996,-888.247130
1476.138248,-12953.603985,0.000000,222.061783
1476.138559,-14211.954086,-2068.457845,1924.535449
1476.138870,-13397.727550,-2757.943793,2220.617826
1476.139182,-11917.315666,-2451.505594,2886.803174
1476.139493,-8882.471304,-1608.800546,2738.761985
1476.139804,-7402.059420,-2298.286494,1110.308913
1476.140116,-6587.832884,-459.657299,666.185348
1476.140427,-6291.750507,2451.505594,296.082377
1476.140739,-7402.059420,4213.525239,-1110.308913
1476.141050,-5773.606348,6281.983084,-1998.556043
1476.141361,-4811.338623,4903.011187,-1850.514855
1476.141673,-4071.132681,2145.067394,-1036.288319
1476.141984,-5255.462188,-459.657299,-0.000000
1476.142295,-8364.327145,-1455.581446,1036.288319
1476.142607,-9770.718434,-1608.800546,3256.906145
1476.142918,-12287.418637,-2604.724693,3552.988522
1476.143229,-11473.192101,-2681.334243,2368.659014
1476.143541,-8956.491898,-2145.067394,-0.000000
1476.143852,-7254.018232,-536.266849,-666.185348
1476.144163,-5181.441594,-459.657299,-592.164754
1476.144475,-5921.647536,0.000000,-1332.370696
1476.144786,-7402.059420,0.000000,-370.102971
1476.145098,-7846.182985,-995.924147,740.205942
1476.145409,-7624.121203,-1149.143247,148.041188
1476.145720,-7550.100608,-612.876398,518.144159
1476.146032,-9104.533087,-306.438199,-0.000000
1476.146343,-10288.862594,-689.485948,296.082377
1476.146654,-12361.439231,-1225.752797,666.185348
1476.146966,-13989.892304,-995.924147,2368.659014
1476.147277,-14285.974681,-1608.800546,1850.514855
1476.147588,-12657.521608,-1225.752797,-148.041188
1476.147900,-10436.903782,0.000000,-1110.308913
1476.148211,-8438.347739,2681.334243,-3034.844362
1476.148523,-6957.935855,4060.306139,-3034.844362
1476.148834,-7624.121203,3140.991542,-1998.556043
1476.149145,-9104.533087,2068.457845,-0.000000
1476.149457,-9770.718434,1532.190996,888.247130
1476.149768,-10140.821405,1378.971896,666.185348
1476.150079,-9992.780217,766.095498,1110.308913
1476.150391,-9178.553681,-229.828649,1850.514855
1476.150702,-9252.574275,-1685.410096,1850.514855
1476.151013,-10510.924376,-2298.286494,2368.659014
1476.151325,-10732.986159,-2681.334243,2960.823768
1476.151636,-10658.965565,-1991.848295,444.123565
1476.151948,-9918.759623,153.219100,-888.247130
1476.152259,-8512.368333,995.924147,-1998.556043
1476.152570,-7624.121203,0.000000,-2072.576638
1476.152882,-7254.018232,0.000000,-740.205942
1476.153193,-6809.894666,0.000000,1850.514855
1476.153504,-7254.018232,-2145.067394,3478.967927
1476.153816,-7846.182985,-3294.210641,4885.359217
1476.154127,-5995.668130,-3217.601092,4663.297435
1476.154438,-4441.235652,-2834.553343,3552.988522
1476.154750,-4589.276840,-2298.286494,1850.514855
1476.155061,-5255.462188,-1225.752797,-666.185348
1476.155373,-8068.244768,-1608.800546,-1850.514855
1476.155684,-9252.574275,-842.705048,-666.185348
1476.155995,-10140.821405,1072.533697,-1184.329507
1476.156307,-11843.295072,1225.752797,-1184.329507
1476.156618,-12287.418637,2068.457845,-592.164754
1476.156929,-11621.233289,2834.553343,-0.000000
1476.157241,-9104.533087,3217.601092,1258.350101
1476.157552,-6883.915261,2911.162892,2442.679609
1476.157863,-5255.462188,1991.848295,2960.823768
1476.158175,-3701.029710,536.266849,2590.720797
1476.158486,-4071.132681,-919.314598,666.185348
1476.158798,-6217.729913,-536.266849,-444.123565
1476.159109,-9696.697840,1455.581446,-2516.700203
1476.159420,-13841.851115,1838.629195,-3256.906145
1476.159732,-15692.365970,1072.533697,-2072.576638
1476.160043,-16802.674883,0.000000,-1332.370696
1476.160354,-16284.530724,76.609550,-1480.411884
1476.160666,-13915.871710,842.705048,-222.061783
1476.160977,-11991.336260,1225.752797,1332.370696
1476.161288,-7772.162391,995.924147,3701.029710
1476.161600,-5921.647536,-306.438199,4219.173869
1476.161911,-5329.482782,-1838.629195,4959.379811
1476.162222,-3923.091493,-2221.676944,3256.906145
1476.162534,-3552.988522,-1685.410096,444.123565
1476.162845,-5107.421000,-1302.362347,-2072.576638
1476.163157,-7476.080014,-612.876398,-2738.761985
1476.163468,-9622.677246,-919.314598,-2220.617826
1476.163779,-11399.171507,-2145.067394,-148.041188
1476.164091,-14211.954086,-3907.087040,1184.329507
1476.164402,-14508.036463,-4136.915689,1332.370696
1476.164713,-11917.315666,-1225.752797,1332.370696
1476.165025,-10732.986159,1225.752797,1776.494261
1476.165336,-8438.347739,2911.162892,3478.967927
1476.165647,-4589.276840,2451.505594,1998.556043
1476.165959,-2590.720797,612.876398,3701.029710
1476.166270,-888.247130,-2451.505594,3923.091493
1476.166582,0.000000,-2757.943793,1406.391290
1476.166893,-2368.659014,-536.266849,-1924.535449
1476.167204,-5995.668130,1149.143247,-3552.988522
1476.167516,-9622.677246,1915.238745,-3923.091493
1476.167827,-13841.851115,1838.629195,-2886.803174
1476.168138,-17320.819043,2528.115143,-1036.288319
1476.168450,-18283.086767,842.705048,370.102971
1476.168761,-16580.613101,766.095498,1850.514855
1476.169072,-14063.912898,1991.848295,3256.906145
1476.169384,-9918.759623,1378.971896,2442.679609
1476.169695,-5329.482782,-459.657299,3701.029710
1476.170007,-2442.679609,-1072.533697,1776.494261
1476.170318,-2590.720797,-1225.752797,-74.020594
1476.170629,-4885.359217,766.095498,-2294.638420
1476.170941,-8364.327145,459.657299,-3627.009116
1476.171252,-10362.883188,536.266849,-2738.761985
1476.171563,-12361.439231,-459.657299,-666.185348
1476.171875,-12657.521608,-383.047749,592.164754
1476.172186,-12953.603985,-1225.752797,1628.453072
1476.172497,-13619.789333,-2374.896044,3256.906145
1476.172809,-11843.295072,-2451.505594,2886.803174
1476.173120,-8956.491898,383.047749,1184.329507
1476.173432,-7179.997637,2145.067394,296.082377
1476.173743,-5995.668130,2145.067394,666.185348
1476.174054,-4219.173869,612.876398,-74.020594
1476.174366,-5033.400406,-995.924147,-296.082377
1476.174677,-5699.585753,-1378.971896,1480.411884
1476.174988,-5921.647536,-1072.533697,148.041188
1476.175300,-6809.894666,-842.705048,444.123565
1476.175611,-8586.388927,-995.924147,-444.123565
1476.175922,-9696.697840,-1072.533697,-1036.288319
1476.176234,-10362.883188,306.438199,-740.205942
1476.176545,-11621.233289,1915.238745,-222.061783
1476.176856,-11251.130318,1762.019645,1554.432478
1476.177168,-11991.336260,229.828649,962.267725
1476.177479,-10510.924376,-229.828649,2220.617826
1476.177791,-7994.224174,0.000000,1406.391290
1476.178102,-5033.400406,-919.314598,1406.391290
1476.178413,-3627.009116,-766.095498,-74.020594
1476.178725,-5847.626942,-1685.410096,-814.226536
1476.179036,-5699.585753,-1072.533697,-296.082377
1476.179347,-8882.471304,-766.095498,-1850.514855
1476.179659,-11103.089130,919.314598,-518.144159
1476.179970,-11473.192101,1608.800546,592.164754
1476.180281,-13175.665768,0.000000,666.185348
1476.180593,-13619.789333,-689.485948,2960.823768
1476.180904,-12805.562797,-1378.971896,3034.844362
1476.181216,-11917.315666,-1532.190996,2516.700203
1476.181527,-10732.986159,-766.095498,1628.453072
1476.181838,-8882.471304,383.047749,-814.226536
1476.182150,-6735.874072,1149.143247,-1924.535449
1476.182461,-6365.771101,2451.505594,-814.226536
1476.182772,-6883.915261,919.314598,296.082377
1476.183084,-9326.594869,-612.876398,1702.473667
1476.183395,-9474.636058,-766.095498,2738.761985
1476.183706,-8512.368333,689.485948,1998.556043
1476.184018,-7402.059420,1302.362347,1258.350101
1476.184329,-5995.668130,383.047749,-0.000000
1476.184641,-6439.791695,0.000000,-1480.411884
1476.184952,-7105.977043,766.095498,-888.247130
1476.185263,-10066.800811,-1072.533697,-0.000000
1476.185575,-11325.150913,-2068.457845,740.205942
1476.185886,-10362.883188,-2604.724693,370.102971
1476.186197,-9178.553681,-3447.429741,518.144159
1476.186509,-8512.368333,-3294.210641,592.164754
1476.186820,-7402.059420,-1532.190996,296.082377
1476.187131,-8142.265362,-536.266849,370.102971
1476.187443,-9474.636058,0.000000,1480.411884
1476.187754,-8512.368333,612.876398,2072.576638
1476.188066,-8068.244768,1685.410096,1110.308913
1476.188377,-6957.935855,1838.629195,370.102971
1476.188688,-5773.606348,1302.362347,-296.082377
1476.189000,-7698.141797,76.609550,-1850.514855
1476.189311,-9622.677246,229.828649,-1776.494261
1476.189622,-10807.006753,383.047749,-1776.494261
1476.189934,-12657.521608,306.438199,-2072.576638
1476.190245,-11695.253884,689.485948,-1110.308913
1476.190556,-11621.233289,689.485948,-1036.288319
1476.190868,-11103.089130,1072.533697,592.164754
1476.191179,-10066.800811,2068.457845,1776.494261
1476.191491,-10214.842000,3370.820191,2812.782580
1476.191802,-8586.388927,3217.601092,4515.256246
1476.192113,-7031.956449,2145.067394,2960.823768
1476.192425,-6217.729913,459.657299,1036.288319
1476.192736,-4293.194464,919.314598,-74.020594
1476.193047,-5625.565159,1225.752797,-1998.556043
1476.193359,-7994.224174,383.047749,-2072.576638
1476.193670,-11325.150913,-1378.971896,-666.185348
1476.193981,-14359.995275,-3447.429741,1554.432478
1476.194293,-11473.192101,-2451.505594,3404.947333
1476.194604,-10584.944971,-1991.848295,2368.659014
1476.194915,-9918.759623,-1225.752797,2812.782580
1476.195227,-6809.894666,0.000000,2812.782580
1476.195538,-5773.606348,1302.362347,2738.761985
1476.195850,-4515.256246,1302.362347,3627.009116
1476.196161,-4589.276840,0.000000,2812.782580
1476.196472,-3627.009116,-1225.752797,1332.370696
1476.196784,-2960.823768,-2221.676944,-148.041188
1476.197095,-3997.112087,-2451.505594,-222.061783
1476.197406,-5551.544565,-2451.505594,-444.123565
1476.197718,-10362.883188,-3370.820191,-444.123565
1476.198029,-14137.933492,-4673.182538,1258.350101
1476.198340,-14211.954086,-3370.820191,1554.432478
1476.198652,-14952.160028,-766.095498,-74.020594
1476.198963,-14285.974681,1838.629195,-1036.288319
1476.199275,-12879.583391,3524.039291,-1184.329507
1476.199586,-9178.553681,4213.525239,-0.000000
1476.199897,-6735.874072,3140.991542,3108.864956
1476.200209,-6217.729913,306.438199,2442.679609
1476.200520,-4811.338623,-536.266849,1406.391290
1476.200831,-4071.132681,-1072.533697,-1184.329507
1476.201143,-6809.894666,-1838.629195,-3034.844362
1476.201454,-8882.471304,306.438199,-3627.009116
1476.201765,-13101.645173,2298.286494,-4737.318029
1476.202077,-17098.757260,1915.238745,-2368.659014
1476.202388,-18579.169144,0.000000,-0.000000
1476.202700,-18357.107362,76.609550,1036.288319
1476.203011,-14434.015869,1302.362347,888.247130
1476.203322,-9400.615463,536.266849,1258.350101
1476.203634,-5181.441594,383.047749,1998.556043
1476.203945,-1480.411884,306.438199,592.164754
1476.204256,-1850.514855,995.924147,370.102971
1476.204568,-4219.173869,-1915.238745,1406.391290
1476.204879,-5699.585753,-2987.772442,-148.041188
1476.205190,-7105.977043,-612.876398,-148.041188
1476.205502,-8660.409521,-1685.410096,-962.267725
1476.205813,-11325.150913,-2374.896044,-222.061783
1476.206125,-10658.965565,-1532.190996,1554.432478
1476.206436,-10732.986159,-1455.581446,592.164754
1476.206747,-12065.356855,-995.924147,1924.535449
1476.207059,-8142.265362,383.047749,518.144159
1476.207370,-7550.100608,2757.943793,-296.082377
1476.207682,-5107.421000,2451.505594,1258.350101
1476.207993,-3404.947333,1455.581446,444.123565
1476.208305,-4959.379811,-383.047749,2220.617826
1476.208616,-3552.988522,-2298.286494,2664.741391
1476.208927,-4959.379811,-3447.429741,3182.885551
1476.209239,-8734.430116,-3677.258390,888.247130
1476.209550,-9474.636058,0.000000,-148.041188
1476.209862,-12953.603985,1378.971896,-1406.391290
1476.210173,-13175.665768,2528.115143,-74.020594
1476.210485,-14285.974681,3217.601092,-0.000000
1476.210796,-14434.015869,1685.410096,1480.411884
1476.211108,-11917.315666,536.266849,2220.617826
1476.211419,-9326.594869,153.219100,1924.535449
1476.211730,-7105.977043,1149.143247,-148.041188
1476.212042,-6735.874072,842.705048,-74.020594
1476.212353,-5847.626942,-459.657299,-222.061783
1476.212665,-8216.285956,-383.047749,814.226536
1476.212976,-10436.903782,153.219100,888.247130
1476.213288,-11177.109724,766.095498,-148.041188
1476.213599,-11621.233289,0.000000,888.247130
1476.213911,-11399.171507,383.047749,1406.391290
1476.214222,-10214.842000,-306.438199,1332.370696
1476.214533,-9770.718434,1225.752797,222.061783
1476.214845,-9844.739029,459.657299,1332.370696
1476.215156,-8438.347739,-612.876398,1110.308913
1476.215468,-7624.121203,-459.657299,-0.000000
1476.215779,-6957.935855,-536.266849,-740.205942
1476.216091,-5699.585753,-1915.238745,-1332.370696
1476.216402,-5625.565159,-1685.410096,-222.061783
1476.216714,-6069.688724,-1455.581446,-296.082377
1476.217025,-9696.697840,-766.095498,592.164754
1476.217337,-10066.800811,-1608.800546,2442.679609
1476.217648,-9252.574275,0.000000,3034.844362
1476.217959,-9844.739029,995.924147,2516.700203
1476.218271,-6069.688724,1302.362347,1702.473667
1476.218582,-5551.544565,1455.581446,-296.082377
1476.218894,-5329.482782,536.266849,-444.123565
1476.219205,-4441.235652,306.438199,-1258.350101
1476.219517,-8142.265362,-1915.238745,-444.123565
1476.219828,-9178.553681,-3600.648841,-1406.391290
1476.220140,-9770.718434,-1378.971896,-814.226536
1476.220451,-11103.089130,0.000000,-1184.329507
1476.220762,-11917.315666,229.828649,-444.123565
1476.221074,-12435.459826,0.000000,444.123565
1476.221385,-11843.295072,-919.314598,1776.494261
1476.221697,-10881.027347,536.266849,3330.926739
1476.222008,-10214.842000,76.609550,2072.576638
1476.222320,-8438.347739,842.705048,-0.000000
1476.222631,-7624.121203,2145.067394,-518.144159
1476.222943,-6513.812290,2834.553343,-962.267725
1476.223254,-9474.636058,1149.143247,-2960.823768
1476.223565,-13027.624579,-612.876398,-2294.638420
1476.223877,-12287.418637,-1072.533697,-888.247130
1476.224188,-12065.356855,-842.705048,-1184.329507
1476.224500,-12435.459826,-1149.143247,-148.041188
1476.224811,-11843.295072,-689.485948,444.123565
1476.225123,-10881.027347,153.219100,1332.370696
1476.225434,-9548.656652,1378.971896,3182.885551
1476.225746,-7328.038826,2528.115143,4219.173869
1476.226057,-4959.379811,1991.848295,4071.132681
1476.226368,-5403.503377,-1072.533697,1776.494261
1476.226680,-1998.556043,-3447.429741,740.205942
1476.226991,-1036.288319,-1685.410096,-1332.370696
1476.227303,-3552.988522,-1302.362347,-1184.329507
1476.227614,-7550.100608,-2298.286494,-74.020594
1476.227926,-12953.603985,-5286.058936,1036.288319
1476.228237,-13767.830521,-4519.963438,1702.473667
1476.228549,-13323.706956,-1762.019645,2442.679609
1476.228860,-11325.150913,0.000000,1924.535449
1476.229171,-10658.965565,1608.800546,1554.432478
1476.229483,-8660.409521,2221.676944,518.144159
1476.229794,-4885.359217,2757.943793,740.205942
1476.230106,-3256.906145,2221.676944,3478.967927
1476.230417,-2294.638420,1378.971896,1850.514855
1476.230729,-2516.700203,-536.266849,740.205942
1476.231040,-4737.318029,-1991.848295,-592.164754
1476.231352,-7328.038826,-995.924147,148.041188
1476.231663,-12065.356855,-842.705048,-1554.432478
1476.231975,-16580.613101,-1225.752797,-1406.391290
1476.232286,-17320.819043,0.000000,-0.000000
1476.232597,-16506.592507,1378.971896,-148.041188
1476.232909,-13175.665768,2451.505594,-0.000000
1476.233220,-11029.068536,2604.724693,1554.432478
1476.233532,-8216.285956,2145.067394,2664.741391
1476.233843,-6069.688724,1762.019645,2590.720797
1476.234155,-6143.709319,1225.752797,1258.350101
1476.234466,-6587.832884,1915.238745,-296.082377
1476.234778,-5995.668130,2451.505594,-1332.370696
1476.235089,-6809.894666,842.705048,-2442.679609
1476.235400,-8660.409521,-153.219100,-2960.823768
1476.235712,-10140.821405,919.314598,-1258.350101
1476.236023,-12139.377449,-1072.533697,814.226536
1476.236335,-14878.139434,-2834.553343,3330.926739
1476.236646,-14434.015869,-2068.457845,3256.906145
1476.236958,-10510.924376,1378.971896,888.247130
1476.237269,-6513.812290,3140.991542,-444.123565
1476.237581,-4071.132681,2757.943793,-0.000000
1476.237892,-2590.720797,2068.457845,-1480.411884
1476.238203,-2368.659014,383.047749,-814.226536
1476.238515,-3256.906145,-1991.848295,2368.659014
1476.238826,-6957.935855,-5439.278036,2146.597232
1476.239138,-9326.594869,-5132.839837,1776.494261
1476.239449,-10436.903782,-4979.620737,1480.411884
1476.239761,-10214.842000,-4290.134789,1036.288319
1476.240072,-10955.047942,-1685.410096,-0.000000
1476.240384,-13471.748144,689.485948,-592.164754
1476.240695,-13471.748144,919.314598,666.185348
1476.241006,-11177.109724,459.657299,1184.329507
1476.241318,-9696.697840,1532.190996,370.102971
1476.241629,-6883.915261,3217.601092,370.102971
1476.241941,-4145.153275,2528.115143,-222.061783
1476.242252,-2738.761985,1149.143247,-0.000000
1476.242564,-3849.070898,-536.266849,-296.082377
1476.242875,-6883.915261,-536.266849,-0.000000
1476.243187,-9474.636058,612.876398,-444.123565
1476.243498,-12287.418637,76.609550,-1480.411884
1476.243809,-14582.057057,76.609550,-518.144159
1476.244121,-14285.974681,766.095498,-148.041188
1476.244432,-14582.057057,1762.019645,518.144159
1476.244744,-13693.809927,1149.143247,2886.803174
1476.245055,-12657.521608,-689.485948,2072.576638
1476.245367,-10510.924376,-383.047749,1036.288319
1476.245678,-6809.894666,-306.438199,296.082377
1476.245990,-4811.338623,-459.657299,-148.041188
1476.246301,-3923.091493,-1225.752797,-0.000000
1476.246612,-6069.688724,-3064.381992,-74.020594
1476.246924,-9030.512492,-4290.134789,1628.453072
1476.247235,-9326.594869,-2068.457845,3552.988522
1476.247547,-10510.924376,766.095498,1184.329507
1476.247858,-11399.171507,2604.724693,296.082377
1476.248170,-9030.512492,1915.238745,518.144159
1476.248481,-7624.121203,1991.848295,-1036.288319
1476.248793,-5995.668130,2987.772442,296.082377
1476.249104,-6291.750507,2068.457845,-444.123565
1476.249416,-7105.977043,0.000000,296.082377
1476.249727,-4737.318029,-1762.019645,518.144159
1476.250038,-6143.709319,-3370.820191,148.041188
1476.250350,-4737.318029,-4136.915689,1776.494261
1476.250661,-6513.812290,-2987.772442,888.247130
1476.250973,-9030.512492,-3830.477490,2442.679609
1476.251284,-11473.192101,-3907.087040,1998.556043
1476.251596,-11917.315666,-1225.752797,2220.617826
1476.251907,-10955.047942,1378.971896,740.205942
1476.252219,-10658.965565,2757.943793,-0.000000
1476.252530,-7920.203579,2374.896044,888.247130
1476.252841,-7994.224174,1762.019645,-740.205942
1476.253153,-9474.636058,2374.896044,-296.082377
1476.253464,-9474.636058,2298.286494,-370.102971
1476.253776,-9696.697840,1149.143247,-888.247130
1476.254087,-9474.636058,0.000000,-740.205942
1476.254399,-9548.656652,-995.924147,-1258.350101
1476.254710,-10362.883188,-536.266849,-1702.473667
1476.255022,-9992.780217,995.924147,-814.226536
1476.255333,-11917.315666,1608.800546,740.205942
1476.255644,-13397.727550,1149.143247,1924.535449
1476.255956,-11251.130318,2145.067394,2294.638420
1476.256267,-8882.471304,2374.896044,666.185348
1476.256579,-6735.874072,2221.676944,1110.308913
1476.256890,-5107.421000,1991.848295,-518.144159
1476.257202,-6735.874072,536.266849,-962.267725
1476.257513,-8512.368333,-2145.067394,-0.000000
1476.257825,-9918.759623,-2834.553343,444.123565
1476.258136,-11103.089130,-2757.943793,-0.000000
1476.258447,-9474.636058,-3064.381992,1332.370696
1476.258759,-10140.821405,-5209.449386,740.205942
1476.259070,-11325.150913,-3370.820191,814.226536
1476.259382,-8808.450710,1991.848295,888.247130
1476.259693,-9178.553681,4136.915689,1258.350101
1476.260005,-8586.388927,1685.410096,3108.864956
1476.260316,-5403.503377,0.000000,2960.823768
1476.260628,-888.247130,0.000000,888.247130
1476.260939,518.144159,-689.485948,592.164754
1476.261250,-1998.556043,-1685.410096,-0.000000
1476.261562,-5477.523971,-2451.505594,-1110.308913
1476.261873,-10066.800811,-2298.286494,-666.185348
1476.262185,-12361.439231,-3064.381992,296.082377
1476.262496,-14211.954086,-1762.019645,-0.000000
1476.262808,-16950.716072,-766.095498,-148.041188
1476.263119,-15322.262999,306.438199,1110.308913
1476.263431,-12287.418637,536.266849,1480.411884
1476.263742,-10955.047942,2068.457845,2738.761985
1476.264053,-8364.327145,3217.601092,3775.050304
1476.264365,-5107.421000,1149.143247,2146.597232
1476.264676,-2664.741391,0.000000,444.123565
1476.264988,-2220.617826,-536.266849,-1702.473667
1476.265299,-5181.441594,-306.438199,-3182.885551
1476.265611,-9326.594869,536.266849,-4071.132681
1476.265922,-13693.809927,0.000000,-1850.514855
1476.266234,-16136.489536,-995.924147,370.102971
1476.266545,-16580.613101,-2068.457845,1628.453072
1476.266857,-16136.489536,229.828649,1850.514855
1476.267168,-12657.521608,2068.457845,2368.659014
1476.267479,-7920.203579,2528.115143,3108.864956
1476.267791,-5847.626942,2681.334243,1554.432478
1476.268102,-3849.070898,2298.286494,1258.350101
1476.268414,-5329.482782,919.314598,666.185348
1476.268725,-4885.359217,-1685.410096,-0.000000
1476.269037,-2368.659014,-2221.676944,-1924.535449
1476.269348,-5995.668130,-3447.429741,-2146.597232
1476.269660,-8142.265362,-3907.087040,-740.205942
1476.269971,-11547.212695,-3370.820191,814.226536
1476.270282,-14508.036463,-3294.210641,1702.473667
1476.270594,-15840.407159,-2451.505594,3108.864956
1476.270905,-13989.892304,-842.705048,2664.741391
1476.271217,-10658.965565,1838.629195,-370.102971
1476.271528,-8068.244768,4596.572988,148.041188
1476.271840,-2146.597232,4903.011187,-888.247130
1476.272151,-1184.329507,3447.429741,-0.000000
1476.272463,-2220.617826,-306.438199,1998.556043
1476.272774,-962.267725,-3064.381992,2294.638420
1476.273085,-4737.318029,-3447.429741,-518.144159
1476.273397,-7920.203579,-1838.629195,-1850.514855
1476.273708,-11177.109724,-842.705048,-2294.638420
1476.274020,-14508.036463,-995.924147,-2368.659014
1476.274331,-16062.468941,995.924147,-666.185348
1476.274643,-17838.963202,1302.362347,1554.432478
1476.274954,-16728.654289,-229.828649,3701.029710
1476.275266,-13175.665768,766.095498,3849.070898
1476.275577,-7994.224174,1685.410096,2738.761985
1476.275888,-4663.297435,2451.505594,1702.473667
1476.276200,-2738.761985,2068.457845,-592.164754
1476.276511,-2516.700203,2757.943793,-1480.411884
1476.276823,-6217.729913,1378.971896,-2368.659014
1476.277134,-8142.265362,536.266849,-1554.432478
1476.277446,-9400.615463,612.876398,-1924.535449
1476.277757,-12361.439231,-1302.362347,-74.020594
1476.278069,-13397.727550,-2374.896044,2368.659014
1476.278380,-12805.562797,-2221.676944,2442.679609
1476.278691,-12361.439231,-919.314598,2146.597232
1476.279003,-11103.089130,153.219100,2516.700203
1476.279314,-9770.718434,1378.971896,148.041188
1476.279626,-7550.100608,3524.039291,-1110.308913
1476.279937,-4219.173869,3447.429741,-222.061783
1476.280249,-2442.679609,-306.438199,-0.000000
1476.280560,-4219.173869,-2681.334243,1406.391290
1476.280872,-6217.729913,-3294.210641,2368.659014
1476.281183,-7550.100608,-4136.915689,3256.906145
1476.281495,-9474.636058,-5898.935335,2664.741391
1476.281806,-8956.491898,-4979.620737,2368.659014
1476.282117,-10732.986159,-2987.772442,-74.020594
1476.282429,-10140.821405,-153.219100,-296.082377
1476.282740,-10288.862594,2221.676944,-814.226536
1476.283052,-10881.027347,2451.505594,222.061783
1476.283363,-9326.594869,612.876398,1036.288319
1476.283675,-8142.265362,-842.705048,444.123565
1476.283986,-5921.647536,-306.438199,148.041188
1476.284298,-5329.482782,612.876398,296.082377
1476.284609,-5255.462188,536.266849,370.102971
1476.284920,-6217.729913,153.219100,-0.000000
1476.285232,-9326.594869,-1302.362347,-0.000000
1476.285543,-11251.130318,-1072.533697,-74.020594
1476.285855,-11917.315666,1608.800546,-444.123565
1476.286166,-12287.418637,2068.457845,-518.144159
1476.286478,-12953.603985,1225.752797,296.082377
1476.286789,-12361.439231,1225.752797,-0.000000
1476.287101,-12879.583391,1532.190996,-296.082377
1476.287412,-11843.295072,1455.581446,444.123565
1476.287723,-9622.677246,229.828649,666.185348
1476.288035,-8882.471304,0.000000,-1258.350101
1476.288346,-7031.956449,306.438199,-1406.391290
1476.288658,-6439.791695,459.657299,-296.082377
1476.288969,-7105.977043,153.219100,740.205942
1476.289281,-9622.677246,-612.876398,2664.741391
1476.289592,-10362.883188,-1149.143247,3034.844362
1476.289904,-9622.677246,-689.485948,1850.514855
1476.290215,-9474.636058,1685.410096,-0.000000
1476.290526,-7402.059420,3677.258390,-518.144159
1476.290838,-4959.379811,2604.724693,-1998.556043
1476.291149,-4885.359217,689.485948,-2220.617826
1476.291461,-5329.482782,-2068.457845,-962.267725
1476.291772,-7402.059420,-3294.210641,444.123565
1476.292084,-9474.636058,-4519.963438,2368.659014
1476.292395,-9400.615463,-4749.792088,2516.700203
1476.292707,-9918.759623,-4673.182538,2812.782580
1476.293018,-9770.718434,-3140.991542,2368.659014
1476.293329,-9918.759623,153.219100,296.082377
1476.293641,-9770.718434,2528.115143,1554.432478
1476.293952,-9770.718434,2068.457845,1258.350101
1476.294264,-8586.388927,3370.820191,1036.288319
1476.294575,-6143.709319,2528.115143,-74.020594
1476.294887,-4663.297435,1991.848295,-740.205942
1476.295198,-5403.503377,1685.410096,-888.247130
1476.295510,-6735.874072,995.924147,-1332.370696
1476.295821,-9400.615463,-306.438199,-1480.411884
1476.296132,-11621.233289,-2145.067394,296.082377
1476.296444,-11695.253884,-1838.629195,518.144159
1476.296755,-12805.562797,-1225.752797,-666.185348
1476.297067,-13323.706956,306.438199,962.267725
1476.297378,-11991.336260,1302.362347,1332.370696
1476.297690,-11029.068536,2528.115143,1924.535449
1476.298001,-9696.697840,2528.115143,3627.009116
1476.298313,-10140.821405,1149.143247,3034.844362
1476.298624,-7105.977043,0.000000,1554.432478
1476.298936,-5921.647536,306.438199,-666.185348
1476.299247,-5773.606348,-76.609550,-1554.432478
1476.299558,-5625.565159,-689.485948,-2516.700203
1476.299870,-8660.409521,-1838.629195,-1702.473667
1476.300181,-10807.006753,-3217.601092,-296.082377
1476.300493,-12509.480420,-2911.162892,1480.411884
1476.300804,-13767.830521,-2451.505594,2812.782580
1476.301116,-13101.645173,-459.657299,2664.741391
1476.301427,-10140.821405,1838.629195,2368.659014
1476.301739,-6513.812290,3524.039291,1554.432478
1476.302050,-4515.256246,3983.696590,1480.411884
1476.302361,-5403.503377,2451.505594,1184.329507
1476.302673,-3701.029710,766.095498,370.102971
1476.302984,-962.267725,153.219100,-592.164754
1476.303296,-1258.350101,-1991.848295,-814.226536
1476.303607,-4293.194464,-3907.087040,-1850.514855
1476.303918,-7476.080014,-5132.839837,-1628.453072
1476.304230,-11547.212695,-4136.915689,-222.061783
1476.304541,-16062.468941,-3753.867940,1924.535449
1476.304853,-16876.695478,-1838.629195,2146.597232
1476.305164,-17468.860231,612.876398,592.164754
1476.305475,-13397.727550,1455.581446,2368.659014
1476.305787,-8956.491898,2068.457845,1776.494261
1476.306098,-6291.750507,2834.553343,1406.391290
1476.306409,-3627.009116,2987.772442,518.144159
1476.306721,-2960.823768,1608.800546,962.267725
1476.307032,-2294.638420,76.609550,-666.185348
1476.307343,-5033.400406,383.047749,-3256.906145
1476.307655,-9326.594869,306.438199,-3849.070898
1476.307966,-10732.986159,766.095498,-3182.885551
1476.308278,-14508.036463,689.485948,-1480.411884
1476.308589,-16580.613101,-76.609550,888.247130
1476.308900,-17838.963202,-536.266849,1998.556043
1476.309212,-16136.489536,-306.438199,2072.576638
1476.309523,-11103.089130,2068.457845,1998.556043
1476.309834,-8512.368333,2298.286494,1110.308913
1476.310146,-3923.091493,2068.457845,962.267725
1476.310457,-3034.844362,1685.410096,1184.329507
1476.310769,-4737.318029,-1455.581446,1184.329507
1476.311080,-4219.173869,-1762.019645,1036.288319
1476.311391,-6957.935855,-1225.752797,-148.041188
1476.311703,-9844.739029,-2604.724693,814.226536
1476.312014,-11177.109724,-3217.601092,740.205942
1476.312325,-10066.800811,-2068.457845,962.267725
1476.312637,-10658.965565,-919.314598,814.226536
1476.312948,-11695.253884,-1225.752797,1998.556043
1476.313259,-11325.150913,-1378.971896,962.267725
1476.313571,-8956.491898,842.705048,-0.000000
1476.313882,-6439.791695,3140.991542,-0.000000
1476.314194,-4589.276840,2451.505594,888.247130
1476.314505,-3552.988522,-153.219100,740.205942
1476.314816,-3108.864956,-2145.067394,1406.391290
1476.315128,-4071.132681,-2528.115143,3108.864956
1476.315439,-4885.359217,-3294.210641,1776.494261
1476.315750,-7105.977043,-1072.533697,888.247130
1476.316062,-11917.315666,-2374.896044,-444.123565
1476.316373,-13619.789333,-1532.190996,-888.247130
1476.316685,-13841.851115,2451.505594,-740.205942
1476.316996,-15618.345376,3524.039291,-666.185348
1476.317307,-15396.283594,1838.629195,1998.556043
1476.317619,-12805.562797,0.000000,814.226536
1476.317930,-9030.512492,1225.752797,148.041188
1476.318241,-3923.091493,1762.019645,1036.288319
1476.318553,-2220.617826,536.266849,370.102971
1476.318864,-4885.359217,0.000000,296.082377
1476.319175,-7031.956449,-919.314598,-0.000000
1476.319487,-8290.306550,0.000000,222.061783
1476.319798,-11251.130318,1225.752797,-148.041188
1476.320110,-13989.892304,2681.334243,-444.123565
1476.320421,-14137.933492,1685.410096,-222.061783
1476.320732,-10881.027347,1455.581446,-148.041188
1476.321044,-10881.027347,2298.286494,296.082377
1476.321355,-7994.224174,1685.410096,1702.473667
1476.321666,-8068.244768,-459.657299,-0.000000
1476.321978,-7550.100608,-1608.800546,592.164754
1476.322289,-4589.276840,-1072.533697,-592.164754
1476.322601,-5921.647536,-459.657299,-740.205942
1476.322912,-5847.626942,-459.657299,222.061783
1476.323223,-8882.471304,-2298.286494,740.205942
1476.323535,-11473.192101,-4596.572988,2590.720797
1476.323846,-10732.986159,-3217.601092,3923.091493
1476.324157,-11695.253884,-995.924147,3552.988522
1476.324469,-10140.821405,-689.485948,2220.617826
1476.324780,-6883.915261,0.000000,148.041188
1476.325091,-4737.318029,1532.190996,-962.267725
1476.325403,-3182.885551,1302.362347,-1776.494261
1476.325714,-5403.503377,383.047749,-1480.411884
1476.326026,-7105.977043,-1149.143247,148.041188
1476.326337,-7476.080014,-2604.724693,296.082377
1476.326648,-8586.388927,-3140.991542,-444.123565
1476.326960,-11547.212695,-1455.581446,296.082377
1476.327271,-13175.665768,1302.362347,-148.041188
1476.327582,-13249.686362,2145.067394,-0.000000
1476.327894,-13027.624579,1838.629195,1554.432478
1476.328205,-12435.459826,1302.362347,1776.494261
1476.328517,-9030.512492,1915.238745,1406.391290
1476.328828,-5995.668130,1302.362347,1258.350101
1476.329139,-4515.256246,459.657299,296.082377
1476.329451,-4737.318029,0.000000,-666.185348
1476.329762,-8660.409521,-766.095498,-1998.556043
1476.330073,-12509.480420,-1915.238745,-1184.329507
1476.330385,-13323.706956,0.000000,-1924.535449
1476.330696,-13767.830521,383.047749,-222.061783
1476.331007,-14211.954086,-689.485948,296.082377
1476.331319,-13175.665768,-1378.971896,888.247130
1476.331630,-11325.150913,536.266849,2368.659014
1476.331942,-8068.244768,2604.724693,3775.050304
1476.332253,-6883.915261,1762.019645,4663.297435
1476.332564,-4737.318029,919.314598,2072.576638
1476.332876,-2368.659014,1455.581446,-0.000000
1476.333187,-962.267725,1302.362347,-814.226536
1476.333498,-1850.514855,0.000000,-2072.576638
1476.333810,-5847.626942,-1225.752797,-2590.720797
1476.334121,-9844.739029,-2451.505594,-1258.350101
1476.334433,-12879.583391,-3677.258390,1554.432478
1476.334744,-14359.995275,-3753.867940,2072.576638
1476.335055,-13989.892304,-2145.067394,1110.308913
1476.335367,-12805.562797,-612.876398,2072.576638
1476.335678,-9548.656652,1149.143247,1480.411884
1476.335989,-7105.977043,2681.334243,1628.453072
1476.336301,-4737.318029,3600.648841,592.164754
1476.336612,-4071.132681,1915.238745,2072.576638
1476.336923,-1998.556043,0.000000,1406.391290
1476.337235,-1628.453072,-383.047749,814.226536
1476.337546,-4219.173869,-153.219100,-1110.308913
1476.337858,-7179.997637,0.000000,-1258.350101
1476.338169,-12657.521608,-1149.143247,-370.102971
1476.338480,-16950.716072,-2451.505594,-0.000000
1476.338792,-18061.024985,-1225.752797,814.226536
1476.339103,-17320.819043,76.609550,-740.205942
1476.339414,-14434.015869,459.657299,-518.144159
1476.339726,-11251.130318,229.828649,-0.000000
1476.340037,-8660.409521,0.000000,-0.000000
1476.340348,-6661.853478,1302.362347,1924.535449
1476.340660,-3849.070898,2068.457845,3552.988522
1476.340971,-4589.276840,689.485948,1554.432478
1476.341283,-5329.482782,459.657299,-740.205942
1476.341594,-5773.606348,76.609550,-2812.782580
1476.341905,-7920.203579,612.876398,-2220.617826
1476.342217,-11621.233289,76.609550,-1110.308913
1476.342528,-15248.242405,-689.485948,518.144159
1476.342839,-18727.210333,-1838.629195,1776.494261
1476.343151,-15618.345376,-2451.505594,2960.823768
1476.343462,-10288.862594,-842.705048,1998.556043
1476.343774,-7179.997637,0.000000,-0.000000
1476.344085,-3256.906145,919.314598,-370.102971
1476.344396,-2590.720797,1072.533697,-2368.659014
1476.344708,-2072.576638,1225.752797,222.061783
1476.345019,-3478.967927,153.219100,2516.700203
1476.345330,-5329.482782,-2757.943793,2664.741391
1476.345642,-6217.729913,-4213.525239,2368.659014
1476.345953,-8586.388927,-4979.620737,2886.803174
1476.346264,-7994.224174,-3064.381992,2886.803174
1476.346576,-11177.109724,-153.219100,518.144159
1476.346887,-13693.809927,0.000000,444.123565
1476.347199,-13693.809927,-306.438199,518.144159
1476.347510,-11991.336260,612.876398,-222.061783
1476.347821,-8882.471304,3907.087040,-592.164754
1476.348133,-7105.977043,3217.601092,-1480.411884
1476.348444,-5847.626942,1225.752797,-1406.391290
1476.348755,-4811.338623,306.438199,-370.102971
1476.349067,-4589.276840,76.609550,592.164754
1476.349378,-5921.647536,-919.314598,1258.350101
1476.349690,-7994.224174,-2068.457845,1406.391290
1476.350001,-10658.965565,-1762.019645,148.041188
1476.350312,-12731.542202,0.000000,814.226536
1476.350624,-12953.603985,2221.676944,518.144159
1476.350935,-15026.180623,1915.238745,-0.000000
1476.351246,-15322.262999,842.705048,1184.329507
1476.351558,-13027.624579,842.705048,740.205942
1476.351869,-8882.471304,612.876398,-296.082377
1476.352180,-7698.141797,-459.657299,-1332.370696
1476.352492,-7254.018232,-1149.143247,-1628.453072
1476.352803,-6069.688724,536.266849,-1332.370696
1476.353115,-9178.553681,0.000000,-0.000000
1476.353426,-9400.615463,-919.314598,1850.514855
1476.353737,-8364.327145,-995.924147,1924.535449
1476.354049,-9326.594869,-842.705048,1702.473667
1476.354360,-8068.244768,-306.438199,3182.885551
1476.354671,-7105.977043,-536.266849,1554.432478
1476.354983,-8216.285956,1532.190996,518.144159
1476.355294,-7105.977043,2987.772442,962.267725
1476.355606,-6957.935855,1608.800546,-444.123565
1476.355917,-6809.894666,0.000000,-222.061783
1476.356228,-5847.626942,-536.266849,-1332.370696
1476.356540,-5699.585753,-2145.067394,-962.267725
1476.356851,-6587.832884,-2987.772442,-0.000000
1476.357162,-8734.430116,-1838.629195,592.164754
1476.357474,-11473.192101,-2451.505594,740.205942
1476.357785,-12435.459826,-2451.505594,2368.659014
1476.358096,-12139.377449,-689.485948,1924.535449
1476.358408,-8808.450710,1532.190996,1036.288319
1476.358719,-7624.121203,2374.896044,666.185348
1476.359031,-6069.688724,2451.505594,1258.350101
1476.359342,-5625.565159,2221.676944,666.185348
1476.359653,-7550.100608,842.705048,814.226536
1476.359965,-8660.409521,229.828649,370.102971
1476.360276,-8882.471304,153.219100,-1332.370696
1476.360587,-8808.450710,-536.266849,-2294.638420
1476.360899,-10955.047942,-766.095498,-1258.350101
1476.361210,-11843.295072,-995.924147,-1110.308913
1476.361522,-13397.727550,-919.314598,-740.205942
1476.361833,-13545.768739,0.000000,1406.391290
1476.362144,-12435.459826,-1302.362347,2812.782580
1476.362456,-10955.047942,-459.657299,2220.617826
1476.362767,-7698.141797,1149.143247,1850.514855
1476.363078,-4811.338623,2145.067394,888.247130
1476.363390,-5847.626942,1225.752797,148.041188
1476.363701,-7772.162391,842.705048,-1332.370696
1476.364012,-8142.265362,-689.485948,-1036.288319
1476.364324,-10881.027347,-2987.772442,-1332.370696
1476.364635,-10955.047942,-2757.943793,222.061783
1476.364947,-11547.212695,-2451.505594,-0.000000
1476.365258,-12879.583391,-1991.848295,-370.102971
1476.365569,-11621.233289,0.000000,1184.329507
1476.365881,-9844.739029,1378.971896,1776.494261
1476.366192,-8586.388927,2145.067394,1998.556043
1476.366503,-6735.874072,2068.457845,2516.700203
1476.366815,-3849.070898,919.314598,1258.350101
1476.367126,-518.144159,383.047749,1628.453072
1476.367438,-148.041188,-689.485948,1110.308913
1476.367749,-2590.720797,-1608.800546,370.102971
1476.368060,-6513.812290,-3447.429741,148.041188
1476.368372,-11029.068536,-4213.525239,1184.329507
1476.368683,-12583.501014,-2221.676944,1184.329507
1476.368994,-14508.036463,-536.266849,518.144159
1476.369306,-15618.345376,0.000000,592.164754
1476.369617,-14063.912898,612.876398,666.185348
1476.369928,-11917.315666,2604.724693,666.185348
1476.370240,-7994.224174,4213.525239,1406.391290
1476.370551,-5107.421000,3524.039291,1850.514855
1476.370863,-2738.761985,1302.362347,1554.432478
1476.371174,-1110.308913,76.609550,-296.082377
1476.371485,-1628.453072,153.219100,-740.205942
1476.371797,-4145.153275,0.000000,-2516.700203
1476.372108,-11991.336260,-842.705048,-2886.803174
1476.372419,-16580.613101,-766.095498,-740.205942
1476.372731,-18653.189738,-842.705048,-370.102971
1476.373042,-18209.066173,459.657299,1184.329507
1476.373354,-16062.468941,842.705048,1406.391290
1476.373665,-13767.830521,383.047749,592.164754
1476.373976,-9252.574275,2068.457845,1554.432478
1476.374288,-6587.832884,3140.991542,1110.308913
1476.374599,-4145.153275,2604.724693,1554.432478
1476.374910,-2516.700203,1762.019645,814.226536
1476.375222,-3034.844362,-229.828649,-0.000000
1476.375533,-3256.906145,-3294.210641,-592.164754
1476.375844,-5107.421000,-2834.553343,-1110.308913
1476.376156,-8290.306550,-2298.286494,444.123565
1476.376467,-12287.418637,-3064.381992,2146.597232
1476.376779,-15988.448347,-4903.011187,3182.885551
1476.377090,-16358.551318,-3983.696590,2812.782580
1476.377401,-12953.603985,-229.828649,1628.453072
1476.377713,-8956.491898,2451.505594,-148.041188
1476.378024,-6217.729913,4366.744339,-0.000000
1476.378335,-4071.132681,4596.572988,-1554.432478
1476.378647,-3034.844362,3217.601092,-592.164754
1476.378958,-2072.576638,383.047749,1924.535449
1476.379270,-592.164754,-1225.752797,2516.700203
1476.379581,-1998.556043,-3294.210641,740.205942
1476.379892,-5921.647536,-5132.839837,740.205942
1476.380204,-9474.636058,-5669.106685,1110.308913
1476.380515,-12361.439231,-4136.915689,444.123565
1476.380826,-15544.324782,-3907.087040,1776.494261
1476.381138,-17468.860231,-4519.963438,2146.597232
1476.381449,-17246.798449,-4749.792088,962.267725
1476.381760,-13545.768739,-3064.381992,592.164754
1476.382072,-8956.491898,-919.314598,-0.000000
1476.382383,-6439.791695,-536.266849,-0.000000
1476.382695,-4589.276840,-306.438199,-296.082377
1476.383006,-2812.782580,-766.095498,518.144159
1476.383317,-3256.906145,-1378.971896,1554.432478
1476.383629,-5181.441594,-1915.238745,1184.329507
1476.383940,-7031.956449,-1149.143247,-148.041188
1476.384251,-9770.718434,-1685.410096,-296.082377
1476.384563,-12435.459826,-2451.505594,666.185348
1476.384874,-14137.933492,-2145.067394,592.164754
1476.385186,-14730.098246,-1838.629195,296.082377
1476.385497,-15988.448347,-2681.334243,518.144159
1476.385808,-13471.748144,-1838.629195,-370.102971
1476.386120,-9992.780217,0.000000,-2294.638420
1476.386431,-6587.832884,229.828649,-2590.720797
1476.386742,-3330.926739,-2374.896044,-1480.411884
1476.387054,-3256.906145,-5439.278036,-370.102971
1476.387365,-4737.318029,-5898.935335,1554.432478
1476.387676,-5995.668130,-6665.030833,4367.215058
1476.387988,-8216.285956,-9652.803275,4367.215058
1476.388299,-9548.656652,-9422.974625,3330.926739
1476.388611,-10436.903782,-6741.640382,1332.370696
1476.388922,-9622.677246,-4060.306139,-0.000000
1476.389233,-10732.986159,-2451.505594,-1036.288319
1476.389545,-11917.315666,-919.314598,-1258.350101
1476.389856,-11029.068536,-153.219100,-888.247130
1476.390167,-8734.430116,-2145.067394,444.123565
1476.390479,-7476.080014,-2681.334243,1184.329507
1476.390790,-6069.688724,-2757.943793,-370.102971
1476.391102,-3849.070898,-459.657299,-1110.308913
1476.391413,-3330.926739,-1455.581446,-0.000000
1476.391724,-5551.544565,-3600.648841,1110.308913
1476.392036,-9844.739029,-3524.039291,2220.617826
1476.392347,-13471.748144,-1838.629195,2442.679609
1476.392658,-14359.995275,-2451.505594,2516.700203
1476.392970,-13693.809927,-2374.896044,1628.453072
1476.393281,-11843.295072,306.438199,-1850.514855
1476.393592,-7624.121203,2528.115143,-3997.112087
1476.393904,-5699.585753,612.876398,-2590.720797
1476.394215,-6661.853478,-1455.581446,-0.000000
1476.394527,-8808.450710,-1532.190996,1332.370696
1476.394838,-10214.842000,-2374.896044,2516.700203
1476.395149,-9178.553681,-4673.182538,3923.091493
1476.395461,-9622.677246,-6205.373534,3108.864956
1476.395772,-8438.347739,-5056.230287,-0.000000
1476.396083,-7031.956449,-3830.477490,-1480.411884
1476.396395,-7920.203579,-5209.449386,-666.185348
1476.396706,-11251.130318,-5362.668486,1480.411884
1476.397018,-13619.789333,-3753.867940,2812.782580
1476.397329,-13101.645173,-2604.724693,2886.803174
1476.397640,-10436.903782,-3064.381992,3256.906145
1476.397952,-6143.709319,-2221.676944,2368.659014
1476.398263,-1924.535449,-383.047749,-0.000000
1476.398574,-740.205942,-1302.362347,-2146.597232
1476.398886,-222.061783,-3064.381992,-666.185348
1476.399197,-2146.597232,-4060.306139,-0.000000
1476.399508,-6439.791695,-4749.792088,2072.576638
1476.399820,-11769.274478,-6435.202183,3034.844362
1476.400131,-14730.098246,-8886.707777,2886.803174
1476.400443,-14211.954086,-6128.763984,2516.700203
1476.400754,-13989.892304,-3907.087040,592.164754
1476.401065,-12509.480420,-3064.381992,-1110.308913
1476.401377,-10510.924376,-4903.011187,-2368.659014
1476.401688,-6735.874072,-4673.182538,-1702.473667
1476.401999,-3627.009116,-2451.505594,-592.164754
1476.402311,-3108.864956,-689.485948,-0.000000
1476.402622,-6439.791695,-2681.334243,1184.329507
1476.402933,-10066.800811,-4903.011187,2516.700203
1476.403245,-10881.027347,-4290.134789,2590.720797
1476.403556,-11103.089130,76.609550,2072.576638
1476.403868,-12509.480420,1455.581446,666.185348
1476.404179,-11547.212695,-1608.800546,-518.144159
1476.404490,-10584.944971,-3907.087040,-2664.741391
1476.404802,-9178.553681,-2374.896044,-3478.967927
1476.405113,-8586.388927,383.047749,-2960.823768
1476.405424,-9770.718434,76.609550,-1924.535449
1476.405736,-10288.862594,-1302.362347,148.041188
1476.406048,-10510.924376,-3907.087040,2072.576638
1476.406359,-10658.965565,-6358.592633,2368.659014
1476.406671,-9696.697840,-4749.792088,2368.659014
1476.406982,-9548.656652,-2221.676944,2146.597232
1476.407293,-8142.265362,-3064.381992,888.247130
1476.407605,-5551.544565,-6205.373534,-444.123565
1476.407916,-4441.235652,-5362.668486,-0.000000
1476.408227,-6069.688724,-4366.744339,-296.082377
1476.408539,-8586.388927,-2757.943793,-0.000000
1476.408850,-9844.739029,-536.266849,-74.020594
1476.409161,-11251.130318,1455.581446,-444.123565
1476.409472,-10584.944971,1991.848295,740.205942
1476.409784,-10807.006753,1072.533697,740.205942
1476.410095,-10881.027347,689.485948,1258.350101
1476.410406,-8364.327145,-689.485948,1332.370696
1476.410718,-7328.038826,-689.485948,592.164754
1476.411029,-6217.729913,-1225.752797,1110.308913
1476.411340,-4515.256246,-2987.772442,-0.000000
1476.411652,-3849.070898,-5362.668486,148.041188
1476.411963,-3997.112087,-6435.202183,-0.000000
1476.412274,-6069.688724,-4366.744339,-296.082377
1476.412586,-9326.594869,-3524.039291,296.082377
1476.412897,-13027.624579,-3140.991542,1036.288319
1476.413208,-13471.748144,-3600.648841,3034.844362
1476.413520,-12879.583391,-4519.963438,3478.967927
1476.413831,-11251.130318,-5132.839837,3256.906145
1476.414142,-9474.636058,-5286.058936,2960.823768
1476.414454,-7105.977043,-6128.763984,1110.308913
1476.414765,-4441.235652,-6894.859482,518.144159
1476.415076,-3997.112087,-6818.249932,-370.102971
1476.415387,-5033.400406,-7048.078582,444.123565
1476.415699,-6735.874072,-7124.688131,740.205942
1476.416010,-8364.327145,-6052.154434,-0.000000
1476.416321,-9770.718434,-3907.087040,370.102971
1476.416633,-11547.212695,-2374.896044,370.102971
1476.416944,-13027.624579,-1302.362347,296.082377
1476.417255,-14359.995275,-1685.410096,444.123565
1476.417567,-14508.036463,-1762.019645,740.205942
1476.417878,-13323.706956,-459.657299,1258.350101
1476.418189,-11325.150913,-919.314598,814.226536
1476.418501,-8882.471304,-2834.553343,1110.308913
1476.418812,-6513.812290,-5669.106685,518.144159
1476.419123,-4441.235652,-7277.907231,-296.082377
1476.419435,-4811.338623,-5515.887586,-962.267725
1476.419746,-6957.935855,-3830.477490,-1998.556043
1476.420057,-7550.100608,-2757.943793,-2294.638420
1476.420368,-9844.739029,-1608.800546,-1332.370696
1476.420680,-11843.295072,-1302.362347,-814.226536
1476.420991,-13323.706956,-689.485948,-74.020594
1476.421302,-13545.768739,-995.924147,740.205942
1476.421614,-10955.047942,-1685.410096,814.226536
1476.421925,-8956.491898,-1532.190996,592.164754
1476.422236,-7772.162391,-3447.429741,-148.041188
1476.422548,-5995.668130,-2987.772442,-592.164754
1476.422859,-4441.235652,-1838.629195,592.164754
1476.423170,-4737.318029,-2298.286494,592.164754
1476.423482,-5403.503377,-1915.238745,1110.308913
1476.423793,-5847.626942,-1685.410096,740.205942
1476.424104,-6883.915261,-1915.238745,222.061783
1476.424416,-7031.956449,-2298.286494,666.185348
1476.424727,-7846.182985,-1915.238745,148.041188
1476.425038,-10732.986159,-2451.505594,370.102971
1476.425349,-11843.295072,-3217.601092,1258.350101
1476.425661,-11325.150913,-3753.867940,2146.597232
1476.425972,-9770.718434,-4519.963438,2590.720797
1476.426283,-8956.491898,-4903.011187,2220.617826
1476.426595,-7328.038826,-5132.839837,2664.741391
1476.426906,-6883.915261,-4366.744339,1332.370696
1476.427217,-5477.523971,-2374.896044,518.144159
1476.427529,-5773.606348,-1915.238745,-222.061783
1476.427840,-5921.647536,-536.266849,-888.247130
1476.428151,-6661.853478,-459.657299,-1036.288319
1476.428463,-8364.327145,-1225.752797,-296.082377
1476.428774,-10436.903782,-2298.286494,296.082377
1476.429085,-12065.356855,-3064.381992,1332.370696
1476.429397,-12953.603985,-4213.525239,2072.576638
1476.429708,-13693.809927,-5362.668486,2146.597232
1476.430019,-13249.686362,-4673.182538,2368.659014
1476.430330,-11991.336260,-3370.820191,1998.556043
1476.430642,-9770.718434,-2987.772442,1184.329507
1476.430953,-7772.162391,-2374.896044,444.123565
1476.431264,-6809.894666,-1072.533697,-518.144159
1476.431576,-5625.565159,-459.657299,-0.000000
1476.431887,-5773.606348,-2528.115143,-518.144159
1476.432198,-7031.956449,-3600.648841,-74.020594
1476.432510,-8734.430116,-3600.648841,-0.000000
1476.432821,-9992.780217,-4519.963438,592.164754
1476.433132,-12139.377449,-5209.449386,1332.370696
1476.433444,-13989.892304,-5898.935335,2294.638420
1476.433755,-12731.542202,-5439.278036,1554.432478
1476.434066,-10732.986159,-5132.839837,1924.535449
1476.434378,-8586.388927,-4903.011187,1702.473667
1476.434689,-6365.771101,-3677.258390,592.164754
1476.435000,-5477.523971,-2145.067394,-74.020594
1476.435311,-4663.297435,-1072.533697,-740.205942
1476.435623,-4885.359217,-306.438199,-1184.329507
1476.435934,-5847.626942,383.047749,-1702.473667
1476.436245,-6809.894666,459.657299,-1554.432478
1476.436557,-9030.512492,-1225.752797,-1554.432478
1476.436868,-10732.986159,-3064.381992,592.164754
1476.437179,-10214.842000,-3370.820191,1258.350101
1476.437491,-10732.986159,-3600.648841,1406.391290
1476.437802,-9400.615463,-3983.696590,2220.617826
1476.438113,-8438.347739,-3753.867940,1628.453072
1476.438425,-8364.327145,-3217.601092,222.061783
1476.438736,-5403.503377,-1302.362347,666.185348
1476.439047,-6069.688724,-1455.581446,-2072.576638
1476.439359,-7105.977043,-1915.238745,-444.123565
1476.439670,-10362.883188,-2834.553343,-740.205942
1476.439981,-11769.274478,-3140.991542,592.164754
1476.440292,-11769.274478,-1838.629195,740.205942
1476.440604,-11029.068536,-1762.019645,2368.659014
1476.440915,-10955.047942,-3753.867940,2146.597232
1476.441226,-9992.780217,-5592.497135,2368.659014
1476.441538,-9400.615463,-4290.134789,2738.761985
1476.441849,-7846.182985,-2145.067394,3330.926739
1476.442160,-10436.903782,-459.657299,2146.597232
1476.442472,-11325.150913,766.095498,1850.514855
1476.442783,-9770.718434,536.266849,1628.453072
1476.443094,-8512.368333,229.828649,666.185348
1476.443406,-5773.606348,1378.971896,1258.350101
1476.443717,-7698.141797,76.609550,296.082377
1476.444028,-7624.121203,-2451.505594,2368.659014
1476.444340,-9918.759623,-4366.744339,3701.029710
1476.444651,-10140.821405,-3064.381992,5403.503377
1476.444962,-12139.377449,-1915.238745,6439.791695
1476.445273,-13545.768739,-2681.334243,6735.874072
1476.445585,-10066.800811,-2068.457845,6069.688724
1476.445896,-7031.956449,306.438199,4145.153275
1476.446207,-5477.523971,1532.190996,3701.029710
1476.446519,-5107.421000,766.095498,2146.597232
1476.446830,-5551.544565,-306.438199,1628.453072
1476.447141,-5773.606348,689.485948,2812.782580
1476.447453,-6661.853478,536.266849,3034.844362
1476.447764,-11325.150913,-459.657299,3478.967927
1476.448075,-11547.212695,-229.828649,6291.750507
1476.448387,-10807.006753,-1225.752797,5995.668130
1476.448698,-8290.306550,-1915.238745,7550.100608
1476.449009,-7846.182985,-1302.362347,6217.729913
1476.449321,-7994.224174,-76.609550,5921.647536
1476.449632,-6587.832884,842.705048,4441.235652
1476.449943,-5329.482782,1608.800546,2960.823768
1476.450254,-5033.400406,3064.381992,2738.761985
1476.450566,-7846.182985,3140.991542,2368.659014
1476.450877,-8808.450710,2298.286494,3108.864956
1476.451188,-8586.388927,1072.533697,3701.029710
1476.451500,-8956.491898,0.000000,4737.318029
1476.451811,-9252.574275,-1225.752797,5329.482782
1476.452122,-9400.615463,-2987.772442,6143.709319
1476.452434,-8660.409521,-3064.381992,5181.441594
1476.452745,-8068.244768,-766.095498,5995.668130
1476.453056,-8660.409521,459.657299,3775.050304
1476.453368,-10066.800811,1608.800546,4293.194464
1476.453679,-10436.903782,2528.115143,2960.823768
1476.453990,-9548.656652,3140.991542,3849.070898
1476.454302,-8734.430116,2298.286494,3034.844362
1476.454613,-7846.182985,612.876398,2960.823768
1476.454924,-8068.244768,-153.219100,2886.803174
1476.455235,-6883.915261,-612.876398,3108.864956
1476.455547,-6883.915261,-1532.190996,3997.112087
1476.455858,-8142.265362,-2298.286494,3701.029710
1476.456169,-9252.574275,-1608.800546,4293.194464
1476.456481,-10955.047942,-1072.533697,3923.091493
1476.456792,-10362.883188,-689.485948,4219.173869
1476.457103,-10955.047942,459.657299,3849.070898
1476.457415,-10881.027347,919.314598,2960.823768
1476.457726,-9918.759623,1302.362347,2294.638420
1476.458037,-8586.388927,1302.362347,814.226536
1476.458349,-7476.080014,1915.238745,1406.391290
1476.458660,-7698.141797,1072.533697,1998.556043
1476.458971,-9252.574275,-842.705048,2886.803174
1476.459283,-9400.615463,-1915.238745,4145.153275
1476.459594,-9622.677246,-2221.676944,5033.400406
1476.459905,-9178.553681,-2068.457845,4959.379811
1476.460216,-9030.512492,-1915.238745,3775.050304
1476.460528,-7328.038826,-1225.752797,2294.638420
1476.460839,-5181.441594,383.047749,740.205942
1476.461150,-5773.606348,1302.362347,-888.247130
1476.461462,-7328.038826,1762.019645,-666.185348
1476.461773,-9992.780217,2298.286494,222.061783
1476.462084,-12065.356855,1915.238745,2368.659014
1476.462396,-13545.768739,612.876398,4071.132681
1476.462707,-13175.665768,-612.876398,5033.400406
1476.463018,-11029.068536,-1378.971896,4663.297435
1476.463330,-7772.162391,-1608.800546,3552.988522
1476.463641,-4663.297435,-2298.286494,1332.370696
1476.463952,-3552.988522,-1608.800546,814.226536
1476.464264,-4737.318029,-1149.143247,444.123565
1476.464575,-8068.244768,-689.485948,1332.370696
1476.464886,-10881.027347,76.609550,2812.782580
1476.465197,-13767.830521,1378.971896,4071.132681
1476.465509,-14137.933492,995.924147,5107.421000
1476.465820,-12879.583391,1149.143247,4885.359217
1476.466131,-10436.903782,0.000000,4071.132681
1476.466443,-7179.997637,-383.047749,3627.009116
1476.466754,-5033.400406,-383.047749,2368.659014
1476.467065,-4367.215058,-536.266849,1480.411884
1476.467377,-4145.153275,383.047749,1776.494261
1476.467688,-6291.750507,842.705048,2368.659014
1476.467999,-9474.636058,153.219100,3330.926739
1476.468311,-12065.356855,229.828649,5033.400406
1476.468622,-13841.851115,919.314598,5625.565159
1476.468933,-11769.274478,383.047749,5699.585753
1476.469245,-9252.574275,-766.095498,4219.173869
1476.469556,-6883.915261,-919.314598,3552.988522
1476.469867,-5107.421000,-383.047749,3256.906145
1476.470178,-5847.626942,76.609550,4293.194464
1476.470490,-7476.080014,306.438199,6661.853478
1476.470801,-11103.089130,0.000000,8364.327145
1476.471112,-13027.624579,-689.485948,9326.594869
1476.471424,-11621.233289,-459.657299,8586.388927
1476.471735,-8660.409521,459.657299,5921.647536
1476.472046,-5107.421000,2221.676944,2886.803174
1476.472358,-2886.803174,2451.505594,-0.000000
1476.472669,-3034.844362,2298.286494,-814.226536
1476.472980,-5107.421000,842.705048,518.144159
1476.473292,-9474.636058,689.485948,2812.782580
1476.473603,-13175.665768,-306.438199,5921.647536
1476.473914,-15396.283594,-1762.019645,8438.347739
1476.474226,-15322.262999,-2604.724693,9622.677246
1476.474537,-12657.521608,-2374.896044,9770.718434
1476.474848,-9104.533087,-1072.533697,8512.368333
1476.475159,-5699.585753,-766.095498,5403.503377
1476.475471,-2220.617826,0.000000,3108.864956
1476.475782,-1628.453072,1991.848295,592.164754
1476.476093,-1776.494261,3064.381992,-370.102971
1476.476405,-3923.091493,3370.820191,-0.000000
1476.476716,-6957.935855,2681.334243,1406.391290
1476.477027,-10288.862594,1838.629195,2960.823768
1476.477339,-12509.480420,-536.266849,5107.421000
1476.477650,-14211.954086,-2068.457845,6365.771101
1476.477961,-14582.057057,-2221.676944,6439.791695
1476.478273,-13693.809927,-1149.143247,6143.709319
1476.478584,-10584.944971,0.000000,5847.626942
1476.478895,-9326.594869,-536.266849,4885.359217
1476.479207,-7550.100608,-842.705048,4367.215058
1476.479518,-4737.318029,-612.876398,3330.926739
1476.479829,-2516.700203,459.657299,1776.494261
1476.480140,-1998.556043,1072.533697,814.226536
1476.480452,-3256.906145,-306.438199,-740.205942
1476.480763,-6069.688724,-1455.581446,-814.226536
1476.481074,-9844.739029,-1302.362347,592.164754
1476.481386,-13841.851115,-1378.971896,2590.720797
1476.481697,-17987.004391,-995.924147,5181.441594
1476.482008,-21391.951724,-766.095498,7402.059420
1476.482320,-19985.560434,-306.438199,8586.388927
1476.482631,-15248.242405,0.000000,8216.285956
1476.482942,-9252.574275,536.266849,6587.832884
1476.483254,-1036.288319,-153.219100,3256.906145
1476.483565,4959.379811,-689.485948,-2442.679609
1476.483876,8216.285956,612.876398,-6439.791695
1476.484188,5181.441594,2145.067394,-6143.709319
1476.484499,-2738.761985,1685.410096,-3552.988522
1476.484810,-12953.603985,0.000000,222.061783
1476.485121,-21465.972318,-1455.581446,5773.606348
1476.485433,-26573.393318,-1072.533697,10584.944971
1476.485744,-25537.104999,-1608.800546,11695.253884
1476.486055,-19097.313304,-919.314598,9326.594869
1476.486367,-10510.924376,-536.266849,5921.647536
1476.486678,-1332.370696,-153.219100,2368.659014
1476.486989,6143.709319,0.000000,-2368.659014
1476.487301,7105.977043,1762.019645,-5181.441594
1476.487612,2590.720797,2987.772442,-4663.297435
1476.487923,-3256.906145,2528.115143,-2146.597232
1476.488235,-10955.047942,1762.019645,666.185348
1476.488546,-17987.004391,995.924147,3775.050304
1476.488857,-21539.992912,-383.047749,6661.853478
1476.489169,-20207.622217,-1762.019645,6883.915261
1476.489480,-14508.036463,-1608.800546,7031.956449
1476.489791,-10214.842000,-2221.676944,4737.318029
1476.490102,-5625.565159,-2528.115143,3627.009116
1476.490414,-2368.659014,-689.485948,2368.659014
1476.490725,-1036.288319,0.000000,1406.391290
1476.491036,-2886.803174,766.095498,2146.597232
1476.491348,-8438.347739,995.924147,3256.906145
1476.491659,-12287.418637,1225.752797,4515.256246
1476.491970,-12139.377449,2145.067394,3701.029710
1476.492282,-11103.089130,0.000000,2664.741391
1476.492593,-8438.347739,-1149.143247,2146.597232
1476.492904,-7994.224174,-3064.381992,1480.411884
1476.493216,-8142.265362,-1685.410096,2812.782580
1476.493527,-10955.047942,76.609550,6291.750507
1476.493838,-15396.283594,766.095498,9252.574275
1476.494150,-16654.633695,0.000000,10732.986159
1476.494461,-15322.262999,0.000000,10510.924376
1476.494772,-8142.265362,1762.019645,8586.388927
1476.495083,-592.164754,1685.410096,2072.576638
1476.495395,3256.906145,3064.381992,-3330.926739
1476.495706,4811.338623,3064.381992,-5551.544565
1476.496017,296.082377,1455.581446,-3108.864956
1476.496329,-7846.182985,76.609550,1332.370696
1476.496640,-16284.530724,-459.657299,7476.080014
1476.496951,-23168.445985,-2834.553343,12731.542202
1476.497263,-21910.095883,-4213.525239,15692.365970
1476.497574,-14434.015869,-5132.839837,12731.542202
1476.497885,-6513.812290,-4519.963438,8068.244768
1476.498197,592.164754,-1302.362347,3034.844362
1476.498508,2960.823768,1838.629195,-518.144159
1476.498819,2220.617826,4903.011187,-1998.556043
1476.499131,-1850.514855,6128.763984,-1110.308913
1476.499442,-7179.997637,4519.963438,370.102971
1476.499753,-10955.047942,2681.334243,3552.988522
1476.500064,-12065.356855,1685.410096,4441.235652
1476.500376,-11695.253884,689.485948,6291.750507
1476.500687,-11843.295072,-2757.943793,7105.977043
1476.500998,-11769.274478,-5362.668486,4737.318029
1476.501310,-9622.677246,-3140.991542,4219.173869
1476.501621,-8586.388927,-612.876398,4589.276840
1476.501932,-10214.842000,383.047749,3775.050304
1476.502244,-11843.295072,536.266849,1554.432478
1476.502555,-9696.697840,536.266849,148.041188
1476.502866,-5477.523971,306.438199,-0.000000
1476.503178,-2664.741391,689.485948,-1184.329507
1476.503489,-3701.029710,1302.362347,-2368.659014
1476.503800,-6365.771101,-919.314598,-3775.050304
1476.504112,-9622.677246,-2068.457845,-2368.659014
1476.504423,-11547.212695,-766.095498,-814.226536
1476.504734,-15174.221811,536.266849,1036.288319
1476.505045,-17616.901420,0.000000,2886.803174
1476.505357,-17320.819043,-2298.286494,3256.906145
1476.505668,-15692.365970,-1608.800546,2664.741391
1476.505980,-10288.862594,229.828649,1332.370696
1476.506291,-5847.626942,1149.143247,-1480.411884
1476.506602,-2072.576638,153.219100,-3997.112087
1476.506914,0.000000,229.828649,-6217.729913
1476.507225,1406.391290,1685.410096,-8290.306550
1476.507537,-1036.288319,2374.896044,-7031.956449
1476.507848,-6661.853478,1149.143247,-2960.823768
1476.508160,-11843.295072,-2528.115143,814.226536
1476.508471,-15914.427753,-5056.230287,1480.411884
1476.508782,-17542.880825,-3753.867940,2812.782580
1476.509094,-17172.777854,-766.095498,3923.091493
1476.509405,-16654.633695,536.266849,1406.391290
1476.509717,-13397.727550,1072.533697,-1332.370696
1476.510028,-8956.491898,689.485948,-4219.173869
1476.510339,-5107.421000,536.266849,-4885.359217
1476.510651,-2220.617826,1225.752797,-5033.400406
1476.510962,-1628.453072,842.705048,-5181.441594
1476.511274,-4219.173869,-1378.971896,-2442.679609
1476.511585,-9474.636058,-3600.648841,2294.638420
1476.511896,-14804.118840,-3677.258390,2664.741391
1476.512208,-15618.345376,-459.657299,5033.400406
1476.512519,-16284.530724,-383.047749,4367.215058
1476.512831,-13841.851115,-995.924147,4145.153275
1476.513142,-9696.697840,459.657299,1628.453072
1476.513453,-8882.471304,2298.286494,-592.164754
1476.513765,-6587.832884,2221.676944,222.061783
1476.514076,-5477.523971,3140.991542,-1776.494261
1476.514388,-5033.400406,3294.210641,-148.041188
1476.514699,-5773.606348,842.705048,-444.123565
1476.515011,-6957.935855,-995.924147,370.102971
1476.515322,-6587.832884,-689.485948,1184.329507
1476.515633,-7550.100608,-306.438199,2072.576638
1476.515945,-10362.883188,-919.314598,4145.153275
1476.516256,-12953.603985,-1225.752797,6069.688724
1476.516568,-12805.562797,-459.657299,7624.121203
1476.516879,-10066.800811,0.000000,5995.668130
1476.517190,-7402.059420,0.000000,5551.544565
1476.517502,-4959.379811,1302.362347,2738.761985
1476.517813,-3552.988522,2298.286494,1184.329507
1476.518125,-3552.988522,1838.629195,148.041188
1476.518436,-3997.112087,612.876398,-2220.617826
1476.518747,-3775.050304,1455.581446,-2072.576638
1476.519059,-6661.853478,2298.286494,-518.144159
1476.519370,-10362.883188,383.047749,3478.967927
1476.519682,-14434.015869,-2451.505594,5329.482782
1476.519993,-15692.365970,-3370.820191,6957.935855
1476.520305,-13841.851115,-2528.115143,8290.306550
1476.520616,-9844.739029,-2298.286494,7179.997637
1476.520927,-6365.771101,-383.047749,4071.132681
1476.521239,-3627.009116,383.047749,-74.020594
1476.521550,-2368.659014,-229.828649,-3330.926739
1476.521862,-1480.411884,995.924147,-3256.906145
1476.522173,-3330.926739,2298.286494,-3701.029710
1476.522484,-7031.956449,1838.629195,-2812.782580
1476.522796,-10214.842000,-1149.143247,-740.205942
1476.523107,-13545.768739,-2068.457845,962.267725
1476.523419,-15544.324782,-383.047749,1406.391290
1476.523730,-14804.118840,-612.876398,2294.638420
1476.524041,-13471.748144,-842.705048,2516.700203
1476.524353,-12065.356855,0.000000,-0.000000
1476.524664,-9104.533087,1455.581446,-740.205942
1476.524976,-6883.915261,1532.190996,-3108.864956
1476.525287,-4737.318029,1685.410096,-3627.009116
1476.525599,-4145.153275,1072.533697,-4293.194464
1476.525910,-7105.977043,153.219100,-5403.503377
1476.526221,-9252.574275,-383.047749,-4071.132681
1476.526533,-10584.944971,-536.266849,-3108.864956
1476.526844,-11325.150913,-612.876398,-2072.576638
1476.527156,-12879.583391,-1302.362347,-1554.432478
1476.527467,-13841.851115,-1991.848295,-222.061783
1476.527778,-14211.954086,-2528.115143,518.144159
1476.528090,-12805.562797,-766.095498,1776.494261
1476.528401,-10955.047942,612.876398,1036.288319
1476.528713,-8660.409521,536.266849,-444.123565
1476.529024,-5699.585753,229.828649,-1332.370696
1476.529335,-3256.906145,-153.219100,-2812.782580
1476.529647,-1924.535449,689.485948,-4663.297435
1476.529958,-2368.659014,1685.410096,-5921.647536
1476.530270,-5921.647536,1378.971896,-4663.297435
1476.530581,-10214.842000,229.828649,-1406.391290
1476.530893,-15026.180623,-995.924147,2294.638420
1476.531204,-18209.066173,-1225.752797,4145.153275
1476.531515,-17172.777854,-842.705048,5847.626942
1476.531827,-14508.036463,-842.705048,5699.585753
1476.532138,-10584.944971,-1838.629195,4145.153275
1476.532450,-7476.080014,-306.438199,2516.700203
1476.532761,-4737.318029,-153.219100,740.205942
1476.533072,-1184.329507,-995.924147,-1702.473667
1476.533384,-592.164754,689.485948,-3775.050304
1476.533695,-1332.370696,2451.505594,-2294.638420
1476.534007,-6439.791695,766.095498,-370.102971
1476.534318,-12213.398043,-1302.362347,2220.617826
1476.534629,-16284.530724,-1762.019645,4515.256246
1476.534941,-18209.066173,-1685.410096,6143.709319
1476.535252,-15766.386565,0.000000,6809.894666
1476.535564,-12509.480420,689.485948,5255.462188
1476.535875,-8956.491898,153.219100,2664.741391
1476.536187,-4663.297435,459.657299,1184.329507
1476.536498,-1258.350101,1455.581446,-296.082377
1476.536809,-296.082377,2451.505594,-888.247130
1476.537121,-2146.597232,1991.848295,-0.000000
1476.537432,-4737.318029,536.266849,-222.061783
1476.537744,-5255.462188,459.657299,-1110.308913
1476.538055,-5329.482782,995.924147,-740.205942
1476.538366,-9104.533087,919.314598,1258.350101
1476.538678,-12879.583391,-76.609550,2146.597232
1476.538989,-15322.262999,-383.047749,2886.803174
1476.539301,-16062.468941,612.876398,3330.926739
1476.539612,-14211.954086,1225.752797,3923.091493
1476.539923,-9992.780217,1378.971896,2738.761985
1476.540235,-6291.750507,0.000000,1184.329507
1476.540546,-4811.338623,-1838.629195,-888.247130
1476.540858,-4885.359217,-1838.629195,-1406.391290
1476.541169,-4737.318029,-1762.019645,-1702.473667
1476.541481,-3552.988522,-1149.143247,-2368.659014
1476.541792,-5181.441594,-536.266849,-1998.556043
1476.542103,-9992.780217,-2604.724693,-1110.308913
1476.542415,-12213.398043,-2451.505594,1406.391290
1476.542726,-13841.851115,-2221.676944,3404.947333
1476.543038,-15174.221811,-1455.581446,4959.379811
1476.543349,-15322.262999,-1838.629195,5107.421000
1476.543660,-14359.995275,-1072.533697,2812.782580
1476.543972,-11399.171507,842.705048,1554.432478
1476.544283,-7402.059420,1838.629195,-1184.329507
1476.544595,-4663.297435,1915.238745,-3701.029710
1476.544906,-2886.803174,1762.019645,-5625.565159
1476.545217,-2516.700203,459.657299,-5329.482782
1476.545529,-5033.400406,229.828649,-3627.009116
1476.545840,-9104.533087,459.657299,-888.247130
1476.546152,-12139.377449,766.095498,2220.617826
1476.546463,-14730.098246,-995.924147,3997.112087
1476.546775,-14582.057057,-1838.629195,5033.400406
1476.547086,-12435.459826,-842.705048,3478.967927
1476.547397,-9474.636058,689.485948,888.247130
1476.547709,-6217.729913,1915.238745,-1776.494261
1476.548020,-5181.441594,2451.505594,-2960.823768
1476.548332,-4885.359217,2068.457845,-3701.029710
1476.548643,-7031.956449,1991.848295,-2442.679609
1476.548954,-9474.636058,1762.019645,-1184.329507
1476.549266,-11325.150913,919.314598,-0.000000
1476.549577,-9918.759623,-306.438199,1332.370696
1476.549889,-7254.018232,-2451.505594,-0.000000
1476.550200,-5551.544565,-1608.800546,-0.000000
1476.550511,-6291.750507,-766.095498,1850.514855
1476.550823,-9918.759623,-766.095498,3256.906145
1476.551134,-13471.748144,-2068.457845,4959.379811
1476.551446,-13323.706956,-3064.381992,3923.091493
1476.551757,-9104.533087,-2681.334243,3552.988522
1476.552069,-4663.297435,-1225.752797,-0.000000
1476.552380,-2738.761985,459.657299,-3627.009116
1476.552691,-2812.782580,919.314598,-4811.338623
1476.553003,-5329.482782,842.705048,-3108.864956
1476.553314,-10288.862594,-1149.143247,-296.082377
1476.553626,-14137.933492,-536.266849,1776.494261
1476.553937,-16210.510130,-459.657299,3478.967927
1476.554248,-15174.221811,-689.485948,3330.926739
1476.554560,-11843.295072,0.000000,2220.617826
1476.554871,-9474.636058,1225.752797,518.144159
1476.555183,-7994.224174,766.095498,1184.329507
1476.555494,-6439.791695,-153.219100,-444.123565
1476.555805,-7105.977043,-1378.971896,-1628.453072
1476.556117,-6957.935855,612.876398,-2072.576638
1476.556428,-6957.935855,1762.019645,-2072.576638
1476.556740,-8068.244768,1915.238745,-1258.350101
1476.557051,-9400.615463,459.657299,-222.061783
1476.557363,-12287.418637,-612.876398,1184.329507
1476.557674,-13545.768739,-383.047749,2442.679609
1476.557985,-13027.624579,0.000000,1924.535449
1476.558297,-10436.903782,919.314598,2146.597232
1476.558608,-7920.203579,612.876398,370.102971
1476.558920,-6439.791695,689.485948,-0.000000
1476.559231,-4367.215058,1072.533697,-592.164754
1476.559542,-3108.864956,1685.410096,-0.000000
1476.559854,-4885.359217,842.705048,370.102971
1476.560165,-7772.162391,-536.266849,1258.350101
1476.560477,-9548.656652,-1149.143247,444.123565
1476.560788,-9474.636058,-383.047749,888.247130
1476.561099,-9622.677246,0.000000,2220.617826
1476.561411,-10214.842000,-919.314598,2146.597232
1476.561722,-11103.089130,-2221.676944,2738.761985
1476.562034,-11843.295072,-2528.115143,3182.885551
1476.562345,-10288.862594,-995.924147,3775.050304
1476.562657,-8512.368333,76.609550,3108.864956
1476.562968,-6809.894666,842.705048,2072.576638
1476.563279,-5255.462188,-536.266849,1554.432478
1476.563591,-4737.318029,-1991.848295,888.247130
1476.563902,-4663.297435,-1072.533697,-740.205942
1476.564214,-6365.771101,1225.752797,-1406.391290
1476.564525,-8290.306550,2451.505594,-222.061783
1476.564836,-11547.212695,0.000000,296.082377
1476.565148,-14730.098246,229.828649,1924.535449
1476.565459,-14804.118840,229.828649,2886.803174
1476.565771,-13767.830521,1302.362347,3478.967927
1476.566082,-11991.336260,842.705048,3997.112087
1476.566393,-8586.388927,-689.485948,2368.659014
1476.566705,-4663.297435,-1302.362347,-444.123565
1476.567016,-2294.638420,0.000000,-2368.659014
1476.567328,-2886.803174,1915.238745,-2960.823768
1476.567639,-4515.256246,2451.505594,-2812.782580
1476.567951,-6513.812290,842.705048,-2960.823768
1476.568262,-9400.615463,-1608.800546,-1554.432478
1476.568573,-10658.965565,-1915.238745,-592.164754
1476.568885,-11695.253884,0.000000,-0.000000
1476.569196,-13693.809927,1149.143247,592.164754
1476.569508,-15248.242405,1225.752797,1702.473667
1476.569819,-15396.283594,229.828649,2738.761985
1476.570130,-13101.645173,229.828649,2886.803174
1476.570442,-10658.965565,0.000000,962.267725
1476.570753,-7624.121203,459.657299,-1628.453072
1476.571065,-3034.844362,1532.190996,-2368.659014
1476.571376,-814.226536,995.924147,-4885.359217
1476.571687,-1110.308913,-1225.752797,-5255.462188
1476.571999,-2442.679609,-2221.676944,-3330.926739
1476.572310,-8216.285956,-2068.457845,-814.226536
1476.572622,-15100.201217,-2145.067394,2738.761985
1476.572933,-19023.292709,-2451.505594,3923.091493
1476.573245,-19615.457463,-1225.752797,4663.297435
1476.573556,-15692.365970,76.609550,5107.421000
1476.573867,-10584.944971,-153.219100,2812.782580
1476.574179,-6883.915261,-1378.971896,592.164754
1476.574490,-3627.009116,612.876398,-888.247130
1476.574802,-2442.679609,1838.629195,-2664.741391
1476.575113,-2516.700203,229.828649,-2516.700203
1476.575424,-5477.523971,0.000000,-1480.411884
1476.575736,-8364.327145,0.000000,-1258.350101
1476.576047,-9918.759623,0.000000,-370.102971
1476.576359,-10140.821405,383.047749,1554.432478
1476.576670,-12213.398043,-536.266849,3108.864956
1476.576981,-13619.789333,-2068.457845,3552.988522
1476.577293,-12361.439231,-2068.457845,4071.132681
1476.577604,-10955.047942,76.609550,3034.844362
1476.577916,-10066.800811,1762.019645,2812.782580
1476.578227,-7550.100608,1838.629195,1850.514855
1476.578539,-5107.421000,612.876398,-0.000000
1476.578850,-4367.215058,1149.143247,-1184.329507
1476.579161,-4071.132681,2451.505594,-2220.617826
1476.579473,-4367.215058,1838.629195,-2294.638420
1476.579784,-6957.935855,1149.143247,-1776.494261
1476.580096,-8068.244768,612.876398,-1110.308913
1476.580407,-9474.636058,76.609550,444.123565
1476.580718,-11029.068536,0.000000,2590.720797
1476.581030,-12065.356855,-1225.752797,4145.153275
1476.581341,-12287.418637,-1455.581446,3849.070898
1476.581653,-10807.006753,-536.266849,3256.906145
1476.581964,-9400.615463,1532.190996,2812.782580
1476.582275,-8586.388927,1149.143247,1924.535449
1476.582587,-7994.224174,-1072.533697,-0.000000
1476.582898,-5773.606348,-689.485948,-1110.308913
1476.583210,-3627.009116,-383.047749,-2812.782580
1476.583521,-3701.029710,-459.657299,-2664.741391
1476.583833,-6069.688724,-459.657299,-1702.473667
1476.584144,-10732.986159,-536.266849,-444.123565
1476.584455,-13915.871710,-1302.362347,2368.659014
1476.584767,-14952.160028,-2374.896044,5403.503377
1476.585078,-16432.571912,-1762.019645,5995.668130
1476.585390,-14063.912898,-1455.581446,4071.132681
1476.585701,-11177.109724,-1072.533697,2368.659014
1476.586012,-8142.265362,0.000000,740.205942
1476.586324,-3923.091493,842.705048,148.041188
1476.586635,-2368.659014,-612.876398,-3478.967927
1476.586947,-2368.659014,0.000000,-4367.215058
1476.587258,-5329.482782,459.657299,-1702.473667
1476.587569,-9474.636058,842.705048,-518.144159
1476.587881,-14804.118840,612.876398,1702.473667
1476.588192,-18357.107362,153.219100,2960.823768
1476.588504,-15692.365970,842.705048,3478.967927
1476.588815,-9770.718434,2681.334243,2368.659014
1476.589127,-5403.503377,1685.410096,-148.041188
1476.589438,-3256.906145,229.828649,-2146.597232
1476.589749,-1702.473667,0.000000,-4589.276840
1476.590061,-2072.576638,1149.143247,-3034.844362
1476.590372,-5551.544565,1991.848295,-1998.556043
1476.590684,-11177.109724,1072.533697,-666.185348
1476.590995,-14359.995275,-153.219100,-0.000000
1476.591306,-13471.748144,-383.047749,-74.020594
1476.591618,-10807.006753,76.609550,-0.000000
1476.591929,-8808.450710,842.705048,-222.061783
1476.592241,-8512.368333,-229.828649,-1924.535449
1476.592552,-7698.141797,-842.705048,-962.267725
1476.592863,-7772.162391,0.000000,74.020594
1476.593175,-8586.388927,383.047749,2146.597232
1476.593486,-9474.636058,229.828649,2368.659014
1476.593798,-9548.656652,-1762.019645,888.247130
1476.594109,-8068.244768,-2987.772442,-222.061783
1476.594420,-6365.771101,-2451.505594,-1702.473667
1476.594732,-6957.935855,-1072.533697,-2960.823768
1476.595043,-8660.409521,-689.485948,-2516.700203
1476.595355,-11103.089130,-1685.410096,-888.247130
1476.595666,-11991.336260,-2451.505594,1776.494261
1476.595978,-12805.562797,-1072.533697,3108.864956
1476.596289,-13545.768739,612.876398,4441.235652
1476.596600,-13249.686362,766.095498,4885.359217
1476.596912,-11029.068536,1455.581446,3552.988522
1476.597223,-7624.121203,1149.143247,1924.535449
1476.597535,-4885.359217,919.314598,-222.061783
1476.597846,-3330.926739,612.876398,-2072.576638
1476.598157,-2516.700203,76.609550,-3404.947333
1476.598469,-4441.235652,-766.095498,-3923.091493
1476.598780,-8586.388927,-306.438199,-1850.514855
1476.599092,-13915.871710,-842.705048,1184.329507
1476.599403,-16580.613101,-1149.143247,3775.050304
1476.599714,-16728.654289,-1378.971896,5921.647536
1476.600026,-14952.160028,-1149.143247,6291.750507
1476.600337,-12953.603985,-383.047749,4589.276840
1476.600649,-7846.182985,995.924147,2442.679609
1476.600960,-3330.926739,2221.676944,-0.000000
1476.601272,-666.185348,2681.334243,-2516.700203
1476.601583,-1184.329507,4290.134789,-2294.638420
1476.601894,-4811.338623,3217.601092,-1628.453072
1476.602206,-7624.121203,536.266849,-0.000000
1476.602517,-8142.265362,-1149.143247,-1036.288319
1476.602829,-7179.997637,0.000000,-888.247130
1476.603140,-8512.368333,1532.190996,1332.370696
1476.603451,-12213.398043,76.609550,3997.112087
1476.603763,-14434.015869,-2068.457845,6069.688724
1476.604074,-14508.036463,-2298.286494,5255.462188
1476.604386,-11103.089130,0.000000,5625.565159
1476.604697,-6587.832884,383.047749,3627.009116
1476.605008,-2738.761985,-229.828649,370.102971
1476.605320,-222.061783,-536.266849,-2516.700203
1476.605631,-148.041188,-1378.971896,-4515.256246
1476.605943,-2664.741391,-612.876398,-3701.029710
1476.606254,-7846.182985,-612.876398,-1776.494261
1476.606566,-12731.542202,0.000000,666.185348
1476.606877,-16136.489536,-2757.943793,2516.700203
1476.607188,-17098.757260,-1838.629195,3627.009116
1476.607500,-15618.345376,153.219100,3849.070898
1476.607811,-12509.480420,995.924147,3627.009116
1476.608123,-9030.512492,-612.876398,1924.535449
1476.608434,-7328.038826,-536.266849,888.247130
1476.608745,-7179.997637,459.657299,-592.164754
1476.609057,-6587.832884,306.438199,-2294.638420
1476.609368,-4959.379811,1532.190996,-1480.411884
1476.609680,-4737.318029,1762.019645,-3404.947333
1476.609991,-5921.647536,536.266849,-3701.029710
1476.610302,-7031.956449,-1149.143247,-2960.823768
1476.610614,-9104.533087,-1149.143247,-2590.720797
1476.610925,-10881.027347,919.314598,-444.123565
1476.611236,-13249.686362,2145.067394,1924.535449
1476.611548,-17690.922014,1532.190996,1702.473667
1476.611859,-17764.942608,1072.533697,3256.906145
1476.612171,-13397.727550,1225.752797,1554.432478
1476.612482,-7105.977043,1532.190996,296.082377
1476.612793,-2960.823768,1608.800546,-2590.720797
1476.613105,-2812.782580,536.266849,-4737.318029
1476.613416,-2664.741391,-1455.581446,-4811.338623
1476.613727,-5033.400406,-1072.533697,-3849.070898
1476.614039,-7476.080014,306.438199,-1480.411884
1476.614350,-11177.109724,-1149.143247,666.185348
1476.614662,-12583.501014,-2145.067394,2886.803174
1476.614973,-13693.809927,-2374.896044,3330.926739
1476.615284,-13101.645173,-1608.800546,3182.885551
1476.615596,-10955.047942,-383.047749,3182.885551
1476.615907,-10140.821405,306.438199,2072.576638
1476.616219,-9326.594869,229.828649,1184.329507
1476.616530,-7698.141797,-1225.752797,962.267725
1476.616841,-5107.421000,-2374.896044,296.082377
1476.617153,-3997.112087,-1838.629195,-888.247130
1476.617464,-5921.647536,-1072.533697,-296.082377
1476.617775,-8956.491898,-919.314598,962.267725
1476.618087,-10658.965565,-2145.067394,1554.432478
1476.618398,-11029.068536,-306.438199,2664.741391
1476.618710,-12065.356855,1455.581446,3330.926739
1476.619021,-12213.398043,3140.991542,4367.215058
1476.619332,-10510.924376,1532.190996,4071.132681
1476.619644,-6957.935855,-1149.143247,3330.926739
1476.619955,-4959.379811,-842.705048,444.123565
1476.620266,-4737.318029,1685.410096,740.205942
1476.620578,-5773.606348,2911.162892,-0.000000
1476.620889,-8586.388927,842.705048,-370.102971
1476.621201,-9770.718434,-842.705048,74.020594
1476.621512,-10066.800811,-1532.190996,-592.164754
1476.621823,-9548.656652,-229.828649,-0.000000
1476.622135,-7402.059420,1072.533697,740.205942
1476.622446,-7179.997637,842.705048,296.082377
1476.622758,-7328.038826,919.314598,1332.370696
1476.623069,-8660.409521,1991.848295,2072.576638
1476.623380,-11177.109724,842.705048,3034.844362
1476.623692,-11177.109724,2145.067394,2812.782580
1476.624003,-9918.759623,1915.238745,740.205942
1476.624314,-7105.977043,1685.410096,-814.226536
1476.624626,-5329.482782,-306.438199,-2368.659014
1476.624937,-3701.029710,-2145.067394,-3552.988522
1476.625249,-2960.823768,-2221.676944,-4219.173869
1476.625560,-5773.606348,-1915.238745,-2368.659014
1476.625871,-11103.089130,-1991.848295,74.020594
1476.626183,-16802.674883,-2221.676944,3034.844362
1476.626494,-18209.066173,-1455.581446,4737.318029
1476.626805,-15100.201217,459.657299,4367.215058
1476.627117,-10510.924376,1149.143247,2738.761985
1476.627428,-7476.080014,459.657299,-74.020594
1476.627740,-4737.318029,0.000000,-2812.782580
1476.628051,-3182.885551,-766.095498,-3701.029710
1476.628362,-4145.153275,-919.314598,-2812.782580
1476.628674,-7994.224174,-1072.533697,-814.226536
1476.628985,-12879.583391,-1915.238745,-222.061783
1476.629297,-14952.160028,-1762.019645,1998.556043
1476.629608,-13989.892304,-1991.848295,2960.823768
1476.629919,-12731.542202,-1915.238745,3478.967927
1476.630231,-12139.377449,-1302.362347,2738.761985
1476.630542,-9696.697840,-536.266849,2072.576638
1476.630853,-7179.997637,766.095498,592.164754
1476.631165,-5551.544565,1838.629195,-370.102971
1476.631476,-4885.359217,2298.286494,-518.144159
1476.631788,-4515.256246,1762.019645,-962.267725
1476.632099,-4663.297435,1149.143247,-1332.370696
1476.632410,-6735.874072,689.485948,-1258.350101
1476.632722,-9770.718434,229.828649,-666.185348
1476.633033,-11473.192101,1762.019645,-444.123565
1476.633344,-12583.501014,995.924147,-666.185348
1476.633656,-11695.253884,2528.115143,1406.391290
1476.633967,-12213.398043,1225.752797,2664.741391
1476.634279,-11473.192101,-229.828649,2664.741391
1476.634590,-8142.265362,-1378.971896,1258.350101
1476.634901,-4737.318029,0.000000,-0.000000
1476.635213,-2738.761985,2528.115143,2368.659014
1476.635524,-5181.441594,153.219100,444.123565
1476.635836,-8364.327145,-2068.457845,-0.000000
1476.636147,-8808.450710,-3217.601092,444.123565
1476.636458,-7846.182985,-1838.629195,-296.082377
1476.636770,-6291.750507,76.609550,-666.185348
1476.637081,-8068.244768,-1149.143247,-1110.308913
1476.637392,-11399.171507,-2834.553343,-0.000000
1476.637704,-12805.562797,-2068.457845,1924.535449
1476.638015,-14137.933492,-536.266849,3849.070898
1476.638327,-16432.571912,536.266849,4219.173869
1476.638638,-15470.304188,-383.047749,4145.153275
1476.638949,-10288.862594,-1302.362347,2590.720797
1476.639261,-3256.906145,-766.095498,-814.226536
1476.639572,444.123565,0.000000,-2442.679609
1476.639883,148.041188,153.219100,-3404.947333
1476.640195,-2220.617826,-1302.362347,-3256.906145
1476.640506,-6365.771101,-2068.457845,-1924.535449
1476.640818,-11843.295072,-612.876398,-592.164754
1476.641129,-16062.468941,689.485948,2368.659014
1476.641440,-17912.983796,1608.800546,3404.947333
1476.641752,-17246.798449,2221.676944,2664.741391
1476.642063,-13841.851115,3064.381992,814.226536
1476.642375,-9918.759623,2834.553343,962.267725
1476.642686,-6439.791695,2145.067394,-0.000000
1476.642997,-3923.091493,612.876398,-2368.659014
1476.643309,-1110.308913,1149.143247,-3552.988522
1476.643620,-888.247130,1378.971896,-3627.009116
1476.643931,-3849.070898,842.705048,-2220.617826
1476.644243,-7550.100608,153.219100,296.082377
1476.644554,-11103.089130,-766.095498,888.247130
1476.644866,-13545.768739,-1072.533697,3701.029710
1476.645177,-14878.139434,-1072.533697,3182.885551
1476.645488,-14434.015869,-459.657299,3552.988522
1476.645800,-11843.295072,766.095498,3034.844362
1476.646111,-7402.059420,0.000000,1776.494261
1476.646422,-4293.194464,-1302.362347,962.267725
1476.646734,-2664.741391,-2298.286494,-0.000000
1476.647045,-4959.379811,-612.876398,-962.267725
1476.647357,-7179.997637,153.219100,-296.082377
1476.647668,-9400.615463,-689.485948,-370.102971
1476.647979,-10732.986159,-306.438199,-0.000000
1476.648291,-11991.336260,0.000000,666.185348
1476.648602,-11547.212695,-536.266849,2146.597232
1476.648914,-9104.533087,-1685.410096,1554.432478
1476.649225,-8882.471304,-1685.410096,740.205942
1476.649536,-9992.780217,536.266849,1110.308913
1476.649848,-11695.253884,153.219100,3552.988522
1476.650159,-12657.521608,153.219100,4811.338623
1476.650470,-12953.603985,-459.657299,4367.215058
1476.650782,-10955.047942,-1455.581446,3108.864956
1476.651093,-6513.812290,-1532.190996,-0.000000
1476.651405,-2442.679609,-306.438199,-2664.741391
1476.651716,0.000000,689.485948,-4737.318029
1476.652027,-1554.432478,229.828649,-5033.400406
1476.652339,-6291.750507,383.047749,-3849.070898
1476.652650,-11251.130318,3140.991542,148.041188
1476.652961,-16210.510130,2374.896044,3701.029710
1476.653273,-19097.313304,919.314598,5625.565159
1476.653584,-16358.551318,536.266849,4589.276840
1476.653896,-10658.965565,1072.533697,592.164754
1476.654207,-4589.276840,2374.896044,-1628.453072
1476.654518,-1332.370696,1838.629195,-3775.050304
1476.654830,-2368.659014,536.266849,-5403.503377
1476.655141,-4293.194464,-459.657299,-3552.988522
1476.655453,-7328.038826,-766.095498,-1406.391290
1476.655764,-11029.068536,-1532.190996,296.082377
1476.656075,-10807.006753,-1685.410096,1110.308913
1476.656387,-10288.862594,-1838.629195,-0.000000
1476.656698,-10066.800811,-1762.019645,666.185348
1476.657009,-10584.944971,153.219100,1332.370696
1476.657321,-10732.986159,-229.828649,1036.288319
1476.657632,-10510.924376,-1072.533697,1702.473667
1476.657944,-10732.986159,-1685.410096,-370.102971
1476.658255,-8808.450710,-919.314598,-0.000000
1476.658566,-7031.956449,1072.533697,-740.205942
1476.658878,-7254.018232,689.485948,-814.226536
1476.659189,-8216.285956,-1225.752797,-740.205942
1476.659500,-10066.800811,-2911.162892,592.164754
1476.659812,-11473.192101,-1455.581446,1406.391290
1476.660123,-11103.089130,-153.219100,1554.432478
1476.660435,-11325.150913,459.657299,1776.494261
1476.660746,-9770.718434,459.657299,2294.638420
1476.661057,-8068.244768,306.438199,1184.329507
1476.661369,-7328.038826,76.609550,2072.576638
1476.661680,-6957.935855,536.266849,2516.700203
1476.661992,-7550.100608,-153.219100,1776.494261
1476.662303,-8216.285956,-536.266849,962.267725
1476.662614,-7698.141797,0.000000,-0.000000
1476.662926,-8660.409521,995.924147,-148.041188
1476.663237,-9844.739029,2145.067394,444.123565
1476.663548,-9548.656652,612.876398,1628.453072
1476.663860,-8438.347739,-2221.676944,-1480.411884
1476.664171,-6513.812290,-919.314598,-1924.535449
1476.664483,-6735.874072,2298.286494,222.061783
1476.664794,-10732.986159,2145.067394,2368.659014
1476.665105,-13989.892304,153.219100,3182.885551
1476.665417,-13619.789333,-1608.800546,2738.761985
1476.665728,-9030.512492,229.828649,3108.864956
1476.666039,-3923.091493,919.314598,1258.350101
1476.666351,-1406.391290,229.828649,-2294.638420
1476.666662,-1850.514855,-995.924147,-4441.235652
1476.666974,-4071.132681,-306.438199,-3034.844362
1476.667285,-7105.977043,536.266849,-1332.370696
1476.667596,-12509.480420,2068.457845,740.205942
1476.667908,-18431.127956,1149.143247,3775.050304
1476.668219,-18949.272115,-1302.362347,3923.091493
1476.668531,-14137.933492,-1685.410096,2812.782580
1476.668842,-7772.162391,0.000000,-0.000000
1476.669153,-3182.885551,766.095498,-1258.350101
1476.669465,-2072.576638,-1072.533697,-2368.659014
1476.669776,-2516.700203,-2911.162892,-1776.494261
1476.670087,-6069.688724,-3370.820191,-1184.329507
1476.670399,-10362.883188,-2834.553343,962.267725
1476.670710,-12435.459826,-2145.067394,2294.638420
1476.671022,-13175.665768,-842.705048,1184.329507
1476.671333,-12953.603985,-995.924147,666.185348
1476.671644,-14211.954086,-383.047749,1184.329507
1476.671956,-13841.851115,306.438199,2146.597232
1476.672267,-11547.212695,1302.362347,2072.576638
1476.672578,-10584.944971,1302.362347,148.041188
1476.672890,-8290.306550,995.924147,-296.082377
1476.673201,-6143.709319,1302.362347,-518.144159
1476.673513,-3108.864956,2145.067394,-1332.370696
1476.673824,-2590.720797,1838.629195,-1850.514855
1476.674135,-3478.967927,536.266849,-1776.494261
1476.674447,-5847.626942,-766.095498,-1480.411884
1476.674758,-10066.800811,0.000000,-1554.432478
1476.675070,-11251.130318,1072.533697,-74.020594
1476.675381,-12065.356855,1225.752797,370.102971
1476.675692,-12139.377449,1685.410096,1702.473667
1476.676004,-12361.439231,2451.505594,3256.906145
1476.676315,-11621.233289,766.095498,3923.091493
1476.676626,-8882.471304,-306.438199,3997.112087
1476.676938,-7031.956449,-995.924147,1480.411884
1476.677249,-5625.565159,-383.047749,-518.144159
1476.677561,-4219.173869,1225.752797,-518.144159
1476.677872,-4145.153275,1149.143247,-1184.329507
1476.678183,-4737.318029,-153.219100,-962.267725
1476.678495,-5773.606348,-3217.601092,-592.164754
1476.678806,-8660.409521,-3294.210641,370.102971
1476.679117,-10140.821405,-919.314598,2812.782580
1476.679429,-12805.562797,-536.266849,4293.194464
1476.679740,-16284.530724,-1915.238745,4515.256246
1476.680052,-16580.613101,-1915.238745,4959.379811
1476.680363,-12805.562797,-1302.362347,4737.318029
1476.680674,-7920.203579,-842.705048,3775.050304
1476.680986,-5847.626942,-995.924147,888.247130
1476.681297,-4737.318029,-766.095498,-1332.370696
1476.681609,-1998.556043,-995.924147,-3256.906145
1476.681920,-2664.741391,-383.047749,-3330.926739
1476.682231,-5551.544565,919.314598,-1480.411884
1476.682543,-10584.944971,153.219100,-370.102971
1476.682854,-13397.727550,-612.876398,1184.329507
1476.683165,-15840.407159,-536.266849,2294.638420
1476.683477,-15026.180623,1532.190996,3108.864956
1476.683788,-13619.789333,1838.629195,3256.906145
1476.684100,-11769.274478,1149.143247,2146.597232
1476.684411,-9252.574275,689.485948,-370.102971
1476.684722,-7031.956449,1532.190996,-1924.535449
1476.685034,-3478.967927,2451.505594,-2220.617826
1476.685345,-2812.782580,2145.067394,-3775.050304
1476.685656,-2738.761985,689.485948,-3997.112087
1476.685968,-4663.297435,459.657299,-3404.947333
1476.686279,-7328.038826,919.314598,-2590.720797
1476.686591,-9474.636058,306.438199,-2146.597232
1476.686902,-10881.027347,919.314598,444.123565
1476.687213,-13989.892304,612.876398,1702.473667
1476.687525,-16728.654289,-229.828649,1850.514855
1476.687836,-15988.448347,-383.047749,1850.514855
1476.688148,-11917.315666,-306.438199,1480.411884
1476.688459,-7328.038826,76.609550,666.185348
1476.688770,-4885.359217,-766.095498,-1702.473667
1476.689082,-3997.112087,-2145.067394,-2590.720797
1476.689393,-3849.070898,-1991.848295,-2220.617826
1476.689704,-5625.565159,-1302.362347,-1628.453072
1476.690016,-9474.636058,-1302.362347,296.082377
1476.690327,-12361.439231,-1302.362347,1998.556043
1476.690639,-14211.954086,-612.876398,2368.659014
1476.690950,-12287.418637,0.000000,3108.864956
1476.691261,-9770.718434,-1455.581446,3256.906145
1476.691573,-8956.491898,-2528.115143,1998.556043
1476.691884,-8512.368333,-1838.629195,2738.761985
1476.692195,-8586.388927,-612.876398,3182.885551
1476.692507,-7254.018232,-306.438199,3775.050304
1476.692818,-8068.244768,-1225.752797,1850.514855
1476.693130,-7105.977043,-766.095498,1036.288319
1476.693441,-6365.771101,842.705048,888.247130
1476.693752,-6957.935855,1838.629195,296.082377
1476.694064,-9178.553681,2068.457845,1184.329507
1476.694375,-13101.645173,536.266849,666.185348
1476.694687,-12583.501014,-76.609550,2220.617826
1476.694998,-8660.409521,1149.143247,2516.700203
1476.695309,-6883.915261,2681.334243,1850.514855
1476.695621,-6957.935855,1838.629195,1480.411884
1476.695932,-5773.606348,-1685.410096,740.205942
1476.696243,-5403.503377,-995.924147,1184.329507
1476.696555,-6809.894666,1532.190996,1628.453072
1476.696866,-7698.141797,1991.848295,666.185348
1476.697178,-9622.677246,919.314598,-1184.329507
1476.697489,-9326.594869,842.705048,-1036.288319
1476.697800,-7772.162391,689.485948,-1554.432478
1476.698112,-7031.956449,1378.971896,-2664.741391
1476.698423,-8808.450710,2987.772442,-888.247130
1476.698734,-11695.253884,612.876398,518.144159
1476.699046,-13545.768739,-1915.238745,2368.659014
1476.699357,-12805.562797,-1608.800546,3701.029710
1476.699669,-10066.800811,-536.266849,2886.803174
1476.699980,-8142.265362,-1378.971896,962.267725
1476.700291,-4885.359217,-1838.629195,-370.102971
1476.700603,-3997.112087,-1225.752797,-3034.844362
1476.700914,-4367.215058,-1915.238745,-2812.782580
1476.701226,-7846.182985,-1072.533697,-1924.535449
1476.701537,-12139.377449,-153.219100,-148.041188
1476.701848,-15248.242405,-842.705048,1850.514855
1476.702160,-15692.365970,-2451.505594,3478.967927
1476.702471,-13175.665768,-3294.210641,1998.556043
1476.702782,-10436.903782,-383.047749,148.041188
1476.703094,-7772.162391,2451.505594,370.102971
1476.703405,-6957.935855,1149.143247,444.123565
1476.703717,-8364.327145,-1149.143247,222.061783
1476.704028,-9104.533087,-1608.800546,-888.247130
1476.704339,-7328.038826,0.000000,-1998.556043
1476.704651,-5847.626942,1072.533697,-2738.761985
1476.704962,-5625.565159,1762.019645,-2442.679609
1476.705273,-9696.697840,0.000000,-2294.638420
1476.705585,-12879.583391,-229.828649,-74.020594
1476.705896,-14878.139434,306.438199,3404.947333
1476.706208,-16210.510130,1302.362347,5551.544565
1476.706519,-14656.077652,766.095498,6957.935855
1476.706830,-11325.150913,-1455.581446,4145.153275
1476.707142,-3478.967927,-2145.067394,1036.288319
1476.707453,3627.009116,536.266849,-2516.700203
1476.707765,4441.235652,3677.258390,-3034.844362
1476.708076,222.061783,2987.772442,-2368.659014
1476.708387,-6809.894666,306.438199,-1628.453072
1476.708699,-12731.542202,-153.219100,592.164754
1476.709010,-14952.160028,229.828649,2442.679609
1476.709321,-14285.974681,1302.362347,3552.988522
1476.709633,-11769.274478,612.876398,2368.659014
1476.709944,-10066.800811,-919.314598,222.061783
1476.710256,-8142.265362,-1532.190996,370.102971
1476.710567,-6217.729913,-1608.800546,1406.391290
1476.710878,-6883.915261,-76.609550,2072.576638
1476.711190,-9474.636058,-1378.971896,2738.761985
1476.711501,-9474.636058,-1838.629195,2590.720797
1476.711813,-7476.080014,-1762.019645,148.041188
1476.712124,-5551.544565,76.609550,-1480.411884
1476.712435,-3478.967927,153.219100,-2368.659014
1476.712747,-4071.132681,-995.924147,-3256.906145
1476.713058,-7994.224174,-612.876398,-2590.720797
1476.713369,-12361.439231,-842.705048,-1554.432478
1476.713681,-16802.674883,-383.047749,1850.514855
1476.713992,-17912.983796,383.047749,5181.441594
1476.714304,-16654.633695,229.828649,4737.318029
1476.714615,-13915.871710,-842.705048,3330.926739
1476.714926,-9622.677246,-229.828649,2072.576638
1476.715238,-7105.977043,842.705048,-962.267725
1476.715549,-2516.700203,2834.553343,-3849.070898
1476.715860,-2886.803174,2451.505594,-5033.400406
1476.716172,-4441.235652,1838.629195,-3849.070898
1476.716483,-5847.626942,1302.362347,-2220.617826
1476.716795,-8512.368333,0.000000,-74.020594
1476.717106,-10955.047942,-919.314598,1702.473667
1476.717417,-13397.727550,-1302.362347,2220.617826
1476.717729,-13323.706956,-612.876398,2590.720797
1476.718040,-13915.871710,1072.533697,2146.597232
1476.718352,-15026.180623,766.095498,1850.514855
1476.718663,-12731.542202,-612.876398,1258.350101
1476.718974,-9178.553681,-842.705048,-1110.308913
1476.719286,-4145.153275,306.438199,-1628.453072
1476.719597,-1036.288319,153.219100,-3256.906145
1476.719908,-1776.494261,-919.314598,-3849.070898
1476.720220,-4441.235652,0.000000,-2886.803174
1476.720531,-8882.471304,842.705048,-222.061783
1476.720843,-14137.933492,1378.971896,3923.091493
1476.721154,-15396.283594,612.876398,6365.771101
1476.721465,-14285.974681,-1225.752797,5403.503377
1476.721777,-10140.821405,-3600.648841,3256.906145
1476.722088,-3478.967927,-1685.410096,1924.535449
1476.722399,-222.061783,919.314598,1924.535449
1476.722711,-2812.782580,-1378.971896,592.164754
1476.723022,-6883.915261,-3140.991542,1184.329507
1476.723334,-10214.842000,-2987.772442,3627.009116
1476.723645,-11695.253884,-1762.019645,3108.864956
1476.723956,-10140.821405,306.438199,3256.906145
1476.724268,-8808.450710,383.047749,814.226536
1476.724579,-5921.647536,536.266849,-666.185348
1476.724891,-4071.132681,1302.362347,-1110.308913
1476.725202,-3627.009116,1838.629195,-592.164754
1476.725513,-8364.327145,1991.848295,1554.432478
1476.725825,-11991.336260,0.000000,2368.659014
1476.726136,-13101.645173,383.047749,3256.906145
1476.726447,-14137.933492,689.485948,2664.741391
1476.726759,-13027.624579,1838.629195,2368.659014
1476.727070,-10510.924376,919.314598,-296.082377
1476.727382,-7698.141797,-766.095498,-3182.885551
1476.727693,-5995.668130,-1302.362347,-3627.009116
1476.728004,-4885.359217,-919.314598,-3849.070898
1476.728316,-5551.544565,383.047749,-2812.782580
1476.728627,-7698.141797,689.485948,-1110.308913
1476.728938,-10510.924376,0.000000,444.123565
1476.729250,-14211.954086,0.000000,2590.720797
1476.729561,-16580.613101,1302.362347,3701.029710
1476.729873,-15544.324782,1762.019645,3256.906145
1476.730184,-12287.418637,459.657299,-74.020594
1476.730495,-9326.594869,-306.438199,-2516.700203
1476.730807,-5255.462188,0.000000,-4737.318029
1476.731118,-3478.967927,229.828649,-5107.421000
1476.731430,-4145.153275,-153.219100,-2664.741391
1476.731741,-7772.162391,-1915.238745,-888.247130
1476.732052,-9474.636058,-3064.381992,1110.308913
1476.732364,-11917.315666,-2528.115143,2072.576638
1476.732675,-12065.356855,-995.924147,3923.091493
1476.732986,-11473.192101,76.609550,3627.009116
1476.733298,-12065.356855,0.000000,1110.308913
1476.733609,-9252.574275,-306.438199,1480.411884
1476.733921,-5329.482782,383.047749,-592.164754
1476.734232,-2294.638420,383.047749,-1036.288319
1476.734543,-3182.885551,-153.219100,-2368.659014
1476.734855,-5551.544565,-1991.848295,-1332.370696
1476.735166,-8882.471304,-1915.238745,-222.061783
1476.735477,-12509.480420,766.095498,1998.556043
1476.735789,-15174.221811,1302.362347,3923.091493
1476.736100,-15692.365970,-919.314598,5107.421000
1476.736412,-11769.274478,-2145.067394,2886.803174
1476.736723,-7179.997637,-153.219100,296.082377
1476.737034,-1554.432478,2374.896044,1110.308913
1476.737346,-888.247130,2068.457845,518.144159
1476.737657,-4145.153275,153.219100,1258.350101
1476.737969,-7846.182985,-1378.971896,1850.514855
1476.738280,-9844.739029,-1072.533697,3108.864956
1476.738591,-9030.512492,842.705048,2960.823768
1476.738903,-9252.574275,2068.457845,296.082377
1476.739214,-9400.615463,1149.143247,-2368.659014
1476.739525,-9770.718434,1991.848295,-2590.720797
1476.739837,-9178.553681,2681.334243,-1110.308913
1476.740148,-10584.944971,3217.601092,296.082377
1476.740460,-12435.459826,1378.971896,1332.370696
1476.740771,-13101.645173,-306.438199,2516.700203
1476.741082,-11547.212695,76.609550,2886.803174
1476.741394,-8290.306550,153.219100,2664.741391
1476.741705,-6735.874072,0.000000,1998.556043
1476.742016,-6143.709319,-2068.457845,-0.000000
1476.742328,-4737.318029,-2604.724693,-296.082377
1476.742639,-5477.523971,-3294.210641,-2294.638420
1476.742951,-7550.100608,-2298.286494,-1554.432478
1476.743262,-10066.800811,-612.876398,-0.000000
1476.743573,-11917.315666,-1991.848295,-518.144159
1476.743885,-13027.624579,-1225.752797,1628.453072
1476.744196,-14804.118840,0.000000,2960.823768
1476.744508,-14285.974681,612.876398,3849.070898
1476.744819,-12879.583391,612.876398,2960.823768
1476.745130,-10066.800811,-229.828649,1258.350101
1476.745442,-5921.647536,153.219100,-740.205942
1476.745753,-2442.679609,689.485948,-2220.617826
1476.746064,-592.164754,689.485948,-2516.700203
1476.746376,-888.247130,-766.095498,-1924.535449
1476.746687,-4219.173869,-2987.772442,-1998.556043
1476.746999,-8290.306550,-1532.190996,-1036.288319
1476.747310,-12287.418637,919.314598,1184.329507
1476.747621,-15766.386565,1072.533697,2738.761985
1476.747933,-17542.880825,229.828649,3034.844362
1476.748244,-15100.201217,1072.533697,1850.514855
1476.748556,-9918.759623,2604.724693,666.185348
1476.748867,-4515.256246,2451.505594,-444.123565
1476.749178,-2590.720797,919.314598,-2590.720797
1476.749490,-2960.823768,-229.828649,-3182.885551
1476.749801,-4071.132681,-842.705048,-2812.782580
1476.750112,-7846.182985,459.657299,-740.205942
1476.750424,-11547.212695,1685.410096,1554.432478
1476.750735,-12657.521608,-766.095498,814.226536
1476.751047,-12065.356855,-2911.162892,-518.144159
1476.751358,-9918.759623,-536.266849,-0.000000
1476.751669,-8882.471304,2374.896044,962.267725
1476.751981,-9622.677246,1455.581446,1110.308913
1476.752292,-11251.130318,0.000000,2516.700203
1476.752603,-11473.192101,-1991.848295,3330.926739
1476.752915,-9252.574275,-1991.848295,4219.173869
1476.753226,-7994.224174,-1072.533697,3034.844362
1476.753538,-7994.224174,-1455.581446,1554.432478
1476.753849,-6809.894666,-3217.601092,-740.205942
1476.754160,-5255.462188,-2604.724693,-2738.761985
1476.754472,-5625.565159,-459.657299,-1480.411884
1476.754783,-8438.347739,536.266849,-1036.288319
1476.755095,-10732.986159,-306.438199,666.185348
1476.755406,-11843.295072,-766.095498,1850.514855
1476.755717,-11843.295072,-536.266849,3182.885551
1476.756029,-12509.480420,1915.238745,4367.215058
1476.756340,-11843.295072,2068.457845,4145.153275
1476.756651,-10288.862594,1378.971896,2960.823768
1476.756963,-9474.636058,459.657299,1628.453072
1476.757274,-6883.915261,0.000000,666.185348
1476.757586,-5107.421000,-536.266849,-1924.535449
1476.757897,-2738.761985,-306.438199,-3108.864956
1476.758208,-1998.556043,-383.047749,-3923.091493
1476.758520,-4293.194464,0.000000,-3108.864956
1476.758831,-7402.059420,766.095498,-592.164754
1476.759142,-11325.150913,1685.410096,2442.679609
1476.759454,-14434.015869,229.828649,3330.926739
1476.759765,-14508.036463,383.047749,3330.926739
1476.760077,-11029.068536,1915.238745,1332.370696
1476.760388,-7105.977043,2221.676944,-1702.473667
1476.760699,-4293.194464,1915.238745,-2368.659014
1476.761011,-2368.659014,995.924147,-3997.112087
1476.761322,-3478.967927,-995.924147,-4737.318029
1476.761634,-7328.038826,-1378.971896,-3108.864956
1476.761945,-10214.842000,-1378.971896,-888.247130
1476.762256,-12657.521608,-1378.971896,-1554.432478
1476.762568,-11843.295072,-1762.019645,-888.247130
1476.762879,-10807.006753,-1838.629195,-1406.391290
1476.763190,-9548.656652,-459.657299,-1998.556043
1476.763502,-7476.080014,842.705048,-1924.535449
1476.763813,-7031.956449,1072.533697,-3256.906145
1476.764125,-7846.182985,-1149.143247,-3108.864956
1476.764436,-9622.677246,-995.924147,-2738.761985
1476.764747,-10807.006753,-306.438199,-3034.844362
1476.765059,-10658.965565,-612.876398,-2664.741391
1476.765370,-11473.192101,-1838.629195,-3256.906145
1476.765681,-10288.862594,-2221.676944,-4589.276840
1476.765993,-9622.677246,-995.924147,-5181.441594
1476.766304,-10362.883188,229.828649,-4737.318029
1476.766616,-11177.109724,153.219100,-4219.173869
1476.766927,-12213.398043,229.828649,-3182.885551
1476.767238,-12139.377449,-612.876398,-1258.350101
1476.767550,-11547.212695,-1149.143247,-592.164754
1476.767861,-9548.656652,76.609550,-518.144159
1476.768173,-8290.306550,919.314598,-1406.391290
1476.768484,-7476.080014,1302.362347,-1924.535449
1476.768795,-8290.306550,-153.219100,-3404.947333
1476.769107,-7031.956449,153.219100,-3552.988522
1476.769418,-6513.812290,919.314598,-5477.523971
1476.769729,-6587.832884,1072.533697,-5033.400406
1476.770041,-8586.388927,536.266849,-4959.379811
1476.770352,-11325.150913,1608.800546,-4293.194464
1476.770664,-11769.274478,2834.553343,-1554.432478
1476.770975,-12583.501014,1762.019645,-296.082377
1476.771286,-12435.459826,842.705048,148.041188
1476.771598,-11103.089130,-995.924147,-888.247130
1476.771909,-7698.141797,-1838.629195,-1924.535449
1476.772220,-3627.009116,-2374.896044,-2886.803174
1476.772532,-2664.741391,-1838.629195,-2960.823768
1476.772843,-4885.359217,-1378.971896,-3775.050304
1476.773155,-6883.915261,-1915.238745,-1554.432478
1476.773466,-9400.615463,-2221.676944,-0.000000
1476.773777,-10955.047942,-383.047749,1110.308913
1476.774089,-11399.171507,229.828649,-444.123565
1476.774400,-8734.430116,-383.047749,-2886.803174
1476.774712,-6069.688724,1072.533697,-4885.359217
1476.775023,-4441.235652,3447.429741,-4515.256246
1476.775334,-5699.585753,4060.306139,-4071.132681
1476.775646,-10807.006753,2681.334243,-2590.720797
1476.775957,-14211.954086,1455.581446,814.226536
1476.776268,-15840.407159,0.000000,3108.864956
1476.776580,-13397.727550,-2221.676944,3478.967927
1476.776891,-8512.368333,-3907.087040,296.082377
1476.777203,-4219.173869,-4596.572988,-3627.009116
1476.777514,-962.267725,-4673.182538,-5329.482782
1476.777825,-1628.453072,-2528.115143,-4811.338623
1476.778137,-6735.874072,-383.047749,-4145.153275
1476.778448,-13397.727550,-536.266849,-1184.329507
1476.778759,-18209.066173,0.000000,1628.453072
1476.779071,-17098.757260,1149.143247,2220.617826
1476.779382,-13249.686362,1991.848295,962.267725
1476.779694,-8956.491898,1991.848295,-1332.370696
1476.780005,-5625.565159,766.095498,-3997.112087
1476.780316,-1998.556043,1915.238745,-5921.647536
1476.780628,-1480.411884,1685.410096,-7328.038826
1476.780939,-4885.359217,1915.238745,-6513.812290
1476.781251,-9992.780217,1378.971896,-3997.112087
1476.781562,-14359.995275,689.485948,-1850.514855
1476.781873,-15914.427753,612.876398,-0.000000
1476.782185,-14878.139434,0.000000,1258.350101
1476.782496,-12213.398043,-536.266849,222.061783
1476.782807,-7105.977043,-995.924147,-2146.597232
1476.783119,-1998.556043,153.219100,-5403.503377
1476.783430,592.164754,0.000000,-7105.977043
1476.783742,-740.205942,229.828649,-6143.709319
1476.784053,-5699.585753,229.828649,-5477.523971
1476.784364,-11843.295072,-229.828649,-2220.617826
1476.784676,-17172.777854,-1838.629195,-518.144159
1476.784987,-19023.292709,-1915.238745,370.102971
1476.785299,-17024.736666,-383.047749,-1184.329507
1476.785610,-13101.645173,1302.362347,-3108.864956
1476.785921,-7328.038826,229.828649,-4885.359217
1476.786233,-3775.050304,-612.876398,-7105.977043
1476.786544,-1628.453072,306.438199,-7179.997637
1476.786855,-2812.782580,-153.219100,-5699.585753
1476.787167,-5403.503377,-995.924147,-3330.926739
1476.787478,-9252.574275,-1991.848295,-1480.411884
1476.787790,-14137.933492,-1455.581446,-370.102971
1476.788101,-16358.551318,-1225.752797,-0.000000
1476.788412,-16062.468941,0.000000,-74.020594
1476.788724,-14285.974681,306.438199,-1406.391290
1476.789035,-10436.903782,229.828649,-3034.844362
1476.789346,-6439.791695,-842.705048,-4737.318029
1476.789658,-3034.844362,306.438199,-5181.441594
1476.789969,-1332.370696,383.047749,-4885.359217
1476.790281,-1998.556043,459.657299,-4737.318029
1476.790592,-4663.297435,76.609550,-3034.844362
1476.790903,-9918.759623,-689.485948,-2590.720797
