#time,accel_x,accel_y,accel_z
1323.623492,-8956.491898,-229.828649,518.144159
1323.623804,-9178.553681,76.609550,518.144159
1323.624115,-8956.491898,0.000000,592.164754
1323.624426,-8660.409521,-612.876398,296.082377
1323.624738,-8512.368333,-153.219100,444.123565
1323.625049,-8586.388927,0.000000,296.082377
1323.625360,-8660.409521,0.000000,296.082377
1323.625672,-8882.471304,-229.828649,592.164754
1323.625983,-8956.491898,0.000000,592.164754
1323.626295,-8956.491898,0.000000,592.164754
1323.626606,-9030.512492,0.000000,370.102971
1323.626917,-8734.430116,-153.219100,370.102971
1323.627229,-9030.512492,153.219100,444.123565
1323.627540,-9030.512492,0.000000,592.164754
1323.627851,-9252.574275,0.000000,444.123565
1323.628163,-9030.512492,0.000000,444.123565
1323.628474,-8956.491898,-153.219100,518.144159
1323.628786,-8956.491898,-153.219100,444.123565
1323.629097,-8956.491898,-229.828649,518.144159
1323.629408,-8956.491898,153.219100,444.123565
1323.629720,-8512.368333,-383.047749,592.164754
1323.630031,-9030.512492,306.438199,-0.000000
1323.630343,-9030.512492,0.000000,740.205942
1323.630654,-9030.512492,0.000000,592.164754
1323.630965,-8882.471304,-229.828649,592.164754
1323.631277,-8956.491898,0.000000,370.102971
1323.631588,-8882.471304,0.000000,296.082377
1323.631899,-8586.388927,76.609550,444.123565
1323.632211,-8734.430116,229.828649,296.082377
1323.632522,-8660.409521,-306.438199,444.123565
1323.632834,-8956.491898,76.609550,296.082377
1323.633145,-8956.491898,0.000000,518.144159
1323.633456,-8956.491898,0.000000,518.144159
1323.633768,-8882.471304,0.000000,518.144159
1323.634079,-8808.450710,-229.828649,370.102971
1323.634390,-8586.388927,-153.219100,370.102971
1323.634702,-8956.491898,0.000000,592.164754
1323.635013,-8808.450710,-536.266849,296.082377
1323.635325,-8808.450710,-229.828649,666.185348
1323.635636,-8808.450710,0.000000,666.185348
1323.635947,-8808.450710,0.000000,518.144159
1323.636259,-8808.450710,0.000000,592.164754
1323.636570,-8734.430116,0.000000,666.185348
1323.636881,-8512.368333,0.000000,370.102971
1323.637193,-8956.491898,0.000000,444.123565
1323.637504,-8734.430116,-229.828649,1036.288319
1323.637816,-9104.533087,0.000000,518.144159
1323.638127,-9030.512492,0.000000,518.144159
1323.638438,-9030.512492,76.609550,370.102971
1323.638750,-9030.512492,383.047749,370.102971
1323.639061,-8956.491898,-306.438199,370.102971
1323.639372,-9178.553681,-383.047749,148.041188
1323.639684,-8512.368333,0.000000,518.144159
1323.639995,-9178.553681,0.000000,666.185348
1323.640307,-8882.471304,0.000000,444.123565
1323.640618,-8956.491898,0.000000,592.164754
1323.640929,-8956.491898,76.609550,518.144159
1323.641241,-8956.491898,153.219100,222.061783
1323.641552,-8882.471304,306.438199,444.123565
1323.641864,-8808.450710,229.828649,518.144159
1323.642175,-8956.491898,-306.438199,296.082377
1323.642486,-9030.512492,-306.438199,444.123565
1323.642798,-9104.533087,0.000000,444.123565
1323.643109,-8956.491898,0.000000,444.123565
1323.643420,-8956.491898,-76.609550,518.144159
1323.643732,-9104.533087,0.000000,444.123565
1323.644043,-9252.574275,612.876398,444.123565
1323.644355,-8956.491898,-766.095498,740.205942
1323.644666,-8956.491898,-612.876398,740.205942
1323.644977,-8882.471304,-229.828649,592.164754
1323.645289,-9030.512492,0.000000,666.185348
1323.645600,-8882.471304,-229.828649,666.185348
1323.645911,-8808.450710,-383.047749,592.164754
1323.646223,-8734.430116,459.657299,592.164754
1323.646534,-8882.471304,-306.438199,592.164754
1323.646846,-8734.430116,-306.438199,444.123565
1323.647157,-8956.491898,0.000000,592.164754
1323.647468,-9030.512492,-153.219100,518.144159
1323.647780,-9030.512492,0.000000,592.164754
1323.648091,-8882.471304,-229.828649,666.185348
1323.648402,-8956.491898,0.000000,666.185348
1323.648714,-8882.471304,-689.485948,592.164754
1323.649025,-8364.327145,76.609550,444.123565
1323.649337,-8956.491898,76.609550,370.102971
1323.649648,-8808.450710,0.000000,370.102971
1323.649959,-9030.512492,0.000000,444.123565
1323.650271,-9030.512492,0.000000,592.164754
1323.650582,-8956.491898,0.000000,518.144159
1323.650893,-8660.409521,229.828649,518.144159
1323.651205,-8660.409521,76.609550,444.123565
1323.651516,-8586.388927,0.000000,666.185348
1323.651828,-8734.430116,-612.876398,518.144159
1323.652139,-8734.430116,0.000000,592.164754
1323.652450,-8882.471304,0.000000,518.144159
1323.652762,-8882.471304,0.000000,592.164754
1323.653073,-8956.491898,0.000000,518.144159
1323.653385,-9400.615463,76.609550,-0.000000
1323.653696,-8808.450710,229.828649,666.185348
1323.654007,-8660.409521,-306.438199,444.123565
1323.654319,-9104.533087,0.000000,222.061783
1323.654630,-8808.450710,0.000000,518.144159
1323.654941,-8734.430116,0.000000,444.123565
1323.655253,-8734.430116,0.000000,518.144159
1323.655564,-8808.450710,-153.219100,592.164754
1323.655876,-8364.327145,-229.828649,518.144159
1323.656187,-9104.533087,-153.219100,592.164754
1323.656498,-10214.842000,0.000000,-0.000000
1323.656810,-11547.212695,1838.629195,222.061783
1323.657121,-9474.636058,4443.353888,814.226536
1323.657432,-7846.182985,4366.744339,740.205942
1323.657744,-7105.977043,2221.676944,1332.370696
1323.658055,-6587.832884,-995.924147,740.205942
1323.658367,-7254.018232,-1149.143247,-370.102971
1323.658678,-7105.977043,-1225.752797,-74.020594
1323.658989,-9844.739029,-689.485948,-1184.329507
1323.659301,-13323.706956,-612.876398,-1184.329507
1323.659612,-10955.047942,766.095498,592.164754
1323.659923,-9400.615463,536.266849,962.267725
1323.660235,-8586.388927,-306.438199,2664.741391
1323.660546,-11251.130318,-306.438199,1850.514855
1323.660858,-10214.842000,3064.381992,1850.514855
1323.661169,-5255.462188,6128.763984,2368.659014
1323.661480,-6587.832884,3753.867940,1406.391290
1323.661792,-8512.368333,2221.676944,-0.000000
1323.662103,-7550.100608,2834.553343,-1406.391290
1323.662415,-8882.471304,2911.162892,-1924.535449
1323.662726,-8882.471304,3677.258390,-222.061783
1323.663037,-10658.965565,3140.991542,-1110.308913
1323.663349,-14285.974681,0.000000,-222.061783
1323.663660,-9474.636058,-1072.533697,2738.761985
1323.663971,-9622.677246,0.000000,962.267725
1323.664283,-9622.677246,4213.525239,1998.556043
1323.664594,-7846.182985,7048.078582,2146.597232
1323.664906,-8808.450710,3983.696590,1628.453072
1323.665217,-6069.688724,3600.648841,2368.659014
1323.665528,-6883.915261,6511.811733,296.082377
1323.665840,-8290.306550,7354.516781,-962.267725
1323.666151,-9770.718434,6205.373534,-1702.473667
1323.666462,-9622.677246,4213.525239,-296.082377
1323.666774,-9252.574275,4903.011187,-1702.473667
1323.667085,-11103.089130,5132.839837,518.144159
1323.667397,-10955.047942,4443.353888,666.185348
1323.667708,-10807.006753,3753.867940,1776.494261
1323.668019,-9474.636058,4903.011187,2516.700203
1323.668331,-7179.997637,5056.230287,1924.535449
1323.668642,-6217.729913,5439.278036,518.144159
1323.668953,-5995.668130,4979.620737,296.082377
1323.669265,-5403.503377,5132.839837,-0.000000
1323.669576,-5773.606348,4673.182538,-1184.329507
1323.669888,-7772.162391,4366.744339,-518.144159
1323.670199,-9474.636058,3140.991542,-518.144159
1323.670510,-10066.800811,2145.067394,-0.000000
1323.670822,-10066.800811,536.266849,962.267725
1323.671133,-10436.903782,306.438199,1628.453072
1323.671444,-11251.130318,383.047749,1110.308913
1323.671756,-10288.862594,2221.676944,2146.597232
1323.672067,-8512.368333,3294.210641,1776.494261
1323.672379,-6957.935855,4213.525239,518.144159
1323.672690,-6661.853478,3064.381992,-222.061783
1323.673001,-7031.956449,3600.648841,-444.123565
1323.673313,-7105.977043,3907.087040,-814.226536
1323.673624,-6513.812290,2451.505594,-1406.391290
1323.673936,-8586.388927,229.828649,-1110.308913
1323.674247,-10362.883188,-1685.410096,-518.144159
1323.674558,-11843.295072,-1838.629195,518.144159
1323.674870,-13027.624579,-1608.800546,1702.473667
1323.675181,-14137.933492,-1608.800546,1850.514855
1323.675492,-13471.748144,76.609550,1850.514855
1323.675804,-12065.356855,1762.019645,296.082377
1323.676115,-8512.368333,3907.087040,-0.000000
1323.676427,-6291.750507,4136.915689,-0.000000
1323.676738,-6069.688724,4519.963438,-0.000000
1323.677049,-6735.874072,4673.182538,-0.000000
1323.677361,-7550.100608,3600.648841,370.102971
1323.677672,-9474.636058,2374.896044,-370.102971
1323.677983,-11399.171507,1149.143247,148.041188
1323.678295,-12509.480420,153.219100,-370.102971
1323.678606,-12805.562797,229.828649,-74.020594
1323.678918,-12879.583391,459.657299,518.144159
1323.679229,-11991.336260,2068.457845,814.226536
1323.679540,-9992.780217,3524.039291,1554.432478
1323.679852,-7920.203579,4290.134789,1776.494261
1323.680163,-5107.421000,4903.011187,2516.700203
1323.680474,-2886.803174,5515.887586,1406.391290
1323.680786,-1258.350101,5439.278036,-444.123565
1323.681097,-2220.617826,4596.572988,-1554.432478
1323.681409,-5995.668130,2987.772442,-1110.308913
1323.681720,-10214.842000,2145.067394,-814.226536
1323.682031,-13841.851115,2757.943793,518.144159
1323.682343,-15396.283594,2834.553343,2072.576638
1323.682654,-13915.871710,2757.943793,3330.926739
1323.682965,-12213.398043,2528.115143,2886.803174
1323.683277,-7772.162391,3140.991542,2664.741391
1323.683588,-4515.256246,3600.648841,1554.432478
1323.683900,-2368.659014,4903.011187,-74.020594
1323.684211,-2516.700203,6818.249932,-962.267725
1323.684522,-3552.988522,5975.544884,-1850.514855
1323.684834,-6143.709319,4443.353888,-1480.411884
1323.685145,-8586.388927,1532.190996,-888.247130
1323.685457,-10066.800811,459.657299,592.164754
1323.685768,-10584.944971,-1762.019645,962.267725
1323.686079,-11473.192101,-3907.087040,1776.494261
1323.686391,-11325.150913,-4519.963438,1776.494261
1323.686702,-11251.130318,-4443.353888,1554.432478
1323.687013,-11991.336260,-1685.410096,1554.432478
1323.687325,-11325.150913,1455.581446,1406.391290
1323.687636,-11325.150913,4290.134789,1480.411884
1323.687948,-9104.533087,4596.572988,1554.432478
1323.688259,-6735.874072,2911.162892,1628.453072
1323.688570,-5921.647536,459.657299,-0.000000
1323.688882,-5995.668130,-536.266849,-814.226536
1323.689193,-7179.997637,0.000000,-1850.514855
1323.689504,-10288.862594,766.095498,-2368.659014
1323.689816,-11621.233289,383.047749,-1702.473667
1323.690127,-12213.398043,-536.266849,-296.082377
1323.690439,-12213.398043,-1762.019645,1480.411884
1323.690750,-11917.315666,-1532.190996,2368.659014
1323.691061,-11621.233289,-306.438199,1554.432478
1323.691373,-10288.862594,306.438199,666.185348
1323.691684,-9104.533087,2221.676944,-1036.288319
1323.691995,-7846.182985,3753.867940,-1628.453072
1323.692307,-7031.956449,4290.134789,-2368.659014
1323.692618,-6513.812290,2681.334243,-740.205942
1323.692930,-6513.812290,459.657299,370.102971
1323.693241,-7698.141797,-1915.238745,1850.514855
1323.693552,-8512.368333,-3907.087040,2368.659014
1323.693864,-9770.718434,-4443.353888,2590.720797
1323.694175,-10732.986159,-3140.991542,2368.659014
1323.694486,-10436.903782,-995.924147,814.226536
1323.694798,-9030.512492,2298.286494,-592.164754
1323.695109,-7920.203579,3830.477490,-814.226536
1323.695421,-7179.997637,2221.676944,-1184.329507
1323.695732,-7328.038826,2145.067394,-888.247130
1323.696043,-7402.059420,1685.410096,-1036.288319
1323.696355,-7105.977043,1762.019645,-740.205942
1323.696666,-7031.956449,919.314598,-0.000000
1323.696978,-7624.121203,306.438199,1036.288319
1323.697289,-8956.491898,-1072.533697,2368.659014
1323.697600,-9696.697840,-2374.896044,3775.050304
1323.697912,-10362.883188,-2068.457845,4219.173869
1323.698223,-10362.883188,-1072.533697,3256.906145
1323.698534,-10066.800811,-689.485948,1776.494261
1323.698846,-8660.409521,0.000000,-444.123565
1323.699157,-6735.874072,1838.629195,-2146.597232
1323.699469,-5551.544565,3753.867940,-2664.741391
1323.699780,-6439.791695,3217.601092,-1702.473667
1323.700091,-7994.224174,1685.410096,-518.144159
1323.700403,-9548.656652,0.000000,370.102971
1323.700714,-11103.089130,-1225.752797,2294.638420
1323.701025,-12879.583391,-1915.238745,2960.823768
1323.701337,-13175.665768,-1378.971896,3034.844362
1323.701648,-11991.336260,-229.828649,2738.761985
1323.701959,-10214.842000,-229.828649,2590.720797
1323.702271,-8956.491898,0.000000,2294.638420
1323.702582,-7994.224174,-459.657299,962.267725
1323.702893,-7179.997637,-536.266849,222.061783
1323.703204,-6439.791695,-459.657299,-666.185348
1323.703516,-4589.276840,76.609550,-2072.576638
1323.703827,-5625.565159,-383.047749,-2368.659014
1323.704138,-6735.874072,-1378.971896,-1480.411884
1323.704449,-8142.265362,-3064.381992,370.102971
1323.704761,-10510.924376,-3447.429741,1850.514855
1323.705072,-11695.253884,-2987.772442,3775.050304
1323.705383,-13101.645173,-2987.772442,3775.050304
1323.705695,-14211.954086,-1915.238745,2664.741391
1323.706006,-12213.398043,1149.143247,1480.411884
1323.706317,-9992.780217,2911.162892,-518.144159
1323.706628,-7698.141797,3524.039291,-1184.329507
1323.706940,-5847.626942,2757.943793,-814.226536
1323.707251,-4515.256246,1302.362347,-888.247130
1323.707562,-4071.132681,-995.924147,-1036.288319
1323.707873,-5329.482782,-1149.143247,-888.247130
1323.708185,-7402.059420,-1915.238745,-370.102971
1323.708496,-7624.121203,-1685.410096,-888.247130
1323.708807,-9474.636058,-842.705048,-148.041188
1323.709119,-10584.944971,-1149.143247,222.061783
1323.709430,-12509.480420,-459.657299,666.185348
1323.709741,-13619.789333,536.266849,1776.494261
1323.710052,-12879.583391,1838.629195,740.205942
1323.710364,-12065.356855,2681.334243,296.082377
1323.710675,-10658.965565,3524.039291,-1036.288319
1323.710986,-8882.471304,3600.648841,-1850.514855
1323.711298,-6661.853478,2221.676944,-1776.494261
1323.711609,-4737.318029,229.828649,-518.144159
1323.711920,-5699.585753,-2068.457845,-370.102971
1323.712231,-6735.874072,-2987.772442,-0.000000
1323.712543,-9548.656652,-2834.553343,1184.329507
1323.712854,-11547.212695,-2528.115143,1924.535449
1323.713165,-9474.636058,-1455.581446,1184.329507
1323.713476,-9918.759623,-459.657299,814.226536
1323.713788,-8956.491898,-612.876398,592.164754
1323.714099,-8586.388927,306.438199,444.123565
1323.714410,-8734.430116,766.095498,222.061783
1323.714722,-8660.409521,1532.190996,-814.226536
1323.715033,-10140.821405,2298.286494,-444.123565
1323.715344,-10066.800811,2911.162892,-888.247130
1323.715655,-10214.842000,2834.553343,-0.000000
1323.715967,-9104.533087,689.485948,1406.391290
1323.716278,-8216.285956,-1302.362347,3404.947333
1323.716589,-8142.265362,-2374.896044,3775.050304
1323.716900,-7031.956449,-2757.943793,3478.967927
1323.717212,-8734.430116,-1838.629195,2146.597232
1323.717523,-7772.162391,-612.876398,1702.473667
1323.717834,-5847.626942,1762.019645,-962.267725
1323.718146,-6587.832884,1225.752797,-1480.411884
1323.718457,-7254.018232,383.047749,-1110.308913
1323.718768,-8808.450710,153.219100,-0.000000
1323.719079,-8882.471304,-995.924147,1110.308913
1323.719391,-10288.862594,-1225.752797,1554.432478
1323.719702,-10881.027347,-766.095498,1998.556043
1323.720013,-11695.253884,842.705048,1554.432478
1323.720324,-11103.089130,1072.533697,2368.659014
1323.720636,-9622.677246,0.000000,2072.576638
1323.720947,-8290.306550,0.000000,3256.906145
1323.721258,-7772.162391,-536.266849,2220.617826
1323.721570,-6143.709319,-1838.629195,740.205942
1323.721881,-6217.729913,-1685.410096,-518.144159
1323.722192,-7105.977043,-1378.971896,-1628.453072
1323.722503,-6809.894666,-383.047749,-1628.453072
1323.722815,-7846.182985,-1378.971896,-1776.494261
1323.723126,-9326.594869,-1762.019645,-74.020594
1323.723437,-9696.697840,-2221.676944,1406.391290
1323.723749,-10732.986159,-3447.429741,2146.597232
1323.724060,-11695.253884,-2221.676944,2294.638420
1323.724371,-12213.398043,842.705048,1332.370696
1323.724682,-12139.377449,3140.991542,740.205942
1323.724994,-11029.068536,3677.258390,-74.020594
1323.725305,-8512.368333,2757.943793,-0.000000
1323.725616,-6587.832884,1838.629195,-518.144159
1323.725927,-5699.585753,-383.047749,-814.226536
1323.726239,-4737.318029,-995.924147,-2072.576638
1323.726550,-6365.771101,-459.657299,-2812.782580
1323.726861,-8586.388927,0.000000,-2146.597232
1323.727173,-7624.121203,-842.705048,-888.247130
1323.727484,-9770.718434,-1455.581446,-444.123565
1323.727795,-11547.212695,-1991.848295,1554.432478
1323.728106,-12435.459826,-1225.752797,2368.659014
1323.728418,-12953.603985,-1455.581446,2960.823768
1323.728729,-11547.212695,229.828649,2294.638420
1323.729040,-11695.253884,995.924147,740.205942
1323.729351,-9178.553681,1762.019645,-222.061783
1323.729663,-7402.059420,2528.115143,-1850.514855
1323.729974,-5921.647536,1532.190996,-1480.411884
1323.730285,-5181.441594,-612.876398,-1110.308913
1323.730597,-6587.832884,-2221.676944,296.082377
1323.730908,-8216.285956,-1838.629195,1258.350101
1323.731219,-9474.636058,-3217.601092,1184.329507
1323.731530,-9474.636058,-1915.238745,1776.494261
1323.731842,-8142.265362,-1225.752797,1332.370696
1323.732153,-7772.162391,-1302.362347,740.205942
1323.732464,-7550.100608,-1532.190996,1480.411884
1323.732775,-8216.285956,-1225.752797,1480.411884
1323.733087,-9474.636058,-153.219100,962.267725
1323.733398,-10140.821405,306.438199,370.102971
1323.733709,-11103.089130,1991.848295,-370.102971
1323.734021,-10436.903782,3140.991542,-370.102971
1323.734332,-10140.821405,1915.238745,-0.000000
1323.734643,-9474.636058,919.314598,1036.288319
1323.734954,-8808.450710,-306.438199,1998.556043
1323.735266,-8142.265362,-766.095498,2368.659014
1323.735577,-7031.956449,-1072.533697,1406.391290
1323.735888,-7698.141797,-229.828649,-0.000000
1323.736200,-7476.080014,229.828649,-0.000000
1323.736511,-7105.977043,459.657299,-888.247130
1323.736822,-8364.327145,1302.362347,-518.144159
1323.737133,-9252.574275,689.485948,-0.000000
1323.737445,-9844.739029,-459.657299,888.247130
1323.737756,-10732.986159,-1302.362347,814.226536
1323.738067,-10066.800811,153.219100,888.247130
1323.738378,-10584.944971,995.924147,74.020594
1323.738690,-10288.862594,2068.457845,1184.329507
1323.739001,-10510.924376,1608.800546,1702.473667
1323.739312,-9252.574275,689.485948,2072.576638
1323.739624,-7254.018232,-229.828649,2368.659014
1323.739935,-6735.874072,-1608.800546,2368.659014
1323.740246,-6809.894666,-2145.067394,962.267725
1323.740557,-6809.894666,-1302.362347,-1184.329507
1323.740869,-6513.812290,306.438199,-1628.453072
1323.741180,-6883.915261,919.314598,-1628.453072
1323.741491,-7772.162391,0.000000,-740.205942
1323.741802,-8956.491898,-919.314598,592.164754
1323.742114,-9770.718434,-1302.362347,1628.453072
1323.742425,-10881.027347,-689.485948,1702.473667
1323.742736,-11399.171507,1455.581446,1332.370696
1323.743048,-12435.459826,3294.210641,222.061783
1323.743359,-11769.274478,4443.353888,-148.041188
1323.743670,-9326.594869,2451.505594,-0.000000
1323.743981,-7402.059420,2145.067394,-0.000000
1323.744293,-6439.791695,459.657299,518.144159
1323.744604,-6143.709319,-1762.019645,-222.061783
1323.744915,-6661.853478,-2451.505594,-0.000000
1323.745226,-8734.430116,-2451.505594,-1184.329507
1323.745538,-8364.327145,-1608.800546,-962.267725
1323.745849,-8586.388927,-459.657299,-1184.329507
1323.746160,-9474.636058,-1302.362347,-0.000000
1323.746472,-10362.883188,-1685.410096,1776.494261
1323.746783,-11621.233289,-2068.457845,2590.720797
1323.747094,-12139.377449,-1225.752797,2442.679609
1323.747405,-12361.439231,0.000000,2368.659014
1323.747717,-11325.150913,1532.190996,296.082377
1323.748028,-9252.574275,3064.381992,-444.123565
1323.748339,-7846.182985,2911.162892,-1554.432478
1323.748651,-5921.647536,1532.190996,-962.267725
1323.748962,-5625.565159,-306.438199,148.041188
1323.749273,-6883.915261,-1915.238745,1258.350101
1323.749584,-8956.491898,-2681.334243,1702.473667
1323.749896,-9918.759623,-1685.410096,1036.288319
1323.750207,-9104.533087,-459.657299,814.226536
1323.750518,-8512.368333,306.438199,518.144159
1323.750829,-7772.162391,-766.095498,518.144159
1323.751141,-8882.471304,-1072.533697,814.226536
1323.751452,-9030.512492,-612.876398,1184.329507
1323.751763,-9622.677246,0.000000,888.247130
1323.752075,-10955.047942,1608.800546,740.205942
1323.752386,-10066.800811,2604.724693,296.082377
1323.752697,-9918.759623,2834.553343,-0.000000
1323.753008,-8956.491898,1838.629195,592.164754
1323.753320,-7254.018232,306.438199,1776.494261
1323.753631,-6587.832884,76.609550,1776.494261
1323.753942,-6143.709319,-766.095498,1628.453072
1323.754253,-7476.080014,-1608.800546,1332.370696
1323.754565,-8068.244768,-1532.190996,444.123565
1323.754876,-6661.853478,-306.438199,-666.185348
1323.755187,-7254.018232,842.705048,-1036.288319
1323.755499,-8438.347739,-229.828649,-74.020594
1323.755810,-9252.574275,-689.485948,-0.000000
1323.756121,-10288.862594,-1072.533697,444.123565
1323.756432,-10807.006753,-842.705048,1110.308913
1323.756744,-11399.171507,-306.438199,592.164754
1323.757055,-11843.295072,1378.971896,-296.082377
1323.757366,-11177.109724,2298.286494,-0.000000
1323.757677,-9030.512492,2068.457845,296.082377
1323.757989,-8216.285956,383.047749,814.226536
1323.758300,-7920.203579,-1532.190996,1554.432478
1323.758611,-7624.121203,-1838.629195,1554.432478
1323.758923,-7772.162391,-1915.238745,518.144159
1323.759234,-7994.224174,-766.095498,-444.123565
1323.759545,-8068.244768,0.000000,-1184.329507
1323.759856,-8142.265362,612.876398,-1850.514855
1323.760168,-9030.512492,919.314598,-1554.432478
1323.760479,-8512.368333,919.314598,-222.061783
1323.760790,-10584.944971,153.219100,-74.020594
1323.761102,-11917.315666,-153.219100,1110.308913
1323.761413,-12361.439231,306.438199,1184.329507
1323.761724,-12213.398043,1762.019645,592.164754
1323.762035,-11473.192101,3140.991542,-222.061783
1323.762347,-9326.594869,2451.505594,518.144159
1323.762658,-6809.894666,459.657299,888.247130
1323.762969,-5699.585753,-689.485948,1184.329507
1323.763280,-6143.709319,-2221.676944,1110.308913
1323.763592,-6143.709319,-2451.505594,444.123565
1323.763903,-6809.894666,-995.924147,-962.267725
1323.764214,-7476.080014,-612.876398,-592.164754
1323.764526,-7550.100608,-919.314598,-740.205942
1323.764837,-9178.553681,-766.095498,666.185348
1323.765148,-10881.027347,-842.705048,1628.453072
1323.765459,-11769.274478,-612.876398,2516.700203
1323.765771,-11547.212695,76.609550,2368.659014
1323.766082,-11325.150913,1378.971896,1850.514855
1323.766393,-10510.924376,2221.676944,962.267725
1323.766704,-8364.327145,2604.724693,-370.102971
1323.767016,-6513.812290,3294.210641,-0.000000
1323.767327,-5255.462188,2528.115143,370.102971
1323.767638,-6291.750507,0.000000,148.041188
1323.767950,-8216.285956,-383.047749,1332.370696
1323.768261,-7772.162391,-306.438199,1036.288319
1323.768572,-8142.265362,-459.657299,370.102971
1323.768883,-8364.327145,-229.828649,-0.000000
1323.769195,-8734.430116,1149.143247,-296.082377
1323.769506,-8660.409521,459.657299,444.123565
1323.769817,-8882.471304,-1072.533697,1480.411884
1323.770128,-10362.883188,-766.095498,1628.453072
1323.770440,-10881.027347,-612.876398,1406.391290
1323.770751,-11103.089130,689.485948,888.247130
1323.771062,-10732.986159,1762.019645,-0.000000
1323.771374,-9326.594869,2451.505594,148.041188
1323.771685,-8956.491898,1302.362347,444.123565
1323.771996,-7179.997637,-1378.971896,1258.350101
1323.772307,-7031.956449,-1991.848295,1998.556043
1323.772619,-7254.018232,-1838.629195,2072.576638
1323.772930,-7920.203579,-1991.848295,1184.329507
1323.773241,-8586.388927,-2145.067394,-0.000000
1323.773553,-8142.265362,-919.314598,148.041188
1323.773864,-8068.244768,-153.219100,-0.000000
1323.774175,-8882.471304,76.609550,148.041188
1323.774486,-9474.636058,-995.924147,444.123565
1323.774798,-10140.821405,-919.314598,-0.000000
1323.775109,-9326.594869,0.000000,666.185348
1323.775420,-9474.636058,995.924147,-148.041188
1323.775731,-10066.800811,2068.457845,-740.205942
1323.776043,-9622.677246,2374.896044,-0.000000
1323.776354,-8882.471304,1225.752797,592.164754
1323.776665,-7772.162391,76.609550,1998.556043
1323.776977,-7846.182985,-1302.362347,1850.514855
1323.777288,-8216.285956,-1915.238745,1850.514855
1323.777599,-8512.368333,-2834.553343,1036.288319
1323.777910,-7994.224174,-2145.067394,-666.185348
1323.778222,-7254.018232,-536.266849,-1776.494261
1323.778533,-8068.244768,-612.876398,-2072.576638
1323.778844,-8438.347739,-1225.752797,-666.185348
1323.779155,-9400.615463,-2374.896044,222.061783
1323.779467,-10584.944971,-2145.067394,1406.391290
1323.779778,-11917.315666,-1302.362347,1480.411884
1323.780089,-13249.686362,0.000000,1036.288319
1323.780401,-12435.459826,2221.676944,740.205942
1323.780712,-10214.842000,2604.724693,-0.000000
1323.781023,-7772.162391,1532.190996,222.061783
1323.781334,-6217.729913,-153.219100,370.102971
1323.781646,-5625.565159,-459.657299,296.082377
1323.781957,-6957.935855,-919.314598,-592.164754
1323.782268,-7179.997637,-1838.629195,-296.082377
1323.782579,-8364.327145,-612.876398,-1702.473667
1323.782891,-8734.430116,612.876398,-1184.329507
1323.783202,-9252.574275,995.924147,-888.247130
1323.783513,-10658.965565,612.876398,814.226536
1323.783825,-10066.800811,612.876398,1998.556043
1323.784136,-10214.842000,-536.266849,2220.617826
1323.784447,-10955.047942,536.266849,1406.391290
1323.784758,-10362.883188,2451.505594,296.082377
1323.785070,-9918.759623,3217.601092,-740.205942
1323.785381,-8882.471304,3830.477490,-1406.391290
1323.785692,-8290.306550,2987.772442,-0.000000
1323.786004,-7402.059420,766.095498,1036.288319
1323.786315,-6735.874072,-995.924147,962.267725
1323.786626,-7476.080014,-1455.581446,1776.494261
1323.786937,-7624.121203,-995.924147,888.247130
1323.787249,-7476.080014,-842.705048,518.144159
1323.787560,-7105.977043,-459.657299,-0.000000
1323.787871,-7920.203579,-536.266849,-0.000000
1323.788182,-8216.285956,-612.876398,1406.391290
1323.788494,-8290.306550,-842.705048,1628.453072
1323.788805,-10066.800811,-612.876398,1628.453072
1323.789116,-10955.047942,-1149.143247,1332.370696
1323.789428,-10732.986159,842.705048,444.123565
1323.789739,-9770.718434,2145.067394,-0.000000
1323.790050,-9474.636058,1225.752797,-148.041188
1323.790361,-9178.553681,153.219100,814.226536
1323.790673,-7476.080014,-383.047749,1332.370696
1323.790984,-7179.997637,-1378.971896,1628.453072
1323.791295,-7105.977043,-1762.019645,1702.473667
1323.791606,-7624.121203,-1762.019645,518.144159
1323.791918,-7994.224174,-1455.581446,-0.000000
1323.792229,-7772.162391,-612.876398,148.041188
1323.792540,-9326.594869,-383.047749,-0.000000
1323.792852,-10362.883188,153.219100,888.247130
1323.793163,-10658.965565,153.219100,814.226536
1323.793474,-10584.944971,-689.485948,444.123565
1323.793785,-9696.697840,0.000000,444.123565
1323.794097,-9918.759623,1455.581446,-888.247130
1323.794408,-9696.697840,2221.676944,-1184.329507
1323.794719,-9992.780217,1608.800546,-0.000000
1323.795030,-10066.800811,0.000000,1258.350101
1323.795342,-8956.491898,-1149.143247,2294.638420
1323.795653,-8142.265362,-2374.896044,1850.514855
1323.795964,-8586.388927,-2911.162892,1554.432478
1323.796276,-8512.368333,-3447.429741,518.144159
1323.796587,-7105.977043,-2757.943793,-1036.288319
1323.796898,-6809.894666,-1455.581446,-1406.391290
1323.797209,-7846.182985,-1378.971896,-888.247130
1323.797521,-8956.491898,-1762.019645,814.226536
1323.797832,-9622.677246,-2298.286494,1554.432478
1323.798143,-10955.047942,-1532.190996,1110.308913
1323.798455,-11177.109724,842.705048,1036.288319
1323.798766,-10881.027347,2068.457845,222.061783
1323.799077,-10584.944971,3447.429741,-74.020594
1323.799388,-8808.450710,2068.457845,-518.144159
1323.799700,-7550.100608,612.876398,666.185348
1323.800011,-6735.874072,-383.047749,1480.411884
1323.800322,-6809.894666,-1532.190996,1036.288319
1323.800633,-7179.997637,-1991.848295,666.185348
1323.800945,-7550.100608,-995.924147,-148.041188
1323.801256,-7846.182985,153.219100,-740.205942
1323.801568,-7624.121203,306.438199,-370.102971
1323.801879,-9178.553681,-612.876398,-444.123565
1323.802190,-9252.574275,-995.924147,666.185348
1323.802502,-8882.471304,-1225.752797,1258.350101
1323.802813,-9474.636058,-1225.752797,1110.308913
1323.803124,-10881.027347,-229.828649,814.226536
1323.803436,-10807.006753,1378.971896,-0.000000
1323.803747,-10881.027347,2834.553343,-222.061783
1323.804058,-10584.944971,2374.896044,-296.082377
1323.804370,-8882.471304,1685.410096,666.185348
1323.804681,-7994.224174,-306.438199,1184.329507
1323.804993,-6883.915261,-2298.286494,1480.411884
1323.805304,-6735.874072,-2451.505594,1184.329507
1323.805615,-7105.977043,-1685.410096,-0.000000
1323.805927,-7328.038826,-383.047749,-518.144159
1323.806238,-7846.182985,0.000000,-888.247130
1323.806549,-9252.574275,-306.438199,-740.205942
1323.806861,-9770.718434,76.609550,444.123565
1323.807172,-10436.903782,76.609550,1332.370696
1323.807484,-11251.130318,0.000000,962.267725
1323.807795,-11769.274478,459.657299,1258.350101
1323.808106,-11547.212695,2068.457845,-0.000000
1323.808418,-11103.089130,3294.210641,-148.041188
1323.808729,-9548.656652,3753.867940,222.061783
1323.809040,-7402.059420,1991.848295,814.226536
1323.809352,-7105.977043,0.000000,1332.370696
1323.809663,-6809.894666,-1149.143247,814.226536
1323.809974,-6809.894666,-995.924147,-0.000000
1323.810286,-7476.080014,0.000000,-1258.350101
1323.810597,-7772.162391,689.485948,-1036.288319
1323.810909,-8216.285956,536.266849,-666.185348
1323.811220,-9474.636058,-1302.362347,444.123565
1323.811531,-10436.903782,-995.924147,2072.576638
1323.811843,-9992.780217,-842.705048,2146.597232
1323.812154,-9622.677246,-612.876398,2072.576638
1323.812465,-9548.656652,-229.828649,962.267725
1323.812777,-9770.718434,842.705048,-148.041188
1323.813088,-8290.306550,2528.115143,-518.144159
1323.813400,-7920.203579,3140.991542,-444.123565
1323.813711,-8808.450710,2221.676944,-74.020594
1323.814022,-8290.306550,-306.438199,888.247130
1323.814334,-8216.285956,-1608.800546,1406.391290
1323.814645,-8216.285956,-2834.553343,1702.473667
1323.814956,-7698.141797,-2451.505594,592.164754
1323.815268,-7698.141797,-1532.190996,-370.102971
1323.815579,-8142.265362,-306.438199,-1110.308913
1323.815890,-8142.265362,-1532.190996,222.061783
1323.816202,-9178.553681,-919.314598,962.267725
1323.816513,-9918.759623,-1378.971896,1554.432478
1323.816825,-10881.027347,-689.485948,2146.597232
1323.817136,-10732.986159,306.438199,1776.494261
1323.817447,-10510.924376,1915.238745,666.185348
1323.817759,-9696.697840,2604.724693,740.205942
1323.818070,-8364.327145,1685.410096,296.082377
1323.818381,-7772.162391,383.047749,740.205942
1323.818693,-7772.162391,-689.485948,962.267725
1323.819004,-8438.347739,-995.924147,1110.308913
1323.819316,-8808.450710,-1302.362347,888.247130
1323.819627,-8808.450710,-1072.533697,-0.000000
1323.819938,-8364.327145,-766.095498,222.061783
1323.820250,-7994.224174,-766.095498,296.082377
1323.820561,-8290.306550,-536.266849,518.144159
1323.820872,-8882.471304,-1072.533697,1406.391290
1323.821184,-9178.553681,-1225.752797,2146.597232
1323.821495,-9326.594869,-689.485948,1554.432478
1323.821806,-9696.697840,-459.657299,888.247130
1323.822118,-10510.924376,919.314598,222.061783
1323.822429,-10881.027347,2374.896044,370.102971
1323.822741,-9770.718434,2145.067394,370.102971
1323.823052,-8512.368333,1149.143247,1332.370696
1323.823363,-8068.244768,-919.314598,1924.535449
1323.823675,-7846.182985,-2068.457845,1776.494261
1323.823986,-6809.894666,-1072.533697,444.123565
1323.824297,-6883.915261,0.000000,-1258.350101
1323.824609,-6587.832884,842.705048,-1184.329507
1323.824920,-7031.956449,459.657299,-1850.514855
1323.825232,-7846.182985,-229.828649,-370.102971
1323.825543,-8216.285956,-383.047749,518.144159
1323.825854,-10436.903782,-766.095498,1184.329507
1323.826166,-11621.233289,-383.047749,1702.473667
1323.826477,-11843.295072,919.314598,1110.308913
1323.826788,-11621.233289,2068.457845,-222.061783
1323.827100,-10066.800811,3064.381992,-296.082377
1323.827411,-8734.430116,3217.601092,-592.164754
1323.827722,-7105.977043,1991.848295,370.102971
1323.828034,-7105.977043,306.438199,518.144159
1323.828345,-7254.018232,-1532.190996,592.164754
1323.828657,-7846.182985,-1225.752797,222.061783
1323.828968,-8808.450710,-689.485948,-370.102971
1323.829279,-8364.327145,-229.828649,-296.082377
1323.829591,-9178.553681,-1378.971896,-814.226536
1323.829902,-10140.821405,-1225.752797,-74.020594
1323.830213,-10066.800811,-995.924147,592.164754
1323.830525,-10732.986159,-459.657299,888.247130
1323.830836,-10510.924376,-153.219100,1184.329507
1323.831148,-11251.130318,459.657299,518.144159
1323.831459,-11177.109724,2145.067394,-0.000000
1323.831770,-9992.780217,3753.867940,-0.000000
1323.832082,-8364.327145,3447.429741,518.144159
1323.832393,-6513.812290,1762.019645,888.247130
1323.832704,-6735.874072,-153.219100,1332.370696
1323.833016,-6365.771101,-1991.848295,1258.350101
1323.833327,-7698.141797,-2221.676944,222.061783
1323.833638,-7994.224174,-995.924147,-222.061783
1323.833950,-8586.388927,-306.438199,-370.102971
1323.834261,-9178.553681,-536.266849,-222.061783
1323.834573,-8734.430116,-536.266849,1110.308913
1323.834884,-10436.903782,-766.095498,888.247130
1323.835195,-9770.718434,689.485948,1924.535449
1323.835507,-10362.883188,-229.828649,1850.514855
1323.835818,-11177.109724,1072.533697,1480.411884
1323.836129,-10066.800811,2757.943793,740.205942
1323.836441,-9400.615463,3064.381992,222.061783
1323.836752,-7550.100608,2374.896044,1110.308913
1323.837064,-6661.853478,-153.219100,1850.514855
1323.837375,-6069.688724,-1991.848295,1702.473667
1323.837686,-6217.729913,-3217.601092,1332.370696
1323.837998,-7846.182985,-2987.772442,-0.000000
1323.838309,-8512.368333,-1532.190996,-296.082377
1323.838620,-9030.512492,-306.438199,-592.164754
1323.838932,-9474.636058,-995.924147,-0.000000
1323.839243,-9696.697840,-1225.752797,1036.288319
1323.839554,-10066.800811,-766.095498,1332.370696
1323.839866,-10214.842000,459.657299,1776.494261
1323.840177,-10362.883188,0.000000,1702.473667
1323.840489,-9622.677246,995.924147,1258.350101
1323.840800,-9474.636058,2528.115143,370.102971
1323.841111,-8586.388927,2528.115143,-0.000000
1323.841423,-7772.162391,1225.752797,296.082377
1323.841734,-7179.997637,0.000000,962.267725
1323.842045,-7105.977043,-919.314598,1258.350101
1323.842357,-7031.956449,-2221.676944,1258.350101
1323.842668,-8586.388927,-2451.505594,222.061783
1323.842979,-9474.636058,-1838.629195,-592.164754
1323.843291,-9252.574275,-842.705048,-814.226536
1323.843602,-9326.594869,-536.266849,-592.164754
1323.843914,-9252.574275,-306.438199,370.102971
1323.844225,-9622.677246,-995.924147,814.226536
1323.844536,-9918.759623,-1225.752797,1406.391290
1323.844848,-10288.862594,-919.314598,1702.473667
1323.845159,-10955.047942,1072.533697,518.144159
1323.845470,-10214.842000,2451.505594,-0.000000
1323.845782,-9104.533087,2374.896044,-518.144159
1323.846093,-8438.347739,536.266849,-0.000000
1323.846405,-7402.059420,-766.095498,740.205942
1323.846716,-7550.100608,-1762.019645,962.267725
1323.847027,-7920.203579,-2528.115143,1258.350101
1323.847339,-8290.306550,-2298.286494,444.123565
1323.847650,-9030.512492,-1838.629195,-518.144159
1323.847961,-8660.409521,-1532.190996,-518.144159
1323.848273,-9104.533087,-1378.971896,-74.020594
1323.848584,-9326.594869,-919.314598,666.185348
1323.848895,-9770.718434,-689.485948,962.267725
1323.849207,-9030.512492,-153.219100,1554.432478
1323.849518,-9918.759623,919.314598,740.205942
1323.849830,-10807.006753,1838.629195,-0.000000
1323.850141,-10066.800811,3064.381992,-444.123565
1323.850452,-9474.636058,3983.696590,-740.205942
1323.850764,-8364.327145,3524.039291,-74.020594
1323.851075,-7624.121203,1915.238745,666.185348
1323.851386,-7550.100608,0.000000,888.247130
1323.851698,-7105.977043,-1302.362347,814.226536
1323.852009,-7402.059420,-1685.410096,74.020594
1323.852321,-7254.018232,-842.705048,-518.144159
1323.852632,-7772.162391,-766.095498,-518.144159
1323.852943,-8660.409521,-1225.752797,-370.102971
1323.853255,-9400.615463,-1225.752797,740.205942
1323.853566,-9400.615463,-689.485948,1184.329507
1323.853877,-10658.965565,-536.266849,1480.411884
1323.854189,-11103.089130,766.095498,1554.432478
1323.854500,-11991.336260,1455.581446,888.247130
1323.854811,-11473.192101,3064.381992,888.247130
1323.855123,-9992.780217,3140.991542,740.205942
1323.855434,-7994.224174,2374.896044,1110.308913
1323.855746,-6365.771101,536.266849,1184.329507
1323.856057,-6069.688724,-1608.800546,962.267725
1323.856368,-5995.668130,-2374.896044,518.144159
1323.856680,-6587.832884,-1378.971896,-592.164754
1323.856991,-7698.141797,-612.876398,-444.123565
1323.857302,-8734.430116,-536.266849,-444.123565
1323.857614,-9548.656652,-1378.971896,518.144159
1323.857925,-9696.697840,-1378.971896,1554.432478
1323.858237,-9918.759623,-1149.143247,1850.514855
1323.858548,-10214.842000,-612.876398,1702.473667
1323.858859,-10066.800811,919.314598,370.102971
1323.859171,-10732.986159,2681.334243,-296.082377
1323.859482,-10436.903782,3140.991542,-0.000000
1323.859793,-9622.677246,2451.505594,740.205942
1323.860105,-7846.182985,689.485948,1110.308913
1323.860416,-6661.853478,-1225.752797,1998.556043
1323.860727,-6513.812290,-2681.334243,1480.411884
1323.861039,-7105.977043,-3370.820191,888.247130
1323.861350,-7624.121203,-2451.505594,222.061783
1323.861662,-8290.306550,-1838.629195,-1036.288319
1323.861973,-8734.430116,-1685.410096,-518.144159
1323.862284,-9844.739029,-995.924147,-370.102971
1323.862596,-10732.986159,-1225.752797,740.205942
1323.862907,-10288.862594,-919.314598,1554.432478
1323.863218,-10066.800811,-995.924147,1850.514855
1323.863530,-9992.780217,-536.266849,1332.370696
1323.863841,-10288.862594,995.924147,-0.000000
1323.864153,-9622.677246,2451.505594,-0.000000
1323.864464,-8586.388927,2374.896044,-148.041188
1323.864775,-7550.100608,612.876398,518.144159
1323.865087,-7476.080014,-1072.533697,592.164754
1323.865398,-7698.141797,-2374.896044,1110.308913
1323.865709,-8512.368333,-2987.772442,370.102971
1323.866021,-8586.388927,-2145.067394,222.061783
1323.866332,-9104.533087,-383.047749,-518.144159
1323.866643,-9178.553681,0.000000,-666.185348
1323.866955,-9770.718434,-919.314598,370.102971
1323.867266,-10584.944971,-459.657299,1184.329507
1323.867578,-9770.718434,306.438199,1702.473667
1323.867889,-9400.615463,459.657299,1332.370696
1323.868200,-9400.615463,842.705048,814.226536
1323.868512,-9326.594869,1608.800546,-444.123565
1323.868823,-9252.574275,2451.505594,-370.102971
1323.869134,-8364.327145,2298.286494,-0.000000
1323.869446,-7698.141797,1302.362347,888.247130
1323.869757,-7772.162391,-306.438199,1110.308913
1323.870069,-7476.080014,-1991.848295,1184.329507
1323.870380,-7772.162391,-3370.820191,666.185348
1323.870691,-7179.997637,-3217.601092,518.144159
1323.871003,-7846.182985,-1532.190996,-296.082377
1323.871314,-7550.100608,0.000000,-1110.308913
1323.871625,-7994.224174,-766.095498,-148.041188
1323.871937,-8512.368333,-1302.362347,592.164754
1323.872248,-9622.677246,-689.485948,1258.350101
1323.872559,-10584.944971,-153.219100,1776.494261
1323.872871,-11103.089130,153.219100,962.267725
1323.873182,-11325.150913,1149.143247,370.102971
1323.873494,-10807.006753,2221.676944,-370.102971
1323.873805,-9178.553681,2834.553343,-444.123565
1323.874116,-7994.224174,2145.067394,296.082377
1323.874428,-7105.977043,0.000000,1110.308913
1323.874739,-8142.265362,-1685.410096,888.247130
1323.875050,-8808.450710,-1838.629195,1036.288319
1323.875362,-9030.512492,76.609550,888.247130
1323.875673,-8586.388927,1532.190996,-0.000000
1323.875985,-8068.244768,1149.143247,-74.020594
1323.876296,-7772.162391,0.000000,222.061783
1323.876607,-8068.244768,0.000000,222.061783
1323.876919,-9178.553681,536.266849,666.185348
1323.877230,-10214.842000,1225.752797,518.144159
1323.877541,-11177.109724,1378.971896,296.082377
1323.877853,-12435.459826,2068.457845,-222.061783
1323.878164,-11029.068536,2757.943793,-0.000000
1323.878475,-9696.697840,2911.162892,444.123565
1323.878787,-7698.141797,1302.362347,1776.494261
1323.879098,-6217.729913,-459.657299,2072.576638
1323.879410,-6217.729913,-3064.381992,1776.494261
1323.879721,-5625.565159,-3370.820191,1184.329507
1323.880032,-6587.832884,-2068.457845,-74.020594
1323.880344,-6883.915261,-995.924147,-444.123565
1323.880655,-7105.977043,-1072.533697,-666.185348
1323.880966,-9030.512492,-1838.629195,-74.020594
1323.881278,-10436.903782,-1072.533697,666.185348
1323.881589,-10955.047942,229.828649,888.247130
1323.881901,-11843.295072,995.924147,888.247130
1323.882212,-12139.377449,1608.800546,592.164754
1323.882523,-10807.006753,2604.724693,-0.000000
1323.882835,-8660.409521,3677.258390,-666.185348
1323.883146,-7550.100608,2987.772442,-74.020594
1323.883457,-6365.771101,1838.629195,1332.370696
1323.883769,-6809.894666,-1072.533697,1924.535449
1323.884080,-7698.141797,-3294.210641,1702.473667
1323.884391,-8068.244768,-3140.991542,814.226536
1323.884703,-8734.430116,-1838.629195,-0.000000
1323.885014,-9030.512492,-536.266849,-666.185348
1323.885326,-9770.718434,-842.705048,-1184.329507
1323.885637,-10510.924376,-919.314598,-74.020594
1323.885948,-10732.986159,-153.219100,962.267725
1323.886260,-10955.047942,1762.019645,1184.329507
1323.886571,-10807.006753,919.314598,1406.391290
1323.886882,-11103.089130,919.314598,592.164754
1323.887194,-10066.800811,1915.238745,518.144159
1323.887505,-8290.306550,2681.334243,296.082377
1323.887817,-7698.141797,2451.505594,740.205942
1323.888128,-7402.059420,0.000000,1258.350101
1323.888439,-7031.956449,-2834.553343,1776.494261
1323.888751,-6957.935855,-3677.258390,1110.308913
1323.889062,-7624.121203,-3447.429741,148.041188
1323.889373,-8364.327145,-1915.238745,-740.205942
1323.889685,-8956.491898,-919.314598,-962.267725
1323.889996,-9178.553681,-459.657299,-296.082377
1323.890307,-9178.553681,-612.876398,888.247130
1323.890619,-9770.718434,-229.828649,1850.514855
1323.890930,-10066.800811,-229.828649,2590.720797
1323.891242,-8808.450710,0.000000,1850.514855
1323.891553,-8216.285956,919.314598,814.226536
1323.891864,-7772.162391,2068.457845,-0.000000
1323.892176,-7179.997637,2298.286494,-518.144159
1323.892487,-7920.203579,919.314598,-0.000000
1323.892798,-8142.265362,0.000000,962.267725
1323.893110,-8364.327145,-995.924147,1702.473667
1323.893421,-8882.471304,-2145.067394,1998.556043
1323.893732,-9474.636058,-2221.676944,1332.370696
1323.894044,-9400.615463,-995.924147,-0.000000
1323.894355,-7920.203579,459.657299,-740.205942
1323.894667,-7328.038826,536.266849,-888.247130
1323.894978,-7179.997637,-383.047749,-666.185348
1323.895289,-8438.347739,-689.485948,-0.000000
1323.895601,-9770.718434,-995.924147,888.247130
1323.895912,-10362.883188,-842.705048,666.185348
1323.896223,-11991.336260,0.000000,-0.000000
1323.896535,-12509.480420,2298.286494,-296.082377
1323.896846,-11473.192101,2834.553343,-74.020594
1323.897158,-10214.842000,1532.190996,222.061783
1323.897469,-8734.430116,0.000000,1184.329507
1323.897780,-7402.059420,-612.876398,1184.329507
1323.898092,-6957.935855,-1225.752797,814.226536
1323.898403,-7179.997637,-1378.971896,-148.041188
1323.898714,-7846.182985,-229.828649,-1036.288319
1323.899026,-8290.306550,766.095498,-1110.308913
1323.899337,-9178.553681,536.266849,-1184.329507
1323.899648,-9548.656652,0.000000,-148.041188
1323.899960,-9474.636058,-229.828649,518.144159
1323.900271,-9918.759623,-229.828649,1258.350101
1323.900583,-10140.821405,0.000000,962.267725
1323.900894,-10807.006753,919.314598,666.185348
1323.901205,-10881.027347,2757.943793,-74.020594
1323.901517,-9770.718434,3447.429741,-148.041188
1323.901828,-8808.450710,2528.115143,148.041188
1323.902139,-8290.306550,1149.143247,1036.288319
1323.902451,-7772.162391,306.438199,1258.350101
1323.902762,-6735.874072,-1225.752797,1184.329507
1323.903074,-7179.997637,-1378.971896,962.267725
1323.903385,-7179.997637,-1225.752797,444.123565
1323.903696,-7105.977043,-306.438199,-148.041188
1323.904008,-7920.203579,-1072.533697,-74.020594
1323.904319,-8364.327145,-919.314598,1184.329507
1323.904631,-8808.450710,-1532.190996,1702.473667
1323.904943,-9548.656652,-766.095498,1480.411884
1323.905254,-10214.842000,-153.219100,1554.432478
1323.905566,-11029.068536,0.000000,888.247130
1323.905877,-10510.924376,2374.896044,148.041188
1323.906189,-9104.533087,3447.429741,592.164754
1323.906500,-7550.100608,1838.629195,1110.308913
1323.906812,-7105.977043,-612.876398,2146.597232
1323.907123,-6957.935855,-2451.505594,2442.679609
1323.907435,-6809.894666,-3064.381992,1998.556043
1323.907746,-7920.203579,-2911.162892,962.267725
1323.908058,-8512.368333,-1685.410096,-222.061783
1323.908369,-8586.388927,-153.219100,-518.144159
1323.908681,-9400.615463,-689.485948,-518.144159
1323.908992,-9622.677246,-1072.533697,666.185348
1323.909304,-10288.862594,-842.705048,1036.288319
1323.909615,-10214.842000,0.000000,1184.329507
1323.909927,-10288.862594,842.705048,1332.370696
1323.910238,-10881.027347,1225.752797,592.164754
1323.910550,-10436.903782,2374.896044,296.082377
1323.910861,-9178.553681,2374.896044,592.164754
1323.911173,-7920.203579,1302.362347,1110.308913
1323.911484,-7772.162391,-229.828649,1406.391290
1323.911796,-7920.203579,-1532.190996,1554.432478
1323.912107,-7994.224174,-2604.724693,1036.288319
1323.912419,-8068.244768,-2298.286494,-148.041188
1323.912731,-8290.306550,-1149.143247,-740.205942
1323.913042,-9104.533087,-1378.971896,-1332.370696
1323.913354,-9918.759623,-689.485948,-1110.308913
1323.913665,-10140.821405,-459.657299,-0.000000
1323.913977,-9844.739029,-153.219100,592.164754
1323.914288,-9770.718434,-306.438199,1702.473667
1323.914600,-10140.821405,-229.828649,1406.391290
1323.914911,-9770.718434,0.000000,592.164754
1323.915223,-9104.533087,766.095498,518.144159
1323.915534,-8586.388927,1608.800546,222.061783
1323.915846,-7624.121203,1455.581446,222.061783
1323.916157,-7846.182985,-306.438199,518.144159
1323.916469,-7920.203579,-1532.190996,740.205942
1323.916780,-7698.141797,-2451.505594,296.082377
1323.917092,-7698.141797,-1455.581446,-888.247130
1323.917403,-8216.285956,0.000000,-1776.494261
1323.917715,-7772.162391,612.876398,-1628.453072
1323.918026,-7994.224174,-766.095498,-296.082377
1323.918338,-8512.368333,-1225.752797,888.247130
1323.918649,-8734.430116,-766.095498,1332.370696
1323.918961,-9474.636058,-842.705048,1702.473667
1323.919272,-9770.718434,-612.876398,1480.411884
1323.919584,-11177.109724,-306.438199,148.041188
1323.919896,-10362.883188,1149.143247,-222.061783
1323.920207,-9918.759623,1915.238745,-518.144159
1323.920519,-9844.739029,1072.533697,370.102971
1323.920830,-9548.656652,0.000000,962.267725
1323.921142,-8882.471304,-1455.581446,1110.308913
1323.921453,-8290.306550,-1915.238745,666.185348
1323.921765,-7994.224174,-919.314598,-0.000000
1323.922076,-7624.121203,536.266849,-592.164754
1323.922388,-7846.182985,1685.410096,-666.185348
1323.922699,-8586.388927,-306.438199,148.041188
1323.923011,-9030.512492,-689.485948,740.205942
1323.923322,-9770.718434,-153.219100,1036.288319
1323.923634,-10140.821405,306.438199,1332.370696
1323.923945,-11029.068536,76.609550,888.247130
1323.924257,-11621.233289,919.314598,518.144159
1323.924568,-11251.130318,2451.505594,-148.041188
1323.924880,-10066.800811,3294.210641,148.041188
1323.925191,-8586.388927,1532.190996,1702.473667
1323.925503,-7624.121203,229.828649,2146.597232
1323.925814,-6587.832884,-1225.752797,2072.576638
1323.926126,-6365.771101,-1838.629195,1776.494261
1323.926437,-6439.791695,-689.485948,148.041188
1323.926749,-6661.853478,1072.533697,-0.000000
1323.927060,-7105.977043,689.485948,-888.247130
1323.927372,-8142.265362,-306.438199,-296.082377
1323.927684,-8364.327145,-153.219100,1110.308913
1323.927995,-9104.533087,-766.095498,1702.473667
1323.928307,-9622.677246,-995.924147,2368.659014
1323.928618,-10584.944971,-689.485948,1850.514855
1323.928930,-10881.027347,536.266849,518.144159
1323.929241,-9622.677246,2911.162892,-74.020594
1323.929553,-8808.450710,2451.505594,-0.000000
1323.929864,-7772.162391,1302.362347,740.205942
1323.930176,-6957.935855,-1225.752797,1702.473667
1323.930487,-6957.935855,-2451.505594,1702.473667
1323.930799,-7179.997637,-3064.381992,1332.370696
1323.931110,-8586.388927,-1762.019645,370.102971
1323.931422,-8512.368333,-689.485948,-518.144159
1323.931733,-8142.265362,76.609550,-1258.350101
1323.932045,-9326.594869,-766.095498,-1184.329507
1323.932356,-10066.800811,-383.047749,-740.205942
1323.932668,-10584.944971,-229.828649,-0.000000
1323.932979,-11103.089130,0.000000,666.185348
1323.933291,-11547.212695,459.657299,814.226536
1323.933602,-11843.295072,1149.143247,-0.000000
1323.933914,-10807.006753,2451.505594,370.102971
1323.934225,-8808.450710,1608.800546,148.041188
1323.934537,-7624.121203,153.219100,814.226536
1323.934849,-6883.915261,-1225.752797,1628.453072
1323.935160,-7328.038826,-2911.162892,1554.432478
1323.935472,-8216.285956,-3907.087040,740.205942
1323.935783,-8956.491898,-2834.553343,-0.000000
1323.936095,-9030.512492,-612.876398,-666.185348
1323.936406,-8808.450710,-459.657299,-814.226536
1323.936718,-9474.636058,-1072.533697,-222.061783
1323.937029,-9918.759623,-2068.457845,1036.288319
1323.937341,-9252.574275,-1072.533697,1480.411884
1323.937652,-9992.780217,-612.876398,1406.391290
1323.937964,-10658.965565,229.828649,962.267725
1323.938275,-10288.862594,1685.410096,222.061783
1323.938587,-9104.533087,2987.772442,-0.000000
1323.938898,-8290.306550,2221.676944,370.102971
1323.939210,-7476.080014,995.924147,1332.370696
1323.939521,-7772.162391,-383.047749,1628.453072
1323.939833,-7624.121203,-689.485948,1110.308913
1323.940144,-7624.121203,-1762.019645,518.144159
1323.940456,-7254.018232,-1072.533697,-888.247130
1323.940767,-7179.997637,229.828649,-1332.370696
1323.941079,-8290.306550,0.000000,-1110.308913
1323.941390,-8586.388927,-612.876398,-0.000000
1323.941702,-9400.615463,-689.485948,1184.329507
1323.942014,-10584.944971,-612.876398,1998.556043
1323.942325,-10658.965565,-1072.533697,1998.556043
1323.942637,-11177.109724,-459.657299,1332.370696
1323.942948,-10658.965565,1455.581446,296.082377
1323.943260,-9696.697840,3217.601092,-0.000000
1323.943571,-8660.409521,3140.991542,-296.082377
1323.943883,-7994.224174,2068.457845,-0.000000
1323.944194,-7105.977043,1225.752797,740.205942
1323.944506,-6587.832884,-919.314598,1110.308913
1323.944817,-6661.853478,-1225.752797,518.144159
1323.945129,-7105.977043,-612.876398,-666.185348
1323.945440,-7179.997637,536.266849,-888.247130
1323.945752,-7624.121203,-153.219100,-888.247130
1323.946063,-8808.450710,-1225.752797,-74.020594
1323.946375,-8660.409521,-1302.362347,666.185348
1323.946686,-9918.759623,-689.485948,1110.308913
1323.946998,-10436.903782,-689.485948,1480.411884
1323.947309,-11621.233289,0.000000,814.226536
1323.947621,-12361.439231,1608.800546,444.123565
1323.947932,-10881.027347,3370.820191,592.164754
1323.948244,-9622.677246,3447.429741,740.205942
1323.948555,-9104.533087,1378.971896,888.247130
1323.948867,-7994.224174,153.219100,1110.308913
1323.949178,-6957.935855,-1072.533697,1110.308913
1323.949490,-6365.771101,-1149.143247,148.041188
1323.949802,-6809.894666,-766.095498,-740.205942
1323.950113,-7772.162391,-536.266849,-962.267725
1323.950425,-9104.533087,-766.095498,-518.144159
1323.950736,-9548.656652,-1072.533697,444.123565
1323.951048,-9696.697840,-536.266849,1850.514855
1323.951359,-10140.821405,76.609550,2072.576638
1323.951671,-10955.047942,-689.485948,1998.556043
1323.951982,-10436.903782,76.609550,1332.370696
1323.952294,-9918.759623,1838.629195,518.144159
1323.952605,-9030.512492,2911.162892,-0.000000
1323.952917,-7994.224174,2221.676944,148.041188
1323.953228,-7031.956449,229.828649,1110.308913
1323.953540,-6587.832884,-1762.019645,1110.308913
1323.953851,-7031.956449,-2834.553343,962.267725
1323.954163,-7846.182985,-3217.601092,592.164754
1323.954474,-9104.533087,-2374.896044,-148.041188
1323.954786,-8882.471304,-995.924147,-74.020594
1323.955097,-8956.491898,-1072.533697,-296.082377
1323.955409,-9474.636058,-1302.362347,814.226536
1323.955720,-9252.574275,-766.095498,1110.308913
1323.956032,-8734.430116,-536.266849,1480.411884
1323.956343,-8438.347739,-306.438199,1850.514855
1323.956655,-9326.594869,153.219100,740.205942
1323.956967,-10066.800811,995.924147,148.041188
1323.957278,-9400.615463,2451.505594,370.102971
1323.957590,-9326.594869,1762.019645,-0.000000
1323.957901,-8512.368333,766.095498,740.205942
1323.958213,-8660.409521,-229.828649,888.247130
1323.958524,-8586.388927,-1149.143247,666.185348
1323.958836,-7698.141797,-1149.143247,148.041188
1323.959147,-8068.244768,-383.047749,-444.123565
1323.959459,-8290.306550,-153.219100,-370.102971
1323.959770,-8956.491898,-612.876398,-370.102971
1323.960082,-9622.677246,-1302.362347,444.123565
1323.960393,-9474.636058,-689.485948,1110.308913
1323.960705,-9992.780217,0.000000,1554.432478
1323.961016,-10362.883188,-612.876398,1480.411884
1323.961328,-10807.006753,-229.828649,888.247130
1323.961639,-10510.924376,1762.019645,222.061783
1323.961951,-9770.718434,2604.724693,-148.041188
1323.962262,-8882.471304,2451.505594,-0.000000
1323.962574,-7476.080014,1225.752797,1110.308913
1323.962885,-7402.059420,306.438199,1036.288319
1323.963197,-6661.853478,-1225.752797,888.247130
1323.963508,-6143.709319,-1378.971896,444.123565
1323.963820,-7179.997637,-1149.143247,-370.102971
1323.964131,-7105.977043,-689.485948,-444.123565
1323.964443,-7772.162391,-1685.410096,-814.226536
1323.964755,-8438.347739,-2451.505594,-0.000000
1323.965066,-8882.471304,-2451.505594,962.267725
1323.965378,-10066.800811,-1838.629195,1258.350101
1323.965689,-10881.027347,-995.924147,2146.597232
1323.966001,-12065.356855,-689.485948,1258.350101
1323.966312,-12657.521608,1302.362347,296.082377
1323.966624,-11177.109724,3600.648841,518.144159
1323.966935,-9104.533087,3370.820191,148.041188
1323.967247,-6957.935855,1608.800546,1036.288319
1323.967558,-5847.626942,-383.047749,1110.308913
1323.967870,-5329.482782,-1685.410096,666.185348
1323.968181,-5995.668130,-1455.581446,-444.123565
1323.968493,-7031.956449,0.000000,-1480.411884
1323.968804,-8660.409521,-306.438199,-1332.370696
1323.969116,-10066.800811,-536.266849,-666.185348
1323.969427,-11251.130318,-995.924147,222.061783
1323.969739,-11991.336260,-306.438199,814.226536
1323.970050,-12065.356855,766.095498,1628.453072
1323.970362,-11991.336260,1225.752797,1776.494261
1323.970673,-10955.047942,2068.457845,1036.288319
1323.970985,-9400.615463,2987.772442,296.082377
1323.971296,-8290.306550,3753.867940,-296.082377
1323.971608,-6883.915261,3064.381992,296.082377
1323.971920,-6587.832884,1685.410096,444.123565
1323.972231,-7031.956449,-459.657299,888.247130
1323.972543,-7254.018232,-1378.971896,740.205942
1323.972854,-8586.388927,-1915.238745,-0.000000
1323.973166,-8808.450710,-612.876398,-0.000000
1323.973477,-8364.327145,-383.047749,-0.000000
1323.973789,-9474.636058,-995.924147,518.144159
1323.974100,-9104.533087,-842.705048,1332.370696
1323.974412,-8734.430116,0.000000,1554.432478
1323.974723,-8808.450710,383.047749,1554.432478
1323.975035,-9474.636058,919.314598,1258.350101
1323.975346,-9918.759623,2068.457845,-74.020594
1323.975658,-9474.636058,4060.306139,-74.020594
1323.975969,-8734.430116,3140.991542,740.205942
1323.976281,-7846.182985,1532.190996,1406.391290
1323.976592,-7772.162391,-612.876398,1850.514855
1323.976904,-7179.997637,-2221.676944,1924.535449
1323.977215,-7105.977043,-3064.381992,1480.411884
1323.977527,-7402.059420,-2221.676944,-0.000000
1323.977838,-7920.203579,-1608.800546,-370.102971
1323.978150,-9030.512492,0.000000,-962.267725
1323.978461,-9548.656652,-1838.629195,-0.000000
1323.978773,-9992.780217,-1685.410096,1702.473667
1323.979084,-10510.924376,-1302.362347,1924.535449
1323.979396,-10436.903782,-995.924147,1998.556043
1323.979708,-10288.862594,-1072.533697,1184.329507
1323.980019,-9696.697840,229.828649,444.123565
1323.980331,-8734.430116,1608.800546,-222.061783
1323.980642,-8512.368333,1225.752797,-444.123565
1323.980954,-8882.471304,842.705048,444.123565
1323.981265,-8808.450710,0.000000,1332.370696
1323.981577,-7994.224174,-1378.971896,1850.514855
1323.981888,-8216.285956,-3064.381992,1702.473667
1323.982200,-8142.265362,-3447.429741,296.082377
1323.982511,-8364.327145,-1991.848295,-444.123565
1323.982823,-8660.409521,-536.266849,-296.082377
1323.983134,-9030.512492,-306.438199,-888.247130
1323.983446,-10362.883188,-612.876398,-370.102971
1323.983757,-10362.883188,-689.485948,666.185348
1323.984069,-10066.800811,0.000000,1480.411884
1323.984380,-10732.986159,383.047749,518.144159
1323.984692,-11325.150913,2221.676944,-370.102971
1323.985003,-10436.903782,2757.943793,-222.061783
1323.985315,-8734.430116,2221.676944,-444.123565
1323.985626,-7179.997637,1915.238745,-0.000000
1323.985938,-7254.018232,536.266849,370.102971
1323.986249,-7179.997637,-1915.238745,1332.370696
1323.986561,-7105.977043,-3447.429741,1036.288319
1323.986873,-7624.121203,-2987.772442,-74.020594
1323.987184,-7254.018232,-842.705048,-74.020594
1323.987496,-7772.162391,-1149.143247,222.061783
1323.987807,-8364.327145,-1838.629195,888.247130
1323.988119,-9178.553681,-2068.457845,1110.308913
1323.988430,-9474.636058,-383.047749,1776.494261
1323.988742,-9622.677246,306.438199,1554.432478
1323.989053,-10510.924376,919.314598,666.185348
1323.989365,-11103.089130,2757.943793,-148.041188
1323.989676,-9548.656652,4060.306139,-740.205942
1323.989988,-8142.265362,4443.353888,-296.082377
1323.990299,-7624.121203,3140.991542,444.123565
1323.990611,-7254.018232,1149.143247,1036.288319
1323.990922,-7402.059420,-995.924147,1702.473667
1323.991234,-7105.977043,-1991.848295,1406.391290
1323.991545,-7846.182985,-1455.581446,518.144159
1323.991857,-8216.285956,76.609550,-222.061783
1323.992168,-7624.121203,306.438199,-740.205942
1323.992480,-8808.450710,-306.438199,-740.205942
1323.992791,-9548.656652,-842.705048,-74.020594
1323.993103,-10214.842000,383.047749,1036.288319
1323.993414,-11325.150913,689.485948,1554.432478
1323.993726,-12213.398043,919.314598,1110.308913
1323.994038,-12213.398043,1608.800546,370.102971
1323.994349,-10658.965565,3753.867940,-74.020594
1323.994661,-8586.388927,3140.991542,518.144159
1323.994972,-7105.977043,2068.457845,1184.329507
1323.995284,-7179.997637,-689.485948,1998.556043
1323.995595,-7254.018232,-2604.724693,1702.473667
1323.995907,-7179.997637,-2681.334243,1258.350101
1323.996218,-7476.080014,-1915.238745,444.123565
1323.996530,-7550.100608,-995.924147,-518.144159
1323.996841,-7994.224174,-766.095498,-814.226536
1323.997153,-8364.327145,-689.485948,-74.020594
1323.997464,-9030.512492,-766.095498,666.185348
1323.997776,-10214.842000,0.000000,814.226536
1323.998087,-10066.800811,842.705048,1554.432478
1323.998399,-9474.636058,1072.533697,592.164754
1323.998710,-9622.677246,1608.800546,148.041188
1323.999022,-9474.636058,2221.676944,-74.020594
1323.999333,-8734.430116,2068.457845,222.061783
1323.999645,-7994.224174,-306.438199,1332.370696
1323.999956,-7031.956449,-1072.533697,2368.659014
1324.000268,-8364.327145,-3140.991542,1406.391290
1324.000579,-8882.471304,-3677.258390,666.185348
1324.000891,-8956.491898,-2681.334243,-74.020594
1324.001202,-7772.162391,-1455.581446,-592.164754
1324.001514,-8068.244768,-995.924147,-962.267725
1324.001826,-9474.636058,-1225.752797,-370.102971
1324.002137,-9844.739029,-1608.800546,518.144159
1324.002449,-9548.656652,-1072.533697,1036.288319
1324.002760,-9030.512492,-306.438199,1702.473667
1324.003072,-9918.759623,76.609550,740.205942
1324.003383,-11103.089130,536.266849,-74.020594
1324.003695,-10288.862594,1608.800546,-222.061783
1324.004006,-9252.574275,1991.848295,-0.000000
1324.004318,-8586.388927,612.876398,666.185348
1324.004630,-9030.512492,-1532.190996,888.247130
1324.004941,-9030.512492,-1991.848295,1406.391290
1324.005253,-8068.244768,-2987.772442,592.164754
1324.005564,-7772.162391,-2145.067394,-222.061783
1324.005876,-7328.038826,-842.705048,-296.082377
1324.006188,-8290.306550,-766.095498,-666.185348
1324.006499,-9104.533087,-1225.752797,-222.061783
1324.006811,-9400.615463,-153.219100,962.267725
1324.007122,-10214.842000,0.000000,1850.514855
1324.007434,-10288.862594,229.828649,1554.432478
1324.007746,-10510.924376,153.219100,814.226536
1324.008057,-9696.697840,1149.143247,-74.020594
1324.008369,-8882.471304,2451.505594,-296.082377
1324.008680,-8586.388927,1838.629195,-296.082377
1324.008992,-8438.347739,459.657299,962.267725
1324.009303,-8142.265362,-459.657299,1184.329507
1324.009615,-7698.141797,-689.485948,1480.411884
1324.009927,-7772.162391,-2221.676944,1628.453072
1324.010238,-7402.059420,-2145.067394,370.102971
1324.010550,-6809.894666,-842.705048,-444.123565
1324.010861,-7031.956449,-612.876398,-888.247130
1324.011173,-7772.162391,-536.266849,-666.185348
1324.011485,-8660.409521,-766.095498,962.267725
1324.011796,-9474.636058,-383.047749,1554.432478
1324.012108,-10732.986159,-536.266849,1554.432478
1324.012419,-11399.171507,-306.438199,1110.308913
1324.012731,-11547.212695,1838.629195,148.041188
1324.013043,-10214.842000,3294.210641,-148.041188
1324.013354,-9252.574275,2451.505594,-222.061783
1324.013666,-8068.244768,919.314598,-0.000000
1324.013977,-7550.100608,153.219100,370.102971
1324.014289,-7402.059420,-919.314598,518.144159
1324.014601,-7624.121203,-1838.629195,444.123565
1324.014912,-8364.327145,-766.095498,-222.061783
1324.015224,-8438.347739,536.266849,-222.061783
1324.015535,-8734.430116,612.876398,-296.082377
1324.015847,-9770.718434,-229.828649,-0.000000
1324.016159,-9400.615463,842.705048,296.082377
1324.016470,-9622.677246,842.705048,518.144159
1324.016782,-9030.512492,689.485948,814.226536
1324.017093,-9918.759623,1302.362347,-148.041188
1324.017405,-10732.986159,2221.676944,-518.144159
1324.017717,-10066.800811,3447.429741,-74.020594
1324.018028,-9770.718434,2528.115143,444.123565
1324.018340,-9104.533087,1455.581446,1332.370696
1324.018651,-7920.203579,-153.219100,1998.556043
1324.018963,-7179.997637,-1915.238745,1702.473667
1324.019274,-7105.977043,-2298.286494,1258.350101
1324.019586,-7476.080014,-2221.676944,-74.020594
1324.019898,-7254.018232,-689.485948,-444.123565
1324.020209,-7772.162391,-612.876398,-296.082377
1324.020521,-8364.327145,-1302.362347,296.082377
1324.020832,-8808.450710,-1149.143247,1184.329507
1324.021144,-9622.677246,-383.047749,1258.350101
1324.021456,-9844.739029,-1225.752797,1406.391290
1324.021767,-10510.924376,0.000000,888.247130
1324.022079,-11029.068536,1378.971896,-0.000000
1324.022390,-9770.718434,2911.162892,222.061783
1324.022702,-8512.368333,1838.629195,740.205942
1324.023014,-8364.327145,-766.095498,1924.535449
1324.023325,-8438.347739,-1762.019645,2220.617826
1324.023637,-7920.203579,-2221.676944,2146.597232
1324.023948,-7402.059420,-1225.752797,814.226536
1324.024260,-7402.059420,-1149.143247,148.041188
1324.024572,-7846.182985,-612.876398,-148.041188
1324.024883,-8438.347739,-766.095498,-296.082377
1324.025195,-9178.553681,-1225.752797,-0.000000
1324.025506,-9622.677246,-306.438199,888.247130
1324.025818,-9918.759623,689.485948,1258.350101
1324.026130,-10140.821405,229.828649,1184.329507
1324.026441,-9918.759623,76.609550,814.226536
1324.026753,-9696.697840,1532.190996,-0.000000
1324.027064,-9548.656652,2681.334243,-296.082377
1324.027376,-8734.430116,2528.115143,740.205942
1324.027687,-8290.306550,306.438199,1332.370696
1324.027999,-7920.203579,-1149.143247,1850.514855
1324.028311,-7698.141797,-2068.457845,1184.329507
1324.028622,-7179.997637,-2145.067394,444.123565
1324.028934,-7476.080014,-1608.800546,-740.205942
1324.029245,-7698.141797,-383.047749,-1184.329507
1324.029557,-8290.306550,-995.924147,-740.205942
1324.029869,-8956.491898,-1838.629195,222.061783
1324.030180,-9400.615463,-1762.019645,1110.308913
1324.030492,-10584.944971,-1608.800546,1702.473667
1324.030803,-10510.924376,-306.438199,1406.391290
1324.031115,-11029.068536,76.609550,962.267725
1324.031427,-10658.965565,842.705048,370.102971
1324.031738,-9104.533087,1532.190996,-148.041188
1324.032050,-8734.430116,1532.190996,444.123565
1324.032361,-8142.265362,76.609550,1184.329507
1324.032673,-7698.141797,-919.314598,1480.411884
1324.032985,-7772.162391,-1685.410096,814.226536
1324.033296,-7772.162391,-1149.143247,148.041188
1324.033608,-7031.956449,536.266849,-518.144159
1324.033919,-7550.100608,1378.971896,-1850.514855
1324.034231,-8882.471304,1378.971896,-1998.556043
1324.034543,-9030.512492,76.609550,-592.164754
1324.034854,-9474.636058,-766.095498,666.185348
1324.035166,-9992.780217,-842.705048,1554.432478
1324.035477,-10658.965565,-842.705048,1036.288319
1324.035789,-11547.212695,-612.876398,592.164754
1324.036101,-11103.089130,1378.971896,-222.061783
1324.036412,-9548.656652,1838.629195,370.102971
1324.036724,-8882.471304,1302.362347,518.144159
1324.037035,-8364.327145,383.047749,2294.638420
1324.037347,-7624.121203,-1072.533697,2146.597232
1324.037658,-7476.080014,-1532.190996,1628.453072
1324.037970,-6661.853478,-842.705048,962.267725
1324.038282,-7254.018232,306.438199,-518.144159
1324.038593,-7402.059420,919.314598,-962.267725
1324.038905,-7698.141797,1072.533697,-518.144159
1324.039216,-9252.574275,76.609550,-0.000000
1324.039528,-9770.718434,229.828649,962.267725
1324.039840,-10140.821405,1149.143247,1702.473667
1324.040151,-10658.965565,842.705048,1332.370696
1324.040463,-10658.965565,1378.971896,1036.288319
1324.040774,-9770.718434,2757.943793,222.061783
1324.041086,-8808.450710,3447.429741,-0.000000
1324.041398,-7994.224174,2987.772442,740.205942
1324.041709,-7698.141797,919.314598,1776.494261
1324.042021,-7994.224174,-842.705048,1628.453072
1324.042332,-7698.141797,-1608.800546,1406.391290
1324.042644,-7550.100608,-1149.143247,962.267725
1324.042956,-7920.203579,-383.047749,296.082377
1324.043267,-8216.285956,-766.095498,-74.020594
1324.043579,-8438.347739,-766.095498,-148.041188
1324.043890,-9104.533087,-1072.533697,296.082377
1324.044202,-9326.594869,-153.219100,1554.432478
1324.044514,-9844.739029,-229.828649,1184.329507
1324.044825,-10510.924376,-76.609550,962.267725
1324.045137,-10436.903782,766.095498,-0.000000
1324.045448,-8956.491898,2374.896044,148.041188
1324.045760,-8586.388927,2681.334243,-0.000000
1324.046072,-8882.471304,1149.143247,296.082377
1324.046383,-7476.080014,-1072.533697,1776.494261
1324.046695,-6735.874072,-1685.410096,1850.514855
1324.047006,-6957.935855,-2528.115143,1332.370696
1324.047318,-7105.977043,-2528.115143,296.082377
1324.047629,-7402.059420,-1455.581446,-888.247130
1324.047941,-7624.121203,-1685.410096,-740.205942
1324.048253,-8438.347739,-1455.581446,-444.123565
1324.048564,-9622.677246,-1608.800546,-370.102971
1324.048876,-11251.130318,-995.924147,222.061783
1324.049187,-11695.253884,-1072.533697,1258.350101
1324.049499,-11621.233289,-842.705048,1554.432478
1324.049811,-12065.356855,383.047749,740.205942
1324.050122,-11473.192101,1302.362347,-74.020594
1324.050434,-10140.821405,2068.457845,-0.000000
1324.050745,-9326.594869,1072.533697,888.247130
1324.051057,-7550.100608,229.828649,666.185348
1324.051369,-7179.997637,-1302.362347,518.144159
1324.051680,-6957.935855,-1915.238745,-74.020594
1324.051992,-7105.977043,-1455.581446,-814.226536
1324.052303,-7994.224174,766.095498,-962.267725
1324.052615,-8438.347739,0.000000,-1184.329507
1324.052927,-9326.594869,-1149.143247,-74.020594
1324.053238,-10066.800811,-1072.533697,888.247130
1324.053550,-10214.842000,-612.876398,1702.473667
1324.053861,-9474.636058,-842.705048,1998.556043
1324.054173,-9548.656652,-919.314598,1406.391290
1324.054485,-10066.800811,0.000000,370.102971
1324.054796,-9252.574275,1991.848295,-74.020594
1324.055108,-8882.471304,2757.943793,296.082377
1324.055419,-8512.368333,1532.190996,962.267725
1324.055731,-7994.224174,-229.828649,1702.473667
1324.056042,-7624.121203,-995.924147,1554.432478
1324.056354,-6957.935855,-1915.238745,1036.288319
1324.056666,-6661.853478,-1762.019645,148.041188
1324.056977,-6587.832884,-459.657299,-518.144159
1324.057289,-6143.709319,536.266849,-814.226536
1324.057600,-7476.080014,306.438199,-814.226536
1324.057912,-8290.306550,0.000000,148.041188
1324.058224,-9992.780217,0.000000,814.226536
1324.058535,-10510.924376,76.609550,1480.411884
1324.058847,-10881.027347,536.266849,1036.288319
1324.059158,-11547.212695,995.924147,518.144159
1324.059470,-11399.171507,1915.238745,-0.000000
1324.059782,-9918.759623,2374.896044,-222.061783
1324.060093,-9178.553681,1838.629195,148.041188
1324.060405,-8364.327145,536.266849,814.226536
1324.060716,-7550.100608,-536.266849,888.247130
1324.061028,-7698.141797,-919.314598,888.247130
1324.061340,-7846.182985,-995.924147,296.082377
1324.061651,-7476.080014,-612.876398,148.041188
1324.061963,-7772.162391,-383.047749,296.082377
1324.062274,-8808.450710,-1225.752797,296.082377
1324.062586,-9178.553681,-306.438199,666.185348
1324.062898,-9770.718434,-1149.143247,444.123565
1324.063209,-9918.759623,0.000000,592.164754
1324.063521,-10658.965565,689.485948,-0.000000
1324.063832,-11695.253884,1685.410096,-592.164754
1324.064144,-10807.006753,3370.820191,-444.123565
1324.064456,-10066.800811,3447.429741,-0.000000
1324.064767,-8956.491898,2298.286494,1702.473667
1324.065079,-7698.141797,-306.438199,1776.494261
1324.065390,-6291.750507,-1225.752797,1554.432478
1324.065702,-6291.750507,-2298.286494,962.267725
1324.066013,-6513.812290,-1915.238745,-222.061783
1324.066325,-6661.853478,-689.485948,-1332.370696
1324.066637,-7476.080014,-459.657299,-962.267725
1324.066948,-9104.533087,-1685.410096,-666.185348
1324.067260,-10140.821405,-1991.848295,814.226536
1324.067571,-10807.006753,-995.924147,1554.432478
1324.067883,-10807.006753,-612.876398,1850.514855
1324.068195,-11399.171507,0.000000,1258.350101
1324.068506,-11029.068536,1532.190996,518.144159
1324.068818,-10214.842000,3294.210641,-0.000000
1324.069129,-8364.327145,3294.210641,-0.000000
1324.069441,-7328.038826,1915.238745,592.164754
1324.069753,-7402.059420,229.828649,962.267725
1324.070064,-7031.956449,-2298.286494,1036.288319
1324.070376,-6883.915261,-2374.896044,518.144159
1324.070687,-7550.100608,-2145.067394,-296.082377
1324.070999,-8068.244768,-1302.362347,-592.164754
1324.071311,-8734.430116,-2298.286494,-666.185348
1324.071622,-9622.677246,-1685.410096,370.102971
1324.071934,-9918.759623,-2451.505594,1776.494261
1324.072245,-10510.924376,0.000000,1554.432478
1324.072557,-10732.986159,-995.924147,1850.514855
1324.072869,-10362.883188,-229.828649,1332.370696
1324.073180,-9474.636058,919.314598,444.123565
1324.073492,-9252.574275,2528.115143,222.061783
1324.073803,-9252.574275,2374.896044,-222.061783
1324.074115,-8808.450710,1838.629195,666.185348
1324.074426,-8512.368333,-306.438199,888.247130
1324.074738,-7772.162391,-1838.629195,1406.391290
1324.075050,-7402.059420,-2451.505594,666.185348
1324.075361,-7920.203579,-2374.896044,-148.041188
1324.075673,-7476.080014,-995.924147,-148.041188
1324.075984,-7550.100608,-612.876398,-592.164754
1324.076296,-8512.368333,-612.876398,-0.000000
1324.076608,-8956.491898,0.000000,740.205942
1324.076919,-9770.718434,-306.438199,1628.453072
1324.077231,-9918.759623,-612.876398,1850.514855
1324.077542,-10362.883188,76.609550,888.247130
1324.077854,-11029.068536,1455.581446,370.102971
1324.078166,-10510.924376,2451.505594,-74.020594
1324.078477,-9326.594869,2451.505594,370.102971
1324.078789,-8586.388927,995.924147,888.247130
1324.079100,-7994.224174,-536.266849,1554.432478
1324.079412,-7328.038826,-1685.410096,740.205942
1324.079724,-7179.997637,-995.924147,-0.000000
1324.080035,-7328.038826,-383.047749,-814.226536
1324.080347,-7476.080014,-306.438199,-814.226536
1324.080658,-7698.141797,-1225.752797,-518.144159
1324.080970,-8290.306550,-1149.143247,-0.000000
1324.081282,-8808.450710,-995.924147,1184.329507
1324.081593,-9844.739029,-1072.533697,888.247130
1324.081905,-10658.965565,-1762.019645,1406.391290
1324.082216,-11103.089130,-919.314598,888.247130
1324.082528,-10732.986159,1455.581446,-0.000000
1324.082840,-10362.883188,2757.943793,-0.000000
1324.083151,-10066.800811,2834.553343,-0.000000
1324.083463,-8216.285956,1608.800546,814.226536
1324.083774,-6439.791695,0.000000,962.267725
1324.084086,-6809.894666,-689.485948,740.205942
1324.084397,-6883.915261,-689.485948,-0.000000
1324.084709,-7994.224174,-842.705048,-1110.308913
1324.085021,-7698.141797,0.000000,-1258.350101
1324.085332,-7994.224174,-459.657299,-1258.350101
1324.085644,-9474.636058,-1608.800546,-518.144159
1324.085955,-10658.965565,-2068.457845,444.123565
1324.086267,-10362.883188,-383.047749,1628.453072
1324.086579,-10214.842000,-536.266849,1628.453072
1324.086890,-11029.068536,229.828649,740.205942
1324.087202,-10658.965565,2068.457845,222.061783
1324.087513,-9696.697840,2987.772442,-148.041188
1324.087825,-7994.224174,3217.601092,444.123565
1324.088137,-7328.038826,1685.410096,962.267725
1324.088448,-7476.080014,-383.047749,1036.288319
1324.088760,-8068.244768,-2068.457845,888.247130
1324.089071,-7698.141797,-1915.238745,962.267725
1324.089383,-8364.327145,-1455.581446,-0.000000
1324.089695,-9696.697840,-1072.533697,-74.020594
1324.090006,-9992.780217,-1072.533697,518.144159
1324.090318,-10584.944971,-1532.190996,888.247130
1324.090629,-10140.821405,0.000000,1554.432478
1324.090941,-9622.677246,1838.629195,1554.432478
1324.091253,-8956.491898,1455.581446,1184.329507
1324.091564,-9030.512492,1378.971896,666.185348
1324.091876,-8734.430116,2298.286494,370.102971
1324.092187,-7994.224174,4213.525239,-0.000000
1324.092499,-8364.327145,3830.477490,370.102971
1324.092811,-7846.182985,1378.971896,1554.432478
1324.093122,-7105.977043,-995.924147,1776.494261
1324.093434,-6439.791695,-2374.896044,1480.411884
1324.093745,-6957.935855,-2834.553343,592.164754
1324.094057,-7698.141797,-2374.896044,-296.082377
1324.094368,-8068.244768,-766.095498,-888.247130
1324.094680,-8660.409521,-1072.533697,-74.020594
1324.094992,-9548.656652,-1991.848295,814.226536
1324.095303,-9844.739029,-2068.457845,1924.535449
1324.095615,-10436.903782,-1378.971896,1998.556043
1324.095926,-10881.027347,-612.876398,1332.370696
1324.096238,-10584.944971,919.314598,1110.308913
1324.096550,-9474.636058,2145.067394,222.061783
1324.096861,-9104.533087,1608.800546,296.082377
1324.097173,-8734.430116,842.705048,814.226536
1324.097484,-8216.285956,0.000000,1110.308913
1324.097796,-7402.059420,-536.266849,1406.391290
1324.098108,-7402.059420,-1378.971896,666.185348
1324.098419,-7031.956449,-1608.800546,-296.082377
1324.098731,-7328.038826,-766.095498,-1628.453072
1324.099042,-7550.100608,-459.657299,-1036.288319
1324.099354,-8438.347739,76.609550,-666.185348
1324.099666,-10140.821405,-459.657299,-0.000000
1324.099977,-10807.006753,-383.047749,1036.288319
1324.100289,-10584.944971,-766.095498,1628.453072
1324.100600,-10658.965565,-1302.362347,1554.432478
1324.100912,-10658.965565,-383.047749,740.205942
1324.101224,-10288.862594,766.095498,-370.102971
1324.101535,-9992.780217,1838.629195,-74.020594
1324.101847,-9474.636058,1378.971896,222.061783
1324.102158,-7994.224174,0.000000,1406.391290
1324.102470,-7031.956449,-1532.190996,1480.411884
1324.102781,-6661.853478,-2834.553343,666.185348
1324.103093,-6883.915261,-2451.505594,-296.082377
1324.103404,-7105.977043,-1608.800546,-1480.411884
1324.103716,-7476.080014,-306.438199,-1258.350101
1324.104027,-8956.491898,-919.314598,-370.102971
1324.104339,-9474.636058,-1838.629195,1036.288319
1324.104650,-9770.718434,-1302.362347,1702.473667
1324.104962,-10362.883188,-842.705048,1554.432478
1324.105273,-10214.842000,0.000000,1850.514855
1324.105585,-10658.965565,919.314598,222.061783
1324.105896,-10510.924376,3447.429741,-1110.308913
1324.106208,-8438.347739,4519.963438,-666.185348
1324.106519,-8364.327145,2834.553343,-592.164754
1324.106831,-8364.327145,1302.362347,666.185348
1324.107142,-7772.162391,0.000000,740.205942
1324.107454,-8142.265362,-1302.362347,740.205942
1324.107765,-8364.327145,-1072.533697,1110.308913
1324.108077,-9178.553681,-383.047749,592.164754
1324.108388,-8956.491898,-612.876398,518.144159
1324.108700,-8290.306550,-306.438199,740.205942
1324.109011,-9178.553681,-383.047749,814.226536
1324.109323,-8586.388927,306.438199,740.205942
1324.109634,-9474.636058,995.924147,888.247130
1324.109945,-9400.615463,1685.410096,370.102971
1324.110257,-9548.656652,2834.553343,-592.164754
1324.110568,-10436.903782,4290.134789,-148.041188
1324.110880,-9696.697840,3907.087040,-666.185348
1324.111191,-8808.450710,2451.505594,592.164754
1324.111503,-7031.956449,536.266849,2590.720797
1324.111814,-6957.935855,-1915.238745,2664.741391
1324.112126,-6661.853478,-3370.820191,2146.597232
1324.112437,-7105.977043,-3524.039291,1110.308913
1324.112749,-7105.977043,-2145.067394,148.041188
1324.113060,-7105.977043,-919.314598,-0.000000
1324.113372,-8512.368333,-1532.190996,-0.000000
1324.113683,-9104.533087,-1685.410096,962.267725
1324.113995,-9474.636058,-1532.190996,1110.308913
1324.114306,-10140.821405,-612.876398,1776.494261
1324.114618,-10584.944971,842.705048,1258.350101
1324.114929,-11621.233289,1685.410096,-0.000000
1324.115241,-10362.883188,2911.162892,-74.020594
1324.115552,-9252.574275,3677.258390,-0.000000
1324.115864,-8586.388927,2604.724693,740.205942
1324.116175,-8142.265362,229.828649,1406.391290
1324.116487,-8512.368333,-1838.629195,1554.432478
1324.116798,-7402.059420,-2374.896044,1406.391290
1324.117110,-7105.977043,-1915.238745,222.061783
1324.117421,-7624.121203,-1455.581446,-370.102971
1324.117733,-8216.285956,-1302.362347,-592.164754
1324.118044,-9326.594869,-1915.238745,-370.102971
1324.118356,-10214.842000,-1608.800546,1036.288319
1324.118667,-10288.862594,0.000000,962.267725
1324.118978,-10881.027347,-383.047749,962.267725
1324.119290,-11029.068536,-995.924147,1850.514855
1324.119601,-10955.047942,-536.266849,814.226536
1324.119913,-10214.842000,995.924147,296.082377
1324.120224,-9030.512492,2145.067394,740.205942
1324.120536,-8956.491898,1762.019645,444.123565
1324.120847,-7550.100608,689.485948,962.267725
1324.121159,-7179.997637,-1302.362347,592.164754
1324.121470,-6439.791695,-2604.724693,-0.000000
1324.121782,-6883.915261,-2068.457845,-370.102971
1324.122093,-7476.080014,-536.266849,-814.226536
1324.122405,-7772.162391,76.609550,-740.205942
1324.122716,-8512.368333,-842.705048,-74.020594
1324.123028,-9104.533087,-995.924147,1258.350101
1324.123339,-9548.656652,-229.828649,1702.473667
1324.123651,-9992.780217,-153.219100,1110.308913
1324.123962,-10066.800811,1072.533697,814.226536
1324.124274,-9992.780217,2298.286494,-0.000000
1324.124585,-9474.636058,2911.162892,-888.247130
1324.124897,-9030.512492,2374.896044,-222.061783
1324.125208,-9400.615463,689.485948,-0.000000
1324.125520,-8660.409521,-1608.800546,1184.329507
1324.125831,-8438.347739,-766.095498,1332.370696
1324.126143,-8660.409521,-1532.190996,1332.370696
1324.126454,-8142.265362,-2145.067394,296.082377
1324.126766,-8364.327145,-1762.019645,-518.144159
1324.127077,-8068.244768,-1225.752797,296.082377
1324.127389,-7772.162391,-919.314598,296.082377
1324.127700,-8882.471304,-612.876398,666.185348
1324.128011,-8808.450710,-306.438199,1406.391290
1324.128323,-9844.739029,-842.705048,962.267725
1324.128634,-9992.780217,0.000000,296.082377
1324.128946,-9918.759623,1915.238745,-0.000000
1324.129257,-10140.821405,2451.505594,-444.123565
1324.129569,-9844.739029,1991.848295,-74.020594
1324.129880,-9622.677246,1378.971896,592.164754
1324.130192,-8660.409521,-536.266849,1110.308913
1324.130503,-8142.265362,-1608.800546,1554.432478
1324.130815,-7105.977043,-2145.067394,1332.370696
1324.131126,-7105.977043,-1762.019645,296.082377
1324.131438,-7624.121203,-1455.581446,-0.000000
1324.131749,-7624.121203,-842.705048,148.041188
1324.132061,-8734.430116,-306.438199,-0.000000
1324.132372,-8660.409521,-306.438199,814.226536
1324.132684,-9178.553681,76.609550,518.144159
1324.132995,-9696.697840,459.657299,296.082377
1324.133307,-10066.800811,612.876398,74.020594
1324.133618,-10658.965565,2068.457845,-444.123565
1324.133930,-10584.944971,3524.039291,-444.123565
1324.134241,-10658.965565,3294.210641,370.102971
1324.134553,-10066.800811,2145.067394,1036.288319
1324.134864,-8142.265362,919.314598,1258.350101
1324.135176,-7402.059420,-229.828649,1332.370696
1324.135487,-6291.750507,-1532.190996,518.144159
1324.135799,-6365.771101,-1455.581446,-518.144159
1324.136110,-6291.750507,0.000000,-666.185348
1324.136422,-7476.080014,-536.266849,-148.041188
1324.136733,-9474.636058,-1302.362347,-74.020594
1324.137044,-10436.903782,-995.924147,814.226536
1324.137356,-10362.883188,-1072.533697,1258.350101
1324.137667,-10214.842000,-1072.533697,1406.391290
1324.137979,-10807.006753,306.438199,888.247130
1324.138290,-11177.109724,1225.752797,148.041188
1324.138602,-9992.780217,2298.286494,814.226536
1324.138913,-9030.512492,2298.286494,1110.308913
1324.139225,-7846.182985,919.314598,1554.432478
1324.139536,-7328.038826,0.000000,1850.514855
1324.139848,-5773.606348,-1608.800546,2072.576638
1324.140159,-6365.771101,-2221.676944,1184.329507
1324.140471,-7550.100608,-995.924147,222.061783
1324.140782,-7994.224174,0.000000,-814.226536
1324.141094,-8808.450710,229.828649,-1110.308913
1324.141405,-9252.574275,-153.219100,-74.020594
1324.141717,-9400.615463,-995.924147,666.185348
1324.142028,-9030.512492,-842.705048,1628.453072
1324.142340,-9770.718434,-536.266849,1702.473667
1324.142651,-11177.109724,-536.266849,962.267725
1324.142963,-10584.944971,1532.190996,370.102971
1324.143274,-10510.924376,2528.115143,370.102971
1324.143586,-9474.636058,1225.752797,888.247130
1324.143897,-8512.368333,-995.924147,962.267725
1324.144209,-7772.162391,-1915.238745,1332.370696
1324.144520,-7624.121203,-2451.505594,962.267725
1324.144832,-8068.244768,-3370.820191,444.123565
1324.145143,-8808.450710,-2757.943793,-148.041188
1324.145455,-8512.368333,-1302.362347,-148.041188
1324.145766,-8882.471304,-1608.800546,-74.020594
1324.146077,-10140.821405,-1225.752797,592.164754
1324.146389,-10362.883188,0.000000,1184.329507
1324.146700,-9474.636058,842.705048,1406.391290
1324.147012,-9474.636058,536.266849,1628.453072
1324.147323,-9326.594869,0.000000,666.185348
1324.147635,-9474.636058,2145.067394,-296.082377
1324.147946,-8956.491898,2451.505594,-1184.329507
1324.148258,-7920.203579,2987.772442,-296.082377
1324.148569,-7994.224174,1149.143247,148.041188
1324.148881,-7698.141797,-612.876398,888.247130
1324.149192,-8216.285956,-2451.505594,1554.432478
1324.149504,-7846.182985,-2604.724693,518.144159
1324.149815,-7550.100608,-1532.190996,-74.020594
1324.150127,-7624.121203,-536.266849,-740.205942
1324.150438,-7624.121203,-536.266849,-888.247130
1324.150750,-8142.265362,-995.924147,-0.000000
1324.151061,-8290.306550,-1302.362347,740.205942
1324.151373,-9104.533087,-995.924147,1258.350101
1324.151684,-9918.759623,-919.314598,1036.288319
1324.151996,-11251.130318,153.219100,148.041188
1324.152307,-11473.192101,612.876398,-222.061783
1324.152619,-10955.047942,2145.067394,-666.185348
1324.152930,-10658.965565,1302.362347,592.164754
1324.153242,-9474.636058,0.000000,1184.329507
1324.153553,-8512.368333,-612.876398,1554.432478
1324.153865,-7772.162391,-1302.362347,1332.370696
1324.154176,-6513.812290,-1225.752797,740.205942
1324.154488,-6957.935855,0.000000,-518.144159
1324.154799,-7402.059420,689.485948,-1184.329507
1324.155110,-7698.141797,919.314598,-962.267725
1324.155422,-9474.636058,306.438199,-370.102971
1324.155733,-10066.800811,-383.047749,740.205942
1324.156045,-10881.027347,-306.438199,962.267725
1324.156356,-11473.192101,-383.047749,1184.329507
1324.156668,-11251.130318,1685.410096,814.226536
1324.156979,-11473.192101,2068.457845,148.041188
1324.157291,-10807.006753,2604.724693,148.041188
1324.157602,-9474.636058,2681.334243,444.123565
1324.157914,-7920.203579,1685.410096,1332.370696
1324.158225,-6587.832884,383.047749,2072.576638
1324.158537,-6587.832884,-1302.362347,1776.494261
1324.158848,-6439.791695,-1149.143247,740.205942
1324.159160,-6809.894666,-689.485948,-518.144159
1324.159471,-7254.018232,306.438199,-888.247130
1324.159783,-7920.203579,612.876398,-296.082377
1324.160094,-9178.553681,-459.657299,-0.000000
1324.160406,-9252.574275,-1608.800546,1184.329507
1324.160717,-9178.553681,-1685.410096,1924.535449
1324.161029,-9474.636058,-1149.143247,2072.576638
1324.161340,-9992.780217,612.876398,1554.432478
1324.161652,-10362.883188,2221.676944,518.144159
1324.161963,-9104.533087,2757.943793,296.082377
1324.162275,-8216.285956,2604.724693,666.185348
1324.162586,-7550.100608,459.657299,1554.432478
1324.162898,-7254.018232,-1225.752797,1628.453072
1324.163209,-7328.038826,-2451.505594,888.247130
1324.163521,-6809.894666,-2221.676944,814.226536
1324.163832,-7402.059420,-1915.238745,-0.000000
1324.164143,-8216.285956,-1685.410096,-444.123565
1324.164455,-9622.677246,-2451.505594,-0.000000
1324.164766,-10807.006753,-2068.457845,518.144159
1324.165078,-10510.924376,383.047749,1036.288319
1324.165389,-10732.986159,1378.971896,1258.350101
1324.165701,-10436.903782,919.314598,1036.288319
1324.166012,-10362.883188,1302.362347,740.205942
1324.166324,-9548.656652,1991.848295,-74.020594
1324.166635,-9252.574275,2374.896044,-370.102971
1324.166947,-8956.491898,1915.238745,-148.041188
1324.167258,-8586.388927,459.657299,518.144159
1324.167570,-8660.409521,-1915.238745,1480.411884
1324.167881,-8068.244768,-2987.772442,1184.329507
1324.168193,-8216.285956,-2834.553343,592.164754
1324.168504,-8956.491898,-1608.800546,-148.041188
1324.168816,-8142.265362,-1302.362347,-148.041188
1324.169127,-7994.224174,-689.485948,-0.000000
1324.169439,-8586.388927,-1455.581446,-0.000000
1324.169750,-8956.491898,-1378.971896,740.205942
1324.170062,-9474.636058,-1149.143247,592.164754
1324.170373,-10066.800811,229.828649,444.123565
1324.170685,-10658.965565,1378.971896,-148.041188
1324.170996,-9992.780217,2221.676944,-518.144159
1324.171308,-10362.883188,2451.505594,222.061783
1324.171619,-9918.759623,536.266849,1110.308913
1324.171931,-8438.347739,-612.876398,1184.329507
1324.172242,-7624.121203,-612.876398,1332.370696
1324.172554,-7105.977043,-995.924147,1036.288319
1324.172865,-6735.874072,-1455.581446,-148.041188
1324.173176,-6439.791695,-536.266849,-962.267725
1324.173488,-6809.894666,383.047749,-1184.329507
1324.173799,-7698.141797,459.657299,-1258.350101
1324.174111,-8956.491898,153.219100,296.082377
1324.174422,-10436.903782,0.000000,814.226536
1324.174734,-10362.883188,-383.047749,1258.350101
1324.175045,-10658.965565,-842.705048,1480.411884
1324.175357,-11399.171507,229.828649,1110.308913
1324.175668,-11399.171507,2068.457845,148.041188
1324.175980,-10807.006753,2528.115143,-222.061783
1324.176291,-9030.512492,1915.238745,-0.000000
1324.176603,-7402.059420,919.314598,888.247130
1324.176914,-6957.935855,-919.314598,740.205942
1324.177226,-6439.791695,-1838.629195,666.185348
1324.177537,-6217.729913,-1838.629195,148.041188
1324.177849,-7105.977043,-919.314598,-444.123565
1324.178160,-8438.347739,-459.657299,-518.144159
1324.178472,-9030.512492,-689.485948,-296.082377
1324.178783,-9918.759623,-1608.800546,444.123565
1324.179095,-9474.636058,-842.705048,1628.453072
1324.179406,-9992.780217,-995.924147,1406.391290
1324.179718,-10732.986159,-229.828649,962.267725
1324.180029,-11251.130318,1302.362347,444.123565
1324.180341,-10214.842000,2987.772442,444.123565
1324.180652,-9252.574275,3983.696590,296.082377
1324.180964,-8734.430116,2987.772442,740.205942
1324.181275,-7772.162391,1838.629195,1036.288319
1324.181587,-7179.997637,76.609550,444.123565
1324.181898,-6809.894666,-536.266849,814.226536
1324.182209,-7105.977043,-1072.533697,296.082377
1324.182521,-8068.244768,-1225.752797,-370.102971
1324.182832,-8734.430116,-766.095498,-0.000000
1324.183144,-9326.594869,-689.485948,444.123565
1324.183455,-9992.780217,-1149.143247,592.164754
1324.183767,-10510.924376,-689.485948,1110.308913
1324.184078,-9622.677246,0.000000,1332.370696
1324.184390,-9474.636058,153.219100,1184.329507
1324.184701,-9622.677246,1302.362347,592.164754
1324.185013,-10510.924376,3064.381992,-370.102971
1324.185324,-9918.759623,3983.696590,-444.123565
1324.185636,-8068.244768,3600.648841,-74.020594
1324.185947,-7179.997637,842.705048,962.267725
1324.186259,-8142.265362,-766.095498,740.205942
1324.186570,-7476.080014,-2528.115143,740.205942
1324.186882,-7179.997637,-2451.505594,592.164754
1324.187193,-7179.997637,-1762.019645,222.061783
1324.187505,-8660.409521,-2221.676944,-74.020594
1324.187816,-9030.512492,-2298.286494,148.041188
1324.188128,-8882.471304,-2528.115143,370.102971
1324.188439,-9030.512492,-1378.971896,1184.329507
1324.188751,-8808.450710,-689.485948,962.267725
1324.189062,-10140.821405,-536.266849,814.226536
1324.189374,-10510.924376,306.438199,814.226536
1324.189685,-9992.780217,1762.019645,740.205942
1324.189997,-9622.677246,2528.115143,666.185348
1324.190308,-9030.512492,2068.457845,1110.308913
1324.190620,-8438.347739,0.000000,1628.453072
1324.190931,-7550.100608,-2145.067394,1998.556043
1324.191242,-6883.915261,-1302.362347,1110.308913
1324.191554,-7624.121203,-1762.019645,-74.020594
1324.191865,-8586.388927,-1072.533697,-444.123565
1324.192177,-9400.615463,-459.657299,-888.247130
1324.192488,-9326.594869,383.047749,-888.247130
1324.192800,-9918.759623,383.047749,-444.123565
1324.193111,-9400.615463,76.609550,444.123565
1324.193423,-10140.821405,-306.438199,740.205942
1324.193734,-10214.842000,536.266849,1332.370696
1324.194046,-9400.615463,842.705048,1628.453072
1324.194357,-9918.759623,1149.143247,814.226536
1324.194669,-9400.615463,1302.362347,962.267725
1324.194980,-7920.203579,1762.019645,740.205942
1324.195292,-7031.956449,-229.828649,444.123565
1324.195603,-7328.038826,-2451.505594,370.102971
1324.195915,-8438.347739,-1915.238745,222.061783
1324.196226,-9104.533087,-2068.457845,-148.041188
1324.196538,-9030.512492,-1225.752797,-518.144159
1324.196849,-8660.409521,-1225.752797,-148.041188
1324.197161,-8808.450710,-2068.457845,222.061783
1324.197472,-8512.368333,-2451.505594,962.267725
1324.197784,-8142.265362,-1608.800546,1480.411884
1324.198095,-8882.471304,-1838.629195,1628.453072
1324.198407,-9548.656652,842.705048,1184.329507
1324.198718,-11029.068536,1532.190996,-0.000000
1324.199030,-10510.924376,3217.601092,-74.020594
1324.199341,-9548.656652,4290.134789,-222.061783
1324.199653,-8364.327145,3677.258390,-0.000000
1324.199964,-7402.059420,1302.362347,-222.061783
1324.200276,-7624.121203,1072.533697,-296.082377
1324.200587,-7328.038826,383.047749,-962.267725
1324.200898,-6883.915261,0.000000,-1406.391290
1324.201210,-8142.265362,-306.438199,-962.267725
1324.201521,-9474.636058,-842.705048,-444.123565
1324.201833,-9918.759623,-1532.190996,148.041188
1324.202144,-10214.842000,-1762.019645,1406.391290
1324.202456,-10510.924376,-919.314598,2220.617826
1324.202767,-11029.068536,-1225.752797,1628.453072
1324.203079,-10807.006753,-842.705048,1036.288319
1324.203390,-10510.924376,1225.752797,-0.000000
1324.203702,-9918.759623,3140.991542,-370.102971
1324.204013,-9696.697840,3753.867940,-74.020594
1324.204324,-8734.430116,2374.896044,444.123565
1324.204636,-7476.080014,0.000000,1406.391290
1324.204947,-6809.894666,-1302.362347,1406.391290
1324.205259,-5847.626942,-1378.971896,1628.453072
1324.205570,-6661.853478,-2221.676944,-148.041188
1324.205881,-7550.100608,-1685.410096,148.041188
1324.206193,-8142.265362,-995.924147,-296.082377
1324.206504,-8586.388927,-306.438199,-222.061783
1324.206816,-9696.697840,-383.047749,1110.308913
1324.207127,-10658.965565,-536.266849,1184.329507
1324.207438,-10807.006753,0.000000,1924.535449
1324.207750,-10214.842000,383.047749,1036.288319
1324.208061,-10584.944971,2374.896044,370.102971
1324.208373,-10362.883188,3907.087040,444.123565
1324.208684,-9474.636058,2987.772442,666.185348
1324.208995,-7698.141797,1378.971896,1184.329507
1324.209307,-6069.688724,0.000000,1776.494261
1324.209618,-6365.771101,-1302.362347,1480.411884
1324.209930,-6735.874072,-2374.896044,1110.308913
1324.210241,-7476.080014,-2834.553343,222.061783
1324.210553,-7772.162391,-2068.457845,-74.020594
1324.210864,-8808.450710,-1302.362347,-148.041188
1324.211175,-10362.883188,-1149.143247,-0.000000
1324.211487,-11325.150913,-1608.800546,666.185348
1324.211798,-10807.006753,-459.657299,1184.329507
1324.212110,-9992.780217,306.438199,1332.370696
1324.212421,-9622.677246,1378.971896,1036.288319
1324.212732,-9844.739029,2145.067394,444.123565
1324.213044,-8882.471304,2451.505594,518.144159
1324.213355,-7402.059420,1838.629195,-0.000000
1324.213667,-6809.894666,1149.143247,888.247130
1324.213978,-7772.162391,-306.438199,888.247130
1324.214289,-8956.491898,-2145.067394,740.205942
1324.214601,-8734.430116,-2451.505594,148.041188
1324.214912,-8956.491898,-2298.286494,-222.061783
1324.215224,-9400.615463,-1378.971896,-444.123565
1324.215535,-9622.677246,-1225.752797,-518.144159
1324.215846,-9696.697840,-1608.800546,-74.020594
1324.216158,-8734.430116,-1378.971896,1184.329507
1324.216469,-8142.265362,-766.095498,1406.391290
1324.216781,-9474.636058,0.000000,962.267725
1324.217092,-10288.862594,1378.971896,592.164754
1324.217404,-10362.883188,2451.505594,-296.082377
1324.217715,-9844.739029,2987.772442,-74.020594
1324.218026,-9474.636058,3524.039291,-0.000000
1324.218338,-8734.430116,1302.362347,740.205942
1324.218649,-8216.285956,-1149.143247,1406.391290
1324.218961,-7105.977043,-2145.067394,1184.329507
1324.219272,-7254.018232,-1838.629195,-148.041188
1324.219583,-7031.956449,-1225.752797,-592.164754
1324.219895,-7624.121203,-842.705048,-1332.370696
1324.220206,-8290.306550,-2145.067394,-1110.308913
1324.220518,-8882.471304,-2145.067394,222.061783
1324.220829,-9918.759623,-1915.238745,1332.370696
1324.221140,-11103.089130,-1915.238745,2146.597232
1324.221452,-11399.171507,-1532.190996,2072.576638
1324.221763,-10214.842000,0.000000,1406.391290
1324.222075,-10362.883188,1302.362347,-74.020594
1324.222386,-9400.615463,2757.943793,-518.144159
1324.222698,-8512.368333,2834.553343,-222.061783
1324.223009,-7772.162391,1838.629195,-0.000000
1324.223320,-7624.121203,229.828649,740.205942
1324.223632,-7698.141797,-1302.362347,888.247130
1324.223943,-8142.265362,-1225.752797,666.185348
1324.224255,-8216.285956,-1149.143247,-0.000000
1324.224566,-8438.347739,459.657299,-592.164754
1324.224877,-9178.553681,-383.047749,-962.267725
1324.225189,-9252.574275,-153.219100,-0.000000
1324.225500,-9548.656652,-306.438199,888.247130
1324.225812,-9622.677246,-306.438199,1258.350101
1324.226123,-10288.862594,-229.828649,1332.370696
1324.226434,-11029.068536,1072.533697,740.205942
1324.226746,-10807.006753,2911.162892,370.102971
1324.227057,-10066.800811,2834.553343,296.082377
1324.227369,-8956.491898,2987.772442,1036.288319
1324.227680,-7772.162391,1225.752797,1110.308913
1324.227991,-7402.059420,-612.876398,888.247130
1324.228303,-6143.709319,-1762.019645,1184.329507
1324.228614,-5329.482782,-1685.410096,666.185348
1324.228926,-7105.977043,-1378.971896,-0.000000
1324.229237,-7550.100608,-1149.143247,370.102971
1324.229549,-9178.553681,-536.266849,370.102971
1324.229860,-10436.903782,-153.219100,1184.329507
1324.230171,-10214.842000,-459.657299,1554.432478
1324.230483,-9992.780217,-536.266849,1776.494261
1324.230794,-9474.636058,0.000000,888.247130
1324.231106,-9104.533087,1685.410096,-0.000000
1324.231417,-8956.491898,3140.991542,-444.123565
1324.231728,-8956.491898,3753.867940,-962.267725
1324.232040,-8216.285956,3524.039291,-0.000000
1324.232351,-7846.182985,995.924147,666.185348
1324.232663,-7920.203579,-1072.533697,2294.638420
1324.232974,-8068.244768,-2451.505594,1776.494261
1324.233285,-8216.285956,-2451.505594,740.205942
1324.233597,-8290.306550,-2145.067394,-0.000000
1324.233908,-7994.224174,-1838.629195,-222.061783
1324.234220,-9548.656652,-1225.752797,-888.247130
1324.234531,-9844.739029,-1455.581446,-0.000000
1324.234842,-9696.697840,-1149.143247,1184.329507
1324.235154,-10140.821405,-1072.533697,1036.288319
1324.235465,-10881.027347,76.609550,592.164754
1324.235777,-11029.068536,1225.752797,-0.000000
1324.236088,-10584.944971,2068.457845,-370.102971
1324.236400,-9104.533087,2528.115143,-0.000000
1324.236711,-9104.533087,1608.800546,-0.000000
1324.237022,-9252.574275,-612.876398,592.164754
1324.237334,-7698.141797,-1915.238745,1924.535449
1324.237645,-7105.977043,-2757.943793,2072.576638
1324.237957,-6735.874072,-3600.648841,1554.432478
1324.238268,-7105.977043,-2911.162892,296.082377
1324.238579,-8142.265362,-2221.676944,-370.102971
1324.238891,-8956.491898,-1149.143247,-296.082377
1324.239202,-9474.636058,-229.828649,666.185348
1324.239514,-10140.821405,76.609550,962.267725
1324.239825,-11029.068536,229.828649,1628.453072
1324.240136,-10807.006753,306.438199,962.267725
1324.240448,-10066.800811,1685.410096,370.102971
1324.240759,-9474.636058,3600.648841,-0.000000
1324.241071,-8438.347739,3370.820191,-222.061783
1324.241382,-7031.956449,2451.505594,1036.288319
1324.241694,-6735.874072,-306.438199,1480.411884
1324.242005,-6587.832884,-1149.143247,1924.535449
1324.242316,-7328.038826,-2068.457845,1258.350101
1324.242628,-7920.203579,-2221.676944,592.164754
1324.242939,-8660.409521,-1225.752797,-74.020594
1324.243251,-7624.121203,-536.266849,-222.061783
1324.243562,-8512.368333,-1072.533697,-518.144159
1324.243873,-8956.491898,-1378.971896,296.082377
1324.244185,-9030.512492,-995.924147,1258.350101
1324.244496,-9474.636058,-536.266849,814.226536
1324.244808,-9918.759623,229.828649,1258.350101
1324.245119,-11177.109724,612.876398,518.144159
1324.245430,-11547.212695,1915.238745,222.061783
1324.245742,-10362.883188,3064.381992,-0.000000
1324.246053,-8808.450710,2374.896044,296.082377
1324.246365,-8586.388927,229.828649,666.185348
1324.246676,-8142.265362,-1302.362347,1258.350101
1324.246987,-6661.853478,-2145.067394,814.226536
1324.247299,-6513.812290,-1455.581446,-518.144159
1324.247610,-7920.203579,-459.657299,-1184.329507
1324.247922,-8956.491898,229.828649,-888.247130
1324.248233,-9474.636058,229.828649,-740.205942
1324.248545,-9770.718434,536.266849,-0.000000
1324.248856,-9844.739029,306.438199,1110.308913
1324.249167,-10140.821405,459.657299,740.205942
1324.249479,-10510.924376,1072.533697,666.185348
1324.249790,-9918.759623,2068.457845,-518.144159
1324.250102,-9622.677246,3217.601092,-1110.308913
1324.250413,-9252.574275,3830.477490,-592.164754
1324.250724,-9474.636058,2528.115143,-0.000000
1324.251036,-9474.636058,0.000000,1258.350101
1324.251347,-8142.265362,-766.095498,1776.494261
1324.251659,-7476.080014,-1455.581446,1406.391290
1324.251970,-7105.977043,-1685.410096,592.164754
1324.252281,-7328.038826,-1991.848295,-74.020594
1324.252593,-7698.141797,-2298.286494,-296.082377
1324.252904,-7846.182985,-1532.190996,-444.123565
1324.253216,-8364.327145,-919.314598,666.185348
1324.253527,-10140.821405,-995.924147,962.267725
1324.253838,-11177.109724,-612.876398,1776.494261
1324.254150,-10955.047942,-842.705048,1184.329507
1324.254461,-10510.924376,1685.410096,592.164754
1324.254773,-9252.574275,3370.820191,444.123565
1324.255084,-9252.574275,2757.943793,-0.000000
1324.255396,-8216.285956,1838.629195,888.247130
1324.255707,-6513.812290,-229.828649,1628.453072
1324.256018,-6439.791695,-1302.362347,1554.432478
1324.256330,-5995.668130,-1685.410096,1258.350101
1324.256641,-7031.956449,-1302.362347,222.061783
1324.256953,-8216.285956,-1532.190996,-444.123565
1324.257264,-8956.491898,-1378.971896,-74.020594
1324.257575,-10436.903782,-689.485948,592.164754
1324.257887,-11251.130318,-383.047749,1110.308913
1324.258198,-11473.192101,-995.924147,1332.370696
1324.258510,-10140.821405,0.000000,1628.453072
1324.258821,-9770.718434,1072.533697,222.061783
1324.259132,-8882.471304,2068.457845,-0.000000
1324.259444,-8586.388927,3140.991542,-518.144159
1324.259755,-8364.327145,2681.334243,296.082377
1324.260067,-8216.285956,1608.800546,1406.391290
1324.260378,-7846.182985,-536.266849,2368.659014
1324.260689,-8068.244768,-2451.505594,1924.535449
1324.261001,-8438.347739,-3447.429741,1554.432478
1324.261312,-8216.285956,-2911.162892,518.144159
1324.261624,-7994.224174,-2145.067394,-444.123565
1324.261935,-8808.450710,-1302.362347,-518.144159
1324.262247,-9548.656652,-1685.410096,-0.000000
1324.262558,-9696.697840,-1915.238745,1184.329507
1324.262869,-9252.574275,-1225.752797,1998.556043
1324.263181,-9104.533087,-1225.752797,1776.494261
1324.263492,-9992.780217,383.047749,962.267725
1324.263804,-9622.677246,2757.943793,-0.000000
1324.264115,-9104.533087,3064.381992,-444.123565
1324.264426,-8216.285956,2374.896044,-148.041188
1324.264738,-8586.388927,689.485948,666.185348
1324.265049,-8734.430116,-766.095498,1332.370696
1324.265361,-8142.265362,-2221.676944,1924.535449
1324.265672,-7402.059420,-2681.334243,1480.411884
1324.265983,-8068.244768,-1838.629195,-148.041188
1324.266295,-8142.265362,-995.924147,-1184.329507
1324.266606,-8068.244768,383.047749,-1628.453072
1324.266918,-8438.347739,842.705048,-1184.329507
1324.267229,-8734.430116,459.657299,-444.123565
1324.267541,-9030.512492,0.000000,444.123565
1324.267852,-9178.553681,-536.266849,888.247130
1324.268163,-9770.718434,-229.828649,888.247130
1324.268475,-10510.924376,1149.143247,-0.000000
1324.268786,-10436.903782,2298.286494,-0.000000
1324.269098,-10214.842000,2145.067394,222.061783
1324.269409,-9696.697840,689.485948,518.144159
1324.269720,-9474.636058,-612.876398,888.247130
1324.270032,-8660.409521,-1378.971896,962.267725
1324.270343,-7994.224174,-1991.848295,370.102971
1324.270655,-7179.997637,-1455.581446,-0.000000
1324.270966,-6735.874072,-919.314598,-666.185348
1324.271277,-7254.018232,-459.657299,-1036.288319
1324.271589,-8364.327145,-995.924147,-296.082377
1324.271900,-9474.636058,-612.876398,518.144159
1324.272212,-9844.739029,0.000000,1036.288319
1324.272523,-10140.821405,229.828649,888.247130
1324.272834,-11029.068536,1378.971896,592.164754
1324.273146,-10955.047942,1991.848295,222.061783
1324.273457,-10214.842000,3064.381992,-0.000000
1324.273769,-9696.697840,3217.601092,740.205942
1324.274080,-8956.491898,1991.848295,1258.350101
1324.274392,-7994.224174,459.657299,1258.350101
1324.274703,-7254.018232,-459.657299,1184.329507
1324.275014,-6365.771101,-153.219100,-444.123565
1324.275326,-6291.750507,-766.095498,-962.267725
1324.275637,-6587.832884,153.219100,-296.082377
1324.275949,-7624.121203,-459.657299,-0.000000
1324.276260,-9474.636058,-1378.971896,888.247130
1324.276571,-10955.047942,-1225.752797,1702.473667
1324.276883,-11029.068536,-306.438199,2294.638420
1324.277194,-10066.800811,229.828649,1702.473667
1324.277506,-9400.615463,459.657299,962.267725
1324.277817,-9104.533087,1149.143247,-370.102971
1324.278128,-8364.327145,2451.505594,-222.061783
1324.278440,-8438.347739,2757.943793,-222.061783
1324.278751,-7698.141797,1838.629195,1332.370696
1324.279063,-7772.162391,-383.047749,1850.514855
1324.279374,-7920.203579,-2834.553343,2146.597232
1324.279685,-7402.059420,-3524.039291,1258.350101
1324.279997,-7476.080014,-2451.505594,-74.020594
1324.280308,-6957.935855,-689.485948,74.020594
1324.280620,-7994.224174,-1149.143247,-0.000000
1324.280931,-9548.656652,-2681.334243,592.164754
1324.281243,-9918.759623,-1762.019645,1628.453072
1324.281554,-10066.800811,-1072.533697,1628.453072
1324.281865,-10584.944971,-229.828649,1554.432478
1324.282177,-10510.924376,766.095498,370.102971
1324.282488,-10288.862594,2221.676944,-0.000000
1324.282800,-9474.636058,2681.334243,-0.000000
1324.283111,-9696.697840,1685.410096,-0.000000
1324.283422,-8956.491898,0.000000,1184.329507
1324.283734,-8586.388927,-1225.752797,1628.453072
1324.284045,-7920.203579,-2145.067394,1628.453072
1324.284357,-7031.956449,-2145.067394,888.247130
1324.284668,-7402.059420,-1532.190996,-148.041188
1324.284979,-7846.182985,-766.095498,-592.164754
1324.285291,-7698.141797,-306.438199,-1036.288319
1324.285602,-9474.636058,-306.438199,-1036.288319
1324.285914,-9918.759623,-536.266849,518.144159
1324.286225,-10140.821405,-306.438199,666.185348
1324.286537,-10288.862594,-1072.533697,814.226536
1324.286848,-9844.739029,-536.266849,518.144159
1324.287159,-9178.553681,995.924147,-0.000000
1324.287471,-9696.697840,1762.019645,-296.082377
1324.287782,-9178.553681,1378.971896,814.226536
1324.288094,-8068.244768,0.000000,2738.761985
1324.288405,-7772.162391,-1838.629195,2368.659014
1324.288716,-7920.203579,-2834.553343,2072.576638
1324.289028,-7476.080014,-1608.800546,740.205942
1324.289339,-7698.141797,-842.705048,-666.185348
1324.289651,-6587.832884,383.047749,-1036.288319
1324.289962,-6883.915261,-153.219100,-1258.350101
1324.290273,-8734.430116,0.000000,-962.267725
1324.290585,-9770.718434,-995.924147,814.226536
1324.290896,-10955.047942,76.609550,1110.308913
1324.291208,-11325.150913,842.705048,1554.432478
1324.291519,-11991.336260,1072.533697,1332.370696
1324.291830,-10881.027347,1838.629195,888.247130
1324.292142,-9770.718434,2757.943793,370.102971
1324.292453,-7994.224174,2987.772442,592.164754
1324.292765,-7402.059420,1225.752797,962.267725
1324.293076,-7254.018232,0.000000,1110.308913
1324.293388,-7105.977043,-536.266849,296.082377
1324.293699,-7031.956449,-383.047749,-148.041188
1324.294010,-7772.162391,-229.828649,-740.205942
1324.294322,-8882.471304,153.219100,-444.123565
1324.294633,-9548.656652,-689.485948,-444.123565
1324.294945,-9992.780217,-306.438199,666.185348
1324.295256,-10214.842000,-766.095498,1480.411884
1324.295567,-9770.718434,-689.485948,1554.432478
1324.295879,-9696.697840,-689.485948,1184.329507
1324.296190,-9770.718434,306.438199,444.123565
1324.296502,-9696.697840,2298.286494,148.041188
1324.296813,-9178.553681,2834.553343,-370.102971
1324.297124,-8956.491898,3294.210641,296.082377
1324.297436,-8068.244768,995.924147,888.247130
1324.297747,-7031.956449,-612.876398,740.205942
1324.298059,-5995.668130,-612.876398,1184.329507
1324.298370,-6587.832884,-1455.581446,-0.000000
1324.298681,-7254.018232,-1072.533697,-518.144159
1324.298993,-7624.121203,-995.924147,-370.102971
1324.299304,-8290.306550,-306.438199,-0.000000
1324.299616,-9696.697840,-1762.019645,444.123565
1324.299927,-9770.718434,-995.924147,1332.370696
1324.300239,-10140.821405,-919.314598,1480.411884
1324.300550,-10362.883188,-612.876398,1332.370696
1324.300861,-10658.965565,153.219100,518.144159
1324.301173,-10732.986159,1838.629195,-0.000000
1324.301484,-10955.047942,2834.553343,-222.061783
1324.301796,-9252.574275,1838.629195,592.164754
1324.302107,-8364.327145,0.000000,1406.391290
1324.302418,-7920.203579,-1608.800546,1406.391290
1324.302730,-7031.956449,-2374.896044,1480.411884
1324.303041,-6809.894666,-2528.115143,296.082377
1324.303353,-7105.977043,-1685.410096,-74.020594
1324.303664,-8068.244768,-1149.143247,-370.102971
1324.303975,-8956.491898,-1838.629195,-74.020594
1324.304287,-9918.759623,-1149.143247,518.144159
1324.304598,-9770.718434,-383.047749,1110.308913
1324.304910,-10436.903782,0.000000,888.247130
1324.305221,-10658.965565,-229.828649,962.267725
1324.305533,-10881.027347,383.047749,370.102971
1324.305844,-10214.842000,2451.505594,296.082377
1324.306156,-9474.636058,2757.943793,444.123565
1324.306467,-8586.388927,2068.457845,814.226536
1324.306779,-8808.450710,0.000000,1480.411884
1324.307090,-7105.977043,-1149.143247,1554.432478
1324.307402,-6069.688724,-2221.676944,1702.473667
1324.307713,-6735.874072,-2451.505594,296.082377
1324.308025,-7846.182985,-1149.143247,-740.205942
1324.308336,-7624.121203,0.000000,-814.226536
1324.308648,-8882.471304,-689.485948,-666.185348
1324.308959,-9400.615463,-689.485948,666.185348
1324.309270,-9770.718434,-919.314598,1110.308913
1324.309582,-10288.862594,0.000000,1480.411884
1324.309893,-10140.821405,-306.438199,1554.432478
1324.310205,-10362.883188,459.657299,888.247130
1324.310516,-9844.739029,2068.457845,444.123565
1324.310828,-9104.533087,2604.724693,518.144159
1324.311139,-7550.100608,1532.190996,592.164754
1324.311451,-7031.956449,-153.219100,814.226536
1324.311762,-6809.894666,-1455.581446,1110.308913
1324.312074,-6143.709319,-2451.505594,666.185348
1324.312385,-7179.997637,-1991.848295,-0.000000
1324.312697,-8068.244768,-1072.533697,-592.164754
1324.313008,-8956.491898,-229.828649,-814.226536
1324.313320,-9844.739029,-919.314598,-222.061783
1324.313631,-9622.677246,-1302.362347,370.102971
1324.313943,-10140.821405,-306.438199,666.185348
1324.314254,-10214.842000,0.000000,888.247130
1324.314566,-10584.944971,842.705048,962.267725
1324.314877,-11177.109724,1302.362347,518.144159
1324.315189,-10510.924376,2681.334243,370.102971
1324.315500,-9622.677246,3294.210641,-0.000000
1324.315812,-8808.450710,2451.505594,222.061783
1324.316123,-7698.141797,995.924147,444.123565
1324.316435,-6957.935855,-306.438199,-0.000000
1324.316746,-6809.894666,-842.705048,-296.082377
1324.317058,-7698.141797,-1455.581446,-1258.350101
1324.317369,-8586.388927,-306.438199,-592.164754
1324.317681,-9178.553681,-153.219100,-0.000000
1324.317992,-9844.739029,-995.924147,444.123565
1324.318304,-10140.821405,-1378.971896,1332.370696
1324.318615,-10066.800811,-459.657299,1480.411884
1324.318927,-10140.821405,-689.485948,1850.514855
1324.319238,-9992.780217,0.000000,814.226536
1324.319550,-10658.965565,1838.629195,-148.041188
1324.319861,-10140.821405,3140.991542,-74.020594
1324.320173,-9548.656652,3064.381992,-0.000000
1324.320484,-8660.409521,1685.410096,888.247130
1324.320796,-7846.182985,459.657299,1184.329507
1324.321107,-6439.791695,-689.485948,1480.411884
1324.321419,-6365.771101,-2068.457845,666.185348
1324.321730,-6661.853478,-1072.533697,-0.000000
1324.322042,-6957.935855,-153.219100,-148.041188
1324.322353,-8068.244768,-612.876398,-0.000000
1324.322665,-9104.533087,-1378.971896,1110.308913
1324.322976,-9918.759623,-1225.752797,1702.473667
1324.323288,-9770.718434,-383.047749,1554.432478
1324.323599,-8956.491898,76.609550,1110.308913
1324.323911,-8882.471304,-459.657299,518.144159
1324.324222,-9844.739029,995.924147,-0.000000
1324.324534,-9844.739029,3140.991542,-370.102971
1324.324845,-9548.656652,3753.867940,-0.000000
1324.325157,-9474.636058,2068.457845,1258.350101
1324.325468,-8660.409521,229.828649,2146.597232
1324.325780,-7846.182985,-1685.410096,1628.453072
1324.326091,-6587.832884,-2528.115143,1480.411884
1324.326403,-6513.812290,-2834.553343,592.164754
1324.326714,-7179.997637,-1991.848295,-888.247130
1324.327026,-7698.141797,-995.924147,-666.185348
1324.327337,-9030.512492,-1762.019645,-444.123565
1324.327649,-9844.739029,-2068.457845,666.185348
1324.327960,-10510.924376,-919.314598,962.267725
1324.328272,-10881.027347,306.438199,1036.288319
1324.328583,-11177.109724,-689.485948,592.164754
1324.328895,-11843.295072,0.000000,-148.041188
1324.329206,-10955.047942,2451.505594,-0.000000
1324.329518,-9918.759623,2528.115143,444.123565
1324.329829,-9178.553681,1378.971896,962.267725
1324.330140,-8660.409521,-612.876398,1702.473667
1324.330452,-7402.059420,-1608.800546,1628.453072
1324.330763,-6587.832884,-2528.115143,814.226536
1324.331075,-7105.977043,-1991.848295,-74.020594
1324.331386,-7994.224174,-995.924147,-592.164754
1324.331698,-8438.347739,-1378.971896,-1036.288319
1324.332009,-9104.533087,-1608.800546,-222.061783
1324.332321,-10140.821405,-1378.971896,296.082377
1324.332632,-10362.883188,-383.047749,814.226536
1324.332944,-10214.842000,536.266849,1110.308913
1324.333255,-10955.047942,1838.629195,518.144159
1324.333567,-10510.924376,2068.457845,296.082377
1324.333878,-9104.533087,3217.601092,-0.000000
1324.334190,-8586.388927,2757.943793,-148.041188
1324.334501,-7105.977043,1838.629195,444.123565
1324.334813,-6291.750507,-153.219100,592.164754
1324.335124,-5625.565159,-2374.896044,592.164754
1324.335436,-6291.750507,-3907.087040,-148.041188
1324.335747,-7624.121203,-3370.820191,-370.102971
1324.336059,-7920.203579,-2604.724693,-296.082377
1324.336370,-8734.430116,-1302.362347,-592.164754
1324.336682,-10140.821405,-2604.724693,-0.000000
1324.336993,-10807.006753,-2068.457845,1258.350101
1324.337305,-10436.903782,-919.314598,2072.576638
1324.337616,-9992.780217,-459.657299,1924.535449
1324.337928,-10658.965565,76.609550,1110.308913
1324.338239,-10066.800811,1532.190996,444.123565
1324.338551,-10288.862594,2604.724693,-518.144159
1324.338862,-8660.409521,2528.115143,-74.020594
1324.339174,-8290.306550,2068.457845,592.164754
1324.339485,-7994.224174,536.266849,1406.391290
1324.339797,-7624.121203,-995.924147,888.247130
1324.340108,-8586.388927,-2221.676944,444.123565
1324.340420,-8216.285956,229.828649,-0.000000
1324.340731,-9326.594869,1991.848295,-962.267725
1324.341043,-9030.512492,1532.190996,-148.041188
1324.341354,-9178.553681,76.609550,518.144159
1324.341666,-9474.636058,-229.828649,888.247130
1324.341977,-8512.368333,919.314598,1184.329507
1324.342289,-8808.450710,1072.533697,1184.329507
1324.342600,-9400.615463,842.705048,518.144159
1324.342912,-9770.718434,2068.457845,296.082377
1324.343223,-9622.677246,2681.334243,-0.000000
1324.343535,-9844.739029,2681.334243,444.123565
1324.343846,-9030.512492,1838.629195,1480.411884
1324.344158,-7846.182985,0.000000,2072.576638
1324.344469,-6587.832884,-1838.629195,1850.514855
1324.344781,-5995.668130,-2451.505594,666.185348
1324.345092,-6587.832884,-2221.676944,-0.000000
1324.345404,-7105.977043,-919.314598,-148.041188
1324.345715,-7550.100608,-1532.190996,-148.041188
1324.346027,-8882.471304,-1991.848295,-0.000000
1324.346338,-9622.677246,-1455.581446,1036.288319
1324.346650,-9918.759623,-612.876398,1258.350101
1324.346961,-10140.821405,-306.438199,1480.411884
1324.347273,-9844.739029,0.000000,666.185348
1324.347584,-10732.986159,2145.067394,-518.144159
1324.347896,-9474.636058,2987.772442,-296.082377
1324.348207,-9104.533087,3753.867940,-148.041188
1324.348519,-8290.306550,1608.800546,814.226536
1324.348830,-7846.182985,0.000000,1110.308913
1324.349142,-7402.059420,-1762.019645,1258.350101
1324.349453,-7105.977043,-2221.676944,370.102971
1324.349765,-8438.347739,-1838.629195,-370.102971
1324.350076,-8808.450710,-1455.581446,-666.185348
1324.350388,-9548.656652,-1762.019645,-666.185348
1324.350699,-10362.883188,-1838.629195,-0.000000
1324.351010,-10732.986159,-1455.581446,740.205942
1324.351322,-10807.006753,-612.876398,592.164754
1324.351633,-10436.903782,0.000000,740.205942
1324.351945,-10288.862594,536.266849,370.102971
1324.352256,-9622.677246,1685.410096,-148.041188
1324.352568,-9474.636058,2221.676944,296.082377
1324.352879,-8142.265362,1532.190996,666.185348
1324.353191,-7254.018232,-229.828649,1776.494261
1324.353502,-6217.729913,-3370.820191,1850.514855
1324.353814,-5921.647536,-4519.963438,1258.350101
1324.354125,-6661.853478,-5209.449386,592.164754
1324.354437,-7994.224174,-4826.401637,-0.000000
1324.354748,-9030.512492,-4290.134789,-296.082377
1324.355060,-9770.718434,-3447.429741,-74.020594
1324.355371,-10955.047942,-3447.429741,592.164754
1324.355683,-10658.965565,-2604.724693,1850.514855
1324.355994,-9326.594869,-2298.286494,1776.494261
1324.356306,-8364.327145,-1685.410096,1702.473667
1324.356617,-7920.203579,-1532.190996,1036.288319
1324.356929,-8512.368333,306.438199,222.061783
1324.357240,-8512.368333,306.438199,-0.000000
1324.357552,-9104.533087,-459.657299,74.020594
1324.357863,-9474.636058,-153.219100,444.123565
1324.358175,-8882.471304,-1378.971896,518.144159
1324.358486,-9030.512492,-2528.115143,888.247130
1324.358798,-8068.244768,-3064.381992,740.205942
1324.359109,-7624.121203,-3830.477490,-74.020594
1324.359421,-7920.203579,-3524.039291,-370.102971
1324.359732,-8586.388927,-3983.696590,-518.144159
1324.360044,-9030.512492,-2528.115143,-370.102971
1324.360355,-9474.636058,-2911.162892,740.205942
1324.360667,-10140.821405,-3524.039291,1184.329507
1324.360978,-10066.800811,-3907.087040,1258.350101
1324.361290,-9252.574275,-3600.648841,962.267725
1324.361601,-8068.244768,-3370.820191,296.082377
1324.361913,-8216.285956,-4136.915689,-0.000000
1324.362224,-8142.265362,-4903.011187,-148.041188
1324.362536,-9252.574275,-3447.429741,-74.020594
1324.362847,-9992.780217,-2604.724693,370.102971
1324.363159,-10732.986159,-1378.971896,666.185348
1324.363470,-10584.944971,-1072.533697,1258.350101
1324.363782,-9474.636058,-1608.800546,962.267725
1324.364093,-7254.018232,-2068.457845,518.144159
1324.364405,-5699.585753,-2911.162892,444.123565
1324.364716,-5329.482782,-3294.210641,-148.041188
1324.365028,-6291.750507,-3600.648841,-296.082377
1324.365339,-7698.141797,-3753.867940,222.061783
1324.365651,-9696.697840,-2757.943793,222.061783
1324.365962,-11177.109724,-1991.848295,148.041188
1324.366274,-11621.233289,-1455.581446,148.041188
1324.366585,-11547.212695,-1762.019645,222.061783
1324.366897,-9918.759623,-2145.067394,296.082377
1324.367208,-9252.574275,-3140.991542,148.041188
1324.367520,-7328.038826,-1532.190996,-0.000000
1324.367831,-6439.791695,-1915.238745,-74.020594
1324.368143,-6143.709319,-2757.943793,370.102971
1324.368454,-6735.874072,-3600.648841,1036.288319
1324.368766,-7772.162391,-4366.744339,1480.411884
1324.369077,-9178.553681,-5898.935335,1628.453072
1324.369389,-10140.821405,-5975.544884,1702.473667
1324.369700,-11769.274478,-4519.963438,1480.411884
1324.370012,-12139.377449,-3600.648841,222.061783
1324.370323,-11843.295072,-1608.800546,-0.000000
1324.370635,-10658.965565,306.438199,-296.082377
1324.370946,-8586.388927,1072.533697,148.041188
1324.371258,-7105.977043,229.828649,370.102971
1324.371569,-5921.647536,-1378.971896,814.226536
1324.371880,-4589.276840,-2298.286494,1332.370696
1324.372192,-5255.462188,-3830.477490,1258.350101
1324.372503,-5699.585753,-4596.572988,1036.288319
1324.372815,-8142.265362,-4903.011187,370.102971
1324.373126,-10066.800811,-5286.058936,518.144159
1324.373438,-11399.171507,-4903.011187,444.123565
1324.373749,-11843.295072,-4519.963438,1110.308913
1324.374061,-11843.295072,-4060.306139,962.267725
1324.374372,-11695.253884,-3983.696590,1554.432478
1324.374684,-10362.883188,-3217.601092,1924.535449
1324.374995,-8290.306550,-1532.190996,1184.329507
1324.375307,-6513.812290,-306.438199,888.247130
1324.375618,-5625.565159,-306.438199,-0.000000
1324.375930,-5773.606348,-1378.971896,-148.041188
1324.376241,-5773.606348,-1762.019645,-222.061783
1324.376553,-6883.915261,-2221.676944,-148.041188
1324.376864,-8808.450710,-3217.601092,-666.185348
1324.377176,-10362.883188,-3753.867940,-0.000000
1324.377487,-11029.068536,-4213.525239,296.082377
1324.377799,-11473.192101,-4060.306139,666.185348
1324.378110,-9474.636058,-3447.429741,1554.432478
1324.378422,-10658.965565,-3983.696590,592.164754
1324.378733,-9104.533087,-2911.162892,1628.453072
1324.379045,-6439.791695,-1685.410096,370.102971
1324.379356,-6217.729913,-2451.505594,1110.308913
1324.379668,-8216.285956,-3370.820191,518.144159
1324.379979,-10066.800811,-3370.820191,888.247130
1324.380291,-9844.739029,-2068.457845,814.226536
1324.380602,-9252.574275,-1225.752797,1258.350101
1324.380914,-9622.677246,-2757.943793,1480.411884
1324.381225,-9474.636058,-4290.134789,1332.370696
1324.381537,-9696.697840,-3983.696590,1258.350101
1324.381848,-8660.409521,-2528.115143,1554.432478
1324.382160,-10140.821405,0.000000,2146.597232
1324.382471,-12287.418637,-383.047749,1628.453072
1324.382783,-11029.068536,153.219100,2368.659014
1324.383094,-9844.739029,-612.876398,1554.432478
1324.383406,-7105.977043,-229.828649,2294.638420
1324.383717,-6809.894666,-229.828649,1184.329507
1324.384029,-7105.977043,-1608.800546,1480.411884
1324.384340,-7105.977043,-3524.039291,2590.720797
1324.384652,-8068.244768,-3370.820191,2812.782580
1324.384963,-8808.450710,-1149.143247,4737.318029
1324.385275,-12583.501014,-1762.019645,4219.173869
1324.385586,-11843.295072,-1608.800546,5699.585753
1324.385898,-9030.512492,-459.657299,3701.029710
1324.386209,-7772.162391,919.314598,3923.091493
1324.386521,-7105.977043,689.485948,2738.761985
1324.386832,-6587.832884,0.000000,2516.700203
1324.387144,-7476.080014,-919.314598,3034.844362
1324.387455,-4885.359217,76.609550,4441.235652
1324.387767,-8808.450710,-612.876398,2812.782580
1324.388078,-10288.862594,0.000000,5625.565159
1324.388390,-10214.842000,-383.047749,5699.585753
1324.388701,-8586.388927,-1378.971896,5329.482782
1324.389013,-8290.306550,-766.095498,5551.544565
1324.389324,-9030.512492,0.000000,4589.276840
1324.389636,-7402.059420,1149.143247,4219.173869
1324.389947,-7105.977043,766.095498,3404.947333
1324.390259,-6365.771101,919.314598,3997.112087
1324.390570,-7698.141797,1685.410096,3849.070898
