#time,accel_x,accel_y,accel_z
1391.669991,-8808.450710,0.000000,592.164754
1391.670303,-8882.471304,0.000000,592.164754
1391.670614,-9030.512492,-306.438199,592.164754
1391.670926,-8586.388927,0.000000,592.164754
1391.671237,-8586.388927,-459.657299,296.082377
1391.671549,-8956.491898,0.000000,222.061783
1391.671860,-8956.491898,0.000000,296.082377
1391.672171,-8956.491898,0.000000,518.144159
1391.672483,-9030.512492,-153.219100,518.144159
1391.672794,-8956.491898,0.000000,666.185348
1391.673106,-9326.594869,0.000000,444.123565
1391.673417,-8734.430116,0.000000,370.102971
1391.673729,-9178.553681,-459.657299,518.144159
1391.674040,-8586.388927,0.000000,518.144159
1391.674351,-8734.430116,0.000000,370.102971
1391.674663,-8734.430116,0.000000,740.205942
1391.674974,-8956.491898,-306.438199,518.144159
1391.675286,-8882.471304,-229.828649,592.164754
1391.675597,-8734.430116,-153.219100,592.164754
1391.675909,-8734.430116,153.219100,592.164754
1391.676220,-8956.491898,0.000000,370.102971
1391.676532,-9030.512492,-229.828649,370.102971
1391.676843,-9030.512492,0.000000,370.102971
1391.677154,-8882.471304,-153.219100,518.144159
1391.677466,-8882.471304,-153.219100,592.164754
1391.677777,-8956.491898,0.000000,592.164754
1391.678089,-8956.491898,612.876398,148.041188
1391.678400,-8956.491898,0.000000,222.061783
1391.678712,-8438.347739,-383.047749,370.102971
1391.679023,-8512.368333,0.000000,444.123565
1391.679335,-8882.471304,0.000000,444.123565
1391.679646,-8808.450710,0.000000,444.123565
1391.679957,-8956.491898,0.000000,592.164754
1391.680269,-8808.450710,0.000000,518.144159
1391.680580,-8956.491898,0.000000,666.185348
1391.680892,-8660.409521,0.000000,296.082377
1391.681203,-8734.430116,0.000000,148.041188
1391.681515,-9178.553681,-153.219100,296.082377
1391.681826,-8808.450710,0.000000,444.123565
1391.682137,-8956.491898,-459.657299,518.144159
1391.682449,-9030.512492,-153.219100,740.205942
1391.682760,-8956.491898,229.828649,592.164754
1391.683072,-8956.491898,0.000000,518.144159
1391.683383,-8882.471304,76.609550,592.164754
1391.683695,-8956.491898,-153.219100,518.144159
1391.684006,-8808.450710,0.000000,592.164754
1391.684318,-8882.471304,0.000000,518.144159
1391.684629,-8882.471304,-153.219100,592.164754
1391.684940,-9030.512492,0.000000,518.144159
1391.685252,-8512.368333,0.000000,814.226536
1391.685563,-9178.553681,0.000000,444.123565
1391.685875,-8808.450710,459.657299,888.247130
1391.686186,-8734.430116,-306.438199,518.144159
1391.686498,-9104.533087,-229.828649,518.144159
1391.686809,-8808.450710,0.000000,518.144159
1391.687121,-8882.471304,-383.047749,518.144159
1391.687432,-9030.512492,-153.219100,666.185348
1391.687743,-9178.553681,-229.828649,296.082377
1391.688055,-8956.491898,306.438199,296.082377
1391.688366,-8882.471304,-306.438199,370.102971
1391.688678,-8882.471304,0.000000,666.185348
1391.688989,-9030.512492,0.000000,370.102971
1391.689301,-8882.471304,0.000000,518.144159
1391.689612,-9030.512492,-306.438199,666.185348
1391.689923,-9030.512492,-229.828649,518.144159
1391.690235,-8660.409521,459.657299,666.185348
1391.690546,-8586.388927,0.000000,740.205942
1391.690858,-8734.430116,-153.219100,444.123565
1391.691169,-8808.450710,-153.219100,148.041188
1391.691481,-8808.450710,-153.219100,592.164754
1391.691792,-9030.512492,0.000000,666.185348
1391.692104,-9030.512492,0.000000,666.185348
1391.692415,-9030.512492,76.609550,888.247130
1391.692726,-8734.430116,153.219100,444.123565
1391.693038,-9104.533087,0.000000,296.082377
1391.693349,-8882.471304,0.000000,148.041188
1391.693661,-9030.512492,0.000000,370.102971
1391.693972,-9104.533087,0.000000,592.164754
1391.694284,-9030.512492,0.000000,666.185348
1391.694595,-9030.512492,-153.219100,666.185348
1391.694907,-8956.491898,0.000000,370.102971
1391.695218,-8808.450710,306.438199,518.144159
1391.695529,-8956.491898,0.000000,296.082377
1391.695841,-8586.388927,76.609550,444.123565
1391.696152,-8882.471304,-153.219100,296.082377
1391.696464,-8882.471304,-383.047749,592.164754
1391.696775,-9030.512492,0.000000,592.164754
1391.697087,-9030.512492,-229.828649,518.144159
1391.697398,-8808.450710,0.000000,370.102971
1391.697710,-8734.430116,306.438199,592.164754
1391.698021,-8882.471304,459.657299,370.102971
1391.698332,-8956.491898,229.828649,518.144159
1391.698644,-8956.491898,0.000000,518.144159
1391.698955,-9030.512492,0.000000,592.164754
1391.699267,-9030.512492,0.000000,444.123565
1391.699578,-9030.512492,0.000000,370.102971
1391.699890,-8660.409521,612.876398,370.102971
1391.700201,-8734.430116,153.219100,296.082377
1391.700512,-8734.430116,0.000000,444.123565
1391.700824,-8364.327145,-153.219100,296.082377
1391.701135,-8734.430116,0.000000,444.123565
1391.701447,-8734.430116,-153.219100,518.144159
1391.701758,-8956.491898,0.000000,666.185348
1391.702070,-9030.512492,0.000000,592.164754
1391.702381,-8586.388927,-306.438199,666.185348
1391.702693,-8734.430116,229.828649,148.041188
1391.703004,-8808.450710,153.219100,592.164754
1391.703315,-8956.491898,229.828649,296.082377
1391.703627,-8956.491898,0.000000,370.102971
1391.703938,-9030.512492,0.000000,518.144159
1391.704250,-8956.491898,0.000000,444.123565
1391.704561,-8882.471304,76.609550,518.144159
1391.704873,-8956.491898,306.438199,296.082377
1391.705184,-9030.512492,-919.314598,444.123565
1391.705496,-8734.430116,0.000000,148.041188
1391.705807,-9030.512492,-76.609550,592.164754
1391.706118,-8956.491898,0.000000,518.144159
1391.706430,-8882.471304,0.000000,370.102971
1391.706741,-8956.491898,-153.219100,592.164754
1391.707053,-9030.512492,0.000000,370.102971
1391.707364,-8882.471304,229.828649,518.144159
1391.707676,-8734.430116,153.219100,222.061783
1391.707987,-8586.388927,153.219100,370.102971
1391.708298,-8512.368333,76.609550,592.164754
1391.708610,-9104.533087,0.000000,518.144159
1391.708921,-9104.533087,0.000000,592.164754
1391.709233,-8956.491898,-153.219100,592.164754
1391.709544,-8290.306550,-536.266849,296.082377
1391.709856,-9030.512492,76.609550,-0.000000
1391.710167,-9030.512492,842.705048,296.082377
1391.710479,-11177.109724,306.438199,296.082377
1391.710790,-11103.089130,2911.162892,518.144159
1391.711101,-8660.409521,4749.792088,518.144159
1391.711413,-7624.121203,3294.210641,814.226536
1391.711724,-6661.853478,766.095498,1628.453072
1391.712036,-6735.874072,-1302.362347,-148.041188
1391.712347,-7550.100608,-1225.752797,296.082377
1391.712659,-7550.100608,-612.876398,-74.020594
1391.712970,-11399.171507,-995.924147,-1036.288319
1391.713282,-12287.418637,153.219100,-222.061783
1391.713593,-10066.800811,919.314598,444.123565
1391.713904,-8956.491898,0.000000,1702.473667
1391.714216,-9622.677246,-306.438199,2886.803174
1391.714527,-11843.295072,1149.143247,1258.350101
1391.714839,-7698.141797,5515.887586,2516.700203
1391.715150,-5329.482782,4903.011187,2072.576638
1391.715462,-7846.182985,2911.162892,962.267725
1391.715773,-7328.038826,2681.334243,-370.102971
1391.716084,-7402.059420,2987.772442,-2146.597232
1391.716396,-9104.533087,3370.820191,-1036.288319
1391.716707,-8734.430116,4596.572988,-666.185348
1391.717019,-13027.624579,1762.019645,-1628.453072
1391.717330,-13249.686362,-1302.362347,1554.432478
1391.717642,-8142.265362,-1225.752797,2220.617826
1391.717953,-10510.924376,995.924147,1110.308913
1391.718265,-7846.182985,5898.935335,2886.803174
1391.718576,-8882.471304,5439.278036,1036.288319
1391.718887,-8068.244768,2987.772442,2886.803174
1391.719199,-5551.544565,5439.278036,2294.638420
1391.719510,-7402.059420,7048.078582,222.061783
1391.719822,-7105.977043,6894.859482,-1332.370696
1391.720133,-9400.615463,5515.887586,-1480.411884
1391.720445,-9548.656652,5056.230287,-1184.329507
1391.720756,-10510.924376,5669.106685,-1184.329507
1391.721068,-12139.377449,5286.058936,518.144159
1391.721379,-11177.109724,4136.915689,1406.391290
1391.721690,-10807.006753,4290.134789,1628.453072
1391.722002,-8216.285956,5056.230287,2516.700203
1391.722313,-7031.956449,5132.839837,1184.329507
1391.722625,-5847.626942,5592.497135,740.205942
1391.722936,-4811.338623,4903.011187,370.102971
1391.723248,-4885.359217,5515.887586,-148.041188
1391.723559,-6069.688724,4366.744339,-962.267725
1391.723870,-8660.409521,4136.915689,-370.102971
1391.724182,-9770.718434,2757.943793,-222.061783
1391.724493,-10288.862594,2221.676944,148.041188
1391.724805,-10807.006753,1149.143247,1184.329507
1391.725116,-10955.047942,0.000000,1776.494261
1391.725428,-11029.068536,842.705048,1850.514855
1391.725739,-9474.636058,2374.896044,2146.597232
1391.726051,-7772.162391,4136.915689,1480.411884
1391.726362,-6439.791695,4136.915689,518.144159
1391.726673,-6291.750507,3753.867940,-370.102971
1391.726985,-6587.832884,3677.258390,-888.247130
1391.727296,-6143.709319,3907.087040,-1110.308913
1391.727608,-7402.059420,1455.581446,-1258.350101
1391.727919,-9622.677246,-1149.143247,-518.144159
1391.728231,-10807.006753,-2145.067394,222.061783
1391.728542,-12287.418637,-2451.505594,888.247130
1391.728854,-13027.624579,-1991.848295,1554.432478
1391.729165,-13767.830521,-1072.533697,1406.391290
1391.729476,-13249.686362,1072.533697,1554.432478
1391.729788,-11621.233289,3217.601092,148.041188
1391.730099,-8216.285956,4213.525239,-370.102971
1391.730411,-6069.688724,4290.134789,518.144159
1391.730722,-6365.771101,4519.963438,740.205942
1391.731034,-6365.771101,3983.696590,814.226536
1391.731345,-7476.080014,2528.115143,-0.000000
1391.731657,-10066.800811,1762.019645,-0.000000
1391.731968,-12435.459826,1225.752797,-444.123565
1391.732279,-13397.727550,0.000000,-962.267725
1391.732591,-13989.892304,306.438199,-444.123565
1391.732902,-13471.748144,1455.581446,148.041188
1391.733214,-11621.233289,2757.943793,1110.308913
1391.733525,-9400.615463,3753.867940,1850.514855
1391.733837,-6587.832884,4290.134789,2294.638420
1391.734148,-4515.256246,5132.839837,1702.473667
1391.734459,-2664.741391,5822.325785,518.144159
1391.734771,-1850.514855,6818.249932,-1480.411884
1391.735082,-3034.844362,4903.011187,-2220.617826
1391.735394,-6957.935855,2911.162892,-2072.576638
1391.735705,-10658.965565,2298.286494,-444.123565
1391.736017,-14063.912898,2604.724693,666.185348
1391.736328,-16062.468941,2298.286494,2738.761985
1391.736640,-14730.098246,2221.676944,3997.112087
1391.736951,-11843.295072,2834.553343,3478.967927
1391.737262,-7105.977043,4060.306139,2516.700203
1391.737574,-3478.967927,4749.792088,1036.288319
1391.737885,-1184.329507,5975.544884,-592.164754
1391.738197,-2220.617826,7048.078582,-2590.720797
1391.738508,-3034.844362,7277.907231,-1998.556043
1391.738820,-6957.935855,5132.839837,-2442.679609
1391.739131,-8660.409521,3064.381992,148.041188
1391.739443,-10658.965565,0.000000,296.082377
1391.739754,-11769.274478,-2681.334243,1480.411884
1391.740065,-11843.295072,-3753.867940,2072.576638
1391.740377,-12583.501014,-2834.553343,2072.576638
1391.740688,-12805.562797,-153.219100,1480.411884
1391.741000,-11843.295072,2451.505594,1480.411884
1391.741311,-11029.068536,5209.449386,2294.638420
1391.741623,-8216.285956,5669.106685,2146.597232
1391.741934,-6513.812290,5592.497135,1332.370696
1391.742245,-5847.626942,3830.477490,518.144159
1391.742557,-5847.626942,2987.772442,-370.102971
1391.742868,-7105.977043,3064.381992,-2442.679609
1391.743180,-9548.656652,3830.477490,-2812.782580
1391.743491,-11621.233289,4290.134789,-2590.720797
1391.743803,-12731.542202,3370.820191,-1110.308913
1391.744114,-12657.521608,2068.457845,1110.308913
1391.744426,-13101.645173,229.828649,2368.659014
1391.744737,-13175.665768,1685.410096,2886.803174
1391.745048,-11843.295072,3677.258390,2812.782580
1391.745360,-9622.677246,6511.811733,1628.453072
1391.745671,-7105.977043,6741.640382,296.082377
1391.745983,-5329.482782,5975.544884,-1036.288319
1391.746294,-5107.421000,4596.572988,-1776.494261
1391.746606,-6883.915261,3524.039291,-1332.370696
1391.746917,-7846.182985,2834.553343,-296.082377
1391.747229,-8808.450710,2298.286494,370.102971
1391.747540,-8956.491898,0.000000,1036.288319
1391.747851,-8734.430116,-2068.457845,2072.576638
1391.748163,-8068.244768,-2298.286494,1998.556043
1391.748474,-7328.038826,0.000000,962.267725
1391.748786,-8956.491898,4519.963438,-0.000000
1391.749097,-10214.842000,7354.516781,-148.041188
1391.749409,-10732.986159,9499.584175,222.061783
1391.749720,-10066.800811,7660.954980,1184.329507
1391.750031,-8660.409521,4903.011187,1258.350101
1391.750343,-7846.182985,2987.772442,1480.411884
1391.750654,-6439.791695,3370.820191,666.185348
1391.750966,-5107.421000,3217.601092,1258.350101
1391.751277,-4589.276840,1225.752797,740.205942
1391.751589,-4663.297435,-1072.533697,518.144159
1391.751900,-5995.668130,-2528.115143,-74.020594
1391.752212,-8586.388927,-306.438199,-1110.308913
1391.752523,-11029.068536,3600.648841,-1258.350101
1391.752835,-12361.439231,5362.668486,-740.205942
1391.753146,-13619.789333,4213.525239,1480.411884
1391.753458,-15322.262999,919.314598,3330.926739
1391.753770,-13989.892304,-1685.410096,3997.112087
1391.754081,-10436.903782,-153.219100,3552.988522
1391.754393,-6735.874072,689.485948,2146.597232
1391.754704,-3108.864956,-1685.410096,1036.288319
1391.755016,-1702.473667,-5439.278036,-222.061783
1391.755328,-2516.700203,-8044.002729,-0.000000
1391.755639,-5033.400406,-6052.154434,-1184.329507
1391.755951,-9400.615463,-459.657299,-888.247130
1391.756263,-12805.562797,3753.867940,-444.123565
1391.756574,-16728.654289,2298.286494,814.226536
1391.756886,-18431.127956,-229.828649,2664.741391
1391.757197,-17246.798449,689.485948,2294.638420
1391.757509,-13397.727550,4060.306139,1628.453072
1391.757821,-7698.141797,4749.792088,-0.000000
1391.758132,-4441.235652,995.924147,-814.226536
1391.758444,-1036.288319,-2604.724693,-814.226536
1391.758755,74.020594,-3600.648841,-518.144159
1391.759067,-1184.329507,-2298.286494,-0.000000
1391.759379,-5329.482782,-153.219100,-518.144159
1391.759690,-10066.800811,536.266849,-666.185348
1391.760002,-14211.954086,-766.095498,-888.247130
1391.760313,-17987.004391,-459.657299,-888.247130
1391.760625,-17098.757260,2757.943793,-0.000000
1391.760937,-15174.221811,4903.011187,-518.144159
1391.761248,-13249.686362,1915.238745,-148.041188
1391.761560,-8290.306550,-3217.601092,666.185348
1391.761872,-4959.379811,-5669.106685,962.267725
1391.762183,-814.226536,-2451.505594,1702.473667
1391.762495,0.000000,-229.828649,814.226536
1391.762806,-740.205942,-1915.238745,1702.473667
1391.763118,-6069.688724,-1991.848295,222.061783
1391.763430,-11917.315666,383.047749,-518.144159
1391.763741,-15988.448347,5439.278036,-1036.288319
1391.764053,-17616.901420,9652.803275,-962.267725
1391.764364,-14582.057057,8044.002729,-222.061783
1391.764676,-12065.356855,1455.581446,-518.144159
1391.764988,-8586.388927,-2528.115143,-592.164754
1391.765299,-5107.421000,459.657299,-592.164754
1391.765611,-3775.050304,3217.601092,-1702.473667
1391.765922,-1776.494261,1838.629195,-222.061783
1391.766234,-5551.544565,-1838.629195,1998.556043
1391.766546,-9844.739029,-4596.572988,3849.070898
1391.766857,-9622.677246,-2604.724693,2664.741391
1391.767169,-9844.739029,2221.676944,3701.029710
1391.767481,-9844.739029,3524.039291,1332.370696
1391.767792,-9844.739029,-612.876398,-0.000000
1391.768104,-9474.636058,-3294.210641,-888.247130
1391.768415,-8882.471304,-1302.362347,-2368.659014
1391.768727,-8068.244768,3447.429741,-666.185348
1391.769039,-8956.491898,3447.429741,-740.205942
1391.769350,-11917.315666,-689.485948,2072.576638
1391.769662,-11695.253884,-4749.792088,4367.215058
1391.769973,-11029.068536,-3140.991542,5477.523971
1391.770285,-9104.533087,689.485948,6217.729913
1391.770597,-5477.523971,2451.505594,3552.988522
1391.770908,-3182.885551,-612.876398,1036.288319
1391.771220,-814.226536,-3064.381992,-2220.617826
1391.771532,-2442.679609,-1149.143247,-3330.926739
1391.771843,-5921.647536,1532.190996,-3034.844362
1391.772155,-9030.512492,1455.581446,-1480.411884
1391.772466,-13989.892304,-2451.505594,296.082377
1391.772778,-17394.839637,-6741.640382,3478.967927
1391.773090,-17764.942608,-6741.640382,4589.276840
1391.773401,-13619.789333,-3447.429741,5033.400406
1391.773713,-8660.409521,-2068.457845,3923.091493
1391.774024,-6143.709319,-4060.306139,1480.411884
1391.774336,-3404.947333,-5515.887586,-1110.308913
1391.774648,-1776.494261,-1762.019645,-2738.761985
1391.774959,-1480.411884,3447.429741,-3627.009116
1391.775271,-3627.009116,4749.792088,-3108.864956
1391.775582,-10362.883188,1532.190996,-1998.556043
1391.775894,-16432.571912,-2221.676944,814.226536
1391.776206,-18801.230927,-1149.143247,2294.638420
1391.776517,-18061.024985,3370.820191,2886.803174
1391.776829,-15988.448347,4519.963438,1850.514855
1391.777141,-12139.377449,766.095498,74.020594
1391.777452,-6587.832884,-2221.676944,-2442.679609
1391.777764,-2738.761985,-306.438199,-4737.318029
1391.778075,0.000000,4443.353888,-3330.926739
1391.778387,-2294.638420,5592.497135,-3182.885551
1391.778699,-7254.018232,3064.381992,-1702.473667
1391.779010,-12213.398043,-766.095498,-74.020594
1391.779322,-16062.468941,-1838.629195,1332.370696
1391.779633,-16580.613101,1608.800546,1628.453072
1391.779945,-13249.686362,2604.724693,1332.370696
1391.780257,-10066.800811,-1225.752797,-0.000000
1391.780568,-8808.450710,-5975.544884,148.041188
1391.780880,-5921.647536,-6128.763984,296.082377
1391.781191,-4441.235652,-1072.533697,-296.082377
1391.781503,-4515.256246,2451.505594,740.205942
1391.781815,-6439.791695,3140.991542,1184.329507
1391.782126,-9474.636058,689.485948,2220.617826
1391.782438,-10214.842000,1225.752797,1554.432478
1391.782750,-10584.944971,4826.401637,-0.000000
1391.783061,-7698.141797,8273.831378,592.164754
1391.783373,-6661.853478,5898.935335,-962.267725
1391.783684,-6809.894666,0.000000,-74.020594
1391.783996,-6365.771101,-4979.620737,-0.000000
1391.784308,-6809.894666,-3907.087040,1258.350101
1391.784619,-5995.668130,1149.143247,2146.597232
1391.784931,-7624.121203,1149.143247,2442.679609
1391.785242,-11177.109724,-2911.162892,3478.967927
1391.785554,-12213.398043,-5515.887586,3552.988522
1391.785866,-10584.944971,-1378.971896,2664.741391
1391.786177,-8364.327145,3294.210641,1776.494261
1391.786489,-7179.997637,2681.334243,444.123565
1391.786800,-6661.853478,-2987.772442,148.041188
1391.787112,-5181.441594,-7048.078582,-222.061783
1391.787424,-5181.441594,-7124.688131,-0.000000
1391.787735,-8216.285956,-2221.676944,1258.350101
1391.788047,-10955.047942,0.000000,2146.597232
1391.788359,-14063.912898,-3140.991542,3034.844362
1391.788670,-15988.448347,-6741.640382,4441.235652
1391.788982,-14730.098246,-3370.820191,4589.276840
1391.789293,-12065.356855,2451.505594,2664.741391
1391.789605,-8142.265362,4519.963438,-0.000000
1391.789917,-4515.256246,1072.533697,-1776.494261
1391.790228,-2886.803174,-2451.505594,-3478.967927
1391.790540,-2368.659014,-995.924147,-3997.112087
1391.790851,-5255.462188,2145.067394,-3997.112087
1391.791163,-7846.182985,3524.039291,-1480.411884
1391.791475,-12879.583391,0.000000,444.123565
1391.791786,-16062.468941,-4060.306139,2812.782580
1391.792098,-16580.613101,-3830.477490,3330.926739
1391.792409,-14878.139434,612.876398,3256.906145
1391.792721,-10288.862594,3217.601092,2590.720797
1391.793033,-7476.080014,1302.362347,-370.102971
1391.793344,-5107.421000,-2221.676944,-2516.700203
1391.793656,-2664.741391,-1072.533697,-4515.256246
1391.793968,-2738.761985,3140.991542,-4811.338623
1391.794279,-4663.297435,5056.230287,-3256.906145
1391.794591,-9696.697840,2681.334243,-2368.659014
1391.794902,-14359.995275,-2528.115143,370.102971
1391.795214,-16284.530724,-2987.772442,2516.700203
1391.795526,-15026.180623,766.095498,3627.009116
1391.795837,-11843.295072,4136.915689,3552.988522
1391.796149,-9474.636058,1455.581446,1998.556043
1391.796460,-4885.359217,-1991.848295,-296.082377
1391.796772,-2294.638420,-536.266849,-2960.823768
1391.797084,-1850.514855,3830.477490,-3997.112087
1391.797395,-3478.967927,7354.516781,-3182.885551
1391.797707,-6809.894666,4903.011187,-2442.679609
1391.798019,-11399.171507,766.095498,-74.020594
1391.798330,-15100.201217,-1608.800546,1702.473667
1391.798642,-14434.015869,76.609550,2886.803174
1391.798953,-11695.253884,2604.724693,2960.823768
1391.799265,-9030.512492,-612.876398,3034.844362
1391.799577,-5921.647536,-6052.154434,1998.556043
1391.799888,-4737.318029,-7890.783629,1036.288319
1391.800200,-3775.050304,-4136.915689,444.123565
1391.800511,-4885.359217,536.266849,370.102971
1391.800823,-7624.121203,1915.238745,1036.288319
1391.801135,-10732.986159,-919.314598,740.205942
1391.801446,-13619.789333,-2987.772442,2368.659014
1391.801758,-14063.912898,-689.485948,2146.597232
1391.802069,-11843.295072,3983.696590,2738.761985
1391.802381,-8882.471304,3294.210641,814.226536
1391.802693,-8216.285956,-2221.676944,370.102971
1391.803004,-6513.812290,-5286.058936,814.226536
1391.803316,-5551.544565,-2757.943793,222.061783
1391.803628,-5699.585753,1762.019645,1184.329507
1391.803939,-7550.100608,2451.505594,1924.535449
1391.804251,-11251.130318,-1378.971896,2442.679609
1391.804562,-12657.521608,-3370.820191,2812.782580
1391.804874,-12805.562797,-2834.553343,1850.514855
1391.805186,-10955.047942,2221.676944,1184.329507
1391.805497,-7698.141797,3753.867940,-370.102971
1391.805809,-7476.080014,-1149.143247,-2146.597232
1391.806120,-5551.544565,-6205.373534,-1554.432478
1391.806432,-4515.256246,-5439.278036,-592.164754
1391.806744,-6217.729913,-1685.410096,1184.329507
1391.807055,-7698.141797,766.095498,3108.864956
1391.807367,-12657.521608,-3294.210641,3701.029710
1391.807678,-14878.139434,-4749.792088,3849.070898
1391.807990,-14804.118840,-995.924147,2516.700203
1391.808302,-12657.521608,5745.716235,222.061783
1391.808613,-9030.512492,8503.660028,-1406.391290
1391.808925,-6809.894666,5132.839837,-3478.967927
1391.809237,-4811.338623,0.000000,-3701.029710
1391.809548,-3552.988522,0.000000,-4071.132681
1391.809860,-3701.029710,3677.258390,-2220.617826
1391.810171,-5477.523971,5286.058936,-296.082377
1391.810483,-9104.533087,2374.896044,1184.329507
1391.810795,-13175.665768,-1685.410096,2146.597232
1391.811106,-15100.201217,-995.924147,1480.411884
1391.811418,-13471.748144,4060.306139,1480.411884
1391.811729,-9400.615463,6588.421283,370.102971
1391.812041,-7846.182985,3064.381992,-2146.597232
1391.812353,-6365.771101,-2451.505594,-2738.761985
1391.812664,-4367.215058,-3983.696590,-3997.112087
1391.812976,-3997.112087,0.000000,-2886.803174
1391.813287,-4737.318029,3370.820191,-740.205942
1391.813599,-8364.327145,612.876398,1258.350101
1391.813911,-13101.645173,-6128.763984,3182.885551
1391.814222,-14730.098246,-5592.497135,4367.215058
1391.814534,-14434.015869,0.000000,4367.215058
1391.814846,-11843.295072,5362.668486,3775.050304
1391.815157,-9104.533087,3600.648841,1258.350101
1391.815469,-7031.956449,-1378.971896,-518.144159
1391.815780,-4367.215058,-2374.896044,-1924.535449
1391.816092,-3330.926739,1685.410096,-2072.576638
1391.816404,-3478.967927,4596.572988,-2368.659014
1391.816715,-6957.935855,3447.429741,-1332.370696
1391.817027,-11325.150913,-1991.848295,814.226536
1391.817338,-13101.645173,-4673.182538,3034.844362
1391.817650,-13841.851115,-2221.676944,3701.029710
1391.817962,-11695.253884,842.705048,4515.256246
1391.818273,-10436.903782,-536.266849,3404.947333
1391.818585,-9696.697840,-5132.839837,2368.659014
1391.818897,-6291.750507,-6741.640382,740.205942
1391.819208,-4367.215058,-4060.306139,-370.102971
1391.819520,-4737.318029,-612.876398,-0.000000
1391.819831,-6957.935855,689.485948,-0.000000
1391.820143,-10807.006753,-2987.772442,666.185348
1391.820455,-13545.768739,-4979.620737,2368.659014
1391.820766,-13693.809927,-2298.286494,3034.844362
1391.821078,-12065.356855,2987.772442,2664.741391
1391.821389,-9992.780217,3217.601092,1628.453072
1391.821701,-7920.203579,-1455.581446,148.041188
1391.822013,-5921.647536,-3983.696590,-0.000000
1391.822324,-4737.318029,-1072.533697,-1702.473667
1391.822636,-3923.091493,3447.429741,-962.267725
1391.822947,-5847.626942,3907.087040,-74.020594
1391.823259,-9992.780217,0.000000,1036.288319
1391.823571,-12065.356855,-3064.381992,1554.432478
1391.823882,-12361.439231,-766.095498,1628.453072
1391.824194,-11177.109724,3600.648841,814.226536
1391.824506,-9770.718434,5362.668486,-222.061783
1391.824817,-8364.327145,1225.752797,-1332.370696
1391.825129,-5699.585753,-2528.115143,-1850.514855
1391.825440,-4737.318029,-1378.971896,-2072.576638
1391.825752,-5329.482782,2834.553343,-1628.453072
1391.826064,-6069.688724,4903.011187,296.082377
1391.826375,-10066.800811,2068.457845,1110.308913
1391.826687,-13397.727550,-2068.457845,2738.761985
1391.826998,-14137.933492,-995.924147,2146.597232
1391.827310,-13175.665768,4826.401637,592.164754
1391.827622,-9918.759623,7814.174080,148.041188
1391.827933,-7328.038826,3907.087040,-1628.453072
1391.828245,-5995.668130,-995.924147,-2590.720797
1391.828556,-5033.400406,-1838.629195,-3997.112087
1391.828868,-3923.091493,2987.772442,-2812.782580
1391.829180,-5403.503377,6052.154434,-740.205942
1391.829491,-9030.512492,3370.820191,740.205942
1391.829803,-11843.295072,-2757.943793,2664.741391
1391.830115,-13767.830521,-5132.839837,3478.967927
1391.830426,-13323.706956,-766.095498,3552.988522
1391.830738,-10658.965565,4366.744339,1998.556043
1391.831049,-8438.347739,1762.019645,370.102971
1391.831361,-7105.977043,-4596.572988,-222.061783
1391.831673,-4515.256246,-6435.202183,-296.082377
1391.831984,-4293.194464,-3600.648841,-1480.411884
1391.832296,-5699.585753,766.095498,-0.000000
1391.832607,-9326.594869,612.876398,666.185348
1391.832919,-12805.562797,-3140.991542,2516.700203
1391.833231,-14359.995275,-4903.011187,4071.132681
1391.833542,-13397.727550,-2374.896044,4219.173869
1391.833854,-10881.027347,2451.505594,3775.050304
1391.834165,-8956.491898,1455.581446,2368.659014
1391.834477,-6661.853478,-3140.991542,814.226536
1391.834789,-4515.256246,-5056.230287,-1036.288319
1391.835100,-3627.009116,-2528.115143,-1850.514855
1391.835412,-3923.091493,1762.019645,-1036.288319
1391.835724,-7031.956449,1991.848295,-592.164754
1391.836035,-11177.109724,-3217.601092,1184.329507
1391.836347,-13545.768739,-5056.230287,3330.926739
1391.836658,-14137.933492,-2911.162892,3701.029710
1391.836970,-11991.336260,1915.238745,3775.050304
1391.837282,-10214.842000,1455.581446,2294.638420
1391.837593,-8290.306550,-2604.724693,-74.020594
1391.837905,-4071.132681,-3677.258390,-1110.308913
1391.838216,-3478.967927,-1762.019645,-2590.720797
1391.838528,-4293.194464,1072.533697,-1554.432478
1391.838840,-6883.915261,2604.724693,148.041188
1391.839151,-11399.171507,-1685.410096,1406.391290
1391.839463,-13323.706956,-4519.963438,2960.823768
1391.839774,-14137.933492,-1762.019645,3108.864956
1391.840086,-12657.521608,4596.572988,1480.411884
1391.840398,-10214.842000,6435.202183,-148.041188
1391.840709,-8660.409521,1072.533697,-1406.391290
1391.841021,-6069.688724,-1532.190996,-2072.576638
1391.841333,-4885.359217,153.219100,-2960.823768
1391.841644,-5329.482782,4903.011187,-2516.700203
1391.841956,-5699.585753,6511.811733,-888.247130
1391.842267,-9252.574275,3524.039291,-222.061783
1391.842579,-12657.521608,-459.657299,814.226536
1391.842891,-13175.665768,536.266849,592.164754
1391.843202,-12361.439231,4443.353888,592.164754
1391.843514,-9918.759623,5975.544884,444.123565
1391.843825,-8734.430116,2451.505594,-740.205942
1391.844137,-7402.059420,-2757.943793,-888.247130
1391.844449,-5181.441594,-2681.334243,-1924.535449
1391.844760,-5033.400406,1378.971896,-1406.391290
1391.845072,-5995.668130,4519.963438,-296.082377
1391.845384,-9030.512492,1532.190996,296.082377
1391.845695,-12509.480420,-3907.087040,2146.597232
1391.846007,-13323.706956,-4060.306139,3478.967927
1391.846318,-12805.562797,0.000000,2812.782580
1391.846630,-10214.842000,3677.258390,2368.659014
1391.846942,-8586.388927,1072.533697,1036.288319
1391.847253,-6143.709319,-4903.011187,-0.000000
1391.847565,-4663.297435,-6665.030833,-592.164754
1391.847876,-3997.112087,-3064.381992,-1480.411884
1391.848188,-4885.359217,1685.410096,666.185348
1391.848500,-8882.471304,1225.752797,1702.473667
1391.848811,-11843.295072,-2681.334243,3330.926739
1391.849123,-12953.603985,-4903.011187,4071.132681
1391.849434,-12657.521608,-2451.505594,4441.235652
1391.849746,-9918.759623,1149.143247,3775.050304
1391.850058,-7994.224174,1378.971896,962.267725
1391.850369,-6143.709319,-3064.381992,-444.123565
1391.850681,-4959.379811,-5286.058936,-666.185348
1391.850993,-4441.235652,-3600.648841,-1850.514855
1391.851304,-5995.668130,0.000000,-148.041188
1391.851616,-9326.594869,76.609550,962.267725
1391.851927,-13175.665768,-3830.477490,2442.679609
1391.852239,-14952.160028,-5439.278036,3775.050304
1391.852551,-14359.995275,-2834.553343,3701.029710
1391.852862,-11991.336260,2145.067394,3034.844362
1391.853174,-9474.636058,2374.896044,1554.432478
1391.853485,-7920.203579,-1072.533697,-1184.329507
1391.853797,-4959.379811,-2221.676944,-2368.659014
1391.854109,-4219.173869,0.000000,-3627.009116
1391.854420,-4515.256246,3907.087040,-2220.617826
1391.854732,-6661.853478,4749.792088,-962.267725
1391.855043,-11473.192101,0.000000,296.082377
1391.855355,-14359.995275,-2987.772442,2442.679609
1391.855667,-14285.974681,0.000000,1776.494261
1391.855979,-13397.727550,4673.182538,1332.370696
1391.856290,-9548.656652,5209.449386,-0.000000
1391.856602,-7179.997637,1225.752797,-1998.556043
1391.856914,-5477.523971,-2451.505594,-2146.597232
1391.857225,-3701.029710,-1532.190996,-2590.720797
1391.857537,-4293.194464,3370.820191,-2072.576638
1391.857849,-5773.606348,5132.839837,-740.205942
1391.858160,-9696.697840,2221.676944,148.041188
1391.858472,-12583.501014,-2145.067394,2146.597232
1391.858784,-13693.809927,-536.266849,1628.453072
1391.859095,-13249.686362,4443.353888,1258.350101
1391.859407,-9400.615463,6741.640382,296.082377
1391.859719,-7624.121203,3600.648841,-1628.453072
1391.860030,-5181.441594,-2298.286494,-1406.391290
1391.860342,-2960.823768,-2528.115143,-1850.514855
1391.860654,-4663.297435,153.219100,-1332.370696
1391.860965,-6291.750507,4519.963438,-296.082377
1391.861277,-9844.739029,2451.505594,814.226536
1391.861589,-13397.727550,-2604.724693,2664.741391
1391.861900,-13841.851115,-3907.087040,3478.967927
1391.862212,-12657.521608,-383.047749,2886.803174
1391.862524,-9400.615463,2604.724693,2516.700203
1391.862836,-7772.162391,76.609550,370.102971
1391.863147,-5477.523971,-4136.915689,-518.144159
1391.863459,-3404.947333,-5592.497135,-888.247130
1391.863771,-4737.318029,-3600.648841,-296.082377
1391.864082,-7105.977043,-612.876398,1924.535449
1391.864394,-10436.903782,-689.485948,1554.432478
1391.864706,-14137.933492,-3983.696590,3627.009116
1391.865017,-14434.015869,-4673.182538,4811.338623
1391.865329,-13249.686362,-2221.676944,3627.009116
1391.865641,-11029.068536,1225.752797,3108.864956
1391.865952,-8364.327145,153.219100,1184.329507
1391.866264,-6513.812290,-3370.820191,-74.020594
1391.866576,-4293.194464,-3907.087040,-888.247130
1391.866887,-4811.338623,-1225.752797,-1628.453072
1391.867199,-5181.441594,1685.410096,-148.041188
1391.867511,-7624.121203,-229.828649,1776.494261
1391.867822,-11103.089130,-3370.820191,2960.823768
1391.868134,-13175.665768,-5209.449386,2886.803174
1391.868446,-13693.809927,-2298.286494,1998.556043
1391.868758,-11695.253884,2451.505594,1776.494261
1391.869069,-8512.368333,2221.676944,370.102971
1391.869381,-7031.956449,-2374.896044,-1406.391290
1391.869693,-5255.462188,-4596.572988,-1258.350101
1391.870004,-4811.338623,-2221.676944,-1998.556043
1391.870316,-5255.462188,2451.505594,-814.226536
1391.870628,-7624.121203,3370.820191,222.061783
1391.870939,-11399.171507,0.000000,814.226536
1391.871251,-12879.583391,-2221.676944,1702.473667
1391.871563,-13693.809927,1378.971896,888.247130
1391.871874,-11621.233289,7507.735880,296.082377
1391.872186,-9918.759623,8197.221829,-518.144159
1391.872498,-8956.491898,2681.334243,-1184.329507
1391.872809,-5921.647536,-995.924147,-2072.576638
1391.873121,-4589.276840,842.705048,-3923.091493
1391.873433,-5181.441594,5439.278036,-2960.823768
1391.873744,-6661.853478,6971.469032,-2368.659014
1391.874056,-10584.944971,2834.553343,-1332.370696
1391.874368,-13027.624579,-1302.362347,1850.514855
1391.874679,-13545.768739,-1302.362347,1702.473667
1391.874991,-13619.789333,1838.629195,1628.453072
1391.875303,-10584.944971,3830.477490,1480.411884
1391.875615,-8142.265362,919.314598,-444.123565
1391.875926,-5107.421000,-2681.334243,-1258.350101
1391.876238,-4219.173869,-2757.943793,-2220.617826
1391.876550,-6513.812290,76.609550,-1776.494261
1391.876861,-6883.915261,3753.867940,-0.000000
1391.877173,-10362.883188,2604.724693,518.144159
1391.877485,-13175.665768,-1532.190996,2960.823768
1391.877796,-13249.686362,-2911.162892,3552.988522
1391.878108,-12139.377449,766.095498,3034.844362
1391.878420,-8808.450710,3370.820191,2738.761985
1391.878731,-6661.853478,766.095498,740.205942
1391.879043,-5181.441594,-3217.601092,-0.000000
1391.879355,-3775.050304,-4443.353888,-592.164754
1391.879666,-5107.421000,-1378.971896,-1406.391290
1391.879978,-6069.688724,1762.019645,888.247130
1391.880290,-9178.553681,612.876398,1480.411884
1391.880601,-11769.274478,-3600.648841,3404.947333
1391.880913,-12731.542202,-5592.497135,4145.153275
1391.881225,-12879.583391,-2987.772442,3404.947333
1391.881536,-9400.615463,612.876398,3849.070898
1391.881848,-7402.059420,-1378.971896,1332.370696
1391.882160,-6809.894666,-5822.325785,518.144159
1391.882472,-5329.482782,-6971.469032,-0.000000
1391.882783,-5773.606348,-3753.867940,-0.000000
1391.883095,-7254.018232,153.219100,1332.370696
1391.883407,-9400.615463,0.000000,1998.556043
1391.883718,-11843.295072,-3140.991542,2960.823768
1391.884030,-12287.418637,-4519.963438,3701.029710
1391.884342,-12065.356855,-459.657299,2146.597232
1391.884653,-10881.027347,4213.525239,1406.391290
1391.884965,-8290.306550,4979.620737,740.205942
1391.885277,-7402.059420,536.266849,-1480.411884
1391.885588,-6217.729913,-1838.629195,-2072.576638
1391.885900,-5403.503377,919.314598,-2442.679609
1391.886212,-5921.647536,4749.792088,-1702.473667
1391.886523,-7846.182985,4136.915689,-592.164754
1391.886835,-11029.068536,-229.828649,518.144159
1391.887147,-12879.583391,-2298.286494,1850.514855
1391.887458,-13619.789333,-229.828649,1480.411884
1391.887770,-12731.542202,4290.134789,888.247130
1391.888082,-10214.842000,5362.668486,-740.205942
1391.888394,-8438.347739,919.314598,-2072.576638
1391.888705,-5699.585753,-2528.115143,-2442.679609
1391.889017,-5255.462188,-1149.143247,-3256.906145
1391.889329,-6587.832884,4136.915689,-2442.679609
1391.889640,-8364.327145,6435.202183,-1406.391290
1391.889952,-11547.212695,2451.505594,222.061783
1391.890264,-13323.706956,-689.485948,1702.473667
1391.890575,-12953.603985,612.876398,1332.370696
1391.890887,-11103.089130,4903.011187,518.144159
1391.891199,-8586.388927,5209.449386,-148.041188
1391.891510,-7105.977043,1762.019645,-1998.556043
1391.891822,-5477.523971,-1378.971896,-2220.617826
1391.892134,-4663.297435,-612.876398,-3108.864956
1391.892445,-4959.379811,2451.505594,-1406.391290
1391.892757,-5773.606348,3370.820191,666.185348
1391.893069,-8734.430116,-766.095498,1850.514855
1391.893380,-11251.130318,-4596.572988,3627.009116
1391.893692,-12065.356855,-4673.182538,3478.967927
1391.894004,-12139.377449,536.266849,2590.720797
1391.894315,-9252.574275,3370.820191,2368.659014
1391.894627,-6513.812290,-383.047749,962.267725
1391.894939,-4737.318029,-5515.887586,1036.288319
1391.895251,-4219.173869,-6588.421283,-0.000000
1391.895562,-5329.482782,-2681.334243,-0.000000
1391.895874,-6883.915261,536.266849,1184.329507
1391.896186,-10658.965565,-383.047749,1850.514855
1391.896497,-12805.562797,-4519.963438,3256.906145
1391.896809,-13989.892304,-4826.401637,3849.070898
1391.897121,-13989.892304,-1225.752797,3108.864956
1391.897432,-11473.192101,2757.943793,3256.906145
1391.897744,-8734.430116,1915.238745,1332.370696
1391.898056,-7550.100608,-2298.286494,148.041188
1391.898367,-5551.544565,-3064.381992,-592.164754
1391.898679,-4219.173869,-1149.143247,-962.267725
1391.898991,-5329.482782,2451.505594,-0.000000
1391.899302,-8290.306550,995.924147,666.185348
1391.899614,-11251.130318,-3217.601092,2146.597232
1391.899926,-13175.665768,-5362.668486,2664.741391
1391.900237,-13841.851115,-1915.238745,2812.782580
1391.900549,-12287.418637,1225.752797,2368.659014
1391.900861,-9474.636058,1838.629195,296.082377
1391.901172,-6661.853478,-1915.238745,-592.164754
1391.901484,-5773.606348,-4596.572988,-1036.288319
1391.901796,-5033.400406,-2221.676944,-1998.556043
1391.902108,-6217.729913,2528.115143,-666.185348
1391.902419,-7772.162391,3294.210641,148.041188
1391.902731,-10658.965565,0.000000,888.247130
1391.903043,-13175.665768,-1378.971896,1184.329507
1391.903354,-13249.686362,2298.286494,740.205942
1391.903666,-10658.965565,6358.592633,222.061783
1391.903978,-8808.450710,6741.640382,-740.205942
1391.904289,-7624.121203,2987.772442,-1702.473667
1391.904601,-5551.544565,0.000000,-2294.638420
1391.904913,-5255.462188,842.705048,-3478.967927
1391.905224,-5625.565159,5592.497135,-2812.782580
1391.905536,-6957.935855,7048.078582,-1850.514855
1391.905848,-10288.862594,2757.943793,-222.061783
1391.906159,-11843.295072,-2068.457845,1924.535449
1391.906471,-13545.768739,-1762.019645,1998.556043
1391.906783,-11547.212695,2834.553343,1998.556043
1391.907094,-8142.265362,4519.963438,666.185348
1391.907406,-7179.997637,0.000000,-666.185348
1391.907718,-4811.338623,-4443.353888,-1184.329507
1391.908030,-4071.132681,-4136.915689,-2442.679609
1391.908341,-5551.544565,383.047749,-1332.370696
1391.908653,-7698.141797,2834.553343,-0.000000
1391.908965,-11695.253884,0.000000,1776.494261
1391.909276,-13767.830521,-3524.039291,4145.153275
1391.909588,-13471.748144,-3600.648841,4737.318029
1391.909900,-12583.501014,0.000000,3330.926739
1391.910211,-9326.594869,3294.210641,2442.679609
1391.910523,-7920.203579,1149.143247,-74.020594
1391.910835,-5329.482782,-2757.943793,-1184.329507
1391.911146,-3775.050304,-2221.676944,-2146.597232
1391.911458,-4367.215058,612.876398,-1480.411884
1391.911770,-6217.729913,1762.019645,814.226536
1391.912081,-9992.780217,-1302.362347,1998.556043
1391.912393,-13767.830521,-4519.963438,3330.926739
1391.912705,-14359.995275,-4519.963438,3849.070898
1391.913016,-13545.768739,-1532.190996,3108.864956
1391.913328,-11029.068536,0.000000,2738.761985
1391.913640,-8068.244768,-2451.505594,1554.432478
1391.913951,-5773.606348,-6818.249932,-444.123565
1391.914263,-5107.421000,-6435.202183,-370.102971
1391.914575,-5033.400406,-1762.019645,-888.247130
1391.914887,-6735.874072,1455.581446,-296.082377
1391.915198,-9104.533087,0.000000,592.164754
1391.915510,-12139.377449,-3677.258390,2368.659014
1391.915822,-12583.501014,-3907.087040,2590.720797
1391.916133,-12435.459826,612.876398,2146.597232
1391.916445,-11325.150913,3753.867940,2590.720797
1391.916757,-8512.368333,1915.238745,1480.411884
1391.917068,-6883.915261,-1608.800546,-0.000000
1391.917380,-4515.256246,-2451.505594,-1258.350101
1391.917692,-4293.194464,229.828649,-2516.700203
1391.918003,-5107.421000,3600.648841,-1554.432478
1391.918315,-6735.874072,3830.477490,-1184.329507
1391.918627,-11029.068536,-919.314598,370.102971
1391.918938,-13027.624579,-3217.601092,1776.494261
1391.919250,-13767.830521,-76.609550,1850.514855
1391.919562,-12657.521608,3677.258390,1110.308913
1391.919873,-10362.883188,3830.477490,-296.082377
1391.920185,-7402.059420,153.219100,-1406.391290
1391.920497,-5181.441594,-2374.896044,-1850.514855
1391.920808,-4515.256246,-383.047749,-2664.741391
1391.921120,-6439.791695,2987.772442,-1998.556043
1391.921432,-8512.368333,4826.401637,-518.144159
1391.921744,-11325.150913,2757.943793,518.144159
1391.922055,-13471.748144,76.609550,1406.391290
1391.922367,-13101.645173,1455.581446,1110.308913
1391.922679,-11473.192101,4903.011187,666.185348
1391.922990,-8216.285956,5362.668486,444.123565
1391.923302,-6143.709319,1685.410096,-814.226536
1391.923614,-5847.626942,-229.828649,-1850.514855
1391.923925,-5329.482782,-153.219100,-2590.720797
1391.924237,-6217.729913,2221.676944,-1702.473667
1391.924549,-7254.018232,3830.477490,-0.000000
1391.924860,-10658.965565,766.095498,1184.329507
1391.925172,-12657.521608,-3907.087040,2960.823768
1391.925484,-12583.501014,-4443.353888,3108.864956
1391.925795,-12583.501014,-1455.581446,2886.803174
1391.926107,-8882.471304,383.047749,2368.659014
1391.926419,-7254.018232,-1608.800546,666.185348
1391.926730,-5329.482782,-4903.011187,296.082377
1391.927042,-3923.091493,-5286.058936,-74.020594
1391.927354,-5181.441594,-2757.943793,-0.000000
1391.927666,-6069.688724,229.828649,1924.535449
1391.927977,-10066.800811,-995.924147,2442.679609
1391.928289,-12657.521608,-4749.792088,4589.276840
1391.928601,-13471.748144,-4213.525239,4441.235652
1391.928912,-13471.748144,0.000000,2812.782580
1391.929224,-9696.697840,2987.772442,2294.638420
1391.929536,-7624.121203,1149.143247,-0.000000
1391.929847,-5033.400406,-2145.067394,-666.185348
1391.930159,-4071.132681,-3447.429741,-1776.494261
1391.930471,-4737.318029,-1072.533697,-1850.514855
1391.930782,-5181.441594,1455.581446,-0.000000
1391.931094,-9252.574275,689.485948,814.226536
1391.931406,-12065.356855,-3753.867940,2294.638420
1391.931717,-13323.706956,-4903.011187,2516.700203
1391.932029,-13397.727550,-1762.019645,2516.700203
1391.932341,-10510.924376,1915.238745,1998.556043
1391.932652,-8882.471304,383.047749,296.082377
1391.932964,-7328.038826,-3524.039291,-1628.453072
1391.933276,-6069.688724,-4903.011187,-1702.473667
1391.933587,-6143.709319,-1685.410096,-2368.659014
1391.933899,-7031.956449,3064.381992,-1184.329507
1391.934211,-9178.553681,3370.820191,-0.000000
1391.934523,-12361.439231,-995.924147,1406.391290
1391.934834,-14582.057057,-2681.334243,2368.659014
1391.935146,-14137.933492,1225.752797,2146.597232
1391.935458,-11917.315666,5898.935335,814.226536
1391.935769,-8734.430116,6052.154434,-444.123565
1391.936081,-7031.956449,1532.190996,-1998.556043
1391.936393,-5181.441594,-612.876398,-3034.844362
1391.936704,-4737.318029,1608.800546,-4293.194464
1391.937016,-5625.565159,5592.497135,-2442.679609
1391.937328,-7624.121203,6511.811733,-1332.370696
1391.937639,-11843.295072,2298.286494,296.082377
1391.937951,-13249.686362,-689.485948,1258.350101
1391.938263,-12435.459826,306.438199,1406.391290
1391.938574,-10658.965565,3907.087040,1776.494261
1391.938886,-7105.977043,4749.792088,666.185348
1391.939198,-5699.585753,306.438199,-1184.329507
1391.939509,-4885.359217,-3830.477490,-1184.329507
1391.939821,-4219.173869,-2528.115143,-1776.494261
1391.940133,-4811.338623,1455.581446,-148.041188
1391.940445,-8512.368333,2987.772442,296.082377
1391.940756,-12583.501014,-842.705048,2294.638420
1391.941068,-13767.830521,-3830.477490,3552.988522
1391.941380,-13249.686362,-2221.676944,3701.029710
1391.941691,-11029.068536,1685.410096,3108.864956
1391.942003,-7179.997637,2374.896044,2294.638420
1391.942315,-5551.544565,-1378.971896,222.061783
1391.942626,-4145.153275,-3294.210641,-0.000000
1391.942938,-3775.050304,-2834.553343,-1702.473667
1391.943250,-5625.565159,536.266849,-814.226536
1391.943561,-7624.121203,2604.724693,1628.453072
1391.943873,-11029.068536,-1455.581446,2516.700203
1391.944185,-14211.954086,-5745.716235,3404.947333
1391.944496,-14211.954086,-4290.134789,3627.009116
1391.944808,-12583.501014,-306.438199,3182.885551
1391.945120,-9992.780217,689.485948,2146.597232
1391.945431,-7550.100608,-995.924147,518.144159
1391.945743,-5403.503377,-4903.011187,-814.226536
1391.946055,-4219.173869,-5515.887586,-740.205942
1391.946366,-5921.647536,-2451.505594,-444.123565
1391.946678,-7476.080014,1378.971896,666.185348
1391.946990,-10140.821405,612.876398,962.267725
1391.947302,-13915.871710,-4290.134789,2590.720797
1391.947613,-14211.954086,-4213.525239,2738.761985
1391.947925,-12361.439231,0.000000,2220.617826
1391.948237,-10732.986159,3294.210641,1406.391290
1391.948548,-9030.512492,1762.019645,-0.000000
1391.948860,-7179.997637,-1608.800546,-1332.370696
1391.949172,-5329.482782,-2068.457845,-2368.659014
1391.949483,-5477.523971,306.438199,-3034.844362
1391.949795,-5921.647536,3140.991542,-1480.411884
1391.950107,-8586.388927,3830.477490,-1332.370696
1391.950418,-11917.315666,-306.438199,1184.329507
1391.950730,-11991.336260,-2911.162892,2664.741391
1391.951042,-14508.036463,-459.657299,1628.453072
1391.951353,-12435.459826,4979.620737,1850.514855
1391.951665,-9474.636058,5439.278036,-740.205942
1391.951977,-7772.162391,1225.752797,-2442.679609
1391.952288,-4441.235652,-995.924147,-3330.926739
1391.952600,-3775.050304,842.705048,-4737.318029
1391.952912,-4737.318029,4213.525239,-2294.638420
1391.953223,-7328.038826,4826.401637,-666.185348
1391.953535,-12213.398043,306.438199,888.247130
1391.953847,-14211.954086,-2298.286494,2886.803174
1391.954159,-13619.789333,306.438199,2294.638420
1391.954470,-10140.821405,4903.011187,1554.432478
1391.954782,-7179.997637,4749.792088,740.205942
1391.955094,-6143.709319,229.828649,-962.267725
1391.955405,-4293.194464,-2298.286494,-1036.288319
1391.955717,-4737.318029,-153.219100,-1998.556043
1391.956029,-6587.832884,3447.429741,-222.061783
1391.956340,-8142.265362,4673.182538,1184.329507
1391.956652,-11325.150913,766.095498,2146.597232
1391.956964,-12361.439231,-2145.067394,3478.967927
1391.957275,-11769.274478,-1532.190996,2368.659014
1391.957587,-10510.924376,1991.848295,2368.659014
1391.957899,-8290.306550,2757.943793,2146.597232
1391.958210,-6291.750507,-1455.581446,444.123565
1391.958522,-4885.359217,-4903.011187,-0.000000
1391.958834,-4293.194464,-3830.477490,-148.041188
1391.959145,-5255.462188,-1762.019645,370.102971
1391.959457,-7846.182985,-459.657299,1924.535449
1391.959769,-9992.780217,-3217.601092,3404.947333
1391.960081,-12805.562797,-6971.469032,4367.215058
1391.960392,-14285.974681,-5898.935335,3923.091493
1391.960704,-13619.789333,-612.876398,2664.741391
1391.961016,-10510.924376,2681.334243,1702.473667
1391.961327,-7624.121203,0.000000,370.102971
1391.961639,-5107.421000,-4060.306139,-0.000000
1391.961950,-5255.462188,-4596.572988,-1850.514855
1391.962262,-5773.606348,-1072.533697,-740.205942
1391.962574,-7179.997637,1838.629195,962.267725
1391.962885,-9844.739029,612.876398,666.185348
1391.963197,-12435.459826,-2681.334243,2294.638420
1391.963509,-13693.809927,-3830.477490,1924.535449
1391.963820,-12953.603985,0.000000,1406.391290
1391.964132,-10362.883188,2911.162892,1628.453072
1391.964444,-7994.224174,1685.410096,148.041188
1391.964755,-6291.750507,-2834.553343,-1332.370696
1391.965067,-5033.400406,-4519.963438,-1554.432478
1391.965378,-5107.421000,-1072.533697,-2442.679609
1391.965690,-5403.503377,3753.867940,-2072.576638
1391.966002,-8660.409521,3907.087040,-1184.329507
1391.966313,-12435.459826,229.828649,518.144159
1391.966625,-14211.954086,-1225.752797,1036.288319
1391.966937,-14582.057057,1915.238745,1036.288319
1391.967248,-11251.130318,6128.763984,2294.638420
1391.967560,-9474.636058,4596.572988,-0.000000
1391.967872,-7624.121203,306.438199,-1406.391290
1391.968183,-5033.400406,0.000000,-2738.761985
1391.968495,-4367.215058,2145.067394,-3849.070898
1391.968806,-4441.235652,5669.106685,-2664.741391
1391.969118,-8142.265362,5209.449386,-1480.411884
1391.969430,-12139.377449,1532.190996,-370.102971
1391.969741,-14063.912898,-842.705048,962.267725
1391.970053,-13471.748144,1378.971896,1702.473667
1391.970365,-10436.903782,5132.839837,1998.556043
1391.970676,-7698.141797,3677.258390,1554.432478
1391.970988,-5255.462188,-1225.752797,148.041188
1391.971299,-3997.112087,-3064.381992,-1702.473667
1391.971611,-3330.926739,-1455.581446,-1776.494261
1391.971923,-5699.585753,1762.019645,-888.247130
1391.972234,-8882.471304,1838.629195,740.205942
1391.972546,-12731.542202,-1532.190996,1998.556043
1391.972858,-14878.139434,-3907.087040,3404.947333
1391.973169,-14285.974681,-2221.676944,3330.926739
1391.973481,-12139.377449,1915.238745,3256.906145
1391.973793,-8660.409521,3140.991542,2368.659014
1391.974104,-6587.832884,-1608.800546,740.205942
1391.974416,-4663.297435,-3140.991542,-0.000000
1391.974727,-4071.132681,-1685.410096,-814.226536
1391.975039,-4589.276840,1685.410096,-592.164754
1391.975351,-5329.482782,1915.238745,1036.288319
1391.975662,-8660.409521,-1762.019645,1998.556043
1391.975974,-11769.274478,-5286.058936,3775.050304
1391.976286,-13175.665768,-5669.106685,2960.823768
1391.976597,-13915.871710,-2451.505594,3478.967927
1391.976909,-11769.274478,-229.828649,3404.947333
1391.977221,-9178.553681,-2451.505594,740.205942
1391.977532,-7698.141797,-6358.592633,-0.000000
1391.977844,-4959.379811,-6205.373534,-518.144159
1391.978155,-4145.153275,-2451.505594,-888.247130
1391.978467,-6069.688724,689.485948,-0.000000
1391.978779,-8882.471304,-1455.581446,1258.350101
1391.979090,-11769.274478,-4213.525239,2664.741391
1391.979402,-12657.521608,-3370.820191,3627.009116
1391.979714,-12953.603985,689.485948,2442.679609
1391.980025,-10584.944971,4290.134789,1480.411884
1391.980337,-8808.450710,3370.820191,-74.020594
1391.980649,-7179.997637,-383.047749,-1258.350101
1391.980960,-5181.441594,-1991.848295,-3108.864956
1391.981272,-4663.297435,995.924147,-3108.864956
1391.981583,-5477.523971,4596.572988,-2294.638420
1391.981895,-7920.203579,3064.381992,-1110.308913
1391.982207,-11473.192101,-153.219100,222.061783
1391.982518,-13841.851115,-1685.410096,1184.329507
1391.982830,-14359.995275,995.924147,1480.411884
1391.983142,-11991.336260,4443.353888,1480.411884
1391.983453,-9400.615463,4596.572988,-0.000000
1391.983765,-6735.874072,0.000000,-1628.453072
1391.984077,-4737.318029,-3677.258390,-2220.617826
1391.984388,-4367.215058,-1378.971896,-3182.885551
1391.984700,-5995.668130,3064.381992,-1628.453072
1391.985011,-8068.244768,4136.915689,-592.164754
1391.985323,-11991.336260,766.095498,1332.370696
1391.985635,-14359.995275,-1608.800546,2146.597232
1391.985946,-14285.974681,1915.238745,1702.473667
1391.986258,-12287.418637,5132.839837,888.247130
1391.986570,-8882.471304,5209.449386,-518.144159
1391.986881,-6883.915261,1991.848295,-1998.556043
1391.987193,-4737.318029,-1225.752797,-2590.720797
1391.987504,-3404.947333,-536.266849,-2664.741391
1391.987816,-3849.070898,2068.457845,-0.000000
1391.988128,-4959.379811,1378.971896,1554.432478
1391.988439,-9844.739029,-2298.286494,3108.864956
1391.988751,-12805.562797,-5515.887586,3997.112087
1391.989063,-14359.995275,-2834.553343,3330.926739
1391.989374,-12583.501014,2145.067394,2886.803174
1391.989686,-8216.285956,3753.867940,1998.556043
1391.989998,-6365.771101,-1072.533697,-370.102971
1391.990309,-4811.338623,-5592.497135,296.082377
1391.990621,-4145.153275,-4443.353888,-0.000000
1391.990932,-5699.585753,-1302.362347,740.205942
1391.991244,-7476.080014,612.876398,2146.597232
1391.991556,-11029.068536,-1915.238745,2738.761985
1391.991867,-12953.603985,-5439.278036,3849.070898
1391.992179,-12657.521608,-4903.011187,4145.153275
1391.992491,-11769.274478,-536.266849,3108.864956
1391.992802,-9992.780217,1685.410096,2590.720797
1391.993114,-9622.677246,-1302.362347,1258.350101
1391.993426,-6735.874072,-4519.963438,222.061783
1391.993737,-5107.421000,-4519.963438,-1850.514855
1391.994049,-4885.359217,-766.095498,-1776.494261
1391.994360,-4737.318029,1991.848295,-1110.308913
1391.994672,-8068.244768,0.000000,-74.020594
1391.994984,-11843.295072,-4213.525239,1998.556043
1391.995295,-14582.057057,-4826.401637,2590.720797
1391.995607,-15470.304188,-612.876398,2590.720797
1391.995919,-12953.603985,3370.820191,2516.700203
1391.996230,-9474.636058,1302.362347,-0.000000
1391.996542,-6143.709319,-2374.896044,-1628.453072
1391.996854,-4589.276840,-2451.505594,-2960.823768
1391.997165,-3775.050304,612.876398,-3182.885551
1391.997477,-5625.565159,3830.477490,-1998.556043
1391.997788,-9622.677246,3677.258390,-1332.370696
1391.998100,-12213.398043,1072.533697,814.226536
1391.998412,-14137.933492,-689.485948,1332.370696
1391.998723,-13323.706956,2834.553343,1184.329507
1391.999035,-10955.047942,6052.154434,814.226536
1391.999347,-8364.327145,4826.401637,-592.164754
1391.999658,-7031.956449,689.485948,-1628.453072
1391.999970,-5477.523971,-689.485948,-2812.782580
1392.000282,-5329.482782,1685.410096,-3552.988522
1392.000593,-4959.379811,4903.011187,-2368.659014
1392.000905,-6661.853478,3753.867940,-814.226536
1392.001216,-11029.068536,-306.438199,592.164754
1392.001528,-13545.768739,-2221.676944,1702.473667
1392.001840,-13989.892304,306.438199,2146.597232
1392.002151,-12139.377449,3524.039291,1924.535449
1392.002463,-8290.306550,3447.429741,1110.308913
1392.002775,-6661.853478,-1378.971896,-888.247130
1392.003086,-4367.215058,-4519.963438,-1628.453072
1392.003398,-4145.153275,-2145.067394,-2368.659014
1392.003709,-5847.626942,2298.286494,-888.247130
1392.004021,-8068.244768,2911.162892,1184.329507
1392.004333,-10955.047942,-1455.581446,2812.782580
1392.004644,-13101.645173,-5056.230287,3997.112087
1392.004956,-13249.686362,-3217.601092,3701.029710
1392.005268,-10510.924376,1225.752797,2516.700203
1392.005579,-7994.224174,2911.162892,1480.411884
1392.005891,-6513.812290,0.000000,444.123565
1392.006203,-6069.688724,-4290.134789,-370.102971
1392.006514,-5551.544565,-3830.477490,-1036.288319
1392.006826,-5847.626942,229.828649,-592.164754
1392.007137,-6735.874072,2528.115143,666.185348
1392.007449,-9474.636058,-689.485948,1850.514855
1392.007761,-12657.521608,-5209.449386,3627.009116
1392.008072,-14211.954086,-4749.792088,3923.091493
1392.008384,-13175.665768,-689.485948,3701.029710
1392.008696,-10214.842000,1685.410096,2960.823768
1392.009007,-8660.409521,-1072.533697,1406.391290
1392.009319,-6513.812290,-4903.011187,-444.123565
1392.009631,-3775.050304,-4443.353888,-1554.432478
1392.009942,-3997.112087,-1302.362347,-1258.350101
1392.010254,-6957.935855,1455.581446,370.102971
1392.010565,-9400.615463,-536.266849,1776.494261
1392.010877,-12287.418637,-4290.134789,2960.823768
1392.011189,-13471.748144,-4519.963438,3701.029710
1392.011500,-12213.398043,0.000000,3552.988522
1392.011812,-10658.965565,3600.648841,1702.473667
1392.012124,-9104.533087,2145.067394,74.020594
1392.012435,-5847.626942,0.000000,-1406.391290
1392.012747,-5033.400406,0.000000,-3034.844362
1392.013059,-4811.338623,1762.019645,-3478.967927
1392.013370,-4737.318029,4366.744339,-1406.391290
1392.013682,-7624.121203,2145.067394,-592.164754
1392.013993,-11399.171507,-919.314598,1776.494261
1392.014305,-13841.851115,-1225.752797,1776.494261
1392.014617,-14211.954086,2221.676944,1628.453072
1392.014928,-12361.439231,4903.011187,1480.411884
1392.015240,-8216.285956,3524.039291,222.061783
1392.015552,-5847.626942,-612.876398,-2072.576638
1392.015863,-4441.235652,-2451.505594,-3034.844362
1392.016175,-4737.318029,-229.828649,-3627.009116
1392.016486,-6069.688724,3677.258390,-2146.597232
1392.016798,-8364.327145,4213.525239,-814.226536
1392.017110,-13027.624579,229.828649,296.082377
1392.017421,-14656.077652,-1225.752797,1702.473667
1392.017733,-14804.118840,1762.019645,1480.411884
1392.018045,-11843.295072,5515.887586,1702.473667
1392.018356,-7846.182985,3753.867940,740.205942
1392.018668,-6365.771101,-1302.362347,-592.164754
1392.018980,-4219.173869,-3294.210641,-1628.453072
1392.019291,-4145.153275,-842.705048,-3330.926739
1392.019603,-5329.482782,2834.553343,-2072.576638
1392.019914,-9326.594869,3907.087040,-666.185348
1392.020226,-12879.583391,-383.047749,1628.453072
1392.020538,-14359.995275,-4290.134789,3182.885551
1392.020849,-13989.892304,-3370.820191,3478.967927
1392.021161,-11843.295072,229.828649,3478.967927
1392.021473,-7994.224174,1378.971896,2220.617826
1392.021784,-5403.503377,-2757.943793,-0.000000
1392.022096,-3182.885551,-5515.887586,-74.020594
1392.022408,-2516.700203,-5056.230287,-814.226536
1392.022719,-5181.441594,-1378.971896,-0.000000
1392.023031,-8142.265362,766.095498,1850.514855
1392.023342,-11917.315666,-1072.533697,2516.700203
1392.023654,-14434.015869,-3600.648841,3997.112087
1392.023966,-13989.892304,-1685.410096,4145.153275
1392.024277,-12657.521608,1302.362347,3701.029710
1392.024589,-9474.636058,2757.943793,2664.741391
1392.024901,-7476.080014,383.047749,740.205942
1392.025212,-4737.318029,-1455.581446,-1110.308913
1392.025524,-2812.782580,-1532.190996,-1776.494261
1392.025836,-3182.885551,919.314598,-1406.391290
1392.026147,-3997.112087,2451.505594,740.205942
1392.026459,-7920.203579,-1455.581446,1628.453072
1392.026770,-12287.418637,-5132.839837,3330.926739
1392.027082,-14137.933492,-5209.449386,3330.926739
1392.027394,-14508.036463,-306.438199,2886.803174
1392.027705,-10214.842000,2374.896044,2738.761985
1392.028017,-7698.141797,-536.266849,888.247130
1392.028329,-5921.647536,-4366.744339,-296.082377
1392.028640,-4219.173869,-3600.648841,-2146.597232
1392.028952,-5181.441594,229.828649,-2294.638420
1392.029264,-6143.709319,4290.134789,-592.164754
1392.029575,-8290.306550,3677.258390,518.144159
1392.029887,-12731.542202,-459.657299,888.247130
1392.030198,-14804.118840,-919.314598,1776.494261
1392.030510,-14285.974681,3370.820191,1110.308913
1392.030822,-11843.295072,7124.688131,370.102971
1392.031133,-9326.594869,5822.325785,-444.123565
1392.031445,-7846.182985,459.657299,-1850.514855
1392.031757,-5921.647536,-612.876398,-3256.906145
1392.032068,-4589.276840,1685.410096,-3330.926739
1392.032380,-4145.153275,4979.620737,-1702.473667
1392.032691,-7105.977043,4443.353888,-1480.411884
1392.033003,-12213.398043,306.438199,-0.000000
1392.033315,-14211.954086,-1762.019645,1332.370696
1392.033626,-14359.995275,306.438199,1332.370696
1392.033938,-11991.336260,3753.867940,1924.535449
1392.034250,-8364.327145,2987.772442,222.061783
1392.034561,-6439.791695,-1915.238745,-962.267725
1392.034873,-4959.379811,-4673.182538,-2072.576638
1392.035185,-4293.194464,-2298.286494,-1184.329507
1392.035496,-5995.668130,1302.362347,-592.164754
1392.035808,-8660.409521,1608.800546,1702.473667
1392.036119,-12287.418637,-1915.238745,2368.659014
1392.036431,-13693.809927,-3983.696590,3330.926739
1392.036743,-13323.706956,-1455.581446,2368.659014
1392.037054,-11103.089130,3140.991542,2368.659014
1392.037366,-7254.018232,2604.724693,1998.556043
1392.037678,-6809.894666,-1149.143247,-370.102971
1392.037989,-5181.441594,-3524.039291,-888.247130
1392.038301,-3923.091493,-2221.676944,-1554.432478
1392.038613,-4959.379811,689.485948,-666.185348
1392.038924,-6217.729913,1225.752797,1406.391290
1392.039236,-9844.739029,-3064.381992,1702.473667
1392.039547,-11843.295072,-6281.983084,3775.050304
1392.039859,-13101.645173,-4213.525239,3997.112087
1392.040171,-12657.521608,-459.657299,3330.926739
1392.040482,-10214.842000,995.924147,2368.659014
1392.040794,-8438.347739,-1378.971896,592.164754
1392.041106,-6513.812290,-4443.353888,-0.000000
1392.041417,-4737.318029,-3370.820191,-1554.432478
1392.041729,-5847.626942,-459.657299,-1036.288319
1392.042041,-6883.915261,1149.143247,740.205942
1392.042352,-9548.656652,-1072.533697,1406.391290
1392.042664,-11917.315666,-3217.601092,2960.823768
1392.042975,-12657.521608,-1991.848295,3034.844362
1392.043287,-12731.542202,1838.629195,1998.556043
1392.043599,-9770.718434,4749.792088,2146.597232
1392.043910,-8882.471304,2834.553343,-222.061783
1392.044222,-7105.977043,-306.438199,-1776.494261
1392.044534,-5181.441594,-536.266849,-3034.844362
1392.044845,-4885.359217,1378.971896,-3034.844362
1392.045157,-5033.400406,3677.258390,-1406.391290
1392.045469,-8586.388927,995.924147,-74.020594
1392.045780,-12139.377449,-2757.943793,1110.308913
1392.046092,-14359.995275,-2528.115143,1776.494261
1392.046403,-13989.892304,1378.971896,2220.617826
1392.046715,-11177.109724,4443.353888,1332.370696
1392.047027,-8956.491898,3370.820191,-222.061783
1392.047338,-7105.977043,-1225.752797,-1184.329507
1392.047650,-4737.318029,-1991.848295,-1924.535449
1392.047962,-4737.318029,1072.533697,-2960.823768
1392.048273,-5921.647536,4749.792088,-740.205942
1392.048585,-7328.038826,3907.087040,-296.082377
1392.048896,-11399.171507,0.000000,666.185348
1392.049208,-13767.830521,-1685.410096,1332.370696
1392.049520,-13915.871710,1378.971896,1258.350101
1392.049831,-11843.295072,5822.325785,962.267725
1392.050143,-9104.533087,5209.449386,-0.000000
1392.050455,-7179.997637,383.047749,-1036.288319
1392.050766,-4515.256246,-2374.896044,-1628.453072
1392.051078,-4071.132681,-459.657299,-2590.720797
1392.051390,-4737.318029,3064.381992,-1628.453072
1392.051701,-6883.915261,3064.381992,-0.000000
1392.052013,-10881.027347,-536.266849,1850.514855
1392.052324,-13471.748144,-4290.134789,2738.761985
1392.052636,-14137.933492,-3294.210641,2738.761985
1392.052948,-11621.233289,306.438199,3108.864956
1392.053259,-8808.450710,383.047749,3182.885551
1392.053571,-7254.018232,-4136.915689,1110.308913
1392.053883,-5329.482782,-7124.688131,296.082377
1392.054194,-5847.626942,-4519.963438,-1702.473667
1392.054506,-5995.668130,766.095498,-74.020594
1392.054818,-6661.853478,2145.067394,888.247130
1392.055129,-11029.068536,-1838.629195,1702.473667
1392.055441,-13027.624579,-4903.011187,3478.967927
1392.055752,-12953.603985,-2757.943793,3034.844362
1392.056064,-11843.295072,1608.800546,3478.967927
1392.056376,-9844.739029,2911.162892,2960.823768
1392.056687,-8438.347739,-1302.362347,962.267725
1392.056999,-6069.688724,-5362.668486,-518.144159
1392.057311,-4145.153275,-3830.477490,-1406.391290
1392.057622,-3701.029710,383.047749,-1554.432478
1392.057934,-4737.318029,2221.676944,518.144159
1392.058245,-9474.636058,-1302.362347,888.247130
1392.058557,-13101.645173,-5132.839837,2886.803174
1392.058868,-12805.562797,-2681.334243,2590.720797
1392.059180,-13101.645173,1685.410096,2072.576638
1392.059491,-10510.924376,4060.306139,1924.535449
1392.059803,-8142.265362,459.657299,-370.102971
1392.060114,-6587.832884,-2987.772442,-1110.308913
1392.060426,-4219.173869,-2757.943793,-1628.453072
1392.060737,-5477.523971,306.438199,-1480.411884
1392.061049,-6439.791695,2528.115143,-0.000000
1392.061360,-8438.347739,383.047749,518.144159
1392.061672,-12287.418637,-2451.505594,1554.432478
1392.061983,-13841.851115,-1762.019645,1850.514855
1392.062295,-14730.098246,2604.724693,1554.432478
1392.062606,-12065.356855,5975.544884,1184.329507
1392.062918,-9326.594869,3907.087040,-370.102971
1392.063229,-7476.080014,1225.752797,-1332.370696
1392.063541,-5107.421000,919.314598,-3330.926739
1392.063852,-4071.132681,3064.381992,-3182.885551
1392.064164,-3330.926739,5592.497135,-1850.514855
1392.064475,-6513.812290,3983.696590,-814.226536
1392.064787,-12287.418637,-612.876398,444.123565
1392.065098,-14508.036463,-1378.971896,1480.411884
1392.065410,-14952.160028,2145.067394,888.247130
1392.065722,-11621.233289,5362.668486,888.247130
1392.066033,-7920.203579,3753.867940,-370.102971
1392.066345,-5773.606348,-1532.190996,-1110.308913
1392.066656,-3923.091493,-3753.867940,-1998.556043
1392.066968,-4737.318029,-2068.457845,-1998.556043
1392.067279,-5107.421000,1838.629195,-148.041188
1392.067591,-7179.997637,2528.115143,1258.350101
1392.067902,-11621.233289,-2221.676944,2368.659014
1392.068214,-14211.954086,-4903.011187,3627.009116
1392.068525,-13915.871710,-1532.190996,3108.864956
1392.068837,-11177.109724,2681.334243,2738.761985
1392.069148,-8882.471304,2451.505594,1850.514855
1392.069460,-7550.100608,-2068.457845,-0.000000
1392.069771,-5477.523971,-3983.696590,-962.267725
1392.070083,-4737.318029,-2374.896044,-1628.453072
1392.070394,-5033.400406,1225.752797,-740.205942
1392.070706,-7402.059420,2451.505594,740.205942
1392.071017,-11695.253884,-1302.362347,2368.659014
1392.071329,-13249.686362,-5286.058936,3478.967927
1392.071640,-13101.645173,-3983.696590,3775.050304
1392.071952,-11621.233289,76.609550,3404.947333
1392.072263,-8586.388927,1149.143247,2442.679609
1392.072575,-7624.121203,-2757.943793,222.061783
1392.072886,-5255.462188,-5515.887586,-888.247130
1392.073198,-3923.091493,-5132.839837,-1480.411884
1392.073509,-5551.544565,-1455.581446,-666.185348
1392.073821,-7994.224174,153.219100,740.205942
1392.074132,-11547.212695,-1915.238745,1628.453072
1392.074444,-13989.892304,-4366.744339,3182.885551
1392.074755,-13915.871710,-3140.991542,3997.112087
1392.075067,-13767.830521,612.876398,3108.864956
1392.075378,-10214.842000,3524.039291,3108.864956
1392.075690,-7920.203579,1608.800546,-74.020594
1392.076001,-5477.523971,0.000000,-1554.432478
1392.076313,-3404.947333,153.219100,-3627.009116
1392.076624,-4071.132681,3294.210641,-3478.967927
1392.076936,-4071.132681,4903.011187,-1110.308913
1392.077247,-7402.059420,1991.848295,222.061783
1392.077559,-12509.480420,-1762.019645,1480.411884
1392.077870,-14434.015869,-1378.971896,1628.453072
1392.078182,-14211.954086,1532.190996,1776.494261
1392.078493,-11251.130318,4290.134789,1036.288319
1392.078805,-8438.347739,3064.381992,-592.164754
1392.079116,-7031.956449,-1532.190996,-2442.679609
1392.079428,-4737.318029,-2681.334243,-2812.782580
1392.079739,-4367.215058,-153.219100,-2664.741391
1392.080051,-4811.338623,3140.991542,-666.185348
1392.080362,-8660.409521,2451.505594,-0.000000
1392.080674,-13101.645173,-1685.410096,1924.535449
1392.080985,-14804.118840,-1378.971896,2590.720797
1392.081297,-15544.324782,2221.676944,1332.370696
1392.081609,-11991.336260,6435.202183,1702.473667
1392.081920,-8956.491898,5056.230287,-592.164754
1392.082232,-6809.894666,1072.533697,-962.267725
1392.082543,-4293.194464,-536.266849,-2220.617826
1392.082855,-2886.803174,612.876398,-3034.844362
1392.083166,-3478.967927,3677.258390,-444.123565
1392.083478,-7105.977043,3907.087040,592.164754
1392.083789,-10658.965565,-153.219100,2368.659014
1392.084101,-13545.768739,-3983.696590,1924.535449
1392.084412,-13915.871710,-2374.896044,2368.659014
1392.084724,-11103.089130,1149.143247,2664.741391
1392.085035,-7994.224174,1378.971896,1184.329507
1392.085347,-6439.791695,-2604.724693,370.102971
1392.085658,-5181.441594,-6511.811733,-222.061783
1392.085970,-4737.318029,-5515.887586,-666.185348
1392.086281,-6513.812290,-842.705048,370.102971
1392.086593,-8364.327145,842.705048,1702.473667
1392.086904,-12657.521608,-2374.896044,2738.761985
1392.087216,-13619.789333,-5286.058936,4367.215058
1392.087527,-13101.645173,-2757.943793,3552.988522
1392.087839,-11769.274478,1149.143247,2738.761985
1392.088150,-9104.533087,2451.505594,1924.535449
1392.088462,-6957.935855,-766.095498,740.205942
1392.088773,-5181.441594,-3907.087040,-666.185348
1392.089085,-4737.318029,-2911.162892,-1406.391290
1392.089396,-5477.523971,306.438199,-1110.308913
1392.089708,-6735.874072,2068.457845,-0.000000
1392.090019,-10214.842000,-306.438199,1258.350101
1392.090331,-12361.439231,-3753.867940,2294.638420
1392.090642,-13175.665768,-1915.238745,1036.288319
1392.090954,-11917.315666,2451.505594,1554.432478
1392.091265,-8364.327145,3217.601092,1406.391290
1392.091577,-7105.977043,-1225.752797,-444.123565
1392.091888,-6217.729913,-4366.744339,-1406.391290
1392.092200,-5477.523971,-3753.867940,-2146.597232
1392.092511,-6365.771101,-995.924147,-1480.411884
1392.092823,-6143.709319,2221.676944,1036.288319
1392.093134,-9992.780217,-229.828649,888.247130
1392.093446,-13027.624579,-3600.648841,2072.576638
1392.093757,-13693.809927,-2145.067394,2516.700203
1392.094069,-12953.603985,3064.381992,1850.514855
1392.094380,-10732.986159,6511.811733,1332.370696
1392.094692,-8734.430116,4290.134789,-370.102971
1392.095003,-6883.915261,1302.362347,-2590.720797
1392.095315,-4885.359217,1762.019645,-3997.112087
1392.095626,-2960.823768,4290.134789,-2738.761985
1392.095938,-4663.297435,4826.401637,-1702.473667
1392.096249,-9030.512492,2221.676944,-444.123565
1392.096561,-13397.727550,-995.924147,1480.411884
1392.096872,-15322.262999,-995.924147,1776.494261
1392.097184,-14285.974681,3600.648841,1480.411884
1392.097495,-11251.130318,4979.620737,2368.659014
1392.097807,-7550.100608,1838.629195,666.185348
1392.098119,-5329.482782,-3064.381992,-962.267725
1392.098430,-3478.967927,-2757.943793,-1110.308913
1392.098742,-3849.070898,-153.219100,-2368.659014
1392.099053,-5329.482782,2374.896044,-0.000000
1392.099365,-8142.265362,1838.629195,888.247130
1392.099676,-12731.542202,-1532.190996,2368.659014
1392.099988,-14434.015869,-2528.115143,3182.885551
1392.100299,-14804.118840,76.609550,3256.906145
1392.100611,-12657.521608,3447.429741,2960.823768
1392.100922,-8586.388927,2528.115143,2072.576638
1392.101234,-6883.915261,-1532.190996,-0.000000
1392.101545,-3997.112087,-3753.867940,-1406.391290
1392.101857,-2960.823768,-1838.629195,-1628.453072
1392.102168,-3627.009116,1532.190996,-740.205942
1392.102480,-5625.565159,1532.190996,666.185348
1392.102791,-10955.047942,-1838.629195,2886.803174
1392.103103,-13101.645173,-4903.011187,4441.235652
1392.103414,-13471.748144,-3370.820191,4367.215058
1392.103726,-11547.212695,536.266849,3627.009116
1392.104037,-8586.388927,1302.362347,2220.617826
1392.104349,-6513.812290,-2528.115143,444.123565
1392.104660,-4293.194464,-5669.106685,-1036.288319
1392.104972,-4293.194464,-4213.525239,-2368.659014
1392.105283,-5773.606348,-995.924147,-1406.391290
1392.105595,-8586.388927,1072.533697,370.102971
1392.105906,-12731.542202,-1838.629195,1406.391290
1392.106218,-14656.077652,-4443.353888,2960.823768
1392.106529,-13693.809927,-3064.381992,3182.885551
1392.106841,-12805.562797,306.438199,2590.720797
1392.107152,-9474.636058,2298.286494,1628.453072
1392.107464,-8142.265362,612.876398,-592.164754
1392.107775,-6217.729913,-1455.581446,-1628.453072
1392.108087,-4663.297435,-383.047749,-3034.844362
1392.108398,-4293.194464,2374.896044,-2738.761985
1392.108710,-5625.565159,3983.696590,-888.247130
1392.109021,-9400.615463,842.705048,222.061783
1392.109333,-12583.501014,-2834.553343,1258.350101
1392.109644,-14137.933492,-995.924147,1184.329507
1392.109956,-13767.830521,3677.258390,1628.453072
1392.110267,-11325.150913,5056.230287,814.226536
1392.110579,-9992.780217,1608.800546,-444.123565
1392.110890,-7846.182985,-1915.238745,-1554.432478
1392.111202,-4811.338623,-2145.067394,-2368.659014
1392.111513,-4885.359217,919.314598,-2664.741391
1392.111825,-5107.421000,3677.258390,-148.041188
1392.112136,-7846.182985,612.876398,-74.020594
1392.112448,-12213.398043,-3830.477490,1998.556043
1392.112759,-13619.789333,-1915.238745,1850.514855
1392.113071,-13693.809927,3600.648841,1036.288319
1392.113382,-11547.212695,6052.154434,1036.288319
1392.113694,-8808.450710,3447.429741,-296.082377
1392.114006,-6513.812290,0.000000,-666.185348
1392.114317,-4663.297435,-919.314598,-2220.617826
1392.114629,-4515.256246,2221.676944,-2590.720797
1392.114940,-5403.503377,4903.011187,-370.102971
1392.115252,-8216.285956,3677.258390,740.205942
1392.115563,-11177.109724,-995.924147,2960.823768
1392.115875,-12139.377449,-2757.943793,2442.679609
1392.116186,-12657.521608,0.000000,2368.659014
1392.116498,-10066.800811,3294.210641,2590.720797
1392.116809,-7698.141797,919.314598,1628.453072
1392.117121,-6957.935855,-3600.648841,-0.000000
1392.117432,-4959.379811,-4443.353888,-444.123565
1392.117744,-4737.318029,-3217.601092,-592.164754
1392.118055,-5181.441594,76.609550,222.061783
1392.118367,-7031.956449,842.705048,740.205942
1392.118678,-11029.068536,-2987.772442,2368.659014
1392.118990,-13027.624579,-5056.230287,3923.091493
1392.119301,-12731.542202,-2528.115143,3775.050304
1392.119613,-12361.439231,1608.800546,3034.844362
1392.119924,-9252.574275,1762.019645,2294.638420
1392.120236,-6883.915261,-1915.238745,1184.329507
1392.120547,-5107.421000,-4136.915689,-370.102971
1392.120859,-4959.379811,-2451.505594,-1924.535449
1392.121170,-5403.503377,1685.410096,-1110.308913
1392.121482,-7624.121203,2221.676944,-592.164754
1392.121793,-10955.047942,-766.095498,1406.391290
1392.122105,-13101.645173,-3753.867940,2368.659014
1392.122416,-13545.768739,-2987.772442,1850.514855
1392.122728,-11917.315666,919.314598,2072.576638
1392.123039,-9770.718434,1991.848295,1998.556043
1392.123351,-9104.533087,-1532.190996,-0.000000
1392.123662,-7105.977043,-3064.381992,-962.267725
1392.123974,-5033.400406,-2451.505594,-1406.391290
1392.124285,-4441.235652,306.438199,-1554.432478
1392.124597,-5773.606348,1532.190996,-666.185348
1392.124908,-9622.677246,-383.047749,-814.226536
1392.125220,-13175.665768,-3447.429741,962.267725
1392.125531,-14063.912898,-1072.533697,1036.288319
1392.125843,-13915.871710,3983.696590,814.226536
1392.126154,-12065.356855,5822.325785,888.247130
1392.126466,-9474.636058,1915.238745,-0.000000
1392.126777,-7328.038826,-995.924147,-1036.288319
1392.127089,-4885.359217,0.000000,-2294.638420
1392.127400,-3775.050304,3524.039291,-3108.864956
1392.127712,-4515.256246,5592.497135,-1480.411884
1392.128023,-7624.121203,2834.553343,-962.267725
1392.128335,-11547.212695,-536.266849,370.102971
1392.128646,-13101.645173,0.000000,296.082377
1392.128958,-14211.954086,2834.553343,222.061783
1392.129269,-11843.295072,4519.963438,1480.411884
1392.129581,-9030.512492,1072.533697,296.082377
1392.129893,-7476.080014,-3294.210641,-888.247130
1392.130204,-4959.379811,-4213.525239,-1332.370696
1392.130516,-4441.235652,-1225.752797,-1258.350101
1392.130827,-3849.070898,1608.800546,-74.020594
1392.131139,-6291.750507,0.000000,888.247130
1392.131450,-10288.862594,-3600.648841,2960.823768
1392.131762,-12953.603985,-3753.867940,3552.988522
1392.132073,-13841.851115,229.828649,3552.988522
1392.132385,-11843.295072,4366.744339,3404.947333
1392.132696,-8882.471304,3447.429741,1628.453072
1392.133008,-7476.080014,-612.876398,222.061783
1392.133319,-4959.379811,-1915.238745,-592.164754
1392.133631,-3849.070898,383.047749,-1628.453072
1392.133942,-3997.112087,3600.648841,-888.247130
1392.134254,-6217.729913,2604.724693,296.082377
1392.134565,-11029.068536,-1225.752797,1554.432478
1392.134877,-13249.686362,-3447.429741,3182.885551
1392.135188,-14137.933492,-1915.238745,3478.967927
1392.135500,-12139.377449,229.828649,3997.112087
1392.135811,-9696.697840,383.047749,2442.679609
1392.136123,-7772.162391,-2757.943793,1110.308913
1392.136434,-4959.379811,-5286.058936,-592.164754
1392.136746,-3404.947333,-4060.306139,-1776.494261
1392.137057,-5033.400406,-766.095498,-666.185348
1392.137369,-6439.791695,229.828649,592.164754
1392.137680,-11325.150913,-2451.505594,1776.494261
1392.137992,-14137.933492,-4673.182538,3775.050304
1392.138303,-14508.036463,-2451.505594,3108.864956
1392.138615,-13397.727550,1838.629195,2442.679609
1392.138926,-10807.006753,2145.067394,1998.556043
1392.139238,-7994.224174,-612.876398,592.164754
1392.139549,-5255.462188,-2834.553343,-1258.350101
1392.139861,-4441.235652,-1302.362347,-2886.803174
1392.140172,-4811.338623,1072.533697,-2368.659014
1392.140484,-6217.729913,2528.115143,-888.247130
1392.140795,-9770.718434,229.828649,222.061783
1392.141107,-12139.377449,-2298.286494,1628.453072
1392.141418,-13323.706956,-766.095498,1184.329507
1392.141730,-12509.480420,2681.334243,1258.350101
1392.142041,-9474.636058,4290.134789,1258.350101
1392.142353,-7920.203579,1915.238745,-888.247130
1392.142664,-6661.853478,-383.047749,-1702.473667
1392.142976,-4737.318029,536.266849,-2516.700203
1392.143287,-4515.256246,2145.067394,-2368.659014
1392.143599,-5847.626942,2451.505594,-666.185348
1392.143910,-8512.368333,1149.143247,-74.020594
1392.144222,-12139.377449,-1532.190996,1258.350101
1392.144533,-14804.118840,-842.705048,1036.288319
1392.144845,-14508.036463,2987.772442,962.267725
1392.145156,-11991.336260,5209.449386,666.185348
1392.145468,-9622.677246,2604.724693,-0.000000
1392.145780,-7550.100608,-1378.971896,-962.267725
1392.146091,-5329.482782,-1149.143247,-2368.659014
1392.146403,-4959.379811,2221.676944,-2368.659014
1392.146714,-4811.338623,4136.915689,-962.267725
1392.147026,-6957.935855,1991.848295,-74.020594
1392.147337,-9844.739029,-2221.676944,2220.617826
1392.147649,-12213.398043,-3140.991542,2368.659014
1392.147960,-13175.665768,-689.485948,2368.659014
1392.148272,-11769.274478,2834.553343,2294.638420
1392.148583,-9548.656652,1149.143247,888.247130
1392.148895,-7328.038826,-2298.286494,814.226536
1392.149206,-4959.379811,-4749.792088,-518.144159
1392.149518,-4145.153275,-2604.724693,-1406.391290
1392.149829,-5033.400406,766.095498,-222.061783
1392.150141,-7031.956449,1072.533697,888.247130
1392.150452,-11399.171507,-1762.019645,1998.556043
1392.150764,-13545.768739,-3217.601092,4145.153275
1392.151075,-13915.871710,-2451.505594,4071.132681
1392.151387,-12139.377449,459.657299,3849.070898
1392.151698,-9326.594869,1072.533697,2812.782580
1392.152010,-7328.038826,-2068.457845,962.267725
1392.152321,-4737.318029,-3983.696590,-592.164754
1392.152633,-3552.988522,-2834.553343,-1702.473667
1392.152944,-4737.318029,0.000000,-1628.453072
1392.153256,-5995.668130,1608.800546,-518.144159
1392.153567,-10732.986159,-1532.190996,1332.370696
1392.153879,-14063.912898,-4366.744339,3034.844362
1392.154190,-14211.954086,-3217.601092,3330.926739
1392.154502,-13693.809927,-153.219100,3182.885551
1392.154813,-9992.780217,766.095498,2442.679609
1392.155125,-7698.141797,-1838.629195,-296.082377
1392.155436,-5255.462188,-2987.772442,-1332.370696
1392.155748,-3034.844362,-1991.848295,-2294.638420
1392.156059,-4219.173869,76.609550,-1406.391290
1392.156371,-6809.894666,689.485948,592.164754
1392.156682,-10807.006753,-536.266849,1628.453072
1392.156994,-13397.727550,-2145.067394,2368.659014
1392.157305,-14137.933492,-536.266849,2072.576638
1392.157617,-12583.501014,3217.601092,1554.432478
1392.157928,-10436.903782,5132.839837,444.123565
1392.158240,-8956.491898,1915.238745,-814.226536
1392.158551,-7254.018232,766.095498,-1776.494261
1392.158862,-6439.791695,1378.971896,-2590.720797
1392.159174,-5699.585753,3753.867940,-2590.720797
1392.159485,-5403.503377,5286.058936,-1406.391290
1392.159797,-8216.285956,2681.334243,-814.226536
1392.160108,-10362.883188,153.219100,1036.288319
1392.160420,-12435.459826,689.485948,814.226536
1392.160731,-13471.748144,3677.258390,592.164754
1392.161042,-11473.192101,4673.182538,1184.329507
1392.161354,-9178.553681,2298.286494,222.061783
1392.161665,-7328.038826,-1762.019645,-740.205942
1392.161977,-5921.647536,-2451.505594,-1702.473667
1392.162288,-5107.421000,0.000000,-1998.556043
1392.162599,-5551.544565,1838.629195,-814.226536
1392.162911,-7920.203579,919.314598,1332.370696
1392.163222,-11325.150913,-3677.258390,2738.761985
1392.163534,-13249.686362,-3217.601092,3775.050304
1392.163845,-13545.768739,0.000000,2590.720797
1392.164157,-11251.130318,3447.429741,2368.659014
1392.164468,-7476.080014,3140.991542,370.102971
1392.164779,-5921.647536,-1302.362347,-370.102971
1392.165091,-5107.421000,-4060.306139,-962.267725
1392.165402,-3849.070898,-1608.800546,-1406.391290
1392.165714,-5329.482782,1991.848295,-666.185348
1392.166025,-8068.244768,76.609550,1258.350101
1392.166336,-11695.253884,-3677.258390,2960.823768
1392.166648,-12805.562797,-4903.011187,3552.988522
1392.166959,-12361.439231,-2528.115143,3701.029710
1392.167271,-10288.862594,76.609550,3182.885551
1392.167582,-7920.203579,0.000000,1554.432478
1392.167894,-5995.668130,-1991.848295,888.247130
1392.168205,-3701.029710,-4519.963438,-518.144159
1392.168516,-4737.318029,-3753.867940,-1998.556043
1392.168828,-6809.894666,0.000000,-666.185348
1392.169139,-8734.430116,995.924147,592.164754
1392.169451,-11695.253884,-2604.724693,2368.659014
1392.169762,-14285.974681,-4290.134789,3108.864956
1392.170073,-14656.077652,-2681.334243,3034.844362
1392.170385,-12731.542202,919.314598,2294.638420
1392.170696,-9474.636058,2145.067394,1776.494261
1392.171008,-7772.162391,-536.266849,-74.020594
1392.171319,-5773.606348,-2221.676944,-1406.391290
1392.171631,-4589.276840,-536.266849,-2738.761985
1392.171942,-4737.318029,2145.067394,-2220.617826
1392.172253,-6439.791695,3217.601092,-148.041188
1392.172565,-11029.068536,612.876398,370.102971
1392.172876,-13767.830521,-1225.752797,1998.556043
1392.173188,-14656.077652,0.000000,1332.370696
1392.173499,-13175.665768,4060.306139,1036.288319
1392.173810,-9400.615463,5439.278036,-0.000000
1392.174122,-6513.812290,1915.238745,-1776.494261
1392.174433,-4737.318029,-1838.629195,-2072.576638
1392.174745,-5625.565159,-1072.533697,-2738.761985
1392.175056,-5699.585753,3217.601092,-2220.617826
1392.175368,-8142.265362,5362.668486,-1554.432478
1392.175679,-10955.047942,2987.772442,592.164754
1392.175990,-13101.645173,-919.314598,1776.494261
1392.176302,-13397.727550,-306.438199,2146.597232
1392.176613,-12361.439231,2681.334243,1628.453072
1392.176925,-9696.697840,5286.058936,888.247130
1392.177236,-7105.977043,3524.039291,-0.000000
1392.177547,-5921.647536,-229.828649,-1480.411884
1392.177859,-4071.132681,-536.266849,-2368.659014
1392.178170,-4737.318029,459.657299,-2072.576638
1392.178482,-5921.647536,3983.696590,-518.144159
1392.178793,-8660.409521,3140.991542,-148.041188
1392.179105,-12435.459826,-1302.362347,2294.638420
1392.179416,-13175.665768,-3600.648841,3627.009116
1392.179727,-12435.459826,-1149.143247,2738.761985
1392.180039,-9770.718434,919.314598,2738.761985
1392.180350,-6883.915261,0.000000,1258.350101
1392.180662,-5181.441594,-3600.648841,-74.020594
1392.180973,-3997.112087,-4903.011187,-444.123565
1392.181285,-4293.194464,-4060.306139,-222.061783
1392.181596,-6513.812290,-2068.457845,1110.308913
1392.181907,-9252.574275,-1685.410096,2294.638420
1392.182219,-13027.624579,-3753.867940,3034.844362
1392.182530,-14359.995275,-4136.915689,2886.803174
1392.182842,-14137.933492,-1685.410096,3108.864956
1392.183153,-11473.192101,995.924147,2886.803174
1392.183464,-8290.306550,306.438199,1628.453072
1392.183776,-7179.997637,-2298.286494,-0.000000
1392.184087,-5033.400406,-2068.457845,-1110.308913
1392.184399,-4811.338623,0.000000,-2220.617826
1392.184710,-5181.441594,1532.190996,-888.247130
1392.185022,-7254.018232,1302.362347,222.061783
1392.185333,-10288.862594,-2528.115143,1998.556043
1392.185644,-12509.480420,-4596.572988,2516.700203
1392.185956,-12805.562797,-3447.429741,2368.659014
1392.186267,-11399.171507,-1455.581446,1554.432478
1392.186579,-9252.574275,-1685.410096,888.247130
1392.186890,-7328.038826,-3983.696590,-518.144159
1392.187201,-6217.729913,-5362.668486,-1850.514855
1392.187513,-5847.626942,-3600.648841,-1776.494261
1392.187824,-7105.977043,-1532.190996,-814.226536
1392.188136,-9104.533087,-1378.971896,148.041188
1392.188447,-10288.862594,-2451.505594,1702.473667
1392.188759,-12287.418637,-2987.772442,2294.638420
1392.189070,-11843.295072,-995.924147,2368.659014
1392.189381,-11621.233289,1532.190996,888.247130
1392.189693,-10288.862594,1378.971896,-0.000000
1392.190004,-6661.853478,1608.800546,-888.247130
1392.190316,-6069.688724,153.219100,-2664.741391
1392.190627,-5699.585753,229.828649,-3108.864956
1392.190938,-5329.482782,919.314598,-3404.947333
1392.191250,-7920.203579,919.314598,-2590.720797
1392.191561,-9326.594869,1225.752797,-888.247130
1392.191873,-11177.109724,612.876398,-74.020594
1392.192184,-12287.418637,-689.485948,1036.288319
1392.192496,-11991.336260,-1532.190996,2072.576638
1392.192807,-10510.924376,-2374.896044,1850.514855
1392.193118,-8438.347739,-1685.410096,962.267725
1392.193430,-6587.832884,-1991.848295,-0.000000
1392.193741,-5329.482782,-3524.039291,-444.123565
1392.194053,-4219.173869,-6128.763984,-666.185348
1392.194364,-4959.379811,-6511.811733,-444.123565
1392.194675,-7994.224174,-5439.278036,-666.185348
1392.194987,-10955.047942,-4443.353888,666.185348
1392.195298,-13027.624579,-2604.724693,1554.432478
1392.195610,-13249.686362,-2528.115143,2516.700203
1392.195921,-13249.686362,-3830.477490,2886.803174
1392.196233,-11843.295072,-3907.087040,3849.070898
1392.196544,-10214.842000,-1991.848295,2738.761985
1392.196855,-7994.224174,-1149.143247,1628.453072
1392.197167,-4219.173869,-1225.752797,-0.000000
1392.197478,-1702.473667,-3140.991542,-592.164754
1392.197790,-1258.350101,-5362.668486,-1184.329507
1392.198101,-2960.823768,-5898.935335,-1406.391290
1392.198412,-6513.812290,-4979.620737,-1258.350101
1392.198724,-11325.150913,-3294.210641,296.082377
1392.199035,-14952.160028,-2911.162892,1702.473667
1392.199347,-16876.695478,-3294.210641,3256.906145
1392.199658,-16580.613101,-4060.306139,4293.194464
1392.199970,-13619.789333,-5056.230287,4811.338623
1392.200281,-9992.780217,-5209.449386,2886.803174
1392.200592,-6735.874072,-4443.353888,666.185348
1392.200904,-3478.967927,-4136.915689,-666.185348
1392.201215,-1406.391290,-5132.839837,-962.267725
1392.201527,-1776.494261,-7124.688131,-1332.370696
1392.201838,-3923.091493,-6281.983084,-1184.329507
1392.202149,-6439.791695,-5745.716235,-370.102971
1392.202461,-10658.965565,-4826.401637,370.102971
1392.202772,-13471.748144,-4136.915689,1554.432478
1392.203084,-14952.160028,-3294.210641,2220.617826
1392.203395,-15470.304188,-2221.676944,2294.638420
1392.203707,-14656.077652,-153.219100,1110.308913
1392.204018,-12139.377449,919.314598,1480.411884
1392.204329,-8364.327145,612.876398,518.144159
1392.204641,-4737.318029,-1302.362347,666.185348
1392.204952,-2072.576638,-3524.039291,148.041188
1392.205264,-1924.535449,-4903.011187,-962.267725
1392.205575,-3478.967927,-4136.915689,-2146.597232
1392.205886,-4885.359217,-2451.505594,-2738.761985
1392.206198,-7994.224174,-995.924147,-2368.659014
1392.206509,-11843.295072,-2145.067394,-1184.329507
1392.206821,-14137.933492,-1762.019645,814.226536
1392.207132,-15322.262999,-2298.286494,2220.617826
1392.207444,-14211.954086,-1991.848295,2590.720797
1392.207755,-11843.295072,-2757.943793,2368.659014
1392.208066,-8882.471304,-3447.429741,1110.308913
1392.208378,-6661.853478,-3753.867940,518.144159
1392.208689,-5033.400406,-2757.943793,-222.061783
1392.209001,-4737.318029,-1072.533697,-222.061783
1392.209312,-6217.729913,-1378.971896,-814.226536
1392.209623,-7254.018232,-1838.629195,-1258.350101
1392.209935,-7772.162391,-1915.238745,-962.267725
1392.210246,-8290.306550,-2145.067394,-592.164754
1392.210558,-8586.388927,-1762.019645,148.041188
1392.210869,-9770.718434,-2604.724693,296.082377
1392.211181,-11695.253884,-2834.553343,666.185348
1392.211492,-12361.439231,-2221.676944,1480.411884
1392.211803,-11399.171507,-2221.676944,1554.432478
1392.212115,-9992.780217,-2451.505594,1702.473667
1392.212426,-7772.162391,-3370.820191,1184.329507
1392.212738,-6069.688724,-4596.572988,444.123565
1392.213049,-5181.441594,-4596.572988,-74.020594
1392.213361,-5181.441594,-3447.429741,-1110.308913
1392.213672,-5773.606348,-3064.381992,-740.205942
1392.213983,-7179.997637,-2681.334243,-444.123565
1392.214295,-9252.574275,-4290.134789,444.123565
1392.214606,-10658.965565,-4290.134789,1332.370696
1392.214918,-11917.315666,-4826.401637,2072.576638
1392.215229,-13101.645173,-5362.668486,3108.864956
1392.215540,-13027.624579,-5362.668486,3108.864956
1392.215852,-12435.459826,-5515.887586,1850.514855
1392.216163,-11103.089130,-3600.648841,2072.576638
1392.216475,-9474.636058,-1608.800546,888.247130
1392.216786,-7105.977043,-383.047749,-74.020594
1392.217098,-6069.688724,76.609550,-1110.308913
1392.217409,-5107.421000,0.000000,-814.226536
1392.217720,-4811.338623,-919.314598,-222.061783
1392.218032,-6069.688724,-2298.286494,740.205942
1392.218343,-7254.018232,-3753.867940,962.267725
1392.218655,-9400.615463,-4596.572988,740.205942
1392.218966,-11399.171507,-5209.449386,1184.329507
1392.219277,-11917.315666,-5515.887586,1480.411884
1392.219589,-11843.295072,-5898.935335,1776.494261
1392.219900,-11251.130318,-6128.763984,2072.576638
1392.220212,-10214.842000,-6128.763984,1998.556043
1392.220523,-8068.244768,-4903.011187,2294.638420
1392.220835,-6365.771101,-3524.039291,1332.370696
1392.221146,-5403.503377,-1915.238745,888.247130
1392.221457,-4737.318029,-995.924147,148.041188
1392.221769,-4885.359217,-383.047749,-0.000000
1392.222080,-5921.647536,459.657299,-518.144159
1392.222392,-7624.121203,612.876398,-740.205942
1392.222703,-9918.759623,-383.047749,-296.082377
1392.223014,-11325.150913,-1608.800546,148.041188
1392.223326,-11103.089130,-1608.800546,-0.000000
1392.223637,-11029.068536,-2451.505594,222.061783
1392.223949,-8660.409521,-2451.505594,518.144159
1392.224260,-8438.347739,-2451.505594,370.102971
1392.224572,-8216.285956,-3064.381992,-0.000000
1392.224883,-5625.565159,-2757.943793,370.102971
1392.225194,-6069.688724,-3447.429741,-518.144159
1392.225506,-7550.100608,-4366.744339,1036.288319
1392.225817,-11991.336260,-4979.620737,592.164754
1392.226129,-12435.459826,-3447.429741,1628.453072
1392.226440,-12657.521608,-2451.505594,1332.370696
1392.226751,-12361.439231,-2834.553343,2146.597232
1392.227063,-11843.295072,-4136.915689,1628.453072
1392.227374,-10510.924376,-4366.744339,1554.432478
1392.227686,-8438.347739,-3217.601092,2146.597232
1392.227997,-8216.285956,-1455.581446,1702.473667
1392.228309,-9326.594869,0.000000,2072.576638
1392.228620,-9844.739029,1302.362347,1036.288319
1392.228931,-8512.368333,76.609550,1628.453072
1392.229243,-7328.038826,-306.438199,1480.411884
1392.229554,-6587.832884,0.000000,1554.432478
1392.229866,-7994.224174,-766.095498,1036.288319
1392.230177,-7698.141797,-3447.429741,2664.741391
1392.230488,-9918.759623,-4596.572988,2590.720797
1392.230800,-9252.574275,-1991.848295,4441.235652
1392.231111,-11325.150913,-2068.457845,4663.297435
1392.231423,-12435.459826,-2987.772442,5995.668130
1392.231734,-9326.594869,-1378.971896,4663.297435
1392.232046,-7402.059420,919.314598,4071.132681
1392.232357,-6291.750507,1225.752797,3552.988522
1392.232668,-5921.647536,153.219100,2812.782580
1392.232980,-7105.977043,-766.095498,1776.494261
1392.233291,-5551.544565,689.485948,3627.009116
1392.233603,-7550.100608,-153.219100,2738.761985
1392.233914,-10955.047942,-766.095498,4589.276840
1392.234225,-10658.965565,0.000000,6513.812290
1392.234537,-9918.759623,-1608.800546,5551.544565
1392.234848,-7772.162391,-1685.410096,6587.832884
1392.235160,-8364.327145,-306.438199,4811.338623
1392.235471,-7624.121203,766.095498,5329.482782
1392.235783,-6291.750507,1149.143247,3701.029710
1392.236094,-5699.585753,1915.238745,4219.173869
1392.236405,-6957.935855,2911.162892,3627.009116
1392.236717,-8956.491898,2604.724693,4145.153275
1392.237028,-9178.553681,1608.800546,4589.276840
1392.237340,-8586.388927,766.095498,4959.379811
1392.237651,-7920.203579,-229.828649,4959.379811
1392.237962,-8364.327145,-1608.800546,4737.318029
1392.238274,-9252.574275,-2451.505594,5329.482782
1392.238585,-8808.450710,-2451.505594,5329.482782
1392.238897,-8808.450710,0.000000,5699.585753
1392.239208,-9400.615463,842.705048,3923.091493
1392.239520,-10732.986159,1072.533697,4663.297435
1392.239831,-10658.965565,1915.238745,3627.009116
1392.240142,-8216.285956,2528.115143,3701.029710
1392.240454,-7328.038826,1915.238745,3182.885551
1392.240765,-6809.894666,306.438199,3034.844362
1392.241077,-7550.100608,-536.266849,2812.782580
1392.241388,-6661.853478,-995.924147,2812.782580
1392.241700,-6439.791695,-1532.190996,3182.885551
1392.242011,-7772.162391,-1838.629195,3404.947333
1392.242322,-8808.450710,-1991.848295,3182.885551
1392.242634,-10436.903782,-1685.410096,3182.885551
1392.242945,-10584.944971,-919.314598,2960.823768
1392.243257,-11473.192101,536.266849,3404.947333
1392.243568,-11843.295072,842.705048,2738.761985
1392.243879,-11325.150913,1072.533697,2072.576638
1392.244191,-9400.615463,1378.971896,1628.453072
1392.244502,-8068.244768,1378.971896,1776.494261
1392.244814,-8438.347739,459.657299,2442.679609
1392.245125,-9252.574275,-1762.019645,3256.906145
1392.245437,-9474.636058,-2374.896044,3997.112087
1392.245748,-9104.533087,-2987.772442,5033.400406
1392.246059,-8956.491898,-2221.676944,4515.256246
1392.246371,-8216.285956,-2068.457845,3182.885551
1392.246682,-7476.080014,-383.047749,1998.556043
1392.246994,-6661.853478,383.047749,814.226536
1392.247305,-7105.977043,1991.848295,-0.000000
1392.247616,-9030.512492,2221.676944,518.144159
1392.247928,-11103.089130,2451.505594,962.267725
1392.248239,-12657.521608,2145.067394,3330.926739
1392.248551,-12361.439231,919.314598,4589.276840
1392.248862,-11843.295072,0.000000,5329.482782
1392.249174,-10066.800811,-1378.971896,5551.544565
1392.249485,-7105.977043,-1915.238745,3923.091493
1392.249796,-3108.864956,-2145.067394,2368.659014
1392.250108,-1110.308913,-1991.848295,1110.308913
1392.250419,-3404.947333,-1455.581446,518.144159
1392.250731,-7624.121203,229.828649,2294.638420
1392.251042,-11547.212695,689.485948,3923.091493
1392.251353,-14359.995275,1302.362347,6069.688724
1392.251665,-15544.324782,766.095498,6735.874072
1392.251976,-12583.501014,306.438199,5699.585753
1392.252288,-8216.285956,0.000000,4515.256246
1392.252599,-4441.235652,-842.705048,2368.659014
1392.252911,-2220.617826,-612.876398,444.123565
1392.253222,-2146.597232,-612.876398,-0.000000
1392.253533,-4441.235652,76.609550,666.185348
1392.253845,-8142.265362,536.266849,1776.494261
1392.254156,-11991.336260,1225.752797,3627.009116
1392.254468,-14878.139434,1225.752797,4293.194464
1392.254779,-14804.118840,-306.438199,5625.565159
1392.255090,-11917.315666,766.095498,4885.359217
1392.255402,-8882.471304,-306.438199,3330.926739
1392.255713,-6291.750507,-612.876398,2146.597232
1392.256025,-5477.523971,-612.876398,1998.556043
1392.256336,-6735.874072,-229.828649,2516.700203
1392.256648,-9474.636058,383.047749,5033.400406
1392.256959,-12805.562797,536.266849,6661.853478
1392.257265,-13471.748144,-306.438199,7920.203579
1392.257577,-12065.356855,-995.924147,6661.853478
1392.257888,-8364.327145,459.657299,4663.297435
1392.258199,-5033.400406,2145.067394,1850.514855
1392.258511,-3775.050304,2834.553343,-0.000000
1392.258822,-4219.173869,2374.896044,-666.185348
1392.259134,-6365.771101,1149.143247,888.247130
1392.259445,-9992.780217,383.047749,2664.741391
1392.259757,-13101.645173,-536.266849,5625.565159
1392.260068,-13915.871710,-1838.629195,7772.162391
1392.260379,-13767.830521,-3140.991542,9474.636058
1392.260691,-12213.398043,-3370.820191,9992.780217
1392.261002,-9474.636058,-2604.724693,8882.471304
1392.261314,-6291.750507,-1149.143247,6291.750507
1392.261625,-3182.885551,0.000000,3552.988522
1392.261937,-1850.514855,2145.067394,962.267725
1392.262248,-1554.432478,4060.306139,296.082377
1392.262559,-3997.112087,3524.039291,-0.000000
1392.262871,-6291.750507,3064.381992,2072.576638
1392.263182,-9030.512492,1378.971896,3330.926739
1392.263494,-12139.377449,-229.828649,5551.544565
1392.263805,-14508.036463,-1149.143247,7105.977043
1392.264117,-15766.386565,-1532.190996,7254.018232
1392.264428,-13175.665768,306.438199,8068.244768
1392.264740,-10140.821405,-536.266849,6069.688724
1392.265051,-7254.018232,-612.876398,5699.585753
1392.265362,-4441.235652,-459.657299,4293.194464
1392.265674,-1702.473667,0.000000,2664.741391
1392.265985,-740.205942,1302.362347,1776.494261
1392.266297,-1776.494261,383.047749,592.164754
1392.266608,-3849.070898,689.485948,-0.000000
1392.266920,-7179.997637,-459.657299,-666.185348
1392.267231,-10362.883188,-612.876398,962.267725
1392.267542,-14285.974681,-1302.362347,2516.700203
1392.267854,-18875.251521,-919.314598,4737.318029
1392.268165,-20281.642811,-459.657299,6587.832884
1392.268477,-17690.922014,-919.314598,6439.791695
1392.268788,-12435.459826,-689.485948,5699.585753
1392.269100,-6587.832884,-1072.533697,3034.844362
1392.269411,370.102971,-842.705048,-296.082377
1392.269722,4663.297435,766.095498,-4885.359217
1392.270034,3997.112087,2451.505594,-7105.977043
1392.270345,370.102971,1991.848295,-7328.038826
1392.270657,-6587.832884,1455.581446,-5181.441594
1392.270968,-15026.180623,0.000000,-1776.494261
1392.271280,-21762.054695,0.000000,3108.864956
1392.271591,-25241.022622,0.000000,5921.647536
1392.271902,-24204.734303,-1302.362347,6513.812290
1392.272214,-18801.230927,-2374.896044,4737.318029
1392.272525,-10732.986159,-2374.896044,2294.638420
1392.272837,-3478.967927,-1149.143247,-222.061783
1392.273148,1998.556043,0.000000,-4811.338623
1392.273460,4737.318029,1302.362347,-7476.080014
1392.273771,3182.885551,1225.752797,-7920.203579
1392.274083,-1776.494261,842.705048,-5477.523971
1392.274394,-10584.944971,-1302.362347,-2886.803174
1392.274705,-18801.230927,-459.657299,1184.329507
1392.275017,-24574.837274,612.876398,4293.194464
1392.275328,-24870.919651,459.657299,6069.688724
1392.275640,-19541.436869,0.000000,5847.626942
1392.275951,-11917.315666,-1149.143247,3627.009116
1392.276263,-4145.153275,-383.047749,1554.432478
1392.276574,1850.514855,0.000000,-1554.432478
1392.276885,5181.441594,383.047749,-3849.070898
1392.277197,4737.318029,153.219100,-3775.050304
1392.277508,444.123565,-1532.190996,-3627.009116
1392.277820,-5847.626942,-2451.505594,-2220.617826
1392.278131,-12731.542202,229.828649,444.123565
1392.278443,-19245.354492,1915.238745,3034.844362
1392.278754,-23242.466579,612.876398,5551.544565
1392.279065,-20725.766376,-1072.533697,7624.121203
1392.279377,-14582.057057,-2451.505594,7328.038826
1392.279688,-7105.977043,-2834.553343,5551.544565
1392.280000,222.061783,-2221.676944,2146.597232
1392.280311,4589.276840,-1149.143247,-1924.535449
1392.280623,4367.215058,766.095498,-2664.741391
1392.280934,-740.205942,2451.505594,-1702.473667
1392.281246,-8142.265362,2528.115143,-592.164754
1392.281557,-14211.954086,4519.963438,666.185348
1392.281868,-17838.963202,5362.668486,1850.514855
1392.282180,-16876.695478,4443.353888,2590.720797
1392.282491,-11843.295072,842.705048,2960.823768
1392.282803,-7550.100608,-2221.676944,2886.803174
1392.283114,-5033.400406,-3447.429741,2738.761985
1392.283426,-3997.112087,-3370.820191,2146.597232
1392.283737,-5255.462188,-2374.896044,2368.659014
1392.284048,-8586.388927,-1072.533697,3627.009116
1392.284360,-11991.336260,-1378.971896,3849.070898
1392.284671,-12879.583391,76.609550,2812.782580
1392.284983,-12213.398043,1608.800546,962.267725
1392.285294,-9622.677246,2987.772442,-74.020594
1392.285606,-6143.709319,1991.848295,-888.247130
1392.285917,-4811.338623,0.000000,-1110.308913
1392.286228,-4515.256246,-842.705048,-592.164754
1392.286540,-5773.606348,-2834.553343,-222.061783
1392.286851,-7476.080014,-2528.115143,1480.411884
1392.287163,-10066.800811,-1532.190996,3552.988522
1392.287474,-14211.954086,-2221.676944,4219.173869
1392.287786,-17024.736666,-1378.971896,4145.153275
1392.288097,-15470.304188,459.657299,3478.967927
1392.288409,-11325.150913,2451.505594,296.082377
1392.288720,-6291.750507,2987.772442,-3256.906145
1392.289031,-1258.350101,1532.190996,-5551.544565
1392.289343,1702.473667,919.314598,-7550.100608
1392.289654,1184.329507,766.095498,-6883.915261
1392.289966,-2516.700203,459.657299,-4071.132681
1392.290277,-10066.800811,-1455.581446,-370.102971
1392.290589,-17468.860231,-4596.572988,3701.029710
1392.290900,-22280.198854,-3907.087040,6661.853478
1392.291211,-22576.281231,-995.924147,6365.771101
1392.291523,-16284.530724,1072.533697,3256.906145
1392.291834,-7920.203579,-76.609550,-2220.617826
1392.292146,-444.123565,-153.219100,-6513.812290
1392.292457,3923.091493,995.924147,-9252.574275
1392.292769,3627.009116,1915.238745,-9770.718434
1392.293080,-1258.350101,2757.943793,-8586.388927
1392.293391,-10140.821405,1608.800546,-4663.297435
1392.293703,-16802.674883,0.000000,444.123565
1392.294014,-20873.807564,-1225.752797,3108.864956
1392.294326,-22058.137072,-1149.143247,4737.318029
1392.294637,-17912.983796,-612.876398,3997.112087
1392.294949,-12435.459826,-1302.362347,1036.288319
1392.295260,-6809.894666,-1838.629195,-740.205942
1392.295572,-1850.514855,-2068.457845,-3923.091493
1392.295883,296.082377,-1685.410096,-6735.874072
1392.296194,814.226536,919.314598,-7031.956449
1392.296506,-3182.885551,612.876398,-5477.523971
1392.296817,-9696.697840,-1302.362347,-2664.741391
1392.297129,-16358.551318,-1762.019645,1258.350101
1392.297440,-21614.013506,-1378.971896,4441.235652
1392.297752,-21688.034101,-1072.533697,5995.668130
1392.298063,-17764.942608,-1378.971896,4959.379811
1392.298374,-9992.780217,-1455.581446,3775.050304
1392.298686,-2516.700203,-689.485948,222.061783
1392.298997,2294.638420,-1302.362347,-2220.617826
1392.299309,3256.906145,0.000000,-3108.864956
1392.299620,-1480.411884,1149.143247,-2442.679609
1392.299932,-8364.327145,1225.752797,370.102971
1392.300243,-14656.077652,1149.143247,2368.659014
1392.300554,-17764.942608,2298.286494,3330.926739
1392.300866,-16580.613101,2834.553343,3256.906145
1392.301177,-11843.295072,2451.505594,2886.803174
1392.301489,-6809.894666,689.485948,2294.638420
1392.301800,-3108.864956,-1149.143247,2220.617826
1392.302112,-1628.453072,-1455.581446,1628.453072
1392.302423,-1776.494261,-1532.190996,2368.659014
1392.302735,-3108.864956,-1378.971896,2294.638420
1392.303046,-6587.832884,-2145.067394,2664.741391
1392.303357,-10955.047942,-383.047749,4071.132681
1392.303669,-15026.180623,1302.362347,3923.091493
1392.303980,-16210.510130,1991.848295,3997.112087
1392.304292,-13175.665768,2145.067394,2812.782580
1392.304603,-8660.409521,306.438199,2220.617826
1392.304915,-3330.926739,-1455.581446,1332.370696
1392.305226,148.041188,-1608.800546,148.041188
1392.305537,814.226536,-1302.362347,-962.267725
1392.305849,-2738.761985,-689.485948,444.123565
1392.306160,-8068.244768,-306.438199,2664.741391
1392.306472,-14211.954086,0.000000,5107.421000
1392.306783,-18949.272115,1072.533697,5773.606348
1392.307095,-19023.292709,3064.381992,4515.256246
1392.307406,-13841.851115,4749.792088,1406.391290
1392.307717,-5995.668130,3677.258390,-1998.556043
1392.308029,-666.185348,2145.067394,-5033.400406
1392.308340,2590.720797,-995.924147,-6365.771101
1392.308652,1110.308913,-1302.362347,-5181.441594
1392.308963,-3997.112087,-995.924147,-2886.803174
1392.309275,-10732.986159,-2068.457845,444.123565
1392.309586,-17838.963202,-3524.039291,4589.276840
1392.309898,-21614.013506,-3983.696590,5995.668130
1392.310209,-20873.807564,-1915.238745,4959.379811
1392.310520,-16654.633695,-229.828649,2368.659014
1392.310832,-9178.553681,842.705048,-1480.411884
1392.311143,-3627.009116,-306.438199,-4145.153275
1392.311455,222.061783,-766.095498,-6217.729913
1392.311766,444.123565,-1072.533697,-6439.791695
1392.312078,-2368.659014,0.000000,-5107.421000
1392.312389,-7772.162391,1532.190996,-2368.659014
1392.312700,-14285.974681,-306.438199,1036.288319
1392.313012,-18357.107362,-2221.676944,3627.009116
1392.313323,-18949.272115,-1455.581446,3034.844362
1392.313635,-15100.201217,689.485948,1554.432478
1392.313946,-8734.430116,1762.019645,-1480.411884
1392.314258,-4737.318029,766.095498,-3627.009116
1392.314569,-2294.638420,0.000000,-5255.462188
1392.314880,-1924.535449,76.609550,-4959.379811
1392.315192,-3923.091493,306.438199,-3923.091493
1392.315503,-7772.162391,153.219100,-2220.617826
1392.315815,-12509.480420,-1302.362347,-666.185348
1392.316126,-14656.077652,-1455.581446,814.226536
1392.316438,-15988.448347,-1302.362347,1628.453072
1392.316749,-15248.242405,-842.705048,2368.659014
1392.317060,-12435.459826,-612.876398,1776.494261
1392.317372,-8808.450710,-1532.190996,1776.494261
1392.317683,-5625.565159,-2298.286494,-0.000000
1392.317995,-3478.967927,-1838.629195,-666.185348
1392.318306,-2072.576638,153.219100,-2072.576638
1392.318618,-2516.700203,1149.143247,-2368.659014
1392.318929,-6735.874072,1378.971896,-1776.494261
1392.319241,-11843.295072,1378.971896,666.185348
1392.319552,-15988.448347,1838.629195,2368.659014
1392.319863,-17098.757260,2681.334243,4071.132681
1392.320175,-14285.974681,2145.067394,4145.153275
1392.320486,-8956.491898,459.657299,2516.700203
1392.320798,-3849.070898,-919.314598,1184.329507
1392.321109,0.000000,-1455.581446,-962.267725
1392.321421,1184.329507,-1225.752797,-1702.473667
1392.321732,-2220.617826,-459.657299,-888.247130
1392.322043,-9400.615463,-306.438199,740.205942
1392.322355,-14434.015869,-536.266849,3923.091493
1392.322666,-18431.127956,-459.657299,5255.462188
1392.322978,-18431.127956,459.657299,5921.647536
1392.323289,-14211.954086,1532.190996,4737.318029
1392.323601,-8586.388927,459.657299,3034.844362
1392.323912,-3478.967927,-1072.533697,1628.453072
1392.324223,-370.102971,-1455.581446,-222.061783
1392.324535,-222.061783,-1225.752797,-222.061783
1392.324846,-4367.215058,306.438199,-148.041188
1392.325158,-8660.409521,1762.019645,1924.535449
1392.325469,-13989.892304,1455.581446,3997.112087
1392.325781,-17320.819043,1608.800546,5847.626942
1392.326092,-16728.654289,2068.457845,5773.606348
1392.326404,-12361.439231,2145.067394,4145.153275
1392.326715,-6957.935855,1455.581446,2220.617826
1392.327026,-2886.803174,766.095498,740.205942
1392.327338,-1258.350101,76.609550,-0.000000
1392.327649,-814.226536,-1378.971896,518.144159
1392.327961,-2442.679609,-2145.067394,962.267725
1392.328272,-5847.626942,-2298.286494,2516.700203
1392.328584,-9918.759623,-2451.505594,4219.173869
1392.328895,-14434.015869,-1838.629195,5847.626942
1392.329206,-17172.777854,-689.485948,5995.668130
1392.329518,-16210.510130,766.095498,5033.400406
1392.329829,-11621.233289,1608.800546,2886.803174
1392.330141,-5477.523971,0.000000,1480.411884
1392.330452,-1332.370696,-536.266849,-814.226536
1392.330764,962.267725,-229.828649,-3108.864956
1392.331075,0.000000,383.047749,-3701.029710
1392.331386,-3627.009116,1455.581446,-1776.494261
1392.331698,-9400.615463,306.438199,1110.308913
1392.332009,-15618.345376,0.000000,2812.782580
1392.332321,-20355.663405,76.609550,3923.091493
1392.332632,-18727.210333,2221.676944,2960.823768
1392.332944,-13323.706956,2911.162892,962.267725
1392.333255,-6957.935855,1685.410096,-1480.411884
1392.333567,-2072.576638,-1149.143247,-4071.132681
1392.333878,0.000000,-1532.190996,-5033.400406
1392.334189,-1110.308913,-536.266849,-5033.400406
1392.334501,-4959.379811,-383.047749,-2960.823768
1392.334812,-11399.171507,-995.924147,-666.185348
1392.335124,-16506.592507,-1685.410096,1554.432478
1392.335435,-18283.086767,-1915.238745,2368.659014
1392.335747,-16728.654289,0.000000,1332.370696
1392.336058,-12953.603985,1532.190996,148.041188
1392.336369,-8956.491898,842.705048,-2146.597232
1392.336681,-5329.482782,-689.485948,-3256.906145
1392.336992,-3849.070898,-766.095498,-4441.235652
1392.337304,-4219.173869,-612.876398,-4293.194464
1392.337615,-4885.359217,383.047749,-4145.153275
1392.337927,-8068.244768,995.924147,-2738.761985
1392.338238,-12287.418637,-306.438199,-1036.288319
1392.338549,-16210.510130,-536.266849,740.205942
1392.338861,-17912.983796,459.657299,1406.391290
1392.339172,-15766.386565,1762.019645,1110.308913
1392.339484,-10955.047942,76.609550,-0.000000
1392.339795,-6291.750507,-1915.238745,-1184.329507
1392.340107,-2738.761985,-2374.896044,-2516.700203
1392.340418,-1184.329507,-1608.800546,-2590.720797
1392.340730,-2960.823768,-1302.362347,-2368.659014
1392.341041,-7698.141797,-1532.190996,-666.185348
1392.341352,-14063.912898,-1838.629195,1110.308913
1392.341664,-17987.004391,-1302.362347,2812.782580
1392.341975,-18505.148550,612.876398,3478.967927
1392.342287,-14804.118840,2528.115143,2738.761985
1392.342598,-9326.594869,2681.334243,2146.597232
1392.342910,-5181.441594,76.609550,1184.329507
1392.343221,-1554.432478,-1072.533697,148.041188
1392.343532,444.123565,0.000000,-592.164754
1392.343844,0.000000,1608.800546,-592.164754
1392.344155,-5107.421000,1532.190996,-0.000000
1392.344467,-10066.800811,1072.533697,2442.679609
1392.344778,-15248.242405,995.924147,4367.215058
1392.345090,-17764.942608,1455.581446,5625.565159
1392.345401,-15544.324782,1991.848295,5329.482782
1392.345712,-10658.965565,1532.190996,3923.091493
1392.346024,-5255.462188,-153.219100,2442.679609
1392.346335,-1332.370696,-1455.581446,740.205942
1392.346647,296.082377,-1455.581446,-74.020594
1392.346958,-444.123565,-842.705048,-370.102971
1392.347270,-4959.379811,0.000000,1480.411884
1392.347581,-11843.295072,0.000000,4441.235652
1392.347893,-17024.736666,-612.876398,7402.059420
1392.348204,-19097.313304,-153.219100,8216.285956
1392.348515,-16506.592507,459.657299,7328.038826
1392.348827,-10214.842000,995.924147,5329.482782
1392.349138,-4145.153275,-153.219100,3182.885551
1392.349450,1406.391290,-1608.800546,-592.164754
1392.349761,3997.112087,-1225.752797,-2072.576638
1392.350073,592.164754,76.609550,-1332.370696
1392.350384,-5107.421000,1762.019645,666.185348
1392.350695,-11251.130318,1455.581446,3034.844362
1392.351007,-16358.551318,-306.438199,5107.421000
1392.351318,-18505.148550,-459.657299,6143.709319
1392.351630,-15692.365970,1608.800546,4811.338623
1392.351941,-10510.924376,2145.067394,1110.308913
1392.352253,-5107.421000,995.924147,-2220.617826
1392.352564,-1406.391290,536.266849,-3849.070898
1392.352875,-666.185348,229.828649,-4663.297435
1392.353187,-2738.761985,612.876398,-3849.070898
1392.353498,-6217.729913,153.219100,-2516.700203
1392.353810,-10288.862594,-306.438199,-222.061783
1392.354121,-14656.077652,-536.266849,962.267725
1392.354433,-16432.571912,-766.095498,1480.411884
1392.354744,-16580.613101,612.876398,222.061783
1392.355056,-13693.809927,1149.143247,-1258.350101
1392.355367,-9178.553681,1072.533697,-3256.906145
1392.355678,-6217.729913,0.000000,-4589.276840
1392.355990,-4885.359217,-1149.143247,-5107.421000
1392.356301,-4441.235652,-1378.971896,-4219.173869
1392.356613,-5033.400406,-1072.533697,-3923.091493
1392.356924,-8142.265362,-1225.752797,-3404.947333
1392.357236,-13249.686362,-1762.019645,-1332.370696
1392.357547,-16950.716072,-1072.533697,-296.082377
1392.357858,-18579.169144,842.705048,148.041188
1392.358170,-16728.654289,1378.971896,-888.247130
1392.358481,-11917.315666,536.266849,-2664.741391
1392.358793,-7328.038826,-766.095498,-3923.091493
1392.359104,-2738.761985,-1532.190996,-5255.462188
1392.359416,-666.185348,-2145.067394,-5625.565159
1392.359727,-2886.803174,-2145.067394,-4441.235652
1392.360039,-7994.224174,-1532.190996,-2072.576638
1392.360350,-13841.851115,-1991.848295,-0.000000
1392.360661,-18135.045579,-1762.019645,2146.597232
1392.360973,-18727.210333,-306.438199,2442.679609
1392.361284,-15544.324782,842.705048,1702.473667
1392.361596,-10584.944971,459.657299,-74.020594
1392.361907,-4219.173869,-766.095498,-1776.494261
1392.362219,148.041188,-1378.971896,-2368.659014
1392.362530,1110.308913,-2298.286494,-3182.885551
1392.362842,-1554.432478,-1378.971896,-1702.473667
1392.363153,-7698.141797,0.000000,148.041188
1392.363464,-13323.706956,0.000000,2886.803174
1392.363776,-17320.819043,306.438199,4441.235652
1392.364087,-17764.942608,1225.752797,4737.318029
1392.364399,-15322.262999,2604.724693,3775.050304
1392.364710,-9252.574275,2221.676944,2664.741391
1392.365022,-3701.029710,995.924147,962.267725
1392.365333,-222.061783,76.609550,-74.020594
1392.365645,518.144159,-536.266849,-1480.411884
1392.365956,148.041188,-229.828649,-1036.288319
1392.366267,-4071.132681,995.924147,370.102971
1392.366579,-9474.636058,306.438199,2368.659014
1392.366890,-15174.221811,306.438199,4367.215058
1392.367202,-18061.024985,383.047749,5773.606348
1392.367513,-17098.757260,1072.533697,5995.668130
1392.367825,-12583.501014,536.266849,5181.441594
1392.368136,-7476.080014,0.000000,3330.926739
1392.368448,-2516.700203,-1302.362347,1776.494261
1392.368759,444.123565,-1685.410096,-1036.288319
1392.369070,518.144159,-612.876398,-1332.370696
1392.369382,-3552.988522,995.924147,-370.102971
1392.369693,-9400.615463,612.876398,2072.576638
1392.370005,-15026.180623,-612.876398,4589.276840
1392.370316,-18949.272115,-306.438199,5699.585753
1392.370628,-18209.066173,1991.848295,4959.379811
1392.370939,-12879.583391,3217.601092,3478.967927
1392.371250,-6587.832884,842.705048,1110.308913
1392.371562,-1998.556043,-536.266849,-740.205942
1392.371873,-296.082377,-153.219100,-2146.597232
1392.372185,-1406.391290,689.485948,-1998.556043
1392.372496,-4367.215058,1225.752797,-592.164754
1392.372808,-8142.265362,-766.095498,592.164754
1392.373119,-11473.192101,-1991.848295,1480.411884
1392.373431,-13693.809927,-2374.896044,1702.473667
1392.373742,-14582.057057,-229.828649,2442.679609
1392.374053,-14063.912898,536.266849,1628.453072
1392.374365,-11251.130318,0.000000,740.205942
1392.374676,-7550.100608,-1915.238745,-148.041188
1392.374988,-4663.297435,-2911.162892,-1480.411884
1392.375299,-2146.597232,-1991.848295,-2442.679609
1392.375611,-2812.782580,-689.485948,-3701.029710
1392.375922,-4885.359217,306.438199,-3034.844362
1392.376234,-9474.636058,-383.047749,-1332.370696
1392.376545,-15248.242405,-1378.971896,1184.329507
1392.376856,-18431.127956,229.828649,2146.597232
1392.377168,-17690.922014,2374.896044,1480.411884
1392.377479,-13397.727550,2451.505594,-888.247130
1392.377791,-7031.956449,842.705048,-2738.761985
1392.378102,-1554.432478,-766.095498,-4737.318029
1392.378414,370.102971,-842.705048,-5847.626942
1392.378725,-592.164754,-919.314598,-5107.421000
1392.379037,-5255.462188,-1149.143247,-3404.947333
1392.379348,-12435.459826,-1072.533697,-740.205942
1392.379659,-18801.230927,-766.095498,2220.617826
1392.379971,-21836.075289,76.609550,3775.050304
1392.380282,-19911.539840,153.219100,2590.720797
1392.380594,-13175.665768,536.266849,518.144159
1392.380905,-6217.729913,-459.657299,-1998.556043
1392.381217,-1184.329507,-1685.410096,-4441.235652
1392.381528,1258.350101,-2451.505594,-4441.235652
1392.381840,-814.226536,-2528.115143,-3849.070898
1392.382151,-5921.647536,-1149.143247,-1332.370696
1392.382462,-12213.398043,-536.266849,1628.453072
1392.382774,-17764.942608,-1762.019645,3923.091493
1392.383085,-19837.519246,-383.047749,4663.297435
1392.383397,-17468.860231,1455.581446,3775.050304
1392.383708,-11177.109724,689.485948,1258.350101
1392.384020,-4515.256246,0.000000,-1406.391290
1392.384331,0.000000,-612.876398,-2738.761985
1392.384643,1258.350101,-1072.533697,-3849.070898
1392.384954,0.000000,-612.876398,-2516.700203
1392.385265,-5033.400406,842.705048,-592.164754
1392.385577,-11769.274478,383.047749,1628.453072
1392.385888,-16728.654289,-306.438199,3775.050304
1392.386200,-19171.333898,689.485948,5181.441594
1392.386511,-16876.695478,1915.238745,4367.215058
1392.386823,-11917.315666,1762.019645,3034.844362
1392.387134,-6365.771101,229.828649,1184.329507
1392.387446,-2442.679609,-689.485948,-296.082377
1392.387757,0.000000,-689.485948,-1332.370696
1392.388068,-444.123565,153.219100,-962.267725
1392.388380,-4959.379811,1072.533697,-0.000000
1392.388691,-10658.965565,229.828649,2368.659014
1392.389003,-14137.933492,-766.095498,4145.153275
1392.389314,-16284.530724,-306.438199,4959.379811
1392.389626,-15248.242405,1455.581446,4737.318029
1392.389937,-11621.233289,1991.848295,4145.153275
1392.390248,-7476.080014,-306.438199,2368.659014
1392.390560,-3256.906145,-766.095498,1480.411884
1392.390871,-1332.370696,-1838.629195,1258.350101
1392.391183,-1036.288319,-612.876398,592.164754
1392.391494,-3997.112087,0.000000,1184.329507
1392.391806,-7550.100608,-612.876398,2738.761985
1392.392117,-11917.315666,-1302.362347,3775.050304
1392.392429,-15026.180623,-1072.533697,5551.544565
1392.392740,-16062.468941,-306.438199,5699.585753
1392.393051,-14656.077652,536.266849,4219.173869
1392.393363,-9622.677246,306.438199,2516.700203
1392.393674,-4663.297435,0.000000,740.205942
1392.393986,-1332.370696,0.000000,-370.102971
1392.394297,-444.123565,-306.438199,-962.267725
1392.394609,-3182.885551,919.314598,-814.226536
1392.394920,-7105.977043,1225.752797,296.082377
1392.395232,-11621.233289,1762.019645,2590.720797
1392.395543,-16506.592507,1455.581446,4441.235652
1392.395854,-17172.777854,1685.410096,4515.256246
1392.396166,-13323.706956,1915.238745,2072.576638
1392.396477,-7031.956449,1225.752797,-814.226536
1392.396789,-2368.659014,1225.752797,-2294.638420
1392.397100,-1332.370696,536.266849,-2442.679609
1392.397412,-3404.947333,-689.485948,-2368.659014
1392.397723,-6809.894666,-1072.533697,-1184.329507
1392.398035,-9474.636058,-1149.143247,1110.308913
1392.398346,-12657.521608,-1608.800546,1776.494261
1392.398657,-14063.912898,-1378.971896,2146.597232
1392.398969,-14508.036463,-842.705048,1036.288319
1392.399280,-13323.706956,-153.219100,-0.000000
1392.399592,-10807.006753,612.876398,-1406.391290
1392.399903,-7105.977043,-153.219100,-1702.473667
1392.400215,-5181.441594,-2068.457845,-3034.844362
1392.400526,-3997.112087,-2451.505594,-3330.926739
1392.400838,-4589.276840,-1608.800546,-3108.864956
1392.401149,-7254.018232,0.000000,-2886.803174
1392.401460,-11473.192101,-153.219100,-1036.288319
1392.401772,-15692.365970,-1072.533697,-0.000000
1392.402083,-17987.004391,-766.095498,-0.000000
1392.402395,-16580.613101,1915.238745,-888.247130
1392.402706,-12879.583391,2911.162892,-2738.761985
1392.403018,-7624.121203,1532.190996,-3404.947333
1392.403329,-4885.359217,0.000000,-4071.132681
1392.403641,-3478.967927,-1302.362347,-3701.029710
1392.403952,-5033.400406,-1608.800546,-2516.700203
1392.404263,-8068.244768,-1149.143247,-814.226536
1392.404575,-11399.171507,-1685.410096,-0.000000
1392.404886,-13249.686362,-995.924147,1184.329507
1392.405198,-14285.974681,-766.095498,1184.329507
1392.405509,-13619.789333,-383.047749,444.123565
1392.405821,-11177.109724,995.924147,814.226536
1392.406132,-8068.244768,229.828649,222.061783
1392.406444,-5477.523971,-383.047749,444.123565
1392.406755,-3849.070898,-1225.752797,-222.061783
1392.407066,-3182.885551,-1149.143247,-666.185348
1392.407378,-3849.070898,229.828649,-518.144159
1392.407689,-7328.038826,383.047749,222.061783
1392.408001,-11769.274478,1455.581446,1924.535449
1392.408312,-14211.954086,1225.752797,3478.967927
1392.408624,-15692.365970,1378.971896,4663.297435
1392.408935,-13545.768739,1455.581446,4367.215058
1392.409246,-9178.553681,1378.971896,3182.885551
1392.409558,-5033.400406,612.876398,2294.638420
1392.409869,-3256.906145,383.047749,814.226536
1392.410181,-1998.556043,0.000000,1110.308913
1392.410492,-2368.659014,0.000000,222.061783
1392.410804,-5847.626942,-612.876398,1702.473667
1392.411115,-10807.006753,-229.828649,3701.029710
1392.411427,-14952.160028,76.609550,5477.523971
1392.411738,-16432.571912,0.000000,6439.791695
1392.412049,-14137.933492,459.657299,6439.791695
1392.412361,-9844.739029,536.266849,5329.482782
1392.412672,-6439.791695,0.000000,4071.132681
1392.412984,-2960.823768,-306.438199,2664.741391
1392.413295,0.000000,-459.657299,518.144159
1392.413607,0.000000,229.828649,-0.000000
1392.413918,-3404.947333,1532.190996,-0.000000
1392.414230,-7920.203579,995.924147,2368.659014
1392.414541,-13101.645173,153.219100,3775.050304
1392.414852,-17024.736666,306.438199,5181.441594
1392.415164,-16876.695478,1915.238745,4885.359217
1392.415475,-13175.665768,1608.800546,3256.906145
1392.415787,-6291.750507,612.876398,1258.350101
1392.416098,-1332.370696,-536.266849,-1480.411884
1392.416410,370.102971,-306.438199,-3627.009116
1392.416721,-1184.329507,612.876398,-4219.173869
1392.417033,-5699.585753,1991.848295,-2590.720797
1392.417344,-11769.274478,1532.190996,-0.000000
1392.417655,-16802.674883,-459.657299,2738.761985
1392.417967,-18653.189738,-1455.581446,3478.967927
1392.418278,-16136.489536,-689.485948,1406.391290
1392.418590,-10140.821405,76.609550,-1332.370696
1392.418901,-4959.379811,766.095498,-3701.029710
1392.419213,-2738.761985,0.000000,-4071.132681
1392.419524,-4515.256246,-2451.505594,-4145.153275
1392.419836,-6957.935855,-2298.286494,-2294.638420
1392.420147,-9992.780217,-766.095498,-1036.288319
1392.420458,-11991.336260,0.000000,666.185348
1392.420770,-14582.057057,-1225.752797,-0.000000
1392.421081,-15174.221811,-1149.143247,-814.226536
1392.421393,-12509.480420,612.876398,-1776.494261
1392.421704,-9326.594869,1455.581446,-3330.926739
1392.422016,-7179.997637,612.876398,-4515.256246
1392.422327,-6217.729913,0.000000,-3775.050304
1392.422639,-6365.771101,-1762.019645,-4071.132681
1392.422950,-6809.894666,-1685.410096,-2886.803174
1392.423261,-7772.162391,-919.314598,-2220.617826
1392.423573,-9770.718434,-1302.362347,-1406.391290
1392.423884,-12435.459826,-2145.067394,-814.226536
1392.424196,-13693.809927,-2451.505594,-370.102971
1392.424507,-14063.912898,-306.438199,-740.205942
1392.424819,-13175.665768,1072.533697,-518.144159
1392.425130,-10510.924376,536.266849,-1258.350101
1392.425442,-7476.080014,0.000000,-1628.453072
1392.425753,-5033.400406,-919.314598,-2072.576638
1392.426064,-4219.173869,-1532.190996,-2442.679609
1392.426376,-4663.297435,-1225.752797,-1850.514855
1392.426687,-7031.956449,0.000000,-666.185348
1392.426999,-10732.986159,76.609550,-0.000000
1392.427310,-14656.077652,-383.047749,1924.535449
1392.427622,-16654.633695,842.705048,2516.700203
1392.427933,-14582.057057,2298.286494,3034.844362
