#time,accel_x,accel_y,accel_z
1311.631675,-8956.491898,0.000000,592.164754
1311.631986,-9104.533087,-229.828649,592.164754
1311.632298,-8882.471304,0.000000,666.185348
1311.632609,-8660.409521,0.000000,592.164754
1311.632921,-8882.471304,689.485948,444.123565
1311.633232,-9326.594869,-766.095498,222.061783
1311.633544,-8734.430116,-76.609550,592.164754
1311.633855,-8956.491898,0.000000,518.144159
1311.634166,-9178.553681,-153.219100,666.185348
1311.634478,-8956.491898,0.000000,592.164754
1311.634789,-8956.491898,0.000000,370.102971
1311.635101,-8660.409521,536.266849,740.205942
1311.635412,-8660.409521,0.000000,222.061783
1311.635723,-8808.450710,-153.219100,222.061783
1311.636035,-8660.409521,-229.828649,814.226536
1311.636346,-9030.512492,-306.438199,444.123565
1311.636658,-8882.471304,-153.219100,518.144159
1311.636969,-9030.512492,0.000000,814.226536
1311.637281,-8956.491898,-306.438199,518.144159
1311.637592,-8660.409521,153.219100,370.102971
1311.637903,-9030.512492,76.609550,222.061783
1311.638215,-9104.533087,76.609550,370.102971
1311.638526,-9178.553681,76.609550,-0.000000
1311.638838,-8882.471304,0.000000,518.144159
1311.639149,-9104.533087,0.000000,592.164754
1311.639460,-9030.512492,0.000000,444.123565
1311.639772,-8882.471304,0.000000,444.123565
1311.640083,-8734.430116,-153.219100,296.082377
1311.640395,-8882.471304,153.219100,592.164754
1311.640706,-8734.430116,-306.438199,666.185348
1311.641017,-8956.491898,0.000000,592.164754
1311.641329,-8882.471304,-153.219100,592.164754
1311.641640,-8808.450710,-383.047749,518.144159
1311.641952,-8808.450710,-229.828649,518.144159
1311.642263,-8734.430116,0.000000,370.102971
1311.642575,-8512.368333,229.828649,518.144159
1311.642886,-8586.388927,0.000000,444.123565
1311.643197,-8808.450710,0.000000,518.144159
1311.643509,-9030.512492,-383.047749,370.102971
1311.643820,-8882.471304,0.000000,592.164754
1311.644132,-8882.471304,-153.219100,518.144159
1311.644443,-9030.512492,0.000000,592.164754
1311.644754,-9104.533087,-153.219100,370.102971
1311.645066,-8808.450710,306.438199,518.144159
1311.645377,-8808.450710,-153.219100,370.102971
1311.645689,-8660.409521,-229.828649,370.102971
1311.646000,-8956.491898,0.000000,444.123565
1311.646312,-8660.409521,0.000000,592.164754
1311.646623,-8956.491898,0.000000,666.185348
1311.646934,-9104.533087,0.000000,296.082377
1311.647246,-8512.368333,0.000000,592.164754
1311.647557,-8956.491898,0.000000,222.061783
1311.647869,-8734.430116,76.609550,444.123565
1311.648180,-8808.450710,0.000000,518.144159
1311.648491,-9030.512492,-153.219100,444.123565
1311.648803,-8956.491898,-153.219100,518.144159
1311.649114,-8882.471304,-153.219100,592.164754
1311.649426,-9030.512492,0.000000,518.144159
1311.649737,-8734.430116,306.438199,592.164754
1311.650049,-8882.471304,-153.219100,370.102971
1311.650360,-8734.430116,0.000000,370.102971
1311.650671,-8734.430116,-306.438199,666.185348
1311.650983,-9030.512492,-306.438199,666.185348
1311.651294,-8956.491898,-306.438199,740.205942
1311.651606,-8882.471304,-306.438199,518.144159
1311.651917,-8808.450710,-383.047749,888.247130
1311.652228,-8808.450710,0.000000,444.123565
1311.652540,-9326.594869,0.000000,296.082377
1311.652851,-9326.594869,383.047749,74.020594
1311.653163,-8956.491898,0.000000,592.164754
1311.653474,-8808.450710,0.000000,518.144159
1311.653786,-8882.471304,0.000000,148.041188
1311.654097,-8882.471304,0.000000,518.144159
1311.654408,-8734.430116,383.047749,518.144159
1311.654720,-8808.450710,76.609550,518.144159
1311.655031,-8734.430116,0.000000,444.123565
1311.655343,-8438.347739,-229.828649,296.082377
1311.655654,-8808.450710,0.000000,740.205942
1311.655965,-8882.471304,-229.828649,740.205942
1311.656277,-8808.450710,-153.219100,592.164754
1311.656588,-9030.512492,-153.219100,444.123565
1311.656900,-9030.512492,0.000000,370.102971
1311.657211,-8660.409521,0.000000,740.205942
1311.657523,-9400.615463,-153.219100,296.082377
1311.657834,-9030.512492,0.000000,222.061783
1311.658145,-9030.512492,153.219100,370.102971
1311.658457,-8956.491898,0.000000,370.102971
1311.658768,-9030.512492,0.000000,518.144159
1311.659080,-8660.409521,0.000000,518.144159
1311.659391,-8956.491898,0.000000,370.102971
1311.659702,-8808.450710,612.876398,592.164754
1311.660014,-11029.068536,0.000000,-0.000000
1311.660325,-11325.150913,2298.286494,518.144159
1311.660637,-8734.430116,4826.401637,740.205942
1311.660948,-7846.182985,3753.867940,740.205942
1311.661259,-6661.853478,1072.533697,1406.391290
1311.661571,-6587.832884,-1532.190996,296.082377
1311.661882,-7179.997637,-766.095498,-296.082377
1311.662194,-7328.038826,-459.657299,-0.000000
1311.662505,-11029.068536,-995.924147,-1184.329507
1311.662817,-12879.583391,0.000000,-740.205942
1311.663128,-10510.924376,1072.533697,444.123565
1311.663439,-9474.636058,229.828649,1332.370696
1311.663751,-9400.615463,-306.438199,2960.823768
1311.664062,-12139.377449,842.705048,1258.350101
1311.664374,-8364.327145,3907.087040,2442.679609
1311.664685,-4737.318029,4903.011187,1924.535449
1311.664996,-7105.977043,3217.601092,740.205942
1311.665308,-7179.997637,2298.286494,-592.164754
1311.665619,-7105.977043,3064.381992,-1924.535449
1311.665931,-8956.491898,3064.381992,-1332.370696
1311.666242,-9178.553681,3677.258390,-222.061783
1311.666554,-12583.501014,2604.724693,-1554.432478
1311.666865,-14137.933492,-689.485948,1036.288319
1311.667176,-8512.368333,-995.924147,2590.720797
1311.667488,-10214.842000,0.000000,592.164754
1311.667799,-8512.368333,5439.278036,2516.700203
1311.668111,-8290.306550,6358.592633,1480.411884
1311.668422,-7624.121203,3294.210641,2516.700203
1311.668733,-5625.565159,4596.572988,2368.659014
1311.669045,-7179.997637,6511.811733,-0.000000
1311.669356,-7550.100608,7354.516781,-962.267725
1311.669668,-9622.677246,5439.278036,-1332.370696
1311.669979,-9770.718434,5362.668486,-1776.494261
1311.670291,-10066.800811,5669.106685,-1258.350101
1311.670602,-11843.295072,4903.011187,222.061783
1311.670913,-11621.233289,4290.134789,1258.350101
1311.671225,-11177.109724,4290.134789,1850.514855
1311.671536,-9400.615463,4826.401637,2368.659014
1311.671848,-6883.915261,5209.449386,1924.535449
1311.672159,-5699.585753,5209.449386,444.123565
1311.672470,-5773.606348,4903.011187,370.102971
1311.672782,-5255.462188,5132.839837,-74.020594
1311.673093,-6439.791695,4903.011187,-888.247130
1311.673405,-8364.327145,4136.915689,-370.102971
1311.673716,-9844.739029,2451.505594,-592.164754
1311.674028,-10140.821405,1532.190996,-0.000000
1311.674339,-9992.780217,1149.143247,444.123565
1311.674650,-10510.924376,153.219100,1480.411884
1311.674962,-11251.130318,229.828649,1702.473667
1311.675273,-10214.842000,2451.505594,2072.576638
1311.675585,-8364.327145,3677.258390,2368.659014
1311.675896,-6957.935855,3370.820191,814.226536
1311.676207,-6143.709319,3217.601092,-296.082377
1311.676519,-6513.812290,3907.087040,-814.226536
1311.676830,-5921.647536,3830.477490,-1258.350101
1311.677142,-6143.709319,1685.410096,-1258.350101
1311.677453,-9030.512492,-612.876398,-740.205942
1311.677765,-10732.986159,-2221.676944,-148.041188
1311.678076,-12139.377449,-2834.553343,888.247130
1311.678387,-13471.748144,-2068.457845,1924.535449
1311.678699,-13471.748144,-1685.410096,1776.494261
1311.679010,-12509.480420,995.924147,1406.391290
1311.679322,-12139.377449,1915.238745,-0.000000
1311.679633,-7994.224174,3830.477490,-0.000000
1311.679944,-6587.832884,4290.134789,-0.000000
1311.680256,-6365.771101,4826.401637,370.102971
1311.680567,-6439.791695,4596.572988,592.164754
1311.680879,-7402.059420,3064.381992,-0.000000
1311.681190,-9622.677246,1991.848295,-0.000000
1311.681501,-11621.233289,383.047749,-444.123565
1311.681813,-13101.645173,766.095498,-74.020594
1311.682124,-13767.830521,306.438199,-222.061783
1311.682436,-13619.789333,306.438199,888.247130
1311.682747,-12287.418637,1608.800546,1406.391290
1311.683059,-9992.780217,3140.991542,1998.556043
1311.683370,-7179.997637,5056.230287,2072.576638
1311.683681,-4885.359217,5362.668486,1406.391290
1311.683993,-1702.473667,5669.106685,296.082377
1311.684304,-1036.288319,5898.935335,-1332.370696
1311.684616,-2146.597232,4443.353888,-2072.576638
1311.684927,-6661.853478,2451.505594,-1850.514855
1311.685238,-11547.212695,2528.115143,-666.185348
1311.685550,-14359.995275,3064.381992,740.205942
1311.685861,-15766.386565,2068.457845,2516.700203
1311.686173,-14359.995275,1532.190996,3701.029710
1311.686484,-10807.006753,919.314598,4071.132681
1311.686796,-7031.956449,1072.533697,2368.659014
1311.687107,-3108.864956,2068.457845,1480.411884
1311.687418,-1110.308913,3524.039291,-296.082377
1311.687730,-1480.411884,5132.839837,-1554.432478
1311.688041,-3923.091493,4596.572988,-2590.720797
1311.688353,-6661.853478,2834.553343,-1554.432478
1311.688664,-9474.636058,1149.143247,-0.000000
1311.688975,-10955.047942,-766.095498,1554.432478
1311.689287,-11843.295072,-3447.429741,2294.638420
1311.689598,-12213.398043,-4749.792088,2590.720797
1311.689910,-11769.274478,-4443.353888,2220.617826
1311.690221,-10436.903782,-3370.820191,1480.411884
1311.690533,-10658.965565,-995.924147,444.123565
1311.690844,-10214.842000,2068.457845,370.102971
1311.691155,-9030.512492,4136.915689,592.164754
1311.691467,-9030.512492,4443.353888,74.020594
1311.691778,-8512.368333,3447.429741,296.082377
1311.692090,-7254.018232,1378.971896,370.102971
1311.692401,-7105.977043,-383.047749,-592.164754
1311.692712,-7920.203579,-1225.752797,-296.082377
1311.693024,-9400.615463,-1378.971896,-962.267725
1311.693335,-10510.924376,-1685.410096,-444.123565
1311.693647,-11843.295072,-1685.410096,296.082377
1311.693958,-12953.603985,-2451.505594,1332.370696
1311.694270,-12435.459826,-1762.019645,1998.556043
1311.694581,-11399.171507,-1149.143247,1480.411884
1311.694892,-9400.615463,-536.266849,370.102971
1311.695204,-8216.285956,536.266849,-666.185348
1311.695515,-7698.141797,2374.896044,-2368.659014
1311.695827,-7105.977043,3753.867940,-2886.803174
1311.696138,-7698.141797,3907.087040,-1628.453072
1311.696449,-8216.285956,2451.505594,-0.000000
1311.696761,-8364.327145,0.000000,1924.535449
1311.697072,-8956.491898,-2374.896044,3034.844362
1311.697384,-8956.491898,-3830.477490,4145.153275
1311.697695,-8734.430116,-3524.039291,2812.782580
1311.698007,-9622.677246,-1378.971896,1184.329507
1311.698318,-9252.574275,1455.581446,-0.000000
1311.698629,-8068.244768,2911.162892,-2516.700203
1311.698941,-7254.018232,5132.839837,-2368.659014
1311.699252,-6439.791695,4366.744339,-2072.576638
1311.699564,-5329.482782,2834.553343,-1406.391290
1311.699875,-4959.379811,536.266849,-296.082377
1311.700186,-6143.709319,-1378.971896,962.267725
1311.700498,-7698.141797,-2068.457845,1628.453072
1311.700809,-10140.821405,-1608.800546,2294.638420
1311.701121,-11029.068536,-689.485948,3330.926739
1311.701432,-12805.562797,-842.705048,3182.885551
1311.701743,-13323.706956,-153.219100,3627.009116
1311.702055,-11547.212695,383.047749,2368.659014
1311.702366,-8438.347739,229.828649,1036.288319
1311.702678,-6069.688724,76.609550,-370.102971
1311.702989,-5403.503377,689.485948,-1924.535449
1311.703301,-4145.153275,1991.848295,-2294.638420
1311.703612,-4811.338623,2374.896044,-2072.576638
1311.703923,-7994.224174,995.924147,-148.041188
1311.704235,-10955.047942,76.609550,814.226536
1311.704546,-12583.501014,-1225.752797,2368.659014
1311.704857,-12879.583391,-2451.505594,3108.864956
1311.705169,-12879.583391,-2681.334243,3034.844362
1311.705480,-12213.398043,-2298.286494,2368.659014
1311.705791,-10881.027347,-536.266849,888.247130
1311.706103,-9474.636058,1149.143247,-0.000000
1311.706414,-8586.388927,2221.676944,-0.000000
1311.706725,-7698.141797,2298.286494,-814.226536
1311.707037,-5995.668130,919.314598,-296.082377
1311.707348,-5181.441594,-995.924147,370.102971
1311.707659,-5995.668130,-3064.381992,666.185348
1311.707970,-7031.956449,-3370.820191,962.267725
1311.708282,-8364.327145,-2757.943793,1184.329507
1311.708593,-9770.718434,-1762.019645,1702.473667
1311.708904,-11103.089130,-1455.581446,2146.597232
1311.709216,-12287.418637,-459.657299,1776.494261
1311.709527,-11473.192101,-153.219100,1110.308913
1311.709838,-9770.718434,-153.219100,444.123565
1311.710150,-8142.265362,-689.485948,-370.102971
1311.710461,-7105.977043,1072.533697,-1554.432478
1311.710772,-7846.182985,1838.629195,-2516.700203
1311.711083,-6883.915261,1378.971896,-1628.453072
1311.711395,-7550.100608,1149.143247,-518.144159
1311.711706,-7920.203579,842.705048,888.247130
1311.712017,-8586.388927,-1225.752797,2368.659014
1311.712329,-8808.450710,-3753.867940,3404.947333
1311.712640,-8068.244768,-4213.525239,2886.803174
1311.712951,-8808.450710,-2987.772442,962.267725
1311.713263,-9104.533087,-229.828649,-444.123565
1311.713574,-9104.533087,1532.190996,-1258.350101
1311.713885,-9844.739029,2451.505594,-1924.535449
1311.714197,-10140.821405,3064.381992,-1702.473667
1311.714508,-10362.883188,2604.724693,-1850.514855
1311.714819,-9400.615463,1685.410096,-1480.411884
1311.715130,-9104.533087,1149.143247,-1184.329507
1311.715442,-9326.594869,536.266849,-888.247130
1311.715753,-8660.409521,842.705048,-74.020594
1311.716064,-9696.697840,536.266849,814.226536
1311.716376,-10140.821405,76.609550,2368.659014
1311.716687,-9918.759623,0.000000,2516.700203
1311.716998,-10362.883188,0.000000,2886.803174
1311.717310,-9178.553681,-1378.971896,2886.803174
1311.717621,-7994.224174,-2834.553343,666.185348
1311.717932,-7624.121203,-1762.019645,-1184.329507
1311.718243,-6587.832884,995.924147,-2442.679609
1311.718555,-6883.915261,1455.581446,-2590.720797
1311.718866,-8216.285956,1149.143247,-1332.370696
1311.719177,-9622.677246,536.266849,-296.082377
1311.719489,-9548.656652,0.000000,1480.411884
1311.719800,-8734.430116,-1378.971896,2368.659014
1311.720111,-9918.759623,-2987.772442,2590.720797
1311.720423,-9696.697840,-2451.505594,2738.761985
1311.720734,-10140.821405,-1378.971896,1480.411884
1311.721045,-9622.677246,229.828649,1998.556043
1311.721356,-9918.759623,1302.362347,1406.391290
1311.721668,-10658.965565,1685.410096,1480.411884
1311.721979,-8216.285956,459.657299,1036.288319
1311.722290,-5403.503377,-995.924147,444.123565
1311.722602,-4737.318029,-2757.943793,814.226536
1311.722913,-5107.421000,-2911.162892,296.082377
1311.723224,-7328.038826,-1685.410096,-0.000000
1311.723536,-8290.306550,-689.485948,444.123565
1311.723847,-9844.739029,459.657299,1184.329507
1311.724158,-11621.233289,1838.629195,1554.432478
1311.724470,-12361.439231,2681.334243,1258.350101
1311.724781,-11399.171507,1532.190996,1258.350101
1311.725092,-9622.677246,229.828649,370.102971
1311.725403,-9548.656652,306.438199,-444.123565
1311.725715,-8586.388927,1762.019645,-888.247130
1311.726026,-7994.224174,1378.971896,-1776.494261
1311.726337,-7105.977043,1455.581446,-74.020594
1311.726649,-7920.203579,612.876398,518.144159
1311.726960,-8068.244768,-842.705048,1628.453072
1311.727271,-7179.997637,-1915.238745,2368.659014
1311.727583,-7772.162391,-3217.601092,2368.659014
1311.727894,-7254.018232,-3294.210641,1924.535449
1311.728205,-8956.491898,-2298.286494,222.061783
1311.728516,-9844.739029,-459.657299,-370.102971
1311.728828,-9474.636058,1302.362347,-666.185348
1311.729139,-9770.718434,2528.115143,-444.123565
1311.729450,-9918.759623,2068.457845,-592.164754
1311.729762,-8734.430116,229.828649,-296.082377
1311.730073,-8438.347739,-1455.581446,-888.247130
1311.730384,-8142.265362,-536.266849,-370.102971
1311.730696,-8956.491898,0.000000,-370.102971
1311.731007,-9696.697840,-459.657299,-148.041188
1311.731318,-10584.944971,0.000000,1258.350101
1311.731629,-10362.883188,766.095498,2368.659014
1311.731941,-9474.636058,76.609550,2294.638420
1311.732252,-8882.471304,-1532.190996,2220.617826
1311.732563,-7698.141797,-2451.505594,1332.370696
1311.732875,-6957.935855,-2145.067394,-370.102971
1311.733186,-6735.874072,-383.047749,-1554.432478
1311.733497,-7550.100608,842.705048,-1850.514855
1311.733809,-9252.574275,1608.800546,-1850.514855
1311.734120,-10658.965565,1378.971896,-1036.288319
1311.734431,-11029.068536,1149.143247,518.144159
1311.734743,-11251.130318,76.609550,1776.494261
1311.735054,-10807.006753,-995.924147,1776.494261
1311.735365,-9918.759623,-1838.629195,1406.391290
1311.735676,-9178.553681,-1302.362347,1184.329507
1311.735988,-8068.244768,-153.219100,592.164754
1311.736299,-8364.327145,766.095498,592.164754
1311.736610,-9178.553681,1149.143247,888.247130
1311.736922,-8068.244768,-919.314598,1480.411884
1311.737233,-6735.874072,-1991.848295,1554.432478
1311.737544,-7105.977043,-2987.772442,1184.329507
1311.737856,-7105.977043,-3064.381992,296.082377
1311.738167,-7254.018232,-2681.334243,-148.041188
1311.738478,-7920.203579,-1149.143247,-370.102971
1311.738789,-8290.306550,76.609550,444.123565
1311.739101,-9474.636058,0.000000,740.205942
1311.739412,-10288.862594,536.266849,1110.308913
1311.739723,-10362.883188,229.828649,1332.370696
1311.740035,-9622.677246,-306.438199,592.164754
1311.740346,-9548.656652,-536.266849,444.123565
1311.740657,-9030.512492,536.266849,-296.082377
1311.740969,-8956.491898,1455.581446,-518.144159
1311.741280,-9030.512492,1915.238745,148.041188
1311.741591,-9252.574275,2298.286494,592.164754
1311.741902,-9252.574275,1378.971896,1628.453072
1311.742214,-7402.059420,-689.485948,2146.597232
1311.742525,-6365.771101,-2221.676944,2220.617826
1311.742836,-6587.832884,-2604.724693,1110.308913
1311.743148,-7550.100608,-1762.019645,-148.041188
1311.743459,-8364.327145,229.828649,-592.164754
1311.743770,-9326.594869,1838.629195,-740.205942
1311.744082,-10658.965565,3140.991542,-444.123565
1311.744393,-11843.295072,1685.410096,-0.000000
1311.744704,-11621.233289,842.705048,518.144159
1311.745016,-10214.842000,383.047749,814.226536
1311.745327,-9548.656652,153.219100,296.082377
1311.745638,-9030.512492,229.828649,-0.000000
1311.745949,-8438.347739,153.219100,-0.000000
1311.746261,-7698.141797,459.657299,740.205942
1311.746572,-8438.347739,1072.533697,1406.391290
1311.746883,-9474.636058,689.485948,1554.432478
1311.747195,-7772.162391,-229.828649,962.267725
1311.747506,-8290.306550,-1685.410096,1110.308913
1311.747817,-7698.141797,-1838.629195,518.144159
1311.748129,-7624.121203,-536.266849,-1184.329507
1311.748440,-7994.224174,1149.143247,-1184.329507
1311.748751,-8216.285956,1915.238745,-666.185348
1311.749062,-8734.430116,689.485948,-0.000000
1311.749374,-9474.636058,1532.190996,-0.000000
1311.749685,-9252.574275,612.876398,740.205942
1311.749996,-8586.388927,-842.705048,814.226536
1311.750308,-8956.491898,-995.924147,370.102971
1311.750619,-9030.512492,0.000000,148.041188
1311.750930,-9770.718434,229.828649,-666.185348
1311.751242,-10214.842000,1072.533697,444.123565
1311.751553,-10436.903782,1915.238745,814.226536
1311.751864,-9474.636058,995.924147,1702.473667
1311.752176,-8216.285956,-1302.362347,2220.617826
1311.752487,-7994.224174,-3447.429741,1776.494261
1311.752798,-7105.977043,-2987.772442,814.226536
1311.753109,-6439.791695,-1225.752797,-666.185348
1311.753421,-7179.997637,-612.876398,-962.267725
1311.753732,-8808.450710,919.314598,-148.041188
1311.754043,-10362.883188,1149.143247,296.082377
1311.754355,-11399.171507,1149.143247,666.185348
1311.754666,-10955.047942,689.485948,1332.370696
1311.754977,-10510.924376,-459.657299,1258.350101
1311.755289,-9844.739029,-842.705048,814.226536
1311.755600,-9252.574275,-306.438199,-148.041188
1311.755911,-8660.409521,306.438199,-518.144159
1311.756222,-8586.388927,1608.800546,-0.000000
1311.756534,-9400.615463,2221.676944,592.164754
1311.756845,-8956.491898,1072.533697,1554.432478
1311.757156,-7846.182985,-842.705048,1850.514855
1311.757468,-7179.997637,-2757.943793,2590.720797
1311.757779,-7179.997637,-2834.553343,1554.432478
1311.758090,-7772.162391,-1685.410096,148.041188
1311.758402,-7994.224174,612.876398,-370.102971
1311.758713,-8956.491898,459.657299,-296.082377
1311.759024,-9252.574275,1149.143247,-0.000000
1311.759335,-9770.718434,919.314598,222.061783
1311.759647,-9548.656652,306.438199,962.267725
1311.759958,-9030.512492,-689.485948,1036.288319
1311.760269,-9326.594869,-689.485948,-0.000000
1311.760581,-9030.512492,766.095498,-0.000000
1311.760892,-8734.430116,995.924147,-444.123565
1311.761203,-8586.388927,1072.533697,888.247130
1311.761515,-9178.553681,1072.533697,1850.514855
1311.761826,-9474.636058,383.047749,1924.535449
1311.762137,-8512.368333,-1225.752797,2590.720797
1311.762449,-7476.080014,-2757.943793,2442.679609
1311.762760,-7105.977043,-3294.210641,962.267725
1311.763071,-7031.956449,-2221.676944,-518.144159
1311.763382,-7105.977043,-229.828649,-1702.473667
1311.763694,-8142.265362,842.705048,-1850.514855
1311.764005,-9548.656652,2604.724693,-1332.370696
1311.764316,-11769.274478,1532.190996,-222.061783
1311.764628,-11843.295072,842.705048,666.185348
1311.764939,-10436.903782,-229.828649,1480.411884
1311.765250,-9770.718434,-1149.143247,888.247130
1311.765562,-8290.306550,-612.876398,296.082377
1311.765873,-8290.306550,0.000000,-814.226536
1311.766184,-7994.224174,766.095498,-518.144159
1311.766495,-9178.553681,1762.019645,592.164754
1311.766807,-9474.636058,919.314598,666.185348
1311.767118,-9326.594869,-612.876398,1036.288319
1311.767429,-8808.450710,-2298.286494,1110.308913
1311.767741,-9030.512492,-1762.019645,444.123565
1311.768052,-8142.265362,-306.438199,-740.205942
1311.768363,-8734.430116,842.705048,-1332.370696
1311.768675,-9696.697840,919.314598,-518.144159
1311.768986,-10214.842000,1685.410096,-296.082377
1311.769297,-10658.965565,2451.505594,-0.000000
1311.769608,-9696.697840,1532.190996,518.144159
1311.769920,-9030.512492,-306.438199,444.123565
1311.770231,-9252.574275,-1225.752797,-148.041188
1311.770542,-8734.430116,-153.219100,-592.164754
1311.770854,-9178.553681,-76.609550,-666.185348
1311.771165,-10288.862594,612.876398,518.144159
1311.771476,-9770.718434,995.924147,1480.411884
1311.771788,-8512.368333,383.047749,2072.576638
1311.772099,-6587.832884,-1302.362347,2590.720797
1311.772410,-5921.647536,-2911.162892,2738.761985
1311.772722,-6143.709319,-3064.381992,1776.494261
1311.773033,-5699.585753,-1378.971896,370.102971
1311.773344,-7031.956449,306.438199,-444.123565
1311.773655,-8364.327145,1991.848295,-740.205942
1311.773967,-9918.759623,2604.724693,-0.000000
1311.774278,-10436.903782,2298.286494,666.185348
1311.774589,-9918.759623,995.924147,1332.370696
1311.774901,-10140.821405,-229.828649,1406.391290
1311.775212,-7994.224174,-306.438199,888.247130
1311.775523,-7772.162391,612.876398,-148.041188
1311.775835,-8586.388927,536.266849,296.082377
1311.776146,-8364.327145,1838.629195,444.123565
1311.776457,-8956.491898,1685.410096,666.185348
1311.776768,-8956.491898,1072.533697,1998.556043
1311.777080,-8956.491898,-153.219100,2368.659014
1311.777391,-9178.553681,-1378.971896,1850.514855
1311.777702,-8734.430116,-2221.676944,1628.453072
1311.778014,-7698.141797,-1455.581446,444.123565
1311.778325,-7846.182985,-306.438199,-592.164754
1311.778636,-8512.368333,1302.362347,-1036.288319
1311.778948,-9400.615463,1762.019645,-888.247130
1311.779259,-9918.759623,1072.533697,-0.000000
1311.779570,-9770.718434,0.000000,1036.288319
1311.779881,-9696.697840,-1149.143247,962.267725
1311.780193,-9474.636058,-2145.067394,740.205942
1311.780504,-9992.780217,-2145.067394,740.205942
1311.780815,-10140.821405,-1072.533697,962.267725
1311.781127,-10881.027347,0.000000,888.247130
1311.781438,-11029.068536,536.266849,1110.308913
1311.781749,-10066.800811,229.828649,1998.556043
1311.782061,-7624.121203,-1149.143247,2146.597232
1311.782372,-5329.482782,-2451.505594,1924.535449
1311.782683,-5551.544565,-3217.601092,592.164754
1311.782995,-5699.585753,-2068.457845,-518.144159
1311.783306,-7105.977043,-459.657299,-1110.308913
1311.783617,-8734.430116,1532.190996,-1110.308913
1311.783928,-10510.924376,2068.457845,-592.164754
1311.784240,-12065.356855,1455.581446,-0.000000
1311.784551,-11547.212695,536.266849,666.185348
1311.784862,-10066.800811,229.828649,370.102971
1311.785174,-9252.574275,-1608.800546,370.102971
1311.785485,-9104.533087,-1302.362347,-74.020594
1311.785796,-8142.265362,-76.609550,-518.144159
1311.786108,-7920.203579,306.438199,-0.000000
1311.786419,-8364.327145,842.705048,740.205942
1311.786730,-9178.553681,612.876398,1332.370696
1311.787041,-8586.388927,-306.438199,1776.494261
1311.787353,-8216.285956,-2451.505594,2294.638420
1311.787664,-8290.306550,-2987.772442,1184.329507
1311.787975,-9030.512492,-1532.190996,-444.123565
1311.788287,-8512.368333,229.828649,-1406.391290
1311.788598,-8216.285956,689.485948,-1184.329507
1311.788909,-8956.491898,1072.533697,-518.144159
1311.789221,-9918.759623,995.924147,-222.061783
1311.789532,-9918.759623,459.657299,592.164754
1311.789843,-9326.594869,-919.314598,1184.329507
1311.790154,-9548.656652,-1532.190996,1036.288319
1311.790466,-8956.491898,-383.047749,592.164754
1311.790777,-8808.450710,229.828649,-592.164754
1311.791088,-9326.594869,919.314598,-0.000000
1311.791400,-9696.697840,1302.362347,962.267725
1311.791711,-9770.718434,766.095498,1554.432478
1311.792022,-9548.656652,-919.314598,2294.638420
1311.792334,-8438.347739,-2145.067394,2738.761985
1311.792645,-7698.141797,-2451.505594,1332.370696
1311.792956,-7476.080014,-383.047749,-444.123565
1311.793268,-6883.915261,1149.143247,-1258.350101
1311.793579,-8216.285956,1838.629195,-1110.308913
1311.793890,-9400.615463,2451.505594,-148.041188
1311.794201,-10362.883188,2374.896044,444.123565
1311.794513,-10288.862594,1608.800546,1258.350101
1311.794824,-9696.697840,536.266849,1184.329507
1311.795135,-9548.656652,-689.485948,814.226536
1311.795447,-8586.388927,-842.705048,-222.061783
1311.795758,-8438.347739,76.609550,-148.041188
1311.796069,-8438.347739,1225.752797,-0.000000
1311.796381,-9104.533087,1302.362347,1036.288319
1311.796692,-9030.512492,383.047749,2220.617826
1311.797003,-9178.553681,-1608.800546,1924.535449
1311.797314,-7698.141797,-2451.505594,2368.659014
1311.797626,-6735.874072,-2451.505594,1258.350101
1311.797937,-7105.977043,-2221.676944,296.082377
1311.798248,-7105.977043,-842.705048,-444.123565
1311.798560,-7846.182985,153.219100,-814.226536
1311.798871,-8438.347739,612.876398,-148.041188
1311.799182,-9548.656652,995.924147,370.102971
1311.799494,-10807.006753,76.609550,296.082377
1311.799805,-9918.759623,-995.924147,666.185348
1311.800116,-10066.800811,-842.705048,740.205942
1311.800427,-9622.677246,-536.266849,-444.123565
1311.800739,-9770.718434,306.438199,-444.123565
1311.801050,-9696.697840,1302.362347,-74.020594
1311.801361,-9474.636058,1149.143247,740.205942
1311.801673,-9548.656652,536.266849,1258.350101
1311.801984,-8734.430116,536.266849,1332.370696
1311.802295,-7254.018232,-1608.800546,1036.288319
1311.802607,-6661.853478,-2757.943793,-0.000000
1311.802918,-6957.935855,-1838.629195,-0.000000
1311.803229,-8290.306550,-229.828649,-1110.308913
1311.803541,-9400.615463,919.314598,-444.123565
1311.803852,-10807.006753,689.485948,222.061783
1311.804163,-12139.377449,842.705048,1332.370696
1311.804475,-11473.192101,612.876398,1258.350101
1311.804786,-9696.697840,-153.219100,592.164754
1311.805097,-8438.347739,-842.705048,148.041188
1311.805409,-8068.244768,-1455.581446,-444.123565
1311.805720,-8142.265362,-229.828649,-814.226536
1311.806031,-9252.574275,306.438199,-592.164754
1311.806343,-10066.800811,919.314598,814.226536
1311.806654,-9992.780217,1455.581446,1702.473667
1311.806965,-9030.512492,-612.876398,2738.761985
1311.807277,-8142.265362,-2911.162892,2516.700203
1311.807588,-7105.977043,-3524.039291,1776.494261
1311.807899,-6735.874072,-1838.629195,-0.000000
1311.808211,-6587.832884,0.000000,-518.144159
1311.808522,-7698.141797,842.705048,-888.247130
1311.808833,-9178.553681,1149.143247,-370.102971
1311.809145,-9548.656652,1838.629195,-0.000000
1311.809456,-9770.718434,1302.362347,592.164754
1311.809768,-9030.512492,383.047749,962.267725
1311.810079,-9326.594869,-766.095498,962.267725
1311.810390,-8808.450710,-1149.143247,296.082377
1311.810702,-8734.430116,-689.485948,148.041188
1311.811013,-9474.636058,766.095498,740.205942
1311.811324,-9548.656652,1378.971896,1036.288319
1311.811636,-9104.533087,1455.581446,1702.473667
1311.811947,-8142.265362,-383.047749,2146.597232
1311.812258,-7476.080014,-2298.286494,2072.576638
1311.812570,-7031.956449,-3064.381992,1332.370696
1311.812881,-6587.832884,-2451.505594,296.082377
1311.813192,-7179.997637,-842.705048,-740.205942
1311.813504,-7994.224174,383.047749,-888.247130
1311.813815,-9548.656652,1072.533697,-444.123565
1311.814126,-10955.047942,766.095498,148.041188
1311.814438,-10807.006753,766.095498,666.185348
1311.814749,-9844.739029,-153.219100,1110.308913
1311.815060,-9548.656652,-995.924147,740.205942
1311.815372,-9548.656652,-1532.190996,-0.000000
1311.815683,-9030.512492,-383.047749,-370.102971
1311.815995,-9104.533087,766.095498,-222.061783
1311.816306,-9770.718434,1838.629195,370.102971
1311.816617,-9474.636058,1838.629195,814.226536
1311.816929,-9548.656652,306.438199,1258.350101
1311.817240,-7772.162391,-1378.971896,1332.370696
1311.817551,-7846.182985,-2068.457845,1036.288319
1311.817863,-7920.203579,-1149.143247,-0.000000
1311.818174,-7920.203579,0.000000,-740.205942
1311.818485,-8734.430116,842.705048,-1258.350101
1311.818797,-9326.594869,1838.629195,-740.205942
1311.819108,-10140.821405,1455.581446,-518.144159
1311.819419,-9474.636058,1608.800546,222.061783
1311.819731,-9474.636058,153.219100,740.205942
1311.820042,-9326.594869,-766.095498,518.144159
1311.820353,-9326.594869,-383.047749,148.041188
1311.820665,-9992.780217,689.485948,-296.082377
1311.820976,-10066.800811,1762.019645,-74.020594
1311.821288,-9844.739029,2068.457845,592.164754
1311.821599,-9326.594869,2374.896044,962.267725
1311.821910,-8068.244768,0.000000,1480.411884
1311.822222,-7179.997637,-1838.629195,1850.514855
1311.822533,-6809.894666,-2374.896044,1332.370696
1311.822844,-6439.791695,-1838.629195,-0.000000
1311.823156,-7476.080014,0.000000,-592.164754
1311.823467,-8290.306550,383.047749,-666.185348
1311.823778,-8808.450710,995.924147,-222.061783
1311.824090,-9918.759623,1608.800546,592.164754
1311.824401,-10288.862594,689.485948,1184.329507
1311.824712,-9844.739029,-306.438199,740.205942
1311.825024,-8882.471304,-995.924147,666.185348
1311.825335,-8364.327145,-1225.752797,222.061783
1311.825646,-7476.080014,-842.705048,-0.000000
1311.825958,-8068.244768,76.609550,-222.061783
1311.826269,-9548.656652,0.000000,740.205942
1311.826580,-9474.636058,995.924147,1998.556043
1311.826892,-9918.759623,1378.971896,1924.535449
1311.827203,-9104.533087,-459.657299,1924.535449
1311.827515,-8216.285956,-1991.848295,1480.411884
1311.827826,-7105.977043,-1838.629195,-0.000000
1311.828137,-6883.915261,-229.828649,-1184.329507
1311.828449,-7846.182985,995.924147,-1998.556043
1311.828760,-8660.409521,1225.752797,-1184.329507
1311.829071,-10510.924376,689.485948,-148.041188
1311.829383,-10658.965565,842.705048,740.205942
1311.829694,-10214.842000,-536.266849,1850.514855
1311.830005,-10510.924376,-1762.019645,1480.411884
1311.830317,-9770.718434,-1915.238745,1554.432478
1311.830628,-9474.636058,-919.314598,962.267725
1311.830939,-9918.759623,-383.047749,370.102971
1311.831251,-10510.924376,995.924147,1184.329507
1311.831562,-9622.677246,229.828649,2072.576638
1311.831873,-9104.533087,-383.047749,1998.556043
1311.832185,-8068.244768,-2298.286494,2442.679609
1311.832496,-7550.100608,-3140.991542,1998.556043
1311.832808,-7179.997637,-2068.457845,1184.329507
1311.833119,-7772.162391,-536.266849,-148.041188
1311.833430,-7846.182985,1302.362347,-370.102971
1311.833742,-8586.388927,2145.067394,-0.000000
1311.834053,-9252.574275,2451.505594,666.185348
1311.834364,-8882.471304,1302.362347,1184.329507
1311.834676,-8660.409521,76.609550,1036.288319
1311.834987,-8142.265362,-383.047749,888.247130
1311.835298,-7698.141797,153.219100,-222.061783
1311.835610,-7994.224174,1302.362347,-888.247130
1311.835921,-8512.368333,2221.676944,-592.164754
1311.836232,-8956.491898,1225.752797,-0.000000
1311.836544,-9252.574275,1378.971896,1332.370696
1311.836855,-9030.512492,536.266849,2442.679609
1311.837166,-8586.388927,-1532.190996,2960.823768
1311.837478,-8364.327145,-3524.039291,2368.659014
1311.837789,-7550.100608,-3524.039291,962.267725
1311.838101,-7105.977043,-2374.896044,-1184.329507
1311.838412,-6957.935855,-689.485948,-1554.432478
1311.838723,-8364.327145,766.095498,-1850.514855
1311.839035,-10288.862594,995.924147,-1110.308913
1311.839346,-10881.027347,153.219100,-222.061783
1311.839657,-11029.068536,-306.438199,814.226536
1311.839969,-10510.924376,-1072.533697,1332.370696
1311.840280,-9622.677246,-1072.533697,370.102971
1311.840591,-8808.450710,-383.047749,-518.144159
1311.840903,-8956.491898,1072.533697,-740.205942
1311.841214,-8734.430116,1991.848295,-74.020594
1311.841525,-9326.594869,1225.752797,-0.000000
1311.841837,-9474.636058,536.266849,592.164754
1311.842148,-8808.450710,-1072.533697,1036.288319
1311.842459,-8364.327145,-2604.724693,962.267725
1311.842771,-8290.306550,-2374.896044,-74.020594
1311.843082,-8956.491898,-919.314598,-814.226536
1311.843393,-8512.368333,-229.828649,-518.144159
1311.843705,-9326.594869,306.438199,-370.102971
1311.844016,-10584.944971,1608.800546,-0.000000
1311.844328,-10732.986159,1685.410096,296.082377
1311.844639,-10066.800811,842.705048,740.205942
1311.844950,-9030.512492,0.000000,370.102971
1311.845262,-8438.347739,0.000000,-74.020594
1311.845573,-8364.327145,459.657299,-444.123565
1311.845884,-8882.471304,612.876398,-296.082377
1311.846196,-9030.512492,1608.800546,592.164754
1311.846507,-10362.883188,689.485948,1184.329507
1311.846818,-9548.656652,995.924147,2220.617826
1311.847130,-8068.244768,0.000000,2220.617826
1311.847441,-7105.977043,-1838.629195,2368.659014
1311.847752,-5551.544565,-2298.286494,1628.453072
1311.848064,-5995.668130,-1072.533697,-296.082377
1311.848375,-6735.874072,383.047749,-814.226536
1311.848686,-7179.997637,2374.896044,-370.102971
1311.848998,-9474.636058,1991.848295,-296.082377
1311.849309,-10881.027347,1838.629195,518.144159
1311.849621,-10436.903782,842.705048,1406.391290
1311.849932,-9770.718434,-306.438199,1110.308913
1311.850243,-9400.615463,-766.095498,1702.473667
1311.850555,-9104.533087,-766.095498,1036.288319
1311.850866,-8956.491898,153.219100,740.205942
1311.851177,-8734.430116,689.485948,1036.288319
1311.851489,-8068.244768,1302.362347,1850.514855
1311.851800,-7698.141797,689.485948,1702.473667
1311.852111,-7698.141797,-995.924147,1480.411884
1311.852423,-7476.080014,-2528.115143,1554.432478
1311.852734,-7031.956449,-2298.286494,-0.000000
1311.853045,-7402.059420,-536.266849,-222.061783
1311.853357,-9326.594869,0.000000,-814.226536
1311.853668,-9992.780217,0.000000,-222.061783
1311.853979,-10510.924376,76.609550,518.144159
1311.854291,-10584.944971,689.485948,1110.308913
1311.854602,-10510.924376,306.438199,740.205942
1311.854913,-9548.656652,-306.438199,1184.329507
1311.855225,-9252.574275,-1685.410096,370.102971
1311.855536,-8808.450710,-383.047749,-148.041188
1311.855848,-8660.409521,1302.362347,-666.185348
1311.856159,-9918.759623,919.314598,-148.041188
1311.856470,-10362.883188,459.657299,1184.329507
1311.856782,-9918.759623,-153.219100,1776.494261
1311.857093,-8956.491898,-1685.410096,2220.617826
1311.857404,-8364.327145,-3447.429741,2220.617826
1311.857716,-7550.100608,-3830.477490,1554.432478
1311.858027,-7179.997637,-2528.115143,-444.123565
1311.858338,-7105.977043,-689.485948,-1406.391290
1311.858650,-7920.203579,995.924147,-2072.576638
1311.858961,-9622.677246,1915.238745,-1332.370696
1311.859272,-10658.965565,2145.067394,-888.247130
1311.859584,-10140.821405,1072.533697,148.041188
1311.859895,-9770.718434,-459.657299,518.144159
1311.860206,-8660.409521,-1302.362347,1406.391290
1311.860518,-9622.677246,-1762.019645,296.082377
1311.860829,-9622.677246,-536.266849,592.164754
1311.861141,-9178.553681,-306.438199,962.267725
1311.861452,-9326.594869,0.000000,888.247130
1311.861763,-9252.574275,76.609550,1258.350101
1311.862075,-8882.471304,-1762.019645,1036.288319
1311.862386,-7031.956449,-2757.943793,1258.350101
1311.862697,-7105.977043,-2834.553343,-0.000000
1311.863009,-8216.285956,-1072.533697,-518.144159
1311.863320,-8068.244768,612.876398,-1406.391290
1311.863631,-8586.388927,1302.362347,-666.185348
1311.863943,-8882.471304,1532.190996,222.061783
1311.864254,-9252.574275,1072.533697,814.226536
1311.864565,-9918.759623,995.924147,740.205942
1311.864877,-9400.615463,-229.828649,518.144159
1311.865188,-8882.471304,-306.438199,148.041188
1311.865499,-9326.594869,459.657299,-74.020594
1311.865811,-9400.615463,1072.533697,-592.164754
1311.866122,-9474.636058,1608.800546,148.041188
1311.866433,-9252.574275,1072.533697,740.205942
1311.866745,-9030.512492,919.314598,1702.473667
1311.867056,-8142.265362,459.657299,1850.514855
1311.867368,-7846.182985,-1915.238745,1480.411884
1311.867679,-7698.141797,-2451.505594,814.226536
1311.867990,-7994.224174,-1072.533697,-74.020594
1311.868302,-8734.430116,383.047749,-444.123565
1311.868613,-9400.615463,1378.971896,-444.123565
1311.868924,-10436.903782,1532.190996,-222.061783
1311.869236,-10658.965565,2298.286494,666.185348
1311.869547,-9770.718434,1762.019645,888.247130
1311.869858,-9474.636058,0.000000,592.164754
1311.870170,-8734.430116,-842.705048,1110.308913
1311.870481,-8216.285956,229.828649,148.041188
1311.870792,-8364.327145,612.876398,-148.041188
1311.871104,-9918.759623,536.266849,222.061783
1311.871415,-10214.842000,1149.143247,962.267725
1311.871726,-9696.697840,766.095498,1480.411884
1311.872038,-8882.471304,-842.705048,2294.638420
1311.872349,-7698.141797,-2451.505594,2220.617826
1311.872661,-7105.977043,-3217.601092,1036.288319
1311.872972,-7105.977043,-2221.676944,740.205942
1311.873283,-7402.059420,-459.657299,-0.000000
1311.873595,-7994.224174,1072.533697,-148.041188
1311.873906,-9252.574275,1915.238745,222.061783
1311.874217,-9474.636058,1915.238745,666.185348
1311.874529,-9400.615463,689.485948,888.247130
1311.874840,-8660.409521,-306.438199,592.164754
1311.875151,-8882.471304,153.219100,-148.041188
1311.875463,-9400.615463,-383.047749,-370.102971
1311.875774,-9474.636058,612.876398,-518.144159
1311.876085,-9696.697840,1225.752797,370.102971
1311.876397,-9696.697840,1072.533697,1554.432478
1311.876708,-8956.491898,0.000000,2368.659014
1311.877019,-7698.141797,-842.705048,2368.659014
1311.877331,-6143.709319,-2451.505594,2368.659014
1311.877642,-6735.874072,-3064.381992,888.247130
1311.877954,-6661.853478,-2987.772442,-296.082377
1311.878265,-7179.997637,-766.095498,-1998.556043
1311.878576,-8438.347739,536.266849,-2368.659014
1311.878888,-10362.883188,1149.143247,-1554.432478
1311.879199,-12435.459826,1378.971896,-74.020594
1311.879510,-12287.418637,842.705048,1110.308913
1311.879822,-11177.109724,-1685.410096,1998.556043
1311.880133,-10214.842000,-2528.115143,1998.556043
1311.880444,-9548.656652,-2145.067394,1258.350101
1311.880756,-9474.636058,-612.876398,518.144159
1311.881067,-8438.347739,766.095498,-0.000000
1311.881378,-8364.327145,2068.457845,296.082377
1311.881690,-8660.409521,1762.019645,-0.000000
1311.882001,-7698.141797,383.047749,296.082377
1311.882312,-7624.121203,-1762.019645,666.185348
1311.882624,-7624.121203,-2298.286494,592.164754
1311.882935,-8512.368333,-842.705048,-518.144159
1311.883246,-9178.553681,306.438199,-666.185348
1311.883558,-9474.636058,919.314598,-444.123565
1311.883869,-10066.800811,1149.143247,592.164754
1311.884181,-10584.944971,536.266849,1036.288319
1311.884492,-9844.739029,612.876398,1184.329507
1311.884803,-9326.594869,-383.047749,1036.288319
1311.885115,-8068.244768,-1072.533697,666.185348
1311.885426,-8142.265362,-919.314598,-370.102971
1311.885737,-8290.306550,-459.657299,-518.144159
1311.886049,-9030.512492,0.000000,-222.061783
1311.886360,-8956.491898,1072.533697,1184.329507
1311.886671,-9326.594869,842.705048,1702.473667
1311.886983,-9252.574275,-1455.581446,2590.720797
1311.887294,-8142.265362,-2987.772442,2886.803174
1311.887605,-7179.997637,-4136.915689,2294.638420
1311.887917,-6883.915261,-3064.381992,740.205942
1311.888228,-7624.121203,-536.266849,-1036.288319
1311.888539,-8068.244768,1762.019645,-1110.308913
1311.888851,-9326.594869,2451.505594,-1406.391290
1311.889162,-9770.718434,1915.238745,-0.000000
1311.889474,-9252.574275,1225.752797,-0.000000
1311.889785,-8734.430116,536.266849,814.226536
1311.890096,-8734.430116,-1149.143247,1110.308913
1311.890408,-9548.656652,-1225.752797,148.041188
1311.890719,-9918.759623,0.000000,-0.000000
1311.891030,-10214.842000,919.314598,222.061783
1311.891342,-10584.944971,1302.362347,1184.329507
1311.891653,-10214.842000,689.485948,1702.473667
1311.891964,-9696.697840,689.485948,1702.473667
1311.892276,-7994.224174,-2068.457845,1258.350101
1311.892587,-7328.038826,-1762.019645,666.185348
1311.892898,-7105.977043,0.000000,-0.000000
1311.893210,-7550.100608,1302.362347,-1036.288319
1311.893521,-8512.368333,1915.238745,-814.226536
1311.893832,-9474.636058,1532.190996,-296.082377
1311.894144,-10362.883188,1685.410096,-0.000000
1311.894455,-10584.944971,2374.896044,-0.000000
1311.894766,-11325.150913,1072.533697,148.041188
1311.895078,-11177.109724,76.609550,222.061783
1311.895389,-9844.739029,306.438199,-0.000000
1311.895701,-9252.574275,1149.143247,-74.020594
1311.896012,-8660.409521,1762.019645,666.185348
1311.896323,-7624.121203,1378.971896,1258.350101
1311.896635,-6957.935855,1532.190996,1850.514855
1311.896946,-5995.668130,0.000000,2072.576638
1311.897257,-6069.688724,-1608.800546,1554.432478
1311.897569,-6809.894666,-2987.772442,962.267725
1311.897880,-8216.285956,-2374.896044,-592.164754
1311.898191,-8660.409521,-229.828649,-1184.329507
1311.898503,-9252.574275,2145.067394,-1702.473667
1311.898814,-10436.903782,2374.896044,-1036.288319
1311.899125,-10066.800811,1685.410096,-0.000000
1311.899437,-9918.759623,1072.533697,296.082377
1311.899748,-8956.491898,-153.219100,1628.453072
1311.900059,-7846.182985,0.000000,1332.370696
1311.900371,-8364.327145,-766.095498,962.267725
1311.900682,-7846.182985,-689.485948,1184.329507
1311.900994,-7624.121203,-536.266849,888.247130
1311.901305,-8364.327145,-766.095498,1184.329507
1311.901616,-9474.636058,153.219100,740.205942
1311.901928,-10066.800811,0.000000,1258.350101
1311.902239,-9622.677246,-1149.143247,1332.370696
1311.902550,-9252.574275,-2911.162892,1480.411884
1311.902862,-9474.636058,-2604.724693,1036.288319
1311.903173,-9844.739029,-459.657299,296.082377
1311.903484,-9770.718434,1072.533697,222.061783
1311.903796,-9178.553681,1378.971896,-0.000000
1311.904107,-9844.739029,1838.629195,-0.000000
1311.904419,-8660.409521,1685.410096,740.205942
1311.904730,-8364.327145,459.657299,370.102971
1311.905041,-8364.327145,-995.924147,370.102971
1311.905353,-8660.409521,-1225.752797,-222.061783
1311.905664,-9474.636058,-383.047749,-370.102971
1311.905976,-9696.697840,536.266849,370.102971
1311.906287,-10658.965565,995.924147,1332.370696
1311.906598,-10362.883188,229.828649,2590.720797
1311.906910,-9178.553681,-919.314598,3034.844362
1311.907221,-7179.997637,-1838.629195,3182.885551
1311.907533,-5921.647536,-2374.896044,1998.556043
1311.907844,-5033.400406,-1608.800546,592.164754
1311.908155,-5107.421000,-383.047749,-1184.329507
1311.908467,-6439.791695,1302.362347,-1998.556043
1311.908778,-8216.285956,1991.848295,-1184.329507
1311.909090,-10362.883188,2298.286494,-444.123565
1311.909401,-11621.233289,1302.362347,888.247130
1311.909713,-11177.109724,-842.705048,1924.535449
1311.910024,-10066.800811,-2451.505594,1998.556043
1311.910335,-8734.430116,-2298.286494,1924.535449
1311.910647,-8586.388927,-1532.190996,592.164754
1311.910958,-8142.265362,-153.219100,-0.000000
1311.911270,-8216.285956,995.924147,-148.041188
1311.911581,-8438.347739,2145.067394,962.267725
1311.911892,-7846.182985,1149.143247,666.185348
1311.912204,-7402.059420,-306.438199,888.247130
1311.912515,-7254.018232,-2068.457845,444.123565
1311.912827,-7846.182985,-1991.848295,-296.082377
1311.913138,-8512.368333,-1608.800546,-1036.288319
1311.913449,-8586.388927,229.828649,-1036.288319
1311.913761,-11473.192101,383.047749,-666.185348
1311.914072,-11843.295072,459.657299,592.164754
1311.914384,-12065.356855,306.438199,962.267725
1311.914695,-10955.047942,-229.828649,666.185348
1311.915006,-9844.739029,-919.314598,740.205942
1311.915318,-9030.512492,-689.485948,-74.020594
1311.915629,-7698.141797,919.314598,-962.267725
1311.915941,-8216.285956,766.095498,-888.247130
1311.916252,-9030.512492,995.924147,-370.102971
1311.916563,-9696.697840,1302.362347,444.123565
1311.916875,-9400.615463,612.876398,1110.308913
1311.917186,-8512.368333,-1302.362347,1554.432478
1311.917498,-7698.141797,-2911.162892,1924.535449
1311.917809,-7846.182985,-2681.334243,888.247130
1311.918121,-9474.636058,-1915.238745,-148.041188
1311.918432,-8882.471304,1455.581446,-888.247130
1311.918743,-9326.594869,2757.943793,-814.226536
1311.919055,-10732.986159,2911.162892,-222.061783
1311.919366,-8956.491898,1838.629195,148.041188
1311.919678,-7846.182985,153.219100,296.082377
1311.919989,-6143.709319,-536.266849,1258.350101
1311.920300,-7328.038826,-1149.143247,-0.000000
1311.920612,-9400.615463,-689.485948,148.041188
1311.920923,-9844.739029,1072.533697,888.247130
1311.921235,-9992.780217,1685.410096,1258.350101
1311.921546,-10140.821405,1149.143247,2368.659014
1311.921857,-10214.842000,995.924147,2368.659014
1311.922169,-8586.388927,-612.876398,2442.679609
1311.922480,-6365.771101,-1532.190996,1998.556043
1311.922792,-6069.688724,-1378.971896,1184.329507
1311.923103,-6291.750507,-995.924147,-0.000000
1311.923414,-6513.812290,919.314598,-370.102971
1311.923726,-7402.059420,919.314598,-370.102971
1311.924037,-8586.388927,1762.019645,-74.020594
1311.924349,-9918.759623,2145.067394,-0.000000
1311.924660,-10288.862594,995.924147,1110.308913
1311.924972,-10510.924376,-1225.752797,1406.391290
1311.925283,-10066.800811,-1532.190996,1110.308913
1311.925594,-9474.636058,383.047749,888.247130
1311.925906,-9252.574275,1072.533697,666.185348
1311.926217,-9178.553681,919.314598,1110.308913
1311.926529,-8808.450710,1072.533697,1258.350101
1311.926840,-8068.244768,612.876398,1332.370696
1311.927151,-6957.935855,-1302.362347,2072.576638
1311.927463,-7254.018232,-3370.820191,962.267725
1311.927774,-7328.038826,-3140.991542,518.144159
1311.928086,-7624.121203,-1991.848295,-1184.329507
1311.928397,-9474.636058,-459.657299,-1258.350101
1311.928708,-10140.821405,689.485948,-518.144159
1311.929020,-11473.192101,612.876398,-0.000000
1311.929331,-11029.068536,689.485948,1036.288319
1311.929643,-10066.800811,-536.266849,1110.308913
1311.929954,-9252.574275,-2068.457845,962.267725
1311.930265,-9474.636058,-1225.752797,518.144159
1311.930577,-9104.533087,-612.876398,-814.226536
1311.930888,-8216.285956,-306.438199,-666.185348
1311.931200,-9400.615463,229.828649,-740.205942
1311.931511,-9770.718434,766.095498,-0.000000
1311.931823,-9474.636058,383.047749,592.164754
1311.932134,-9326.594869,-1608.800546,1480.411884
1311.932445,-8882.471304,-3064.381992,1258.350101
1311.932757,-7920.203579,-2451.505594,1332.370696
1311.933068,-8068.244768,-1072.533697,-0.000000
1311.933380,-7846.182985,0.000000,-222.061783
1311.933691,-8438.347739,842.705048,-444.123565
1311.934002,-9622.677246,1378.971896,-148.041188
1311.934314,-9548.656652,1915.238745,-0.000000
1311.934625,-9474.636058,1072.533697,-296.082377
1311.934937,-9548.656652,306.438199,-0.000000
1311.935248,-9696.697840,-459.657299,-370.102971
1311.935559,-9252.574275,0.000000,-740.205942
1311.935871,-7920.203579,1072.533697,-222.061783
1311.936182,-8512.368333,1302.362347,666.185348
1311.936494,-8808.450710,1072.533697,2072.576638
1311.936805,-8956.491898,-229.828649,2368.659014
1311.937116,-7550.100608,-1072.533697,2738.761985
1311.937428,-6957.935855,-2451.505594,1776.494261
1311.937739,-6883.915261,-1991.848295,296.082377
1311.938051,-7254.018232,-612.876398,-1332.370696
1311.938362,-7920.203579,76.609550,-1702.473667
1311.938674,-9030.512492,1225.752797,-1184.329507
1311.938985,-10214.842000,1685.410096,-666.185348
1311.939296,-11029.068536,1838.629195,370.102971
1311.939608,-10362.883188,919.314598,1110.308913
1311.939919,-8808.450710,-1608.800546,1850.514855
1311.940231,-8216.285956,-2145.067394,1554.432478
1311.940542,-8290.306550,-1455.581446,518.144159
1311.940853,-9030.512492,0.000000,296.082377
1311.941165,-9918.759623,919.314598,888.247130
1311.941476,-10362.883188,1455.581446,1258.350101
1311.941788,-9992.780217,612.876398,1406.391290
1311.942099,-9178.553681,-1225.752797,1554.432478
1311.942410,-7624.121203,-2374.896044,1184.329507
1311.942722,-7105.977043,-2528.115143,296.082377
1311.943033,-7772.162391,-1762.019645,-74.020594
1311.943345,-8364.327145,0.000000,-296.082377
1311.943656,-9104.533087,1072.533697,-0.000000
1311.943967,-9474.636058,1915.238745,740.205942
1311.944279,-10066.800811,2145.067394,740.205942
1311.944590,-10140.821405,1149.143247,444.123565
1311.944902,-9474.636058,459.657299,592.164754
1311.945213,-8956.491898,-229.828649,296.082377
1311.945525,-8512.368333,689.485948,-370.102971
1311.945836,-9252.574275,1072.533697,-296.082377
1311.946147,-10140.821405,1378.971896,-0.000000
1311.946459,-9326.594869,1838.629195,888.247130
1311.946770,-9030.512492,1378.971896,1480.411884
1311.947082,-7624.121203,-536.266849,2072.576638
1311.947393,-7105.977043,-2451.505594,1924.535449
1311.947704,-6513.812290,-2911.162892,1850.514855
1311.948016,-7105.977043,-1608.800546,148.041188
1311.948327,-8142.265362,612.876398,-370.102971
1311.948639,-9178.553681,2145.067394,-1036.288319
1311.948950,-9992.780217,2528.115143,-148.041188
1311.949261,-9918.759623,1991.848295,-370.102971
1311.949573,-8956.491898,612.876398,-0.000000
1311.949884,-8438.347739,-689.485948,518.144159
1311.950196,-8512.368333,-2068.457845,-0.000000
1311.950507,-8882.471304,-1838.629195,-148.041188
1311.950818,-8956.491898,-536.266849,148.041188
1311.951130,-9622.677246,76.609550,814.226536
1311.951441,-10066.800811,1378.971896,1258.350101
1311.951753,-10362.883188,1378.971896,1554.432478
1311.952064,-9178.553681,612.876398,1480.411884
1311.952375,-7772.162391,-919.314598,1110.308913
1311.952687,-6439.791695,-1608.800546,-0.000000
1311.952998,-6809.894666,-1225.752797,-1184.329507
1311.953310,-7698.141797,0.000000,-1702.473667
1311.953621,-8142.265362,995.924147,-814.226536
1311.953933,-10214.842000,612.876398,-148.041188
1311.954244,-11251.130318,76.609550,666.185348
1311.954555,-11695.253884,229.828649,1332.370696
1311.954867,-10807.006753,-766.095498,2072.576638
1311.955178,-9844.739029,-1762.019645,1776.494261
1311.955490,-9252.574275,-995.924147,666.185348
1311.955801,-9474.636058,0.000000,-0.000000
1311.956112,-9104.533087,612.876398,888.247130
1311.956424,-9030.512492,919.314598,2294.638420
1311.956735,-8956.491898,153.219100,1776.494261
1311.957047,-7550.100608,-612.876398,2294.638420
1311.957358,-6735.874072,-2604.724693,2220.617826
1311.957669,-7402.059420,-3294.210641,1480.411884
1311.957981,-7402.059420,-2451.505594,370.102971
1311.958292,-7624.121203,-842.705048,-444.123565
1311.958604,-9030.512492,919.314598,-444.123565
1311.958915,-10066.800811,1838.629195,-148.041188
1311.959226,-9696.697840,1532.190996,444.123565
1311.959538,-9326.594869,612.876398,962.267725
1311.959849,-8142.265362,-306.438199,814.226536
1311.960161,-7698.141797,-689.485948,814.226536
1311.960472,-8142.265362,-766.095498,148.041188
1311.960784,-8956.491898,76.609550,296.082377
1311.961095,-9104.533087,1378.971896,888.247130
1311.961406,-9622.677246,1302.362347,888.247130
1311.961718,-9844.739029,1149.143247,1924.535449
1311.962029,-8956.491898,-306.438199,1406.391290
1311.962341,-8068.244768,-2451.505594,1406.391290
1311.962652,-7179.997637,-2451.505594,666.185348
1311.962963,-7550.100608,-1532.190996,-370.102971
1311.963275,-8068.244768,383.047749,-962.267725
1311.963586,-9178.553681,1608.800546,-888.247130
1311.963898,-9622.677246,1225.752797,-0.000000
1311.964209,-10288.862594,2068.457845,518.144159
1311.964520,-10362.883188,995.924147,518.144159
1311.964832,-9992.780217,229.828649,814.226536
1311.965143,-10066.800811,-689.485948,74.020594
1311.965455,-9400.615463,-306.438199,-296.082377
1311.965766,-8660.409521,536.266849,-814.226536
1311.966077,-8956.491898,995.924147,-592.164754
1311.966389,-8512.368333,1378.971896,-0.000000
1311.966700,-8364.327145,1455.581446,814.226536
1311.967012,-7698.141797,459.657299,1332.370696
1311.967323,-8216.285956,-1302.362347,1554.432478
1311.967635,-8290.306550,-2451.505594,1036.288319
1311.967946,-8216.285956,-1608.800546,148.041188
1311.968257,-8586.388927,-153.219100,-592.164754
1311.968569,-9696.697840,1149.143247,-1184.329507
1311.968880,-10362.883188,2145.067394,-888.247130
1311.969192,-10807.006753,1149.143247,-74.020594
1311.969503,-8882.471304,536.266849,888.247130
1311.969814,-8290.306550,-612.876398,962.267725
1311.970126,-8660.409521,-1915.238745,666.185348
1311.970437,-9918.759623,-1455.581446,222.061783
1311.970749,-9548.656652,536.266849,-0.000000
1311.971060,-9104.533087,1991.848295,296.082377
1311.971371,-9918.759623,2451.505594,1554.432478
1311.971683,-9326.594869,1608.800546,2072.576638
1311.971994,-9104.533087,-306.438199,2220.617826
1311.972306,-7402.059420,-1532.190996,1924.535449
1311.972617,-6217.729913,-1455.581446,1258.350101
1311.972928,-6735.874072,-1225.752797,-0.000000
1311.973240,-7402.059420,229.828649,-0.000000
1311.973551,-7920.203579,459.657299,-444.123565
1311.973863,-8808.450710,229.828649,-0.000000
1311.974174,-10066.800811,2068.457845,592.164754
1311.974486,-11029.068536,2068.457845,1406.391290
1311.974797,-10288.862594,76.609550,1332.370696
1311.975108,-9918.759623,-1149.143247,1258.350101
1311.975420,-9252.574275,-689.485948,814.226536
1311.975731,-8808.450710,536.266849,444.123565
1311.976043,-8660.409521,1302.362347,1184.329507
1311.976354,-8438.347739,766.095498,1258.350101
1311.976665,-8068.244768,306.438199,1998.556043
1311.976977,-7179.997637,-612.876398,2368.659014
1311.977288,-7105.977043,-1685.410096,2072.576638
1311.977600,-6883.915261,-2834.553343,1702.473667
1311.977911,-6809.894666,-2451.505594,-0.000000
1311.978222,-6957.935855,-766.095498,-962.267725
1311.978534,-7624.121203,459.657299,-962.267725
1311.978845,-9770.718434,1225.752797,-814.226536
1311.979157,-11325.150913,1072.533697,222.061783
1311.979468,-10732.986159,612.876398,1036.288319
1311.979779,-9770.718434,-536.266849,1406.391290
1311.980091,-9770.718434,-1455.581446,1184.329507
1311.980402,-9474.636058,-1532.190996,740.205942
1311.980714,-8512.368333,-1149.143247,74.020594
1311.981025,-9252.574275,-76.609550,-0.000000
1311.981336,-9400.615463,1685.410096,444.123565
1311.981648,-9918.759623,1072.533697,1036.288319
1311.981959,-9474.636058,-612.876398,1258.350101
1311.982271,-8364.327145,-2757.943793,1184.329507
1311.982582,-7994.224174,-3447.429741,962.267725
1311.982894,-8216.285956,-1608.800546,-296.082377
1311.983205,-8660.409521,-536.266849,-962.267725
1311.983516,-8882.471304,842.705048,-1332.370696
1311.983828,-10140.821405,1072.533697,-222.061783
1311.984139,-10658.965565,1455.581446,592.164754
1311.984451,-10807.006753,1455.581446,666.185348
1311.984762,-9918.759623,1072.533697,1036.288319
1311.985073,-9474.636058,-153.219100,740.205942
1311.985385,-8290.306550,-383.047749,-74.020594
1311.985696,-7920.203579,76.609550,-666.185348
1311.986008,-8364.327145,689.485948,-74.020594
1311.986319,-8734.430116,1991.848295,592.164754
1311.986630,-9474.636058,1608.800546,740.205942
1311.986942,-9326.594869,76.609550,1702.473667
1311.987253,-8660.409521,-1838.629195,2368.659014
1311.987565,-7920.203579,-3064.381992,2072.576638
1311.987876,-7402.059420,-1915.238745,444.123565
1311.988187,-6957.935855,-536.266849,-0.000000
1311.988499,-7624.121203,536.266849,-444.123565
1311.988810,-8438.347739,842.705048,-518.144159
1311.989122,-9178.553681,1302.362347,-222.061783
1311.989433,-8956.491898,842.705048,-222.061783
1311.989745,-7920.203579,0.000000,-0.000000
1311.990056,-8512.368333,-1378.971896,370.102971
1311.990367,-8660.409521,-1991.848295,518.144159
1311.990679,-9844.739029,-919.314598,296.082377
1311.990990,-10140.821405,1072.533697,666.185348
1311.991302,-10658.965565,766.095498,2146.597232
1311.991613,-10214.842000,995.924147,2442.679609
1311.991924,-9030.512492,0.000000,1850.514855
1311.992236,-7328.038826,-1302.362347,1998.556043
1311.992547,-6069.688724,-2604.724693,962.267725
1311.992859,-6069.688724,-1608.800546,-0.000000
1311.993170,-7105.977043,459.657299,-1036.288319
1311.993481,-8956.491898,-306.438199,-1258.350101
1311.993793,-9844.739029,1302.362347,-666.185348
1311.994104,-11399.171507,2451.505594,-592.164754
1311.994416,-11843.295072,2681.334243,-0.000000
1311.994727,-11325.150913,1225.752797,444.123565
1311.995038,-11029.068536,0.000000,962.267725
1311.995350,-10288.862594,-229.828649,962.267725
1311.995661,-9400.615463,842.705048,666.185348
1311.995973,-7846.182985,1762.019645,962.267725
1311.996284,-8068.244768,459.657299,962.267725
1311.996596,-8142.265362,229.828649,962.267725
1311.996907,-8364.327145,0.000000,1036.288319
1311.997218,-8586.388927,-919.314598,740.205942
1311.997530,-8438.347739,-1532.190996,518.144159
1311.997841,-7920.203579,-1302.362347,-0.000000
1311.998153,-7994.224174,-842.705048,-666.185348
1311.998464,-8142.265362,536.266849,-666.185348
1311.998775,-8808.450710,1455.581446,296.082377
1311.999087,-9548.656652,1915.238745,518.144159
1311.999398,-9474.636058,1225.752797,1332.370696
1311.999710,-8512.368333,76.609550,1332.370696
1312.000021,-7772.162391,-1225.752797,1110.308913
1312.000332,-7994.224174,-1072.533697,444.123565
1312.000644,-7994.224174,-612.876398,-0.000000
1312.000955,-8586.388927,306.438199,148.041188
1312.001267,-9622.677246,766.095498,592.164754
1312.001578,-10140.821405,536.266849,1702.473667
1312.001889,-9400.615463,-536.266849,1702.473667
1312.002201,-8142.265362,-2374.896044,1776.494261
1312.002512,-6735.874072,-3294.210641,1406.391290
1312.002824,-6365.771101,-2068.457845,444.123565
1312.003135,-7179.997637,-1072.533697,-740.205942
1312.003447,-7698.141797,0.000000,-518.144159
1312.003758,-8882.471304,0.000000,-0.000000
1312.004069,-10214.842000,306.438199,592.164754
1312.004381,-11251.130318,383.047749,888.247130
1312.004692,-10584.944971,0.000000,666.185348
1312.005004,-9622.677246,-1072.533697,888.247130
1312.005315,-10362.883188,-1762.019645,-0.000000
1312.005626,-9400.615463,-689.485948,-222.061783
1312.005938,-9474.636058,76.609550,-222.061783
1312.006249,-9474.636058,689.485948,592.164754
1312.006561,-9252.574275,766.095498,1776.494261
1312.006872,-9252.574275,-383.047749,1924.535449
1312.007183,-8142.265362,-2221.676944,2294.638420
1312.007495,-8290.306550,-2987.772442,740.205942
1312.007806,-7550.100608,-1685.410096,-74.020594
1312.008118,-7994.224174,153.219100,-1258.350101
1312.008429,-8586.388927,1149.143247,-1332.370696
1312.008740,-9548.656652,1149.143247,-1554.432478
1312.009052,-10436.903782,1302.362347,-370.102971
1312.009363,-10436.903782,1302.362347,370.102971
1312.009675,-9696.697840,-306.438199,666.185348
1312.009986,-9178.553681,-1608.800546,1258.350101
1312.010297,-8808.450710,-2068.457845,1184.329507
1312.010609,-8956.491898,-1149.143247,592.164754
1312.010920,-9400.615463,0.000000,666.185348
1312.011232,-9548.656652,842.705048,1184.329507
1312.011543,-9030.512492,1302.362347,1702.473667
1312.011854,-8586.388927,229.828649,1924.535449
1312.012166,-6883.915261,-1685.410096,1776.494261
1312.012477,-6069.688724,-2528.115143,962.267725
1312.012789,-6069.688724,-1762.019645,296.082377
1312.013100,-6143.709319,-383.047749,-962.267725
1312.013411,-7624.121203,919.314598,-1036.288319
1312.013723,-9252.574275,1608.800546,-222.061783
1312.014034,-10510.924376,1608.800546,740.205942
1312.014345,-10955.047942,1149.143247,1184.329507
1312.014657,-9992.780217,459.657299,1184.329507
1312.014968,-9326.594869,-919.314598,1258.350101
1312.015280,-8512.368333,-1072.533697,666.185348
1312.015591,-8068.244768,0.000000,-74.020594
1312.015902,-8216.285956,306.438199,-444.123565
1312.016214,-8586.388927,919.314598,148.041188
1312.016525,-8660.409521,919.314598,666.185348
1312.016837,-9474.636058,306.438199,1258.350101
1312.017148,-9400.615463,-919.314598,2146.597232
1312.017459,-9178.553681,-1302.362347,1850.514855
1312.017771,-8956.491898,-1378.971896,592.164754
1312.018082,-8290.306550,383.047749,-148.041188
1312.018394,-8364.327145,1378.971896,-1036.288319
1312.018705,-8956.491898,2298.286494,-1184.329507
1312.019016,-9992.780217,2451.505594,-962.267725
1312.019328,-9844.739029,1991.848295,-592.164754
1312.019639,-9770.718434,612.876398,-0.000000
1312.019951,-9104.533087,-229.828649,444.123565
1312.020262,-9400.615463,-919.314598,518.144159
1312.020573,-9844.739029,-536.266849,148.041188
1312.020885,-9252.574275,689.485948,444.123565
1312.021196,-9770.718434,1072.533697,1110.308913
1312.021508,-9696.697840,842.705048,1850.514855
1312.021819,-9252.574275,229.828649,2072.576638
1312.022130,-7698.141797,-842.705048,1628.453072
1312.022442,-6365.771101,-2068.457845,1036.288319
1312.022753,-6883.915261,-1991.848295,-222.061783
1312.023065,-7105.977043,-919.314598,-740.205942
1312.023376,-7994.224174,76.609550,-666.185348
1312.023687,-8586.388927,612.876398,-296.082377
1312.023999,-10066.800811,1302.362347,740.205942
1312.024310,-11325.150913,1608.800546,962.267725
1312.024622,-10436.903782,689.485948,1110.308913
1312.024933,-9104.533087,-383.047749,814.226536
1312.025244,-8364.327145,-383.047749,444.123565
1312.025556,-8142.265362,229.828649,148.041188
1312.025867,-8808.450710,612.876398,-148.041188
1312.026179,-9252.574275,919.314598,518.144159
1312.026490,-9104.533087,1378.971896,1036.288319
1312.026801,-8734.430116,459.657299,1406.391290
1312.027113,-8586.388927,-2145.067394,1850.514855
1312.027424,-7846.182985,-3217.601092,1776.494261
1312.027736,-8068.244768,-3217.601092,814.226536
1312.028047,-7476.080014,-1302.362347,-0.000000
1312.028358,-7698.141797,0.000000,-222.061783
1312.028670,-9326.594869,306.438199,-222.061783
1312.028981,-10066.800811,766.095498,740.205942
1312.029293,-10214.842000,1302.362347,888.247130
1312.029604,-9622.677246,459.657299,962.267725
1312.029915,-9400.615463,-919.314598,814.226536
1312.030227,-9918.759623,-1608.800546,296.082377
1312.030538,-9474.636058,-766.095498,222.061783
1312.030849,-9844.739029,-229.828649,148.041188
1312.031161,-9400.615463,383.047749,814.226536
1312.031472,-9252.574275,1072.533697,1258.350101
1312.031784,-9252.574275,76.609550,1480.411884
1312.032095,-7846.182985,-1608.800546,1554.432478
1312.032406,-7031.956449,-2068.457845,1702.473667
1312.032718,-7031.956449,-1685.410096,740.205942
1312.033029,-6957.935855,-689.485948,-0.000000
1312.033341,-7920.203579,0.000000,-592.164754
1312.033652,-9918.759623,919.314598,-370.102971
1312.033963,-10658.965565,2298.286494,148.041188
1312.034275,-10807.006753,1608.800546,518.144159
1312.034586,-10140.821405,689.485948,1036.288319
1312.034898,-9400.615463,-612.876398,888.247130
1312.035209,-8586.388927,-1532.190996,444.123565
1312.035520,-7772.162391,-383.047749,-222.061783
1312.035832,-7031.956449,689.485948,-518.144159
1312.036143,-8142.265362,459.657299,-148.041188
1312.036455,-8956.491898,76.609550,814.226536
1312.036766,-9400.615463,0.000000,1480.411884
1312.037077,-9178.553681,-1378.971896,1924.535449
1312.037389,-8660.409521,-2604.724693,1924.535449
1312.037700,-8512.368333,-2987.772442,1406.391290
1312.038012,-7920.203579,-2374.896044,148.041188
1312.038323,-7476.080014,-459.657299,-740.205942
1312.038634,-8364.327145,1149.143247,-1110.308913
1312.038946,-9252.574275,1915.238745,-1332.370696
1312.039257,-9474.636058,2068.457845,-666.185348
1312.039569,-8586.388927,1378.971896,-0.000000
1312.039880,-8660.409521,153.219100,222.061783
1312.040191,-9104.533087,-919.314598,370.102971
1312.040503,-9992.780217,-995.924147,-0.000000
1312.040814,-10214.842000,229.828649,148.041188
1312.041126,-11103.089130,1149.143247,444.123565
1312.041437,-10658.965565,2145.067394,1480.411884
1312.041748,-9918.759623,689.485948,1110.308913
1312.042060,-8586.388927,-995.924147,1110.308913
1312.042371,-7476.080014,-1838.629195,1184.329507
1312.042683,-7031.956449,-1378.971896,-0.000000
1312.042994,-7105.977043,612.876398,-814.226536
1312.043305,-7698.141797,1225.752797,-1036.288319
1312.043617,-8216.285956,2068.457845,-1036.288319
1312.043928,-9548.656652,2145.067394,-296.082377
1312.044240,-11399.171507,3140.991542,-148.041188
1312.044551,-11399.171507,2451.505594,740.205942
1312.044862,-10288.862594,612.876398,1332.370696
1312.045174,-9622.677246,-919.314598,1332.370696
1312.045485,-9326.594869,-1149.143247,814.226536
1312.045797,-8808.450710,-153.219100,370.102971
1312.046108,-9252.574275,612.876398,444.123565
1312.046419,-8956.491898,1608.800546,740.205942
1312.046731,-8364.327145,1378.971896,1110.308913
1312.047042,-8068.244768,0.000000,1702.473667
1312.047353,-7772.162391,-1762.019645,1850.514855
1312.047665,-7031.956449,-1838.629195,1628.453072
1312.047976,-6735.874072,-995.924147,444.123565
1312.048288,-7179.997637,76.609550,-74.020594
1312.048599,-7994.224174,919.314598,-0.000000
1312.048910,-8808.450710,2068.457845,-0.000000
1312.049222,-9326.594869,1225.752797,518.144159
1312.049533,-8808.450710,612.876398,1184.329507
1312.049845,-8808.450710,-842.705048,888.247130
1312.050156,-9474.636058,-1532.190996,962.267725
1312.050467,-8956.491898,-995.924147,962.267725
1312.050779,-8882.471304,-536.266849,444.123565
1312.051090,-10140.821405,459.657299,592.164754
1312.051402,-9326.594869,995.924147,1554.432478
1312.051713,-9548.656652,842.705048,1184.329507
1312.052024,-8290.306550,-612.876398,1702.473667
1312.052336,-6809.894666,-2221.676944,1850.514855
1312.052647,-7031.956449,-2987.772442,1258.350101
1312.052959,-7624.121203,-1915.238745,814.226536
1312.053270,-8808.450710,-612.876398,-0.000000
1312.053581,-9326.594869,766.095498,-370.102971
1312.053893,-10288.862594,1455.581446,148.041188
1312.054204,-11177.109724,1225.752797,-0.000000
1312.054516,-10214.842000,536.266849,-148.041188
1312.054827,-9622.677246,0.000000,-74.020594
1312.055138,-9474.636058,-919.314598,-74.020594
1312.055450,-9252.574275,-766.095498,-592.164754
1312.055761,-8586.388927,383.047749,-962.267725
1312.056073,-9770.718434,153.219100,-0.000000
1312.056384,-9696.697840,459.657299,1406.391290
1312.056695,-10140.821405,383.047749,1702.473667
1312.057007,-9400.615463,-459.657299,2368.659014
1312.057318,-7994.224174,-2145.067394,1924.535449
1312.057630,-7254.018232,-2911.162892,1258.350101
1312.057941,-6587.832884,-1532.190996,-222.061783
1312.058252,-6291.750507,-229.828649,-1628.453072
1312.058564,-7328.038826,0.000000,-1480.411884
1312.058875,-8660.409521,919.314598,-1110.308913
1312.059187,-10214.842000,689.485948,-148.041188
1312.059498,-10584.944971,383.047749,666.185348
1312.059809,-9992.780217,-1455.581446,1110.308913
1312.060121,-9918.759623,-2451.505594,1184.329507
1312.060432,-9400.615463,-2451.505594,518.144159
1312.060744,-9400.615463,-842.705048,-222.061783
1312.061055,-9474.636058,383.047749,-74.020594
1312.061366,-9326.594869,1455.581446,518.144159
1312.061678,-8586.388927,1225.752797,1036.288319
1312.061989,-8142.265362,-612.876398,1110.308913
1312.062300,-6809.894666,-2374.896044,962.267725
1312.062612,-5995.668130,-2298.286494,148.041188
1312.062923,-7105.977043,-1302.362347,-740.205942
1312.063235,-8586.388927,459.657299,-1184.329507
1312.063546,-9400.615463,766.095498,-222.061783
1312.063857,-10807.006753,842.705048,592.164754
1312.064169,-11325.150913,995.924147,1406.391290
1312.064480,-11399.171507,153.219100,1554.432478
1312.064792,-9696.697840,-306.438199,1554.432478
1312.065103,-8734.430116,-1225.752797,740.205942
1312.065414,-8216.285956,-1455.581446,-222.061783
1312.065726,-7772.162391,1149.143247,-296.082377
1312.066037,-8660.409521,1915.238745,-444.123565
1312.066349,-8808.450710,2451.505594,666.185348
1312.066660,-9696.697840,1455.581446,2220.617826
1312.066971,-9844.739029,-306.438199,2812.782580
1312.067283,-8734.430116,-1608.800546,3034.844362
1312.067594,-7994.224174,-2221.676944,2072.576638
1312.067906,-7254.018232,-1149.143247,-74.020594
1312.068217,-7772.162391,995.924147,-1628.453072
1312.068528,-7846.182985,2145.067394,-1628.453072
1312.068840,-8364.327145,2451.505594,-888.247130
1312.069151,-9474.636058,2068.457845,-0.000000
1312.069463,-9474.636058,1608.800546,888.247130
1312.069774,-9622.677246,306.438199,1110.308913
1312.070085,-9252.574275,-306.438199,888.247130
1312.070397,-9030.512492,-153.219100,370.102971
1312.070708,-9104.533087,1532.190996,-518.144159
1312.071020,-9178.553681,1915.238745,-296.082377
1312.071331,-9844.739029,1608.800546,1110.308913
1312.071642,-9548.656652,689.485948,2072.576638
1312.071954,-9252.574275,-536.266849,2368.659014
1312.072265,-7624.121203,-1991.848295,2368.659014
1312.072577,-6513.812290,-2604.724693,1480.411884
1312.072888,-6365.771101,-1915.238745,888.247130
1312.073199,-6513.812290,-612.876398,-444.123565
1312.073511,-7105.977043,459.657299,-666.185348
1312.073822,-9474.636058,1225.752797,-666.185348
1312.074134,-10584.944971,1455.581446,-222.061783
1312.074445,-10658.965565,1072.533697,296.082377
1312.074756,-9622.677246,-536.266849,592.164754
1312.075068,-9474.636058,-1225.752797,-0.000000
1312.075379,-8882.471304,-1991.848295,-74.020594
1312.075691,-8512.368333,-612.876398,-222.061783
1312.076002,-9326.594869,383.047749,-74.020594
1312.076313,-9104.533087,459.657299,518.144159
1312.076625,-9474.636058,306.438199,1110.308913
1312.076936,-8734.430116,-612.876398,1480.411884
1312.077248,-7994.224174,-2374.896044,1406.391290
1312.077559,-7179.997637,-3064.381992,1036.288319
1312.077870,-7698.141797,-3064.381992,-296.082377
1312.078182,-7994.224174,-1762.019645,-1110.308913
1312.078493,-9252.574275,-229.828649,-592.164754
1312.078804,-10066.800811,229.828649,-444.123565
1312.079116,-11325.150913,842.705048,-148.041188
1312.079427,-11251.130318,536.266849,518.144159
1312.079739,-10807.006753,0.000000,444.123565
1312.080050,-9770.718434,-766.095498,740.205942
1312.080361,-9474.636058,-1149.143247,518.144159
1312.080673,-9326.594869,0.000000,296.082377
1312.080984,-9030.512492,76.609550,592.164754
1312.081296,-9622.677246,766.095498,518.144159
1312.081607,-9400.615463,919.314598,1036.288319
1312.081918,-8956.491898,76.609550,1036.288319
1312.082230,-7698.141797,-1378.971896,1554.432478
1312.082541,-7179.997637,-2068.457845,1184.329507
1312.082853,-7328.038826,-1608.800546,1110.308913
1312.083164,-7179.997637,-689.485948,740.205942
1312.083475,-7846.182985,459.657299,370.102971
1312.083787,-9474.636058,919.314598,1036.288319
1312.084098,-9992.780217,1302.362347,814.226536
1312.084410,-9622.677246,842.705048,814.226536
1312.084721,-8364.327145,612.876398,370.102971
1312.085032,-7994.224174,76.609550,-0.000000
1312.085344,-8512.368333,-612.876398,-222.061783
1312.085655,-8216.285956,0.000000,148.041188
1312.085967,-8734.430116,612.876398,814.226536
1312.086278,-9104.533087,1302.362347,1998.556043
1312.086589,-9030.512492,995.924147,2960.823768
1312.086901,-8216.285956,0.000000,2664.741391
1312.087212,-6587.832884,-919.314598,2220.617826
1312.087524,-5773.606348,-2068.457845,1406.391290
1312.087835,-5847.626942,-1762.019645,-74.020594
1312.088146,-6587.832884,-536.266849,-1702.473667
1312.088458,-7994.224174,689.485948,-1776.494261
1312.088769,-9400.615463,1608.800546,-1332.370696
1312.089081,-10584.944971,1608.800546,-666.185348
1312.089392,-11029.068536,612.876398,666.185348
1312.089703,-10362.883188,-536.266849,1184.329507
1312.090015,-10510.924376,-1762.019645,962.267725
1312.090326,-10066.800811,-536.266849,592.164754
1312.090638,-10140.821405,0.000000,-0.000000
1312.090949,-10362.883188,689.485948,148.041188
1312.091260,-9992.780217,689.485948,1036.288319
1312.091572,-9770.718434,76.609550,1036.288319
1312.091883,-9770.718434,-459.657299,888.247130
1312.092195,-8808.450710,-1608.800546,814.226536
1312.092506,-8438.347739,-2298.286494,-148.041188
1312.092817,-7698.141797,-1532.190996,-666.185348
1312.093129,-7698.141797,0.000000,-1184.329507
1312.093440,-8586.388927,1072.533697,-1258.350101
1312.093752,-9844.739029,1685.410096,-74.020594
1312.094063,-10881.027347,1915.238745,518.144159
1312.094374,-10584.944971,2145.067394,888.247130
1312.094686,-9770.718434,995.924147,666.185348
1312.094997,-8808.450710,-459.657299,740.205942
1312.095308,-8660.409521,-766.095498,-370.102971
1312.095620,-8068.244768,153.219100,-666.185348
1312.095931,-8586.388927,842.705048,-740.205942
1312.096243,-9622.677246,1455.581446,444.123565
1312.096554,-10066.800811,1455.581446,1702.473667
1312.096865,-9918.759623,-229.828649,2442.679609
1312.097177,-7698.141797,-1838.629195,2516.700203
1312.097488,-6661.853478,-2145.067394,1850.514855
1312.097800,-6069.688724,-842.705048,370.102971
1312.098111,-5995.668130,612.876398,-888.247130
1312.098422,-6661.853478,766.095498,-1036.288319
1312.098734,-7994.224174,1072.533697,-592.164754
1312.099045,-9400.615463,1762.019645,-74.020594
1312.099357,-9400.615463,1532.190996,-0.000000
1312.099668,-9696.697840,995.924147,740.205942
1312.099979,-9992.780217,-1072.533697,888.247130
1312.100291,-9400.615463,-1302.362347,740.205942
1312.100602,-9696.697840,-383.047749,222.061783
1312.100914,-9918.759623,306.438199,592.164754
1312.101225,-9696.697840,612.876398,1258.350101
1312.101536,-9252.574275,612.876398,1776.494261
1312.101848,-8290.306550,-229.828649,2294.638420
1312.102159,-7698.141797,-1608.800546,2072.576638
1312.102471,-7328.038826,-2834.553343,1850.514855
1312.102782,-7624.121203,-2298.286494,962.267725
1312.103093,-7920.203579,-995.924147,222.061783
1312.103405,-8808.450710,-229.828649,-0.000000
1312.103716,-9622.677246,76.609550,-0.000000
1312.104028,-10732.986159,1072.533697,-0.000000
1312.104339,-10584.944971,842.705048,592.164754
1312.104650,-10214.842000,612.876398,296.082377
1312.104962,-9844.739029,0.000000,518.144159
1312.105273,-10140.821405,-995.924147,-0.000000
1312.105585,-8956.491898,153.219100,296.082377
1312.105896,-9030.512492,766.095498,296.082377
1312.106206,-9400.615463,1378.971896,1036.288319
1312.106518,-8956.491898,1072.533697,1628.453072
1312.106829,-8586.388927,766.095498,1628.453072
1312.107141,-7846.182985,-1455.581446,1850.514855
1312.107452,-7031.956449,-2911.162892,1924.535449
1312.107764,-6883.915261,-3677.258390,888.247130
1312.108075,-7920.203579,-2298.286494,-222.061783
1312.108387,-8734.430116,-689.485948,-962.267725
1312.108698,-9104.533087,1072.533697,-814.226536
1312.109010,-10288.862594,1838.629195,-222.061783
1312.109322,-10807.006753,1532.190996,222.061783
1312.109633,-10140.821405,383.047749,1702.473667
1312.109945,-9474.636058,-689.485948,1110.308913
1312.110256,-9030.512492,-383.047749,740.205942
1312.110568,-8734.430116,306.438199,-0.000000
1312.110879,-8216.285956,1225.752797,-74.020594
1312.111191,-7994.224174,1762.019645,-0.000000
1312.111502,-8808.450710,1532.190996,222.061783
1312.111814,-8956.491898,0.000000,1110.308913
1312.112125,-8290.306550,-1072.533697,1258.350101
1312.112437,-7698.141797,-2451.505594,1480.411884
1312.112748,-7402.059420,-2451.505594,518.144159
1312.113060,-8290.306550,-995.924147,-296.082377
1312.113372,-8290.306550,383.047749,-592.164754
1312.113683,-8734.430116,1302.362347,-740.205942
1312.113995,-9474.636058,1685.410096,-0.000000
1312.114306,-9918.759623,1149.143247,296.082377
1312.114618,-9844.739029,-766.095498,222.061783
1312.114929,-9548.656652,-1072.533697,296.082377
1312.115241,-9844.739029,-689.485948,-0.000000
1312.115552,-9844.739029,229.828649,-592.164754
1312.115864,-10362.883188,842.705048,-370.102971
1312.116175,-10510.924376,1149.143247,-0.000000
1312.116487,-9474.636058,1838.629195,1554.432478
1312.116799,-9030.512492,383.047749,2072.576638
1312.117110,-7698.141797,-1378.971896,2146.597232
1312.117422,-7550.100608,-2681.334243,1554.432478
1312.117733,-6513.812290,-2528.115143,370.102971
1312.118045,-6291.750507,-689.485948,-1406.391290
1312.118356,-7105.977043,1072.533697,-1998.556043
1312.118668,-8364.327145,1685.410096,-1480.411884
1312.118979,-10362.883188,766.095498,-370.102971
1312.119291,-11251.130318,383.047749,814.226536
1312.119602,-10658.965565,-229.828649,1554.432478
1312.119914,-11399.171507,-1072.533697,1184.329507
1312.120226,-10658.965565,-1225.752797,1554.432478
1312.120537,-10066.800811,-229.828649,518.144159
1312.120849,-9252.574275,459.657299,296.082377
1312.121160,-8882.471304,1608.800546,1036.288319
1312.121472,-8808.450710,1378.971896,1702.473667
1312.121783,-8734.430116,919.314598,1480.411884
1312.122095,-8068.244768,-536.266849,1628.453072
1312.122406,-6957.935855,-1302.362347,1184.329507
1312.122718,-6735.874072,-1302.362347,740.205942
1312.123029,-7624.121203,-153.219100,-148.041188
1312.123341,-7846.182985,689.485948,-148.041188
1312.123652,-8512.368333,1532.190996,-0.000000
1312.123964,-9252.574275,1838.629195,962.267725
1312.124276,-10436.903782,995.924147,1110.308913
1312.124587,-9918.759623,689.485948,444.123565
1312.124899,-8660.409521,612.876398,296.082377
1312.125210,-7846.182985,459.657299,-296.082377
1312.125522,-8364.327145,919.314598,-888.247130
1312.125833,-9030.512492,995.924147,-74.020594
1312.126145,-9992.780217,1455.581446,814.226536
1312.126456,-9696.697840,1225.752797,2220.617826
1312.126768,-9030.512492,612.876398,3330.926739
1312.127079,-7846.182985,-1915.238745,3552.988522
1312.127391,-6365.771101,-3830.477490,2442.679609
1312.127703,-6217.729913,-3830.477490,444.123565
1312.128014,-6291.750507,-1378.971896,-1184.329507
1312.128326,-7031.956449,1149.143247,-2220.617826
1312.128637,-8956.491898,2451.505594,-1406.391290
1312.128949,-10214.842000,1072.533697,-888.247130
1312.129260,-10955.047942,689.485948,-0.000000
1312.129572,-10436.903782,0.000000,1406.391290
1312.129883,-10140.821405,-1378.971896,1702.473667
1312.130195,-9992.780217,-1455.581446,962.267725
1312.130506,-9326.594869,-612.876398,-0.000000
1312.130818,-8586.388927,306.438199,-370.102971
1312.131129,-9030.512492,612.876398,-296.082377
1312.131441,-9992.780217,306.438199,222.061783
1312.131753,-10436.903782,536.266849,888.247130
1312.132064,-9622.677246,-1838.629195,1554.432478
1312.132376,-8882.471304,-3140.991542,1554.432478
1312.132687,-8660.409521,-3294.210641,962.267725
1312.132999,-8808.450710,-1762.019645,-0.000000
1312.133310,-8290.306550,-612.876398,-814.226536
1312.133622,-8512.368333,766.095498,-592.164754
1312.133933,-9844.739029,1455.581446,-296.082377
1312.134245,-10362.883188,2145.067394,-0.000000
1312.134556,-10288.862594,383.047749,962.267725
1312.134868,-9474.636058,-995.924147,740.205942
1312.135180,-8808.450710,-919.314598,518.144159
1312.135491,-8290.306550,0.000000,-296.082377
1312.135803,-8808.450710,306.438199,-666.185348
1312.136114,-8808.450710,766.095498,222.061783
1312.136426,-9252.574275,1608.800546,888.247130
1312.136737,-9104.533087,0.000000,1702.473667
1312.137049,-7846.182985,-1149.143247,2368.659014
1312.137360,-7624.121203,-2911.162892,1998.556043
1312.137672,-6587.832884,-3217.601092,1184.329507
1312.137983,-5625.565159,-1915.238745,-0.000000
1312.138295,-6883.915261,-919.314598,-666.185348
1312.138607,-8364.327145,766.095498,-518.144159
1312.138918,-10214.842000,1762.019645,-370.102971
1312.139230,-10732.986159,1532.190996,222.061783
1312.139541,-9696.697840,1149.143247,1036.288319
1312.139853,-9400.615463,-612.876398,962.267725
1312.140164,-9178.553681,-1378.971896,1184.329507
1312.140476,-8956.491898,-842.705048,-0.000000
1312.140787,-8660.409521,383.047749,148.041188
1312.141099,-9400.615463,995.924147,-74.020594
1312.141410,-9992.780217,1608.800546,666.185348
1312.141722,-9696.697840,842.705048,888.247130
1312.142033,-8512.368333,-459.657299,1406.391290
1312.142345,-8068.244768,-1225.752797,1480.411884
1312.142657,-7550.100608,-1149.143247,962.267725
1312.142968,-7698.141797,-306.438199,-0.000000
1312.143280,-7476.080014,919.314598,-148.041188
1312.143591,-8734.430116,1685.410096,-740.205942
1312.143903,-9326.594869,2068.457845,-148.041188
1312.144214,-10658.965565,1991.848295,-0.000000
1312.144526,-10436.903782,1072.533697,-0.000000
1312.144837,-10436.903782,0.000000,-0.000000
1312.145149,-9548.656652,-383.047749,-74.020594
1312.145460,-9696.697840,-383.047749,-592.164754
1312.145772,-10436.903782,-229.828649,-0.000000
1312.146084,-9770.718434,459.657299,1554.432478
1312.146395,-9326.594869,689.485948,2368.659014
1312.146707,-8586.388927,229.828649,2294.638420
1312.147018,-7105.977043,-842.705048,2738.761985
1312.147330,-5699.585753,-2374.896044,1850.514855
1312.147641,-5625.565159,-2298.286494,296.082377
1312.147953,-6143.709319,-1302.362347,-1628.453072
1312.148264,-7402.059420,0.000000,-1776.494261
1312.148576,-8512.368333,2068.457845,-1110.308913
1312.148887,-9770.718434,1225.752797,-148.041188
1312.149199,-11621.233289,383.047749,740.205942
1312.149511,-11325.150913,-306.438199,1776.494261
1312.149822,-10214.842000,-919.314598,2072.576638
1312.150134,-9474.636058,-995.924147,1480.411884
1312.150445,-8586.388927,-689.485948,1036.288319
1312.150757,-7920.203579,-536.266849,-0.000000
1312.151068,-8290.306550,306.438199,-0.000000
1312.151380,-9252.574275,1455.581446,592.164754
1312.151691,-9178.553681,995.924147,1110.308913
1312.152003,-9326.594869,-612.876398,1258.350101
1312.152314,-8956.491898,-2987.772442,1850.514855
1312.152626,-8216.285956,-2451.505594,888.247130
1312.152937,-8290.306550,-766.095498,592.164754
1312.153249,-7772.162391,383.047749,-296.082377
1312.153561,-8216.285956,842.705048,-148.041188
1312.153872,-9400.615463,459.657299,666.185348
1312.154184,-9400.615463,1225.752797,592.164754
1312.154495,-9400.615463,1072.533697,518.144159
1312.154807,-9326.594869,76.609550,-0.000000
1312.155118,-9104.533087,-383.047749,-0.000000
1312.155430,-8882.471304,-536.266849,-1110.308913
1312.155741,-8956.491898,-919.314598,-222.061783
1312.156053,-9844.739029,0.000000,370.102971
1312.156364,-10362.883188,229.828649,1628.453072
1312.156676,-10288.862594,-229.828649,2590.720797
1312.156988,-8512.368333,-1838.629195,3034.844362
1312.157299,-7328.038826,-2911.162892,2368.659014
1312.157611,-6143.709319,-2757.943793,1332.370696
1312.157922,-6069.688724,-612.876398,-740.205942
1312.158234,-6883.915261,766.095498,-1332.370696
1312.158545,-8438.347739,2298.286494,-1702.473667
1312.158857,-9474.636058,2451.505594,-444.123565
1312.159168,-10881.027347,1915.238745,-0.000000
1312.159480,-10510.924376,1149.143247,1036.288319
1312.159791,-9400.615463,-306.438199,666.185348
1312.160103,-8660.409521,-995.924147,-0.000000
1312.160415,-8734.430116,-766.095498,-0.000000
1312.160726,-9326.594869,-536.266849,-814.226536
1312.161038,-8956.491898,0.000000,592.164754
1312.161349,-9844.739029,306.438199,1184.329507
1312.161661,-9992.780217,153.219100,1850.514855
1312.161972,-9178.553681,-1225.752797,1998.556043
1312.162284,-7994.224174,-2987.772442,1776.494261
1312.162595,-7550.100608,-2911.162892,962.267725
1312.162907,-7031.956449,-1915.238745,-222.061783
1312.163218,-7254.018232,0.000000,-740.205942
1312.163530,-8512.368333,153.219100,-592.164754
1312.163841,-9770.718434,766.095498,-74.020594
1312.164153,-10881.027347,1378.971896,444.123565
1312.164465,-10732.986159,1149.143247,888.247130
1312.164776,-10436.903782,-153.219100,814.226536
1312.165088,-9770.718434,-995.924147,740.205942
1312.165399,-8956.491898,-306.438199,-74.020594
1312.165711,-8364.327145,1072.533697,-740.205942
1312.166022,-8216.285956,1302.362347,-0.000000
1312.166334,-8956.491898,1915.238745,518.144159
1312.166645,-9326.594869,1378.971896,1110.308913
1312.166957,-8290.306550,459.657299,1554.432478
1312.167268,-6883.915261,-1225.752797,1702.473667
1312.167580,-6661.853478,-1991.848295,814.226536
1312.167892,-7254.018232,-1608.800546,-0.000000
1312.168203,-8216.285956,-459.657299,-740.205942
1312.168515,-8956.491898,766.095498,-814.226536
1312.168826,-9992.780217,1608.800546,-74.020594
1312.169138,-11177.109724,1762.019645,-74.020594
1312.169449,-10214.842000,766.095498,814.226536
1312.169761,-8956.491898,229.828649,1480.411884
1312.170072,-8216.285956,-689.485948,444.123565
1312.170384,-8068.244768,-536.266849,296.082377
1312.170695,-9178.553681,459.657299,-518.144159
1312.171007,-10140.821405,1532.190996,-0.000000
1312.171318,-10288.862594,2068.457845,666.185348
1312.171630,-9622.677246,2221.676944,814.226536
1312.171942,-8660.409521,536.266849,1554.432478
1312.172253,-7698.141797,-1838.629195,1776.494261
1312.172565,-7328.038826,-2451.505594,1406.391290
1312.172876,-7105.977043,-1532.190996,592.164754
1312.173188,-7105.977043,-229.828649,222.061783
1312.173499,-7846.182985,459.657299,148.041188
1312.173811,-8956.491898,995.924147,-0.000000
1312.174122,-9474.636058,1302.362347,370.102971
1312.174434,-10584.944971,995.924147,-0.000000
1312.174745,-9474.636058,306.438199,888.247130
1312.175057,-10214.842000,-612.876398,-0.000000
1312.175369,-10140.821405,-612.876398,814.226536
1312.175680,-9326.594869,-153.219100,1110.308913
1312.175992,-9326.594869,306.438199,1036.288319
1312.176303,-9548.656652,1149.143247,2146.597232
1312.176615,-9104.533087,919.314598,2146.597232
1312.176926,-8068.244768,-229.828649,1406.391290
1312.177238,-6883.915261,-1149.143247,1776.494261
1312.177549,-6069.688724,-1608.800546,1850.514855
1312.177861,-6809.894666,-2298.286494,-0.000000
1312.178172,-7476.080014,-1072.533697,-592.164754
1312.178484,-8142.265362,995.924147,-814.226536
1312.178796,-8734.430116,1532.190996,-222.061783
1312.179107,-10732.986159,1072.533697,222.061783
1312.179419,-10510.924376,153.219100,1332.370696
1312.179730,-8882.471304,-612.876398,962.267725
1312.180042,-9252.574275,-2374.896044,1110.308913
1312.180353,-9252.574275,-1532.190996,1036.288319
1312.180665,-9918.759623,-842.705048,-148.041188
1312.180976,-10214.842000,-612.876398,444.123565
1312.181288,-10140.821405,229.828649,888.247130
1312.181599,-9844.739029,766.095498,740.205942
1312.181911,-9326.594869,0.000000,1036.288319
1312.182222,-8216.285956,-2298.286494,1480.411884
1312.182534,-7476.080014,-3294.210641,1332.370696
1312.182846,-7179.997637,-2145.067394,296.082377
1312.183157,-7846.182985,153.219100,-740.205942
1312.183469,-7920.203579,1838.629195,-592.164754
1312.183780,-8882.471304,2145.067394,-0.000000
1312.184092,-9696.697840,1455.581446,-0.000000
1312.184403,-9622.677246,2374.896044,-592.164754
1312.184715,-9400.615463,842.705048,-370.102971
1312.185026,-8956.491898,1225.752797,-444.123565
1312.185338,-9474.636058,689.485948,-1258.350101
1312.185649,-9474.636058,229.828649,-1036.288319
1312.185961,-9474.636058,459.657299,-518.144159
1312.186273,-9474.636058,995.924147,814.226536
1312.186584,-9696.697840,842.705048,1628.453072
1312.186896,-9178.553681,-1072.533697,2146.597232
1312.187207,-7846.182985,-2145.067394,2146.597232
1312.187519,-7179.997637,-3983.696590,1628.453072
1312.187830,-6957.935855,-2681.334243,296.082377
1312.188142,-7402.059420,-766.095498,-1110.308913
1312.188453,-8068.244768,689.485948,-1406.391290
1312.188765,-9030.512492,1149.143247,-740.205942
1312.189076,-10510.924376,536.266849,-148.041188
1312.189388,-10288.862594,459.657299,666.185348
1312.189700,-9400.615463,-306.438199,1850.514855
1312.190011,-9178.553681,-1991.848295,1110.308913
1312.190323,-9326.594869,-1378.971896,444.123565
1312.190634,-9326.594869,306.438199,-370.102971
1312.190946,-9252.574275,919.314598,222.061783
1312.191257,-9622.677246,1302.362347,1332.370696
1312.191569,-10066.800811,1225.752797,1998.556043
1312.191880,-9326.594869,689.485948,2072.576638
1312.192192,-7698.141797,-1225.752797,2072.576638
1312.192503,-6957.935855,-2221.676944,1332.370696
1312.192815,-6735.874072,-1762.019645,-0.000000
1312.193126,-7105.977043,0.000000,-888.247130
1312.193438,-8364.327145,689.485948,-1036.288319
1312.193750,-9252.574275,1455.581446,-0.000000
1312.194061,-10584.944971,1532.190996,296.082377
1312.194373,-11325.150913,1838.629195,740.205942
1312.194684,-10436.903782,689.485948,1110.308913
1312.194996,-10214.842000,-383.047749,888.247130
1312.195307,-9474.636058,153.219100,814.226536
1312.195619,-8808.450710,842.705048,222.061783
1312.195930,-9104.533087,1149.143247,-0.000000
1312.196242,-9030.512492,1915.238745,518.144159
1312.196553,-9030.512492,2298.286494,1036.288319
1312.196865,-7550.100608,1072.533697,1406.391290
1312.197177,-7105.977043,-612.876398,1924.535449
1312.197488,-7105.977043,-2298.286494,1480.411884
1312.197800,-7105.977043,-2298.286494,444.123565
1312.198111,-7624.121203,-306.438199,-518.144159
1312.198423,-7920.203579,1378.971896,-888.247130
1312.198734,-8290.306550,1302.362347,-0.000000
1312.199046,-9548.656652,1762.019645,-222.061783
1312.199357,-9992.780217,1455.581446,370.102971
1312.199669,-8734.430116,306.438199,888.247130
1312.199980,-8364.327145,-1302.362347,888.247130
1312.200292,-8586.388927,-1532.190996,370.102971
1312.200603,-9252.574275,-766.095498,-518.144159
1312.200915,-9770.718434,76.609550,-148.041188
1312.201227,-9622.677246,1302.362347,444.123565
1312.201538,-9548.656652,1302.362347,1628.453072
1312.201850,-9326.594869,229.828649,2368.659014
1312.202161,-8364.327145,-2528.115143,2072.576638
1312.202473,-7476.080014,-3907.087040,1332.370696
1312.202784,-6439.791695,-2221.676944,518.144159
1312.203096,-7179.997637,-689.485948,-592.164754
1312.203407,-7846.182985,-459.657299,-1036.288319
1312.203719,-9548.656652,536.266849,-814.226536
1312.204030,-10510.924376,766.095498,222.061783
1312.204342,-10732.986159,919.314598,370.102971
1312.204654,-11251.130318,0.000000,1110.308913
1312.204965,-10732.986159,-1762.019645,740.205942
1312.205277,-9400.615463,-1532.190996,592.164754
1312.205588,-8734.430116,-766.095498,-0.000000
1312.205900,-9104.533087,612.876398,-222.061783
1312.206211,-10288.862594,1532.190996,740.205942
1312.206523,-10288.862594,1072.533697,1554.432478
1312.206835,-9104.533087,229.828649,1776.494261
1312.207146,-8142.265362,-1685.410096,1924.535449
1312.207458,-7624.121203,-3064.381992,1850.514855
1312.207769,-7254.018232,-2451.505594,518.144159
1312.208081,-7254.018232,-766.095498,-666.185348
1312.208393,-7328.038826,0.000000,-444.123565
1312.208704,-8290.306550,1378.971896,-148.041188
1312.209016,-10140.821405,1302.362347,-222.061783
1312.209327,-10288.862594,1149.143247,1036.288319
1312.209639,-8956.491898,153.219100,1332.370696
1312.209951,-8216.285956,-612.876398,592.164754
1312.210262,-8364.327145,-536.266849,222.061783
1312.210574,-8068.244768,76.609550,-592.164754
1312.210885,-8586.388927,689.485948,-74.020594
1312.211197,-9622.677246,1608.800546,444.123565
1312.211508,-9844.739029,1762.019645,1480.411884
1312.211820,-10140.821405,995.924147,1776.494261
1312.212132,-8142.265362,-1225.752797,2442.679609
1312.212443,-6587.832884,-3217.601092,1628.453072
1312.212755,-5847.626942,-3217.601092,666.185348
1312.213066,-6143.709319,-1378.971896,-888.247130
1312.213378,-7476.080014,76.609550,-1406.391290
1312.213690,-8364.327145,919.314598,-814.226536
1312.214001,-10584.944971,1608.800546,-888.247130
1312.214313,-11621.233289,1608.800546,148.041188
1312.214624,-11399.171507,689.485948,888.247130
1312.214936,-10362.883188,-229.828649,1110.308913
1312.215248,-9622.677246,-919.314598,296.082377
1312.215559,-9104.533087,0.000000,-74.020594
1312.215871,-8808.450710,0.000000,-592.164754
1312.216182,-8956.491898,1225.752797,444.123565
1312.216494,-9104.533087,766.095498,740.205942
1312.216806,-9474.636058,306.438199,1036.288319
1312.217117,-8660.409521,-1072.533697,1628.453072
1312.217429,-7920.203579,-2451.505594,1258.350101
1312.217740,-7624.121203,-2451.505594,1036.288319
1312.218052,-8216.285956,-1455.581446,-518.144159
1312.218364,-8364.327145,-612.876398,-592.164754
1312.218675,-9474.636058,1302.362347,-666.185348
1312.218987,-10436.903782,1838.629195,-370.102971
1312.219298,-10214.842000,1532.190996,296.082377
1312.219610,-9548.656652,0.000000,592.164754
1312.219922,-8586.388927,-1455.581446,814.226536
1312.220233,-8734.430116,-1225.752797,148.041188
1312.220545,-9252.574275,-229.828649,-0.000000
1312.220856,-9622.677246,229.828649,-148.041188
1312.221168,-10436.903782,766.095498,-0.000000
1312.221480,-10732.986159,1378.971896,1406.391290
1312.221791,-9844.739029,1455.581446,1776.494261
1312.222103,-8586.388927,-536.266849,1924.535449
1312.222414,-7031.956449,-2834.553343,1850.514855
1312.222726,-5477.523971,-2911.162892,1036.288319
1312.223038,-5551.544565,-1838.629195,-370.102971
1312.223349,-7402.059420,229.828649,-592.164754
1312.223661,-8956.491898,1225.752797,-592.164754
1312.223972,-10584.944971,1762.019645,148.041188
1312.224284,-11103.089130,2145.067394,296.082377
1312.224595,-10510.924376,2068.457845,962.267725
1312.224907,-9474.636058,1225.752797,518.144159
1312.225219,-9474.636058,536.266849,-148.041188
1312.225530,-8438.347739,1072.533697,-740.205942
1312.225842,-8216.285956,459.657299,-518.144159
1312.226153,-8660.409521,1455.581446,222.061783
1312.226465,-9178.553681,2068.457845,1184.329507
1312.226777,-9400.615463,842.705048,1702.473667
1312.227088,-7772.162391,-995.924147,2368.659014
1312.227400,-6883.915261,-3217.601092,2220.617826
1312.227711,-6365.771101,-2987.772442,1184.329507
1312.228023,-6661.853478,-2757.943793,-0.000000
1312.228335,-7476.080014,-919.314598,-666.185348
1312.228646,-8512.368333,76.609550,-0.000000
1312.228958,-9770.718434,1225.752797,370.102971
1312.229269,-11029.068536,612.876398,740.205942
1312.229581,-9918.759623,76.609550,1702.473667
1312.229893,-9548.656652,-1685.410096,1184.329507
1312.230204,-9474.636058,-2374.896044,1258.350101
1312.230516,-9400.615463,-1302.362347,518.144159
1312.230827,-10066.800811,-306.438199,-0.000000
1312.231139,-10066.800811,536.266849,962.267725
1312.231451,-10584.944971,842.705048,1406.391290
1312.231762,-10140.821405,306.438199,1850.514855
1312.232074,-8512.368333,-689.485948,2368.659014
1312.232385,-6809.894666,-2911.162892,2220.617826
1312.232697,-6291.750507,-2911.162892,1554.432478
1312.233009,-6513.812290,-1378.971896,-148.041188
1312.233320,-6883.915261,229.828649,-1184.329507
1312.233632,-8512.368333,1455.581446,-962.267725
1312.233943,-10066.800811,2374.896044,-666.185348
1312.234255,-11399.171507,2834.553343,-0.000000
1312.234567,-11251.130318,1915.238745,518.144159
1312.234878,-9770.718434,229.828649,888.247130
1312.235190,-9252.574275,-689.485948,814.226536
1312.235501,-8512.368333,-459.657299,444.123565
1312.235813,-8290.306550,-766.095498,-0.000000
1312.236125,-8956.491898,306.438199,296.082377
1312.236436,-8956.491898,919.314598,1184.329507
1312.236748,-8808.450710,689.485948,962.267725
1312.237059,-8290.306550,-1378.971896,1702.473667
1312.237371,-7624.121203,-2911.162892,1702.473667
1312.237682,-7179.997637,-2451.505594,888.247130
1312.237994,-7254.018232,-2145.067394,-370.102971
1312.238306,-7328.038826,-383.047749,-518.144159
1312.238617,-8216.285956,766.095498,-1110.308913
1312.238929,-9104.533087,1378.971896,-592.164754
1312.239240,-10214.842000,1685.410096,-518.144159
1312.239552,-9474.636058,1378.971896,-74.020594
1312.239864,-8512.368333,459.657299,-0.000000
1312.240175,-9252.574275,-1072.533697,888.247130
1312.240487,-9104.533087,-919.314598,-148.041188
1312.240798,-9770.718434,0.000000,-370.102971
1312.241110,-10658.965565,919.314598,296.082377
1312.241422,-10732.986159,1532.190996,1036.288319
1312.241733,-10955.047942,1225.752797,962.267725
1312.242045,-9400.615463,0.000000,666.185348
1312.242356,-7624.121203,-995.924147,1184.329507
1312.242668,-5921.647536,-2987.772442,1110.308913
1312.242980,-6809.894666,-2451.505594,-444.123565
1312.243291,-8438.347739,-919.314598,-888.247130
1312.243603,-8808.450710,1455.581446,-962.267725
1312.243914,-10510.924376,2068.457845,-148.041188
1312.244226,-10881.027347,2374.896044,888.247130
1312.244538,-10881.027347,1072.533697,592.164754
1312.244849,-10214.842000,-306.438199,962.267725
1312.245161,-9104.533087,153.219100,1184.329507
1312.245472,-9030.512492,306.438199,-0.000000
1312.245784,-8734.430116,1225.752797,-0.000000
1312.246096,-8734.430116,1225.752797,814.226536
1312.246407,-8956.491898,689.485948,1110.308913
1312.246719,-9252.574275,1378.971896,1036.288319
1312.247030,-7920.203579,1762.019645,1184.329507
1312.247342,-6883.915261,-612.876398,1406.391290
1312.247654,-7550.100608,-3294.210641,1258.350101
1312.247965,-7105.977043,-2911.162892,962.267725
1312.248277,-7624.121203,-1072.533697,-0.000000
1312.248588,-8290.306550,766.095498,222.061783
1312.248900,-8808.450710,1685.410096,962.267725
1312.249212,-10214.842000,1072.533697,1110.308913
1312.249523,-9178.553681,612.876398,814.226536
1312.249835,-8216.285956,-842.705048,1554.432478
1312.250146,-8586.388927,-842.705048,1110.308913
1312.250458,-8882.471304,229.828649,666.185348
1312.250769,-9326.594869,1225.752797,-148.041188
1312.251081,-9474.636058,766.095498,-0.000000
1312.251393,-9992.780217,1685.410096,1258.350101
1312.251704,-9770.718434,2145.067394,1480.411884
1312.252016,-7698.141797,842.705048,1924.535449
1312.252327,-7105.977043,-2374.896044,1628.453072
1312.252639,-6513.812290,-3217.601092,1554.432478
1312.252951,-6143.709319,-2298.286494,-0.000000
1312.253262,-6957.935855,-689.485948,-1406.391290
1312.253574,-8364.327145,383.047749,-592.164754
1312.253885,-9770.718434,995.924147,-222.061783
1312.254197,-11399.171507,995.924147,-148.041188
1312.254509,-11473.192101,766.095498,1036.288319
1312.254820,-10807.006753,-612.876398,1110.308913
1312.255132,-10510.924376,-1532.190996,888.247130
1312.255443,-9622.677246,-766.095498,296.082377
1312.255755,-9252.574275,-153.219100,-592.164754
1312.256067,-9474.636058,306.438199,-148.041188
1312.256378,-9844.739029,2145.067394,-0.000000
1312.256690,-9696.697840,1838.629195,740.205942
1312.257001,-8586.388927,-306.438199,1184.329507
1312.257313,-9030.512492,-1991.848295,1258.350101
1312.257625,-7920.203579,-2757.943793,1258.350101
1312.257936,-7550.100608,-2528.115143,296.082377
1312.258248,-7772.162391,-995.924147,-444.123565
1312.258559,-8438.347739,383.047749,-1110.308913
1312.258871,-8734.430116,1378.971896,-444.123565
1312.259183,-9770.718434,995.924147,-0.000000
1312.259494,-9844.739029,0.000000,592.164754
1312.259806,-9252.574275,-766.095498,962.267725
1312.260117,-9770.718434,-1915.238745,814.226536
1312.260429,-9104.533087,-1302.362347,1332.370696
1312.260741,-9326.594869,0.000000,222.061783
1312.261052,-9622.677246,842.705048,222.061783
1312.261364,-9474.636058,2221.676944,1036.288319
1312.261675,-8882.471304,2221.676944,1332.370696
1312.261987,-8364.327145,1149.143247,888.247130
1312.262299,-7328.038826,-766.095498,1702.473667
1312.262610,-6217.729913,-1991.848295,518.144159
1312.262922,-5551.544565,-1838.629195,-444.123565
1312.263233,-5921.647536,-383.047749,-1332.370696
1312.263545,-6661.853478,1455.581446,-1628.453072
1312.263857,-8808.450710,995.924147,-888.247130
1312.264168,-10510.924376,383.047749,-0.000000
1312.264480,-11251.130318,0.000000,740.205942
1312.264791,-11029.068536,-689.485948,1480.411884
1312.265103,-10510.924376,-2374.896044,1480.411884
1312.265414,-9622.677246,-2221.676944,888.247130
1312.265726,-8586.388927,-1225.752797,-0.000000
1312.266038,-9104.533087,306.438199,-296.082377
1312.266349,-8956.491898,1685.410096,814.226536
1312.266661,-9844.739029,76.609550,888.247130
1312.266972,-9844.739029,0.000000,1924.535449
1312.267284,-9400.615463,-1455.581446,1332.370696
1312.267596,-8142.265362,-1915.238745,814.226536
1312.267907,-7994.224174,-1225.752797,-222.061783
1312.268219,-7994.224174,689.485948,-592.164754
1312.268530,-8586.388927,1915.238745,-1110.308913
1312.268842,-9548.656652,2298.286494,-592.164754
1312.269154,-9844.739029,2528.115143,296.082377
1312.269465,-9252.574275,1991.848295,-0.000000
1312.269777,-8586.388927,459.657299,148.041188
1312.270088,-8586.388927,-1149.143247,-0.000000
1312.270400,-9030.512492,-1455.581446,-0.000000
1312.270712,-9548.656652,0.000000,-222.061783
1312.271023,-10881.027347,842.705048,888.247130
1312.271335,-11695.253884,842.705048,1924.535449
1312.271646,-11325.150913,153.219100,2886.803174
1312.271958,-9548.656652,0.000000,2590.720797
1312.272270,-6957.935855,-1991.848295,2368.659014
1312.272581,-5551.544565,-2987.772442,1850.514855
1312.272893,-5255.462188,-2374.896044,222.061783
1312.273204,-6069.688724,-689.485948,-666.185348
1312.273516,-7402.059420,995.924147,-370.102971
1312.273828,-9400.615463,2221.676944,-0.000000
1312.274139,-11177.109724,2604.724693,518.144159
1312.274451,-10436.903782,1915.238745,1406.391290
1312.274762,-9178.553681,689.485948,1184.329507
1312.275074,-8364.327145,-459.657299,814.226536
1312.275386,-7624.121203,0.000000,-0.000000
1312.275697,-7772.162391,919.314598,-518.144159
1312.276009,-8808.450710,1378.971896,-222.061783
1312.276320,-9030.512492,2145.067394,-0.000000
1312.276632,-9178.553681,1225.752797,962.267725
1312.276944,-9844.739029,-536.266849,1702.473667
1312.277255,-9400.615463,-2681.334243,2072.576638
1312.277567,-8734.430116,-3524.039291,1628.453072
1312.277878,-8068.244768,-2451.505594,962.267725
1312.278190,-7550.100608,-612.876398,-518.144159
1312.278501,-8660.409521,689.485948,-1110.308913
1312.278813,-8882.471304,1455.581446,-518.144159
1312.279125,-9474.636058,2145.067394,-148.041188
1312.279436,-9696.697840,919.314598,370.102971
1312.279748,-9252.574275,-536.266849,666.185348
1312.280059,-9178.553681,-1915.238745,370.102971
1312.280371,-9104.533087,-2451.505594,148.041188
1312.280683,-9252.574275,-1149.143247,-222.061783
1312.280994,-9844.739029,0.000000,-0.000000
1312.281306,-11251.130318,995.924147,666.185348
1312.281617,-11695.253884,919.314598,1332.370696
1312.281929,-9844.739029,383.047749,1776.494261
1312.282241,-7772.162391,-1532.190996,2368.659014
1312.282552,-6661.853478,-3524.039291,2220.617826
1312.282864,-6439.791695,-3907.087040,1184.329507
1312.283175,-5921.647536,-1608.800546,-74.020594
1312.283487,-6587.832884,76.609550,-740.205942
1312.283799,-9030.512492,2068.457845,-296.082377
1312.284110,-11399.171507,1762.019645,-296.082377
1312.284422,-12065.356855,1072.533697,444.123565
1312.284733,-11251.130318,919.314598,1110.308913
1312.285045,-9992.780217,-153.219100,1184.329507
1312.285357,-8808.450710,0.000000,740.205942
1312.285668,-7550.100608,383.047749,-0.000000
1312.285980,-7254.018232,612.876398,-0.000000
1312.286291,-7698.141797,766.095498,740.205942
1312.286603,-8068.244768,2374.896044,1332.370696
1312.286915,-8438.347739,842.705048,1554.432478
1312.287226,-8808.450710,-1455.581446,1702.473667
1312.287538,-8216.285956,-2374.896044,1258.350101
1312.287849,-7920.203579,-1302.362347,74.020594
1312.288161,-7698.141797,-459.657299,-518.144159
1312.288473,-7994.224174,-306.438199,-666.185348
1312.288784,-9400.615463,0.000000,-370.102971
1312.289096,-9696.697840,612.876398,444.123565
1312.289407,-9918.759623,306.438199,814.226536
1312.289719,-9622.677246,-383.047749,888.247130
1312.290031,-8808.450710,-995.924147,962.267725
1312.290342,-8216.285956,-1915.238745,814.226536
1312.290654,-8512.368333,-1532.190996,-0.000000
1312.290965,-9474.636058,689.485948,-0.000000
1312.291277,-10140.821405,2145.067394,666.185348
1312.291588,-10066.800811,1378.971896,1258.350101
1312.291900,-9622.677246,536.266849,1110.308913
1312.292212,-8660.409521,-1072.533697,1258.350101
1312.292523,-7179.997637,-2068.457845,518.144159
1312.292835,-6365.771101,-919.314598,-592.164754
1312.293146,-6735.874072,689.485948,-1554.432478
1312.293458,-7402.059420,1378.971896,-1406.391290
1312.293770,-9326.594869,2451.505594,-1258.350101
1312.294081,-11029.068536,2374.896044,148.041188
1312.294393,-10955.047942,1532.190996,814.226536
1312.294704,-10214.842000,0.000000,444.123565
1312.295016,-9474.636058,-919.314598,444.123565
1312.295328,-9030.512492,-1378.971896,-74.020594
1312.295639,-9030.512492,229.828649,-592.164754
1312.295951,-9104.533087,1072.533697,-296.082377
1312.296262,-9992.780217,1378.971896,370.102971
1312.296574,-10510.924376,1378.971896,1258.350101
1312.296886,-10214.842000,536.266849,1850.514855
1312.297197,-8660.409521,-1149.143247,2220.617826
1312.297509,-6957.935855,-2451.505594,1776.494261
1312.297820,-6883.915261,-2604.724693,814.226536
1312.298132,-6883.915261,-1455.581446,-666.185348
1312.298444,-7550.100608,0.000000,-1184.329507
1312.298755,-8142.265362,919.314598,-740.205942
1312.299067,-9474.636058,1149.143247,-296.082377
1312.299378,-9622.677246,689.485948,592.164754
1312.299690,-9844.739029,-383.047749,1332.370696
1312.300002,-9992.780217,-1532.190996,1184.329507
1312.300313,-9400.615463,-766.095498,1184.329507
1312.300625,-9474.636058,0.000000,444.123565
1312.300936,-9178.553681,766.095498,-0.000000
1312.301248,-9030.512492,995.924147,962.267725
1312.301560,-9844.739029,1149.143247,1110.308913
1312.301871,-8882.471304,842.705048,1702.473667
1312.302183,-7105.977043,-536.266849,1998.556043
1312.302494,-6587.832884,-2221.676944,1702.473667
1312.302806,-6439.791695,-2757.943793,740.205942
1312.303118,-6883.915261,-1225.752797,-370.102971
1312.303429,-7994.224174,919.314598,-370.102971
1312.303741,-9474.636058,1838.629195,74.020594
1312.304052,-10732.986159,2374.896044,-0.000000
1312.304364,-11103.089130,1838.629195,518.144159
1312.304675,-10362.883188,536.266849,1184.329507
1312.304987,-8512.368333,-766.095498,962.267725
1312.305299,-7920.203579,-995.924147,370.102971
1312.305610,-7624.121203,-842.705048,370.102971
1312.305922,-8956.491898,-612.876398,-74.020594
1312.306233,-9548.656652,-153.219100,740.205942
1312.306545,-9992.780217,689.485948,1628.453072
1312.306857,-9992.780217,0.000000,2146.597232
1312.307168,-9252.574275,-1991.848295,2220.617826
1312.307480,-8216.285956,-3294.210641,1628.453072
1312.307791,-8068.244768,-2451.505594,222.061783
1312.308103,-7476.080014,-689.485948,-0.000000
1312.308415,-7920.203579,229.828649,-814.226536
1312.308726,-9030.512492,1762.019645,-444.123565
1312.309038,-9474.636058,2068.457845,-0.000000
1312.309349,-9548.656652,2145.067394,-0.000000
1312.309661,-8734.430116,842.705048,444.123565
1312.309972,-8068.244768,306.438199,370.102971
1312.310284,-8438.347739,-229.828649,-0.000000
1312.310595,-7846.182985,-766.095498,222.061783
1312.310907,-9104.533087,-459.657299,-74.020594
1312.311218,-10436.903782,153.219100,962.267725
1312.311530,-10807.006753,612.876398,1258.350101
1312.311841,-10658.965565,0.000000,1628.453072
1312.312153,-9474.636058,-1225.752797,1776.494261
1312.312464,-7624.121203,-2834.553343,1480.411884
1312.312776,-6809.894666,-2528.115143,592.164754
1312.313087,-6883.915261,-1608.800546,-296.082377
1312.313399,-7550.100608,-919.314598,-666.185348
1312.313710,-8882.471304,919.314598,-222.061783
1312.314022,-9918.759623,1378.971896,-0.000000
1312.314333,-10658.965565,1608.800546,740.205942
1312.314645,-9992.780217,1149.143247,370.102971
1312.314957,-9474.636058,153.219100,296.082377
1312.315268,-8290.306550,-459.657299,-444.123565
1312.315580,-8068.244768,306.438199,-1184.329507
1312.315891,-8290.306550,1455.581446,-444.123565
1312.316203,-9252.574275,1838.629195,-370.102971
1312.316514,-9326.594869,1762.019645,370.102971
1312.316826,-9474.636058,919.314598,592.164754
1312.317137,-8512.368333,-383.047749,1258.350101
1312.317449,-7920.203579,-2757.943793,1480.411884
1312.317760,-7476.080014,-3447.429741,888.247130
1312.318072,-7698.141797,-2604.724693,518.144159
1312.318383,-8956.491898,-536.266849,-296.082377
1312.318695,-9844.739029,919.314598,-296.082377
1312.319006,-10510.924376,1838.629195,-666.185348
1312.319318,-11029.068536,1838.629195,-370.102971
1312.319629,-10140.821405,1532.190996,296.082377
1312.319941,-9474.636058,0.000000,296.082377
1312.320252,-9400.615463,-229.828649,370.102971
1312.320564,-9696.697840,0.000000,518.144159
1312.320875,-9548.656652,306.438199,592.164754
1312.321187,-9474.636058,1685.410096,666.185348
1312.321498,-9770.718434,2221.676944,666.185348
1312.321810,-8660.409521,1762.019645,592.164754
1312.322121,-7105.977043,1072.533697,592.164754
1312.322433,-6365.771101,-766.095498,592.164754
1312.322744,-5847.626942,-1302.362347,740.205942
1312.323056,-6587.832884,-919.314598,-0.000000
1312.323368,-7920.203579,536.266849,-0.000000
1312.323679,-9030.512492,1302.362347,518.144159
1312.323991,-10140.821405,1072.533697,814.226536
1312.324302,-10881.027347,1302.362347,1110.308913
1312.324614,-10066.800811,229.828649,1110.308913
1312.324925,-8956.491898,-1302.362347,814.226536
1312.325237,-8586.388927,-1762.019645,814.226536
1312.325548,-8142.265362,-766.095498,222.061783
1312.325860,-8512.368333,-459.657299,222.061783
1312.326171,-9474.636058,153.219100,1332.370696
1312.326483,-10140.821405,612.876398,1998.556043
1312.326794,-10140.821405,1149.143247,2294.638420
1312.327106,-8660.409521,-229.828649,2368.659014
1312.327417,-8068.244768,-1608.800546,1554.432478
1312.327729,-6661.853478,-2221.676944,814.226536
1312.328040,-6439.791695,-1149.143247,-296.082377
1312.328352,-6365.771101,0.000000,-740.205942
1312.328663,-7476.080014,919.314598,-740.205942
1312.328975,-9696.697840,1378.971896,-370.102971
1312.329286,-10732.986159,1072.533697,-0.000000
1312.329598,-10288.862594,229.828649,444.123565
1312.329909,-10362.883188,-919.314598,518.144159
1312.330221,-10436.903782,-1532.190996,740.205942
1312.330532,-10362.883188,-1838.629195,222.061783
1312.330844,-10140.821405,-1072.533697,370.102971
1312.331156,-10584.944971,0.000000,962.267725
1312.331467,-11103.089130,536.266849,1184.329507
1312.331779,-10214.842000,0.000000,1702.473667
1312.332090,-8068.244768,-612.876398,1480.411884
1312.332402,-6069.688724,-2528.115143,1184.329507
1312.332713,-5699.585753,-2451.505594,-0.000000
1312.333025,-5847.626942,-1532.190996,-666.185348
1312.333336,-6957.935855,76.609550,-1332.370696
1312.333648,-8586.388927,1455.581446,-740.205942
1312.333959,-9548.656652,1685.410096,-0.000000
1312.334271,-10510.924376,1149.143247,518.144159
1312.334582,-10288.862594,-995.924147,1258.350101
1312.334894,-9696.697840,-1991.848295,1406.391290
1312.335205,-9770.718434,-1838.629195,444.123565
1312.335517,-9104.533087,-612.876398,222.061783
1312.335828,-8808.450710,536.266849,296.082377
1312.336140,-9326.594869,306.438199,370.102971
1312.336451,-9696.697840,1685.410096,888.247130
1312.336763,-9104.533087,2068.457845,1628.453072
1312.337074,-8216.285956,1072.533697,1110.308913
1312.337386,-7328.038826,-1302.362347,1924.535449
1312.337697,-7254.018232,-2528.115143,888.247130
1312.338009,-7698.141797,-1608.800546,-444.123565
1312.338320,-7920.203579,0.000000,-444.123565
1312.338632,-8512.368333,1149.143247,-518.144159
1312.338943,-9252.574275,1455.581446,-370.102971
1312.339255,-9696.697840,995.924147,296.082377
1312.339567,-8808.450710,-153.219100,740.205942
1312.339878,-9252.574275,-612.876398,814.226536
1312.340190,-9474.636058,-766.095498,888.247130
1312.340501,-9474.636058,-153.219100,370.102971
1312.340813,-10140.821405,459.657299,-148.041188
1312.341124,-9844.739029,1225.752797,592.164754
1312.341436,-9992.780217,1378.971896,1110.308913
1312.341747,-10214.842000,689.485948,1184.329507
1312.342059,-9548.656652,-1685.410096,1480.411884
1312.342370,-8142.265362,-1991.848295,1110.308913
1312.342682,-7179.997637,-1455.581446,666.185348
1312.342993,-7105.977043,-1378.971896,296.082377
1312.343305,-7698.141797,-612.876398,-222.061783
1312.343616,-8290.306550,76.609550,148.041188
1312.343928,-9178.553681,1455.581446,518.144159
1312.344239,-9770.718434,1608.800546,666.185348
1312.344551,-10066.800811,1072.533697,592.164754
1312.344862,-8956.491898,0.000000,296.082377
1312.345174,-8216.285956,-1072.533697,-370.102971
1312.345485,-8290.306550,-153.219100,-740.205942
1312.345797,-9178.553681,1378.971896,-814.226536
1312.346108,-10436.903782,2068.457845,-148.041188
1312.346420,-9770.718434,1532.190996,1036.288319
1312.346731,-9622.677246,1455.581446,2146.597232
1312.347043,-8808.450710,0.000000,2664.741391
1312.347354,-7328.038826,-2145.067394,2220.617826
1312.347666,-6587.832884,-2911.162892,1332.370696
1312.347978,-6439.791695,-1685.410096,-222.061783
1312.348289,-7550.100608,153.219100,-1480.411884
1312.348601,-8216.285956,1378.971896,-1406.391290
1312.348912,-9178.553681,2068.457845,-888.247130
1312.349224,-10955.047942,842.705048,-370.102971
1312.349535,-10288.862594,229.828649,-0.000000
1312.349847,-10658.965565,-766.095498,666.185348
1312.350158,-10436.903782,-1302.362347,1110.308913
1312.350470,-9770.718434,-1225.752797,962.267725
1312.350781,-9400.615463,-306.438199,592.164754
1312.351093,-8660.409521,76.609550,1036.288319
1312.351404,-9104.533087,612.876398,666.185348
1312.351716,-8660.409521,612.876398,1036.288319
1312.352027,-8290.306550,-536.266849,1036.288319
1312.352339,-8142.265362,-1915.238745,962.267725
1312.352650,-8068.244768,-2374.896044,518.144159
1312.352962,-8068.244768,-1608.800546,222.061783
1312.353273,-8586.388927,-229.828649,-148.041188
1312.353585,-8586.388927,383.047749,-148.041188
1312.353896,-10066.800811,842.705048,370.102971
1312.354208,-10584.944971,1685.410096,962.267725
1312.354519,-9992.780217,689.485948,740.205942
1312.354831,-9622.677246,76.609550,592.164754
1312.355142,-9252.574275,-689.485948,148.041188
1312.355454,-9030.512492,-689.485948,-74.020594
1312.355765,-8438.347739,153.219100,-148.041188
1312.356077,-8364.327145,689.485948,518.144159
1312.356389,-9400.615463,0.000000,1406.391290
1312.356700,-9770.718434,0.000000,2220.617826
1312.357012,-8808.450710,-766.095498,2368.659014
1312.357323,-7402.059420,-2221.676944,2146.597232
1312.357635,-7105.977043,-2451.505594,1554.432478
1312.357946,-7105.977043,-2374.896044,222.061783
1312.358258,-7624.121203,-536.266849,-222.061783
1312.358569,-7624.121203,1225.752797,-148.041188
1312.358881,-9474.636058,1149.143247,-296.082377
1312.359192,-9770.718434,1991.848295,-0.000000
1312.359504,-9400.615463,766.095498,666.185348
1312.359815,-8512.368333,-689.485948,666.185348
1312.360127,-8142.265362,-1302.362347,444.123565
1312.360438,-8882.471304,-689.485948,370.102971
1312.360750,-9474.636058,0.000000,-0.000000
1312.361061,-9770.718434,153.219100,666.185348
1312.361373,-10066.800811,766.095498,1110.308913
1312.361684,-9770.718434,689.485948,1628.453072
1312.361996,-9770.718434,-383.047749,1332.370696
1312.362307,-8660.409521,-2068.457845,1258.350101
1312.362619,-7402.059420,-2068.457845,666.185348
1312.362930,-7031.956449,-1149.143247,-296.082377
1312.363242,-7105.977043,153.219100,-888.247130
1312.363553,-7698.141797,0.000000,-1480.411884
1312.363865,-8660.409521,1378.971896,-1036.288319
1312.364177,-9326.594869,1532.190996,-0.000000
1312.364488,-10140.821405,1302.362347,296.082377
1312.364800,-10955.047942,-229.828649,592.164754
1312.365111,-10584.944971,-612.876398,370.102971
1312.365423,-9696.697840,-459.657299,-0.000000
1312.365734,-9178.553681,306.438199,-370.102971
1312.366046,-9622.677246,995.924147,-0.000000
1312.366357,-10140.821405,1532.190996,592.164754
1312.366669,-10140.821405,1378.971896,1554.432478
1312.366980,-8956.491898,536.266849,1628.453072
1312.367292,-7254.018232,-842.705048,1850.514855
1312.367603,-6809.894666,-2221.676944,1480.411884
1312.367915,-6735.874072,-2374.896044,-296.082377
1312.368226,-6587.832884,153.219100,-1332.370696
1312.368538,-7402.059420,1685.410096,-1554.432478
1312.368849,-9252.574275,2298.286494,-888.247130
1312.369161,-11399.171507,1532.190996,-0.000000
1312.369472,-11695.253884,459.657299,814.226536
1312.369784,-10362.883188,-383.047749,1628.453072
1312.370095,-10288.862594,-1838.629195,2146.597232
1312.370407,-9696.697840,-1072.533697,1924.535449
1312.370718,-9474.636058,-1302.362347,962.267725
1312.371030,-8142.265362,0.000000,1110.308913
1312.371341,-7994.224174,1532.190996,888.247130
1312.371653,-8142.265362,2374.896044,888.247130
1312.371964,-7920.203579,1149.143247,222.061783
1312.372276,-6735.874072,-383.047749,1110.308913
1312.372588,-6143.709319,-1149.143247,740.205942
1312.372899,-7105.977043,-612.876398,-0.000000
1312.373211,-8068.244768,536.266849,296.082377
1312.373522,-8956.491898,0.000000,-0.000000
1312.373834,-9622.677246,229.828649,740.205942
1312.374145,-10362.883188,1072.533697,1036.288319
1312.374457,-10362.883188,689.485948,888.247130
1312.374768,-9548.656652,-459.657299,444.123565
1312.375080,-8734.430116,-1302.362347,370.102971
1312.375391,-8364.327145,-1225.752797,-148.041188
1312.375703,-8364.327145,-383.047749,-592.164754
1312.376014,-9400.615463,995.924147,222.061783
1312.376326,-10214.842000,766.095498,814.226536
1312.376637,-9770.718434,229.828649,2220.617826
1312.376949,-9400.615463,-995.924147,2368.659014
1312.377260,-9030.512492,-2451.505594,2516.700203
1312.377572,-7920.203579,-3140.991542,1924.535449
1312.377883,-7402.059420,-1915.238745,296.082377
1312.378195,-8142.265362,-153.219100,-1184.329507
1312.378506,-7846.182985,1532.190996,-1184.329507
1312.378818,-9252.574275,1991.848295,-1258.350101
1312.379129,-9770.718434,2068.457845,-222.061783
1312.379441,-9400.615463,1838.629195,444.123565
1312.379752,-9104.533087,153.219100,370.102971
1312.380064,-8512.368333,-306.438199,370.102971
1312.380375,-8438.347739,-1302.362347,296.082377
1312.380687,-8808.450710,-612.876398,-0.000000
1312.380999,-9770.718434,0.000000,-0.000000
1312.381310,-11029.068536,153.219100,962.267725
1312.381622,-11325.150913,459.657299,1924.535449
1312.381933,-10214.842000,-306.438199,1924.535449
1312.382245,-8142.265362,-2221.676944,1332.370696
1312.382556,-6809.894666,-2681.334243,740.205942
1312.382868,-6809.894666,-1991.848295,-0.000000
1312.383179,-7179.997637,-612.876398,-740.205942
1312.383491,-7328.038826,1225.752797,-518.144159
1312.383802,-8660.409521,1455.581446,-0.000000
1312.384114,-9918.759623,1302.362347,814.226536
1312.384425,-10807.006753,459.657299,814.226536
1312.384737,-10732.986159,-383.047749,814.226536
1312.385048,-9696.697840,-766.095498,814.226536
1312.385360,-9326.594869,-1608.800546,-148.041188
1312.385671,-9178.553681,0.000000,-666.185348
1312.385983,-9252.574275,459.657299,-888.247130
1312.386294,-9104.533087,612.876398,296.082377
1312.386606,-8586.388927,919.314598,1406.391290
1312.386917,-8364.327145,76.609550,1628.453072
1312.387229,-6587.832884,-1149.143247,2220.617826
1312.387540,-6661.853478,-2911.162892,1480.411884
1312.387852,-6217.729913,-3600.648841,1406.391290
1312.388163,-6735.874072,-2068.457845,-518.144159
1312.388475,-8364.327145,-459.657299,-444.123565
1312.388786,-9622.677246,919.314598,-666.185348
1312.389098,-10214.842000,995.924147,-222.061783
1312.389410,-10732.986159,459.657299,370.102971
1312.389721,-10732.986159,-689.485948,1036.288319
1312.390033,-10214.842000,-1225.752797,1184.329507
1312.390344,-9030.512492,-919.314598,1110.308913
1312.390656,-9030.512492,536.266849,370.102971
1312.390967,-9400.615463,766.095498,-0.000000
1312.391279,-9400.615463,1225.752797,444.123565
1312.391590,-9178.553681,1608.800546,962.267725
1312.391902,-9104.533087,1455.581446,888.247130
1312.392213,-8364.327145,0.000000,1184.329507
1312.392525,-8216.285956,-919.314598,814.226536
1312.392836,-8364.327145,-1762.019645,962.267725
1312.393148,-8216.285956,-612.876398,148.041188
1312.393459,-8586.388927,1149.143247,-0.000000
1312.393771,-9252.574275,2068.457845,-0.000000
1312.394082,-9770.718434,1991.848295,370.102971
1312.394394,-9918.759623,2374.896044,-0.000000
1312.394705,-9252.574275,1685.410096,-0.000000
1312.395017,-8364.327145,1072.533697,444.123565
1312.395328,-8512.368333,229.828649,-0.000000
1312.395640,-8586.388927,306.438199,-74.020594
1312.395951,-9252.574275,919.314598,-0.000000
1312.396263,-9622.677246,842.705048,814.226536
1312.396574,-9696.697840,766.095498,2368.659014
1312.396886,-9622.677246,0.000000,2442.679609
1312.397198,-7920.203579,-1838.629195,2516.700203
1312.397509,-6735.874072,-2604.724693,1332.370696
1312.397821,-5847.626942,-1915.238745,370.102971
1312.398132,-6291.750507,-459.657299,-1036.288319
1312.398444,-7328.038826,1225.752797,-1480.411884
1312.398755,-8586.388927,2298.286494,-1554.432478
1312.399067,-9474.636058,2757.943793,-592.164754
1312.399378,-9400.615463,2221.676944,444.123565
1312.399690,-9252.574275,612.876398,518.144159
1312.400001,-9104.533087,-1991.848295,962.267725
1312.400313,-9326.594869,-1838.629195,740.205942
1312.400624,-9326.594869,-1532.190996,-148.041188
1312.400936,-9548.656652,-306.438199,222.061783
1312.401247,-10881.027347,0.000000,518.144159
1312.401559,-11399.171507,76.609550,962.267725
1312.401870,-11103.089130,76.609550,1036.288319
