#time,accel_x,accel_y,accel_z
1388.653378,-8808.450710,-153.219100,444.123565
1388.653690,-9030.512492,-536.266849,370.102971
1388.654002,-8512.368333,306.438199,592.164754
1388.654313,-9400.615463,-306.438199,-0.000000
1388.654625,-9178.553681,0.000000,370.102971
1388.654937,-8882.471304,0.000000,518.144159
1388.655248,-8882.471304,76.609550,592.164754
1388.655560,-9030.512492,-153.219100,518.144159
1388.655872,-8882.471304,76.609550,666.185348
1388.656183,-8586.388927,229.828649,592.164754
1388.656495,-8808.450710,0.000000,592.164754
1388.656807,-9104.533087,229.828649,222.061783
1388.657118,-9030.512492,-229.828649,370.102971
1388.657430,-8956.491898,0.000000,592.164754
1388.657742,-8956.491898,0.000000,592.164754
1388.658053,-9030.512492,76.609550,592.164754
1388.658365,-8586.388927,153.219100,444.123565
1388.658677,-8882.471304,0.000000,592.164754
1388.658988,-8586.388927,-383.047749,444.123565
1388.659300,-9104.533087,0.000000,370.102971
1388.659612,-8882.471304,0.000000,814.226536
1388.659923,-8882.471304,0.000000,666.185348
1388.660235,-8956.491898,0.000000,592.164754
1388.660547,-8956.491898,0.000000,518.144159
1388.660858,-8364.327145,0.000000,592.164754
1388.661170,-8882.471304,0.000000,148.041188
1388.661482,-8808.450710,-383.047749,592.164754
1388.661793,-8660.409521,-383.047749,370.102971
1388.662105,-9030.512492,0.000000,518.144159
1388.662417,-9104.533087,0.000000,444.123565
1388.662728,-9104.533087,-383.047749,592.164754
1388.663040,-8956.491898,0.000000,592.164754
1388.663352,-8882.471304,306.438199,518.144159
1388.663663,-8956.491898,153.219100,444.123565
1388.663975,-9030.512492,383.047749,518.144159
1388.664287,-8956.491898,153.219100,740.205942
1388.664598,-9104.533087,0.000000,444.123565
1388.664910,-8956.491898,0.000000,518.144159
1388.665222,-9030.512492,0.000000,370.102971
1388.665533,-8882.471304,0.000000,444.123565
1388.665845,-8586.388927,-153.219100,518.144159
1388.666157,-8216.285956,-536.266849,592.164754
1388.666468,-8808.450710,0.000000,-0.000000
1388.666780,-9030.512492,0.000000,370.102971
1388.667092,-8956.491898,-306.438199,666.185348
1388.667404,-8808.450710,0.000000,518.144159
1388.667715,-9178.553681,-229.828649,222.061783
1388.668027,-8660.409521,0.000000,370.102971
1388.668339,-9030.512492,0.000000,-0.000000
1388.668650,-9030.512492,153.219100,-0.000000
1388.668962,-8882.471304,153.219100,592.164754
1388.669274,-9030.512492,76.609550,666.185348
1388.669585,-8956.491898,0.000000,666.185348
1388.669897,-8956.491898,0.000000,444.123565
1388.670209,-8882.471304,0.000000,518.144159
1388.670520,-8808.450710,0.000000,444.123565
1388.670832,-8734.430116,0.000000,518.144159
1388.671144,-8882.471304,306.438199,592.164754
1388.671455,-8586.388927,-153.219100,666.185348
1388.671767,-9030.512492,0.000000,592.164754
1388.672079,-8660.409521,0.000000,666.185348
1388.672390,-8882.471304,0.000000,518.144159
1388.672702,-8808.450710,0.000000,518.144159
1388.673014,-8660.409521,76.609550,666.185348
1388.673325,-9030.512492,0.000000,222.061783
1388.673637,-8956.491898,0.000000,592.164754
1388.673949,-9178.553681,-153.219100,370.102971
1388.674260,-8882.471304,0.000000,666.185348
1388.674572,-8808.450710,0.000000,518.144159
1388.674884,-8808.450710,-153.219100,518.144159
1388.675195,-8882.471304,0.000000,592.164754
1388.675507,-8956.491898,0.000000,518.144159
1388.675819,-8808.450710,-306.438199,148.041188
1388.676130,-9104.533087,383.047749,444.123565
1388.676442,-8956.491898,-229.828649,592.164754
1388.676754,-8882.471304,0.000000,740.205942
1388.677065,-8734.430116,-153.219100,592.164754
1388.677377,-8808.450710,-306.438199,592.164754
1388.677689,-8882.471304,-459.657299,592.164754
1388.678000,-9030.512492,0.000000,370.102971
1388.678312,-9030.512492,459.657299,814.226536
1388.678624,-8660.409521,229.828649,592.164754
1388.678935,-9030.512492,0.000000,592.164754
1388.679247,-8882.471304,0.000000,592.164754
1388.679559,-8882.471304,0.000000,592.164754
1388.679870,-8734.430116,0.000000,592.164754
1388.680182,-8734.430116,0.000000,296.082377
1388.680494,-9104.533087,153.219100,296.082377
1388.680806,-8734.430116,306.438199,296.082377
1388.681117,-8882.471304,-306.438199,222.061783
1388.681429,-8586.388927,0.000000,666.185348
1388.681741,-8956.491898,0.000000,444.123565
1388.682052,-9474.636058,76.609550,370.102971
1388.682364,-11399.171507,536.266849,148.041188
1388.682676,-11177.109724,2987.772442,370.102971
1388.682987,-8586.388927,5209.449386,740.205942
1388.683299,-7772.162391,3140.991542,814.226536
1388.683611,-6365.771101,766.095498,1332.370696
1388.683922,-7105.977043,-1532.190996,-0.000000
1388.684234,-7550.100608,-1225.752797,-0.000000
1388.684546,-7920.203579,-459.657299,-444.123565
1388.684857,-11843.295072,-766.095498,-1406.391290
1388.685169,-12139.377449,766.095498,-296.082377
1388.685481,-9770.718434,1149.143247,296.082377
1388.685792,-8956.491898,0.000000,1702.473667
1388.686104,-9548.656652,-459.657299,2516.700203
1388.686416,-11843.295072,995.924147,1406.391290
1388.686727,-7476.080014,4749.792088,2516.700203
1388.687039,-5181.441594,4903.011187,1776.494261
1388.687351,-7624.121203,2834.553343,962.267725
1388.687662,-7550.100608,2451.505594,-740.205942
1388.687974,-7328.038826,3524.039291,-2368.659014
1388.688286,-8956.491898,3830.477490,-1184.329507
1388.688597,-9178.553681,3907.087040,-444.123565
1388.688909,-13397.727550,1838.629195,-1628.453072
1388.689221,-12953.603985,-919.314598,1332.370696
1388.689532,-8586.388927,-1072.533697,2368.659014
1388.689844,-10732.986159,1532.190996,592.164754
1388.690156,-7476.080014,6205.373534,2516.700203
1388.690467,-8364.327145,5056.230287,814.226536
1388.690779,-7994.224174,3140.991542,2886.803174
1388.691091,-5699.585753,4673.182538,1850.514855
1388.691402,-7846.182985,7201.297681,518.144159
1388.691714,-7624.121203,6511.811733,-1110.308913
1388.692026,-9844.739029,5209.449386,-1110.308913
1388.692337,-9844.739029,5439.278036,-962.267725
1388.692649,-10510.924376,5209.449386,-1332.370696
1388.692961,-11843.295072,5439.278036,666.185348
1388.693273,-10881.027347,4519.963438,1184.329507
1388.693584,-10732.986159,3830.477490,1554.432478
1388.693896,-8438.347739,5362.668486,2442.679609
1388.694208,-6883.915261,5286.058936,1036.288319
1388.694519,-6291.750507,5669.106685,888.247130
1388.694831,-5107.421000,4979.620737,148.041188
1388.695143,-4885.359217,5209.449386,-296.082377
1388.695454,-6069.688724,4136.915689,-1110.308913
1388.695766,-8956.491898,3677.258390,-370.102971
1388.696078,-10066.800811,2604.724693,-0.000000
1388.696389,-10288.862594,1608.800546,592.164754
1388.696701,-10436.903782,766.095498,1258.350101
1388.697013,-10807.006753,306.438199,1480.411884
1388.697324,-10955.047942,1149.143247,1628.453072
1388.697636,-9400.615463,2834.553343,1480.411884
1388.697948,-7328.038826,3753.867940,1554.432478
1388.698259,-6883.915261,3370.820191,518.144159
1388.698571,-6957.935855,3217.601092,-0.000000
1388.698883,-7402.059420,3370.820191,-666.185348
1388.699194,-6735.874072,3600.648841,-740.205942
1388.699506,-7920.203579,1149.143247,-1184.329507
1388.699818,-9548.656652,-1225.752797,-888.247130
1388.700129,-10510.924376,-2374.896044,-148.041188
1388.700441,-12139.377449,-1608.800546,222.061783
1388.700753,-12805.562797,-1685.410096,1850.514855
1388.701064,-13175.665768,-919.314598,1702.473667
1388.701376,-12953.603985,995.924147,962.267725
1388.701688,-10955.047942,3140.991542,444.123565
1388.701999,-8068.244768,4366.744339,-518.144159
1388.702311,-5847.626942,4443.353888,592.164754
1388.702623,-6143.709319,4826.401637,888.247130
1388.702934,-6661.853478,4136.915689,444.123565
1388.703246,-8512.368333,2911.162892,-74.020594
1388.703558,-10732.986159,1762.019645,-0.000000
1388.703869,-12361.439231,1149.143247,-296.082377
1388.704181,-13249.686362,153.219100,-444.123565
1388.704493,-13323.706956,-153.219100,-74.020594
1388.704804,-12509.480420,1225.752797,296.082377
1388.705116,-11621.233289,2987.772442,962.267725
1388.705428,-9326.594869,3907.087040,2146.597232
1388.705739,-6291.750507,5132.839837,2220.617826
1388.706051,-4219.173869,5669.106685,1628.453072
1388.706363,-2368.659014,6205.373534,296.082377
1388.706675,-1480.411884,6894.859482,-1628.453072
1388.706986,-3108.864956,4903.011187,-2072.576638
1388.707298,-7328.038826,3294.210641,-2072.576638
1388.707610,-11843.295072,2528.115143,-518.144159
1388.707921,-14730.098246,2757.943793,666.185348
1388.708233,-16136.489536,2681.334243,3034.844362
1388.708545,-14359.995275,1378.971896,3923.091493
1388.708856,-10881.027347,1532.190996,3627.009116
1388.709168,-6365.771101,3064.381992,2516.700203
1388.709480,-3627.009116,4213.525239,740.205942
1388.709791,-1332.370696,6741.640382,-962.267725
1388.710103,-2516.700203,7507.735880,-2886.803174
1388.710415,-4441.235652,7354.516781,-2442.679609
1388.710726,-6365.771101,5362.668486,-2368.659014
1388.711038,-8882.471304,2604.724693,-74.020594
1388.711350,-10288.862594,0.000000,666.185348
1388.711661,-11695.253884,-2451.505594,888.247130
1388.711973,-13249.686362,-3907.087040,1628.453072
1388.712285,-12287.418637,-2374.896044,2368.659014
1388.712596,-12731.542202,0.000000,1036.288319
1388.712908,-12361.439231,2451.505594,1332.370696
1388.713220,-10732.986159,4366.744339,2072.576638
1388.713531,-7994.224174,5669.106685,1850.514855
1388.713843,-6291.750507,5592.497135,1776.494261
1388.714155,-5847.626942,4826.401637,222.061783
1388.714466,-6513.812290,3217.601092,-592.164754
1388.714778,-7328.038826,3064.381992,-2072.576638
1388.715090,-9326.594869,3983.696590,-2368.659014
1388.715401,-11621.233289,4673.182538,-2368.659014
1388.715713,-12435.459826,3370.820191,-1406.391290
1388.716025,-13249.686362,1685.410096,1110.308913
1388.716336,-12731.542202,919.314598,2072.576638
1388.716648,-12435.459826,2068.457845,2590.720797
1388.716960,-11029.068536,3677.258390,3182.885551
1388.717271,-9474.636058,5898.935335,1184.329507
1388.717583,-6661.853478,6511.811733,444.123565
1388.717895,-4959.379811,6281.983084,-518.144159
1388.718206,-5625.565159,4673.182538,-1554.432478
1388.718518,-6809.894666,3140.991542,-1184.329507
1388.718830,-7994.224174,3140.991542,-814.226536
1388.719141,-7994.224174,2221.676944,296.082377
1388.719453,-8956.491898,153.219100,962.267725
1388.719765,-9178.553681,-2451.505594,2442.679609
1388.720077,-9030.512492,-2834.553343,1998.556043
1388.720388,-8068.244768,306.438199,1480.411884
1388.720700,-8586.388927,4596.572988,-0.000000
1388.721012,-9918.759623,8120.612279,-592.164754
1388.721323,-10288.862594,9422.974625,222.061783
1388.721635,-9770.718434,6588.421283,1110.308913
1388.721947,-8734.430116,4136.915689,1480.411884
1388.722258,-7550.100608,3447.429741,1628.453072
1388.722570,-6587.832884,3753.867940,1036.288319
1388.722882,-5329.482782,2528.115143,888.247130
1388.723193,-4219.173869,0.000000,518.144159
1388.723505,-4441.235652,-2604.724693,-0.000000
1388.723817,-5995.668130,-2911.162892,-740.205942
1388.724128,-9622.677246,-995.924147,-1036.288319
1388.724440,-12139.377449,2987.772442,-888.247130
1388.724752,-12805.562797,5132.839837,-370.102971
1388.725063,-14285.974681,3447.429741,1332.370696
1388.725375,-13915.871710,153.219100,2960.823768
1388.725687,-12583.501014,-153.219100,3108.864956
1388.725998,-9326.594869,919.314598,3182.885551
1388.726310,-6217.729913,0.000000,2516.700203
1388.726621,-3849.070898,-2757.943793,1554.432478
1388.726933,-2664.741391,-5592.497135,370.102971
1388.727244,-3923.091493,-7737.564530,-222.061783
1388.727556,-5773.606348,-5362.668486,-1110.308913
1388.727867,-9326.594869,-306.438199,-1776.494261
1388.728179,-12953.603985,2911.162892,-1406.391290
1388.728490,-15618.345376,1608.800546,-222.061783
1388.728802,-18357.107362,-459.657299,1776.494261
1388.729113,-17690.922014,919.314598,2960.823768
1388.729425,-13545.768739,4366.744339,1554.432478
1388.729736,-8660.409521,4903.011187,296.082377
1388.730048,-3701.029710,1685.410096,-0.000000
1388.730359,-222.061783,-2451.505594,-74.020594
1388.730671,888.247130,-4673.182538,-0.000000
1388.730983,-1702.473667,-3370.820191,-370.102971
1388.731294,-6291.750507,76.609550,-814.226536
1388.731606,-10140.821405,1838.629195,-1332.370696
1388.731917,-15174.221811,536.266849,-592.164754
1388.732229,-18431.127956,-1302.362347,-74.020594
1388.732540,-17690.922014,1455.581446,-0.000000
1388.732852,-15766.386565,4979.620737,148.041188
1388.733163,-12287.418637,4290.134789,296.082377
1388.733475,-6809.894666,-612.876398,1406.391290
1388.733786,-1998.556043,-4903.011187,1554.432478
1388.734098,1258.350101,-5132.839837,1850.514855
1388.734409,0.000000,-3370.820191,-0.000000
1388.734721,-2738.761985,-1685.410096,-296.082377
1388.735032,-7476.080014,689.485948,-814.226536
1388.735344,-13397.727550,919.314598,-592.164754
1388.735655,-17764.942608,3370.820191,592.164754
1388.735967,-18949.272115,6665.030833,814.226536
1388.736279,-14137.933492,6741.640382,1406.391290
1388.736590,-8956.491898,3907.087040,1110.308913
1388.736902,-6365.771101,-306.438199,-0.000000
1388.737213,-3182.885551,612.876398,-1998.556043
1388.737525,-1110.308913,995.924147,-2072.576638
1388.737836,-1258.350101,1302.362347,-1702.473667
1388.738148,-4071.132681,842.705048,1554.432478
1388.738459,-8142.265362,-2298.286494,1258.350101
1388.738771,-11547.212695,-3294.210641,2886.803174
1388.739082,-13767.830521,-1532.190996,3701.029710
1388.739394,-14211.954086,1838.629195,2664.741391
1388.739705,-12509.480420,1302.362347,2442.679609
1388.740017,-10584.944971,-1532.190996,-370.102971
1388.740328,-7920.203579,-2298.286494,-814.226536
1388.740640,-5551.544565,383.047749,-1702.473667
1388.740951,-5625.565159,995.924147,-666.185348
1388.741263,-6587.832884,76.609550,1258.350101
1388.741575,-8586.388927,-2374.896044,3182.885551
1388.741886,-11843.295072,-3370.820191,5033.400406
1388.742198,-12953.603985,-2451.505594,5255.462188
1388.742509,-10140.821405,919.314598,3182.885551
1388.742821,-6661.853478,2145.067394,1628.453072
1388.743132,-4737.318029,0.000000,-1258.350101
1388.743444,-5625.565159,-1302.362347,-2442.679609
1388.743755,-6587.832884,-1225.752797,-2368.659014
1388.744067,-8290.306550,689.485948,-2442.679609
1388.744378,-10362.883188,76.609550,-148.041188
1388.744690,-13989.892304,-3294.210641,888.247130
1388.745001,-15914.427753,-5975.544884,2960.823768
1388.745313,-13471.748144,-5286.058936,3330.926739
1388.745624,-10807.006753,-1685.410096,3701.029710
1388.745936,-8956.491898,306.438199,2812.782580
1388.746247,-6735.874072,-2221.676944,296.082377
1388.746559,-2812.782580,-2451.505594,-814.226536
1388.746871,-1036.288319,-1838.629195,-2516.700203
1388.747182,-1184.329507,1532.190996,-2738.761985
1388.747494,-4737.318029,2911.162892,-2442.679609
1388.747805,-9178.553681,1608.800546,-1776.494261
1388.748117,-14508.036463,-383.047749,148.041188
1388.748428,-18875.251521,-842.705048,1998.556043
1388.748740,-19689.478057,2681.334243,1924.535449
1388.749051,-16358.551318,4213.525239,1776.494261
1388.749363,-11251.130318,1378.971896,666.185348
1388.749674,-5995.668130,-1149.143247,-444.123565
1388.749986,-1628.453072,-689.485948,-1924.535449
1388.750297,592.164754,1915.238745,-1998.556043
1388.750609,-74.020594,1455.581446,-2442.679609
1388.750920,-4515.256246,1915.238745,-2220.617826
1388.751232,-10066.800811,306.438199,-1406.391290
1388.751543,-15248.242405,-536.266849,-0.000000
1388.751855,-17246.798449,1225.752797,1332.370696
1388.752167,-15766.386565,2757.943793,1776.494261
1388.752478,-13619.789333,766.095498,1998.556043
1388.752790,-10214.842000,-2834.553343,2516.700203
1388.753101,-7031.956449,-4290.134789,2146.597232
1388.753413,-4663.297435,-1915.238745,444.123565
1388.753724,-3478.967927,2221.676944,-0.000000
1388.754036,-3627.009116,3370.820191,-296.082377
1388.754347,-5107.421000,2528.115143,-1924.535449
1388.754659,-7328.038826,1838.629195,-592.164754
1388.754970,-10362.883188,1762.019645,-666.185348
1388.755282,-11843.295072,4060.306139,888.247130
1388.755593,-14063.912898,4826.401637,2072.576638
1388.755905,-12879.583391,459.657299,2886.803174
1388.756216,-10955.047942,-3677.258390,2146.597232
1388.756528,-7328.038826,-3447.429741,2590.720797
1388.756840,-4515.256246,-842.705048,370.102971
1388.757151,-3701.029710,919.314598,-222.061783
1388.757463,-3182.885551,153.219100,370.102971
1388.757774,-5847.626942,-2681.334243,1258.350101
1388.758086,-8512.368333,-3677.258390,2368.659014
1388.758397,-11103.089130,-1762.019645,2368.659014
1388.758709,-12879.583391,1149.143247,1776.494261
1388.759020,-11177.109724,76.609550,1554.432478
1388.759332,-9474.636058,-4519.963438,148.041188
1388.759643,-7920.203579,-6052.154434,-148.041188
1388.759955,-7550.100608,-4366.744339,296.082377
1388.760266,-8956.491898,-1762.019645,1036.288319
1388.760578,-9696.697840,76.609550,3182.885551
1388.760889,-11695.253884,-2068.457845,3775.050304
1388.761201,-11621.233289,-3064.381992,4737.318029
1388.761512,-9770.718434,-1225.752797,3849.070898
1388.761824,-7772.162391,2757.943793,888.247130
1388.762136,-5699.585753,3907.087040,-1036.288319
1388.762447,-3627.009116,1149.143247,-3108.864956
1388.762759,-4145.153275,-1608.800546,-3701.029710
1388.763070,-5995.668130,-1455.581446,-3182.885551
1388.763382,-8734.430116,0.000000,-1998.556043
1388.763693,-11843.295072,383.047749,-296.082377
1388.764005,-14804.118840,-689.485948,1258.350101
1388.764316,-17468.860231,-2451.505594,2294.638420
1388.764628,-15766.386565,-842.705048,3256.906145
1388.764939,-12657.521608,1991.848295,2516.700203
1388.765251,-9104.533087,3140.991542,2146.597232
1388.765562,-5107.421000,1225.752797,-74.020594
1388.765874,-3034.844362,-459.657299,-2294.638420
1388.766185,-1480.411884,-306.438199,-3923.091493
1388.766497,-2146.597232,1072.533697,-4737.318029
1388.766808,-5477.523971,2145.067394,-4441.235652
1388.767120,-10436.903782,766.095498,-2072.576638
1388.767432,-15322.262999,-1685.410096,740.205942
1388.767743,-17616.901420,-2221.676944,2960.823768
1388.768055,-18949.272115,612.876398,3849.070898
1388.768366,-14582.057057,3370.820191,4515.256246
1388.768678,-9918.759623,1915.238745,1776.494261
1388.768989,-5033.400406,459.657299,296.082377
1388.769301,-666.185348,1915.238745,-2220.617826
1388.769612,518.144159,3600.648841,-3478.967927
1388.769924,-370.102971,4443.353888,-3478.967927
1388.770235,-3701.029710,2911.162892,-3182.885551
1388.770547,-8216.285956,0.000000,-1406.391290
1388.770858,-13175.665768,-1455.581446,1036.288319
1388.771170,-16210.510130,-612.876398,2738.761985
1388.771481,-15766.386565,536.266849,4071.132681
1388.771793,-14063.912898,-383.047749,4367.215058
1388.772104,-11029.068536,-3217.601092,4071.132681
1388.772416,-7105.977043,-4749.792088,2368.659014
1388.772728,-3701.029710,-2757.943793,1184.329507
1388.773039,-2368.659014,612.876398,-814.226536
1388.773351,-1998.556043,995.924147,-1628.453072
1388.773662,-3552.988522,-612.876398,-1850.514855
1388.773974,-7179.997637,-2604.724693,-222.061783
1388.774285,-11103.089130,-1838.629195,1036.288319
1388.774597,-14359.995275,1072.533697,2072.576638
1388.774908,-16062.468941,1762.019645,3701.029710
1388.775220,-15248.242405,-459.657299,3627.009116
1388.775531,-13027.624579,-2834.553343,3701.029710
1388.775843,-9400.615463,-2604.724693,2812.782580
1388.776154,-6365.771101,306.438199,592.164754
1388.776466,-3775.050304,3064.381992,-592.164754
1388.776777,-3108.864956,2298.286494,-1184.329507
1388.777089,-5181.441594,-612.876398,-0.000000
1388.777400,-8438.347739,-2298.286494,222.061783
1388.777712,-10510.924376,-2374.896044,-0.000000
1388.778024,-11029.068536,229.828649,814.226536
1388.778335,-10955.047942,612.876398,-0.000000
1388.778647,-11103.089130,-2987.772442,-222.061783
1388.778958,-9622.677246,-4826.401637,222.061783
1388.779270,-9178.553681,-3983.696590,962.267725
1388.779581,-9030.512492,-229.828649,1998.556043
1388.779893,-9770.718434,1685.410096,2146.597232
1388.780204,-10881.027347,536.266849,2072.576638
1388.780516,-10214.842000,-689.485948,2812.782580
1388.780827,-9548.656652,689.485948,1480.411884
1388.781139,-7994.224174,4673.182538,-1258.350101
1388.781450,-7105.977043,5822.325785,-2812.782580
1388.781762,-6439.791695,3447.429741,-3923.091493
1388.782073,-6069.688724,-306.438199,-3256.906145
1388.782385,-5995.668130,-459.657299,-2368.659014
1388.782696,-7920.203579,612.876398,-740.205942
1388.783008,-9770.718434,2145.067394,592.164754
1388.783320,-11843.295072,1915.238745,1702.473667
1388.783631,-13397.727550,1685.410096,2220.617826
1388.783943,-13101.645173,1685.410096,2072.576638
1388.784254,-11399.171507,3677.258390,1850.514855
1388.784566,-8512.368333,4060.306139,814.226536
1388.784877,-6069.688724,2298.286494,-1406.391290
1388.785189,-3997.112087,-842.705048,-3034.844362
1388.785500,-2960.823768,-2681.334243,-4145.153275
1388.785812,-2886.803174,-2298.286494,-2812.782580
1388.786123,-5477.523971,-2221.676944,-1776.494261
1388.786435,-9844.739029,-2911.162892,1184.329507
1388.786746,-13175.665768,-3907.087040,3478.967927
1388.787058,-16654.633695,-2604.724693,4515.256246
1388.787369,-16432.571912,842.705048,5847.626942
1388.787681,-13619.789333,4136.915689,4885.359217
1388.787992,-9992.780217,3677.258390,2812.782580
1388.788304,-5625.565159,1378.971896,666.185348
1388.788616,-3182.885551,536.266849,-1998.556043
1388.788927,-1110.308913,1685.410096,-3256.906145
1388.789239,-1406.391290,2068.457845,-3775.050304
1388.789550,-3256.906145,1608.800546,-3552.988522
1388.789862,-7772.162391,-919.314598,-1184.329507
1388.790173,-12509.480420,-4136.915689,2072.576638
1388.790485,-15988.448347,-3370.820191,4145.153275
1388.790796,-17764.942608,-995.924147,5699.585753
1388.791108,-17468.860231,459.657299,6143.709319
1388.791419,-14359.995275,-2834.553343,5477.523971
1388.791731,-8142.265362,-4519.963438,2368.659014
1388.792042,-3404.947333,-3140.991542,518.144159
1388.792354,-370.102971,-842.705048,-1850.514855
1388.792665,74.020594,153.219100,-3034.844362
1388.792977,-2886.803174,-1608.800546,-2812.782580
1388.793288,-6883.915261,-3524.039291,-444.123565
1388.793600,-11695.253884,-3524.039291,1702.473667
1388.793912,-15322.262999,-842.705048,3404.947333
1388.794223,-17468.860231,2604.724693,3923.091493
1388.794535,-16136.489536,2528.115143,3923.091493
1388.794846,-11843.295072,-1838.629195,3034.844362
1388.795158,-7328.038826,-2068.457845,666.185348
1388.795469,-3849.070898,612.876398,-1258.350101
1388.795781,-2146.597232,2528.115143,-2664.741391
1388.796092,-2294.638420,2604.724693,-2886.803174
1388.796404,-5255.462188,766.095498,-2664.741391
1388.796715,-9104.533087,-229.828649,-296.082377
1388.797027,-11029.068536,0.000000,444.123565
1388.797338,-12435.459826,2145.067394,740.205942
1388.797650,-11769.274478,1991.848295,1332.370696
1388.797961,-9918.759623,-383.047749,444.123565
1388.798273,-8364.327145,-2145.067394,-814.226536
1388.798585,-7402.059420,-919.314598,-1110.308913
1388.798896,-8660.409521,2451.505594,-518.144159
1388.799208,-9252.574275,4903.011187,296.082377
1388.799519,-11251.130318,2987.772442,1036.288319
1388.799831,-11917.315666,0.000000,2072.576638
1388.800142,-11769.274478,0.000000,1184.329507
1388.800454,-9400.615463,2757.943793,-74.020594
1388.800765,-6809.894666,3983.696590,-1924.535449
1388.801077,-5107.421000,2834.553343,-2664.741391
1388.801388,-6069.688724,-229.828649,-3182.885551
1388.801700,-7994.224174,-1149.143247,-2442.679609
1388.802011,-8290.306550,612.876398,-444.123565
1388.802323,-11177.109724,2604.724693,444.123565
1388.802634,-12805.562797,1915.238745,1924.535449
1388.802946,-13545.768739,-919.314598,2664.741391
1388.803257,-12657.521608,-1455.581446,3552.988522
1388.803569,-9474.636058,1072.533697,3478.967927
1388.803881,-7402.059420,689.485948,2368.659014
1388.804192,-5033.400406,-1378.971896,444.123565
1388.804504,-3404.947333,-3140.991542,-592.164754
1388.804815,-2368.659014,-4443.353888,-2072.576638
1388.805127,-3552.988522,-2451.505594,-2146.597232
1388.805438,-5699.585753,-536.266849,-740.205942
1388.805750,-9622.677246,-1072.533697,814.226536
1388.806061,-13841.851115,-3370.820191,3182.885551
1388.806373,-16358.551318,-2987.772442,4959.379811
1388.806684,-16728.654289,-76.609550,5255.462188
1388.806996,-14878.139434,2451.505594,4959.379811
1388.807307,-11251.130318,919.314598,3404.947333
1388.807619,-5551.544565,-1991.848295,740.205942
1388.807930,-1628.453072,-2451.505594,-1406.391290
1388.808242,-666.185348,-1762.019645,-2812.782580
1388.808553,-1258.350101,-229.828649,-3256.906145
1388.808865,-4441.235652,536.266849,-2072.576638
1388.809177,-7846.182985,-2145.067394,222.061783
1388.809488,-12731.542202,-4519.963438,1702.473667
1388.809800,-16284.530724,-2451.505594,3478.967927
1388.810111,-16654.633695,1762.019645,4663.297435
1388.810423,-15100.201217,1838.629195,3997.112087
1388.810734,-12657.521608,-1915.238745,3034.844362
1388.811046,-7920.203579,-3907.087040,1628.453072
1388.811357,-3775.050304,-3524.039291,-740.205942
1388.811669,-1110.308913,-459.657299,-2294.638420
1388.811980,-2368.659014,0.000000,-2738.761985
1388.812292,-5329.482782,-842.705048,-3034.844362
1388.812603,-9178.553681,-1608.800546,-1554.432478
1388.812915,-13323.706956,-459.657299,296.082377
1388.813226,-14952.160028,3447.429741,2368.659014
1388.813538,-15544.324782,5669.106685,2516.700203
1388.813849,-14359.995275,2681.334243,2516.700203
1388.814161,-10732.986159,229.828649,2664.741391
1388.814473,-6883.915261,612.876398,74.020594
1388.814784,-4737.318029,3600.648841,-2442.679609
1388.815096,-3404.947333,5209.449386,-3552.988522
1388.815407,-2590.720797,4979.620737,-3849.070898
1388.815719,-5181.441594,2451.505594,-3627.009116
1388.816030,-9696.697840,919.314598,-2368.659014
1388.816342,-12361.439231,1685.410096,-148.041188
1388.816653,-14359.995275,2987.772442,814.226536
1388.816965,-13915.871710,2681.334243,1998.556043
1388.817276,-11399.171507,-612.876398,1702.473667
1388.817588,-8142.265362,-3677.258390,962.267725
1388.817899,-4811.338623,-3600.648841,666.185348
1388.818211,-4737.318029,-2298.286494,-0.000000
1388.818522,-6291.750507,383.047749,296.082377
1388.818834,-9770.718434,306.438199,666.185348
1388.819145,-11769.274478,-1378.971896,2590.720797
1388.819457,-13027.624579,-1762.019645,2886.803174
1388.819769,-10807.006753,1149.143247,1554.432478
1388.820080,-7772.162391,1608.800546,444.123565
1388.820392,-5107.421000,-1149.143247,-296.082377
1388.820703,-4441.235652,-3064.381992,-888.247130
1388.821015,-5847.626942,-3830.477490,-888.247130
1388.821326,-7179.997637,0.000000,-0.000000
1388.821638,-9844.739029,1608.800546,1406.391290
1388.821949,-11769.274478,459.657299,2368.659014
1388.822261,-13101.645173,-2221.676944,3701.029710
1388.822572,-11991.336260,-3217.601092,4589.276840
1388.822884,-10140.821405,-1532.190996,4071.132681
1388.823195,-9548.656652,-306.438199,2812.782580
1388.823507,-6439.791695,-306.438199,888.247130
1388.823818,-4219.173869,-2298.286494,-1110.308913
1388.824130,-2516.700203,-4826.401637,-2072.576638
1388.824441,-2960.823768,-3600.648841,-1924.535449
1388.824753,-5477.523971,-1838.629195,-1406.391290
1388.825065,-9400.615463,-1149.143247,444.123565
1388.825376,-13767.830521,-3370.820191,2664.741391
1388.825688,-16876.695478,-4213.525239,4737.318029
1388.825999,-17542.880825,-3064.381992,5477.523971
1388.826310,-15618.345376,76.609550,3997.112087
1388.826622,-11769.274478,1225.752797,2368.659014
1388.826933,-8142.265362,-306.438199,-0.000000
1388.827245,-3849.070898,-536.266849,-1924.535449
1388.827556,-1184.329507,459.657299,-3552.988522
1388.827868,-148.041188,2068.457845,-3923.091493
1388.828179,-2294.638420,2987.772442,-2812.782580
1388.828491,-7254.018232,1838.629195,-1850.514855
1388.828802,-11695.253884,229.828649,-0.000000
1388.829114,-16210.510130,0.000000,1998.556043
1388.829425,-18061.024985,2757.943793,3256.906145
1388.829737,-16358.551318,4749.792088,3034.844362
1388.830048,-12805.562797,2451.505594,1332.370696
1388.830360,-8438.347739,-1532.190996,-296.082377
1388.830671,-4737.318029,-1685.410096,-2368.659014
1388.830983,-962.267725,689.485948,-3256.906145
1388.831294,-1110.308913,2757.943793,-3701.029710
1388.831606,-3627.009116,1838.629195,-3034.844362
1388.831917,-7920.203579,-153.219100,-1110.308913
1388.832229,-12065.356855,0.000000,740.205942
1388.832540,-15470.304188,2834.553343,1258.350101
1388.832852,-15100.201217,5286.058936,2516.700203
1388.833163,-13767.830521,4213.525239,1924.535449
1388.833474,-10288.862594,0.000000,1554.432478
1388.833786,-6069.688724,-2145.067394,148.041188
1388.834097,-3923.091493,-1455.581446,-740.205942
1388.834409,-3923.091493,766.095498,-2294.638420
1388.834720,-3849.070898,1991.848295,-1332.370696
1388.835032,-6809.894666,-383.047749,-444.123565
1388.835343,-11103.089130,-2604.724693,1554.432478
1388.835655,-12953.603985,-1991.848295,1924.535449
1388.835966,-13027.624579,612.876398,2368.659014
1388.836278,-10732.986159,766.095498,2368.659014
1388.836589,-8882.471304,-2145.067394,518.144159
1388.836901,-6883.915261,-4749.792088,-0.000000
1388.837212,-5033.400406,-4213.525239,296.082377
1388.837524,-6809.894666,-2145.067394,888.247130
1388.837835,-10066.800811,-1072.533697,1998.556043
1388.838147,-11991.336260,-153.219100,3034.844362
1388.838458,-12287.418637,-2911.162892,4663.297435
1388.838770,-12065.356855,-4060.306139,4737.318029
1388.839081,-9474.636058,-1149.143247,3108.864956
1388.839393,-7402.059420,1302.362347,-0.000000
1388.839704,-5477.523971,766.095498,-1258.350101
1388.840016,-4367.215058,-612.876398,-2738.761985
1388.840327,-5551.544565,-919.314598,-2368.659014
1388.840638,-7031.956449,-1991.848295,-814.226536
1388.840950,-9992.780217,-995.924147,888.247130
1388.841261,-12361.439231,-995.924147,3108.864956
1388.841573,-13989.892304,-2374.896044,3849.070898
1388.841884,-14211.954086,-3524.039291,3775.050304
1388.842196,-11843.295072,-1915.238745,2590.720797
1388.842507,-9918.759623,1455.581446,1554.432478
1388.842819,-6291.750507,995.924147,-222.061783
1388.843130,-3404.947333,0.000000,-1850.514855
1388.843442,-2960.823768,-2145.067394,-2294.638420
1388.843753,-3034.844362,-2374.896044,-2294.638420
1388.844065,-4959.379811,-306.438199,-1776.494261
1388.844376,-8734.430116,1149.143247,-888.247130
1388.844688,-11991.336260,459.657299,222.061783
1388.844999,-16432.571912,-1225.752797,740.205942
1388.845311,-17542.880825,1072.533697,2368.659014
1388.845622,-15396.283594,5132.839837,2294.638420
1388.845934,-12287.418637,5822.325785,1628.453072
1388.846245,-8808.450710,3294.210641,518.144159
1388.846557,-4663.297435,919.314598,-962.267725
1388.846868,-1036.288319,2221.676944,-3627.009116
1388.847180,0.000000,5132.839837,-4589.276840
1388.847491,-1702.473667,5669.106685,-4959.379811
1388.847802,-6143.709319,3830.477490,-3997.112087
1388.848114,-11325.150913,689.485948,-1258.350101
1388.848425,-15100.201217,-383.047749,1036.288319
1388.848737,-17024.736666,1378.971896,3034.844362
1388.849048,-17098.757260,2451.505594,4145.153275
1388.849360,-14211.954086,0.000000,4219.173869
1388.849671,-8438.347739,-2834.553343,1924.535449
1388.849983,-5033.400406,-2221.676944,-814.226536
1388.850294,-1480.411884,459.657299,-1776.494261
1388.850606,-1554.432478,2451.505594,-3108.864956
1388.850917,-3923.091493,1915.238745,-2516.700203
1388.851229,-7179.997637,-612.876398,-962.267725
1388.851540,-10807.006753,-2221.676944,1702.473667
1388.851852,-13915.871710,-1378.971896,3256.906145
1388.852163,-15470.304188,153.219100,4441.235652
1388.852475,-14878.139434,-1149.143247,4737.318029
1388.852786,-12805.562797,-3294.210641,3849.070898
1388.853098,-9030.512492,-3140.991542,2442.679609
1388.853409,-5403.503377,-612.876398,-444.123565
1388.853721,-5181.441594,1455.581446,-1776.494261
1388.854032,-4293.194464,1532.190996,-1480.411884
1388.854344,-4219.173869,-153.219100,-888.247130
1388.854655,-7105.977043,-2528.115143,518.144159
1388.854966,-9696.697840,-1991.848295,3256.906145
1388.855278,-11769.274478,-1608.800546,2960.823768
1388.855589,-11843.295072,-1378.971896,2886.803174
1388.855901,-10066.800811,-2681.334243,2960.823768
1388.856212,-7772.162391,-5898.935335,1332.370696
1388.856524,-6587.832884,-5056.230287,814.226536
1388.856835,-7179.997637,-3294.210641,1036.288319
1388.857147,-7920.203579,-2604.724693,814.226536
1388.857458,-9918.759623,-1302.362347,2368.659014
1388.857770,-11177.109724,-1072.533697,3108.864956
1388.858081,-11843.295072,-1149.143247,3404.947333
1388.858393,-9326.594869,689.485948,2516.700203
1388.858704,-6365.771101,3140.991542,814.226536
1388.859016,-4367.215058,2604.724693,-1554.432478
1388.859327,-2812.782580,1072.533697,-2516.700203
1388.859639,-4589.276840,-153.219100,-2812.782580
1388.859950,-5995.668130,153.219100,-1332.370696
1388.860262,-9844.739029,1608.800546,-222.061783
1388.860573,-14137.933492,689.485948,1332.370696
1388.860885,-15840.407159,0.000000,1776.494261
1388.861196,-16654.633695,-612.876398,2590.720797
1388.861508,-13767.830521,1302.362347,2516.700203
1388.861819,-10584.944971,3907.087040,518.144159
1388.862130,-7624.121203,3907.087040,-1258.350101
1388.862442,-2664.741391,1685.410096,-1628.453072
1388.862753,-1480.411884,842.705048,-3627.009116
1388.863065,-2738.761985,1608.800546,-3923.091493
1388.863376,-5033.400406,3677.258390,-3182.885551
1388.863688,-8586.388927,3830.477490,-1628.453072
1388.863999,-13323.706956,1915.238745,296.082377
1388.864311,-16876.695478,-612.876398,1406.391290
1388.864622,-17838.963202,842.705048,2442.679609
1388.864934,-15766.386565,3600.648841,1776.494261
1388.865245,-12435.459826,4136.915689,1258.350101
1388.865557,-7846.182985,1838.629195,148.041188
1388.865868,-3997.112087,-229.828649,-1702.473667
1388.866180,-740.205942,459.657299,-2368.659014
1388.866491,0.000000,1302.362347,-3108.864956
1388.866803,-1776.494261,1838.629195,-1628.453072
1388.867114,-5255.462188,-689.485948,-666.185348
1388.867426,-10510.924376,-4443.353888,1258.350101
1388.867737,-14952.160028,-5592.497135,3108.864956
1388.868049,-16728.654289,-1685.410096,3627.009116
1388.868360,-16432.571912,1302.362347,4145.153275
1388.868672,-13767.830521,-919.314598,3849.070898
1388.868983,-9400.615463,-4443.353888,2960.823768
1388.869294,-5995.668130,-4749.792088,1036.288319
1388.869606,-1998.556043,-2145.067394,-962.267725
1388.869917,-740.205942,306.438199,-2072.576638
1388.870229,-2664.741391,306.438199,-1924.535449
1388.870540,-5921.647536,-1532.190996,-1110.308913
1388.870852,-8808.450710,-2451.505594,1628.453072
1388.871163,-12509.480420,-1915.238745,2960.823768
1388.871475,-15248.242405,-459.657299,4589.276840
1388.871786,-15248.242405,-383.047749,5181.441594
1388.872098,-14285.974681,-2145.067394,3997.112087
1388.872409,-10214.842000,-4366.744339,2812.782580
1388.872721,-5921.647536,-2298.286494,740.205942
1388.873032,-5107.421000,0.000000,-888.247130
1388.873344,-3478.967927,459.657299,-1480.411884
1388.873655,-4219.173869,-153.219100,-1776.494261
1388.873967,-7105.977043,-842.705048,-74.020594
1388.874278,-10140.821405,306.438199,1554.432478
1388.874590,-13323.706956,229.828649,1850.514855
1388.874901,-13249.686362,1762.019645,2220.617826
1388.875213,-10881.027347,612.876398,1184.329507
1388.875524,-9252.574275,-2374.896044,-0.000000
1388.875836,-8586.388927,-2068.457845,-592.164754
1388.876147,-7328.038826,0.000000,-74.020594
1388.876458,-7994.224174,1149.143247,-296.082377
1388.876770,-8956.491898,1608.800546,888.247130
1388.877081,-9474.636058,1149.143247,1036.288319
1388.877393,-10955.047942,306.438199,-0.000000
1388.877704,-10066.800811,2068.457845,296.082377
1388.878016,-7920.203579,5132.839837,-962.267725
1388.878327,-6809.894666,5898.935335,-2738.761985
1388.878639,-5477.523971,2987.772442,-2960.823768
1388.878950,-7179.997637,0.000000,-3034.844362
1388.879262,-7994.224174,383.047749,-1332.370696
1388.879573,-9992.780217,3217.601092,-1036.288319
1388.879885,-12287.418637,3447.429741,592.164754
1388.880196,-12879.583391,2068.457845,1924.535449
1388.880508,-13545.768739,0.000000,2146.597232
1388.880819,-10732.986159,842.705048,2442.679609
1388.881131,-7994.224174,1915.238745,666.185348
1388.881442,-5477.523971,3064.381992,-518.144159
1388.881754,-2960.823768,1149.143247,-1776.494261
1388.882065,-2442.679609,-1685.410096,-3627.009116
1388.882377,-2886.803174,-2681.334243,-3182.885551
1388.882688,-4441.235652,-1378.971896,-1776.494261
1388.883000,-9326.594869,-766.095498,-0.000000
1388.883311,-13249.686362,-2681.334243,2442.679609
1388.883623,-16654.633695,-3983.696590,4071.132681
1388.883934,-17172.777854,-3447.429741,6587.832884
1388.884245,-15766.386565,-459.657299,5477.523971
1388.884557,-11917.315666,1072.533697,3849.070898
1388.884868,-7328.038826,229.828649,1184.329507
1388.885180,-3256.906145,-1532.190996,-1406.391290
1388.885491,-1036.288319,-1149.143247,-2960.823768
1388.885803,-740.205942,1072.533697,-3552.988522
1388.886114,-3404.947333,842.705048,-1406.391290
1388.886426,-7994.224174,-1915.238745,-518.144159
1388.886737,-12509.480420,-4366.744339,2146.597232
1388.887049,-15692.365970,-4290.134789,3923.091493
1388.887360,-16210.510130,-2374.896044,5107.421000
1388.887672,-16210.510130,-1991.848295,5699.585753
1388.887983,-13619.789333,-3140.991542,4663.297435
1388.888295,-9474.636058,-4213.525239,2442.679609
1388.888606,-5625.565159,-3217.601092,444.123565
1388.888918,-3182.885551,0.000000,-2738.761985
1388.889229,-1628.453072,2451.505594,-3478.967927
1388.889541,-1480.411884,1608.800546,-3775.050304
1388.889852,-5033.400406,-536.266849,-2960.823768
1388.890164,-9326.594869,-1378.971896,370.102971
1388.890475,-14434.015869,0.000000,2368.659014
1388.890787,-16802.674883,766.095498,4737.318029
1388.891098,-15840.407159,612.876398,5921.647536
1388.891409,-13175.665768,-2145.067394,4589.276840
1388.891721,-8808.450710,-2911.162892,2220.617826
1388.892032,-5403.503377,-1072.533697,-518.144159
1388.892344,-3404.947333,1685.410096,-2812.782580
1388.892655,-1850.514855,4060.306139,-3997.112087
1388.892967,-4145.153275,3677.258390,-3775.050304
1388.893278,-7476.080014,1455.581446,-2220.617826
1388.893590,-10584.944971,459.657299,-592.164754
1388.893901,-12879.583391,2298.286494,1258.350101
1388.894213,-13323.706956,2757.943793,2368.659014
1388.894524,-11843.295072,1455.581446,2590.720797
1388.894836,-10066.800811,-1149.143247,740.205942
1388.895147,-7846.182985,-1225.752797,-814.226536
1388.895459,-6291.750507,842.705048,-1702.473667
1388.895770,-6809.894666,3140.991542,-2072.576638
1388.896082,-8734.430116,3907.087040,-1406.391290
1388.896393,-9696.697840,3064.381992,148.041188
1388.896705,-11399.171507,1072.533697,740.205942
1388.897016,-10881.027347,1991.848295,1480.411884
1388.897328,-9104.533087,3140.991542,666.185348
1388.897639,-7328.038826,3140.991542,-1406.391290
1388.897951,-4811.338623,2068.457845,-1850.514855
1388.898262,-5107.421000,0.000000,-2516.700203
1388.898573,-6291.750507,-612.876398,-1702.473667
1388.898885,-9770.718434,459.657299,-74.020594
1388.899196,-12065.356855,842.705048,2146.597232
1388.899508,-13027.624579,-766.095498,3256.906145
1388.899819,-13915.871710,-2604.724693,4367.215058
1388.900131,-12361.439231,-3064.381992,3997.112087
1388.900442,-10214.842000,-1762.019645,2294.638420
1388.900754,-7254.018232,-766.095498,814.226536
1388.901065,-3478.967927,-919.314598,-518.144159
1388.901377,-2368.659014,-3140.991542,-1850.514855
1388.901688,-2516.700203,-5286.058936,-1406.391290
1388.902000,-4071.132681,-4673.182538,-296.082377
1388.902311,-7031.956449,-2451.505594,962.267725
1388.902623,-12213.398043,-2834.553343,3108.864956
1388.902934,-16432.571912,-4596.572988,4515.256246
1388.903246,-17690.922014,-2987.772442,4959.379811
1388.903557,-16210.510130,0.000000,4589.276840
1388.903869,-11917.315666,2374.896044,3478.967927
1388.904180,-7772.162391,1225.752797,-0.000000
1388.904492,-4145.153275,-612.876398,-1480.411884
1388.904803,-1110.308913,-1302.362347,-3034.844362
1388.905115,-1406.391290,-459.657299,-3627.009116
1388.905426,-2738.761985,2068.457845,-1850.514855
1388.905737,-7402.059420,383.047749,-814.226536
1388.906049,-11251.130318,-2834.553343,518.144159
1388.906360,-14285.974681,-3294.210641,2516.700203
1388.906672,-16062.468941,-383.047749,3849.070898
1388.906983,-15174.221811,1455.581446,3997.112087
1388.907295,-13619.789333,0.000000,3182.885551
1388.907606,-10362.883188,-2834.553343,1924.535449
1388.907918,-6513.812290,-3370.820191,-296.082377
1388.908229,-2960.823768,-1685.410096,-2146.597232
1388.908541,-2590.720797,1378.971896,-4071.132681
1388.908852,-4145.153275,2221.676944,-3404.947333
1388.909164,-6365.771101,459.657299,-2294.638420
1388.909475,-10732.986159,-1072.533697,-370.102971
1388.909787,-14211.954086,1072.533697,1332.370696
1388.910098,-15618.345376,5056.230287,2516.700203
1388.910410,-14952.160028,5209.449386,2738.761985
1388.910721,-11991.336260,2911.162892,1776.494261
1388.911033,-8216.285956,919.314598,962.267725
1388.911344,-4885.359217,1302.362347,-1406.391290
1388.911656,-3034.844362,3677.258390,-2812.782580
1388.911967,-2664.741391,4826.401637,-3552.988522
1388.912279,-4589.276840,3524.039291,-3849.070898
1388.912590,-7698.141797,1378.971896,-2146.597232
1388.912901,-11029.068536,1378.971896,-814.226536
1388.913213,-13693.809927,2911.162892,962.267725
1388.913524,-13545.768739,3524.039291,2368.659014
1388.913836,-11621.233289,1762.019645,3108.864956
1388.914147,-9400.615463,-1991.848295,2664.741391
1388.914459,-7328.038826,-4213.525239,1850.514855
1388.914770,-4811.338623,-2987.772442,962.267725
1388.915082,-5181.441594,229.828649,-444.123565
1388.915393,-7402.059420,153.219100,296.082377
1388.915705,-9400.615463,-842.705048,1110.308913
1388.916016,-12435.459826,-1915.238745,1776.494261
1388.916328,-12509.480420,0.000000,2664.741391
1388.916639,-10658.965565,1455.581446,2294.638420
1388.916951,-7698.141797,1532.190996,962.267725
1388.917262,-5255.462188,76.609550,518.144159
1388.917574,-4145.153275,-2911.162892,-296.082377
1388.917885,-4145.153275,-2834.553343,-740.205942
1388.918197,-7105.977043,76.609550,-0.000000
1388.918508,-9992.780217,919.314598,1850.514855
1388.918820,-11769.274478,-2068.457845,3256.906145
1388.919131,-13471.748144,-4366.744339,3478.967927
1388.919443,-13175.665768,-3524.039291,4293.194464
1388.919754,-11473.192101,-2221.676944,2516.700203
1388.920065,-9326.594869,-1225.752797,1554.432478
1388.920377,-7179.997637,-1838.629195,-0.000000
1388.920688,-5033.400406,-3524.039291,-1924.535449
1388.921000,-4293.194464,-3140.991542,-1702.473667
1388.921311,-5477.523971,-1378.971896,-1184.329507
1388.921623,-7105.977043,919.314598,-518.144159
1388.921934,-9992.780217,0.000000,1110.308913
1388.922246,-12879.583391,-2757.943793,2738.761985
1388.922557,-15174.221811,-3294.210641,3404.947333
1388.922869,-14434.015869,-153.219100,3034.844362
1388.923180,-12879.583391,1685.410096,2294.638420
1388.923492,-9992.780217,1302.362347,-0.000000
1388.923803,-6661.853478,-229.828649,-1702.473667
1388.924115,-4145.153275,-153.219100,-3182.885551
1388.924426,-2368.659014,2298.286494,-3034.844362
1388.924738,-2960.823768,3217.601092,-3256.906145
1388.925049,-6291.750507,2987.772442,-2368.659014
1388.925361,-10362.883188,229.828649,-1850.514855
1388.925672,-13471.748144,-153.219100,296.082377
1388.925983,-15618.345376,1378.971896,1998.556043
1388.926295,-15914.427753,3753.867940,2812.782580
1388.926606,-14730.098246,2911.162892,2072.576638
1388.926918,-12361.439231,-536.266849,1332.370696
1388.927229,-6587.832884,-2374.896044,518.144159
1388.927540,-2072.576638,-229.828649,-2368.659014
1388.927852,-1628.453072,1991.848295,-3108.864956
1388.928163,-2590.720797,2451.505594,-3404.947333
1388.928475,-4589.276840,1685.410096,-2220.617826
1388.928786,-9326.594869,689.485948,-148.041188
1388.929098,-12731.542202,2068.457845,2146.597232
1388.929409,-14285.974681,3677.258390,2886.803174
1388.929720,-14285.974681,3600.648841,3849.070898
1388.930032,-13175.665768,689.485948,3108.864956
1388.930343,-8438.347739,-689.485948,1036.288319
1388.930655,-5255.462188,612.876398,-888.247130
1388.930966,-4589.276840,2374.896044,-1184.329507
1388.931277,-4145.153275,1991.848295,-1406.391290
1388.931589,-5255.462188,1378.971896,-518.144159
1388.931900,-7624.121203,0.000000,666.185348
1388.932212,-9918.759623,-689.485948,1480.411884
1388.932523,-12657.521608,153.219100,1776.494261
1388.932835,-11843.295072,2681.334243,3404.947333
1388.933146,-9696.697840,0.000000,2442.679609
1388.933457,-8068.244768,-3600.648841,2146.597232
1388.933769,-6809.894666,-4290.134789,1480.411884
1388.934080,-5551.544565,-3294.210641,814.226536
1388.934392,-6069.688724,-2451.505594,518.144159
1388.934703,-8586.388927,-3217.601092,1924.535449
1388.935015,-10732.986159,-3524.039291,2146.597232
1388.935326,-12139.377449,-4136.915689,3330.926739
1388.935637,-12509.480420,-2604.724693,3256.906145
1388.935949,-11177.109724,229.828649,2220.617826
1388.936260,-9474.636058,1608.800546,1036.288319
1388.936572,-6291.750507,76.609550,814.226536
1388.936883,-5107.421000,-2911.162892,-666.185348
1388.937194,-4959.379811,-3677.258390,-518.144159
1388.937506,-5921.647536,-995.924147,-74.020594
1388.937817,-8142.265362,-229.828649,1110.308913
1388.938129,-10732.986159,-1455.581446,888.247130
1388.938440,-13101.645173,-2681.334243,1628.453072
1388.938752,-14211.954086,-2451.505594,1924.535449
1388.939063,-13397.727550,229.828649,2516.700203
1388.939374,-10436.903782,2298.286494,888.247130
1388.939686,-7550.100608,1762.019645,-1406.391290
1388.939997,-4515.256246,306.438199,-2442.679609
1388.940309,-2146.597232,-1149.143247,-3256.906145
1388.940620,-2812.782580,0.000000,-3552.988522
1388.940931,-5625.565159,2298.286494,-2368.659014
1388.941243,-9474.636058,1378.971896,-518.144159
1388.941554,-14878.139434,-995.924147,1110.308913
1388.941866,-18135.045579,-1991.848295,2738.761985
1388.942177,-18357.107362,-153.219100,2664.741391
1388.942489,-15100.201217,3294.210641,2368.659014
1388.942800,-11325.150913,3600.648841,1184.329507
1388.943111,-6365.771101,1838.629195,-740.205942
1388.943423,-2590.720797,229.828649,-2664.741391
1388.943734,-814.226536,2221.676944,-3330.926739
1388.944046,-1480.411884,5515.887586,-3330.926739
1388.944357,-4959.379811,5362.668486,-3182.885551
1388.944669,-9548.656652,3753.867940,-1554.432478
1388.944980,-13101.645173,919.314598,518.144159
1388.945291,-14137.933492,995.924147,1702.473667
1388.945603,-14656.077652,2528.115143,2590.720797
1388.945914,-12805.562797,1608.800546,2960.823768
1388.946226,-9474.636058,-1149.143247,2368.659014
1388.946537,-5921.647536,-3370.820191,962.267725
1388.946848,-3034.844362,-2068.457845,-666.185348
1388.947160,-2368.659014,612.876398,-1480.411884
1388.947471,-3256.906145,1149.143247,-1554.432478
1388.947783,-5847.626942,383.047749,-814.226536
1388.948094,-9326.594869,-1225.752797,-296.082377
1388.948406,-12213.398043,-612.876398,2146.597232
1388.948717,-14211.954086,1225.752797,3627.009116
1388.949028,-14211.954086,1991.848295,3849.070898
1388.949340,-12657.521608,-995.924147,4145.153275
1388.949651,-9992.780217,-3600.648841,3256.906145
1388.949963,-6883.915261,-3830.477490,2368.659014
1388.950274,-5107.421000,-1915.238745,814.226536
1388.950586,-4293.194464,153.219100,-518.144159
1388.950897,-4293.194464,612.876398,-666.185348
1388.951208,-6217.729913,-1149.143247,-666.185348
1388.951520,-7698.141797,-1225.752797,518.144159
1388.951831,-10881.027347,-766.095498,1702.473667
1388.952143,-12879.583391,-306.438199,3256.906145
1388.952454,-11843.295072,-1149.143247,2886.803174
1388.952765,-10436.903782,-3447.429741,2442.679609
1388.953077,-8512.368333,-5669.106685,1554.432478
1388.953388,-6069.688724,-5515.887586,1332.370696
1388.953700,-5773.606348,-3370.820191,962.267725
1388.954011,-8586.388927,-3064.381992,740.205942
1388.954323,-9474.636058,-1991.848295,1776.494261
1388.954634,-11473.192101,-2221.676944,1258.350101
1388.954945,-13027.624579,-766.095498,1998.556043
1388.955257,-10955.047942,1762.019645,1332.370696
1388.955568,-9400.615463,3524.039291,-666.185348
1388.955880,-6439.791695,3217.601092,-1406.391290
1388.956191,-4811.338623,1532.190996,-2072.576638
1388.956502,-5625.565159,0.000000,-2812.782580
1388.956814,-7105.977043,1149.143247,-1184.329507
1388.957125,-9548.656652,2298.286494,-814.226536
1388.957437,-11325.150913,536.266849,1036.288319
1388.957748,-13397.727550,-229.828649,1258.350101
1388.958060,-14137.933492,306.438199,1554.432478
1388.958371,-12361.439231,2068.457845,962.267725
1388.958682,-10881.027347,3753.867940,444.123565
1388.958994,-6957.935855,3447.429741,-592.164754
1388.959305,-4589.276840,1455.581446,-2368.659014
1388.959617,-3627.009116,-306.438199,-3478.967927
1388.959928,-3627.009116,459.657299,-2812.782580
1388.960240,-5847.626942,1838.629195,-2220.617826
1388.960551,-9252.574275,919.314598,-222.061783
1388.960862,-13693.809927,-919.314598,1110.308913
1388.961174,-16728.654289,-2374.896044,3182.885551
1388.961485,-16358.551318,0.000000,3034.844362
1388.961797,-13841.851115,2834.553343,3256.906145
1388.962108,-9770.718434,3064.381992,2146.597232
1388.962419,-6291.750507,1455.581446,-592.164754
1388.962731,-2960.823768,1072.533697,-2368.659014
1388.963042,-888.247130,2374.896044,-4219.173869
1388.963354,-1036.288319,3753.867940,-3701.029710
1388.963665,-3330.926739,2604.724693,-2442.679609
1388.963977,-7105.977043,-1225.752797,-888.247130
1388.964288,-11399.171507,-3753.867940,2368.659014
1388.964599,-15618.345376,-4749.792088,4367.215058
1388.964911,-16654.633695,-2528.115143,5995.668130
1388.965222,-14656.077652,-1991.848295,5773.606348
1388.965534,-11917.315666,-3677.258390,4293.194464
1388.965845,-7254.018232,-4673.182538,2294.638420
1388.966157,-3627.009116,-2604.724693,-148.041188
1388.966468,-2220.617826,-153.219100,-1998.556043
1388.966779,-2072.576638,1762.019645,-1998.556043
1388.967091,-4145.153275,153.219100,-1036.288319
1388.967402,-8142.265362,-2145.067394,222.061783
1388.967714,-11695.253884,-2451.505594,2220.617826
1388.968025,-14137.933492,-842.705048,3108.864956
1388.968336,-14582.057057,459.657299,4885.359217
1388.968648,-14211.954086,-1225.752797,4219.173869
1388.968959,-12139.377449,-3677.258390,3108.864956
1388.969271,-8956.491898,-4136.915689,1850.514855
1388.969582,-6069.688724,-2298.286494,-0.000000
1388.969894,-2886.803174,-383.047749,-1554.432478
1388.970205,-2590.720797,0.000000,-2294.638420
1388.970516,-4811.338623,-1149.143247,-1702.473667
1388.970828,-8660.409521,-2221.676944,-666.185348
1388.971139,-12435.459826,-995.924147,1184.329507
1388.971451,-15470.304188,1991.848295,2220.617826
1388.971762,-15248.242405,2145.067394,2516.700203
1388.972073,-11843.295072,612.876398,1776.494261
1388.972385,-9252.574275,-1225.752797,370.102971
1388.972696,-5847.626942,-1072.533697,-370.102971
1388.973008,-5033.400406,612.876398,-1406.391290
1388.973319,-6365.771101,2298.286494,-1110.308913
1388.973631,-7031.956449,2221.676944,-370.102971
1388.973942,-10362.883188,1608.800546,-740.205942
1388.974253,-13027.624579,1685.410096,-0.000000
1388.974565,-11843.295072,4443.353888,-148.041188
1388.974876,-9992.780217,5515.887586,-1332.370696
1388.975188,-7846.182985,3907.087040,-1332.370696
1388.975499,-6513.812290,1608.800546,-2146.597232
1388.975811,-6291.750507,-153.219100,-2368.659014
1388.976122,-5329.482782,76.609550,-1036.288319
1388.976433,-7105.977043,1455.581446,-592.164754
1388.976745,-9178.553681,2298.286494,1184.329507
1388.977056,-11177.109724,229.828649,1184.329507
1388.977368,-12805.562797,-919.314598,2220.617826
1388.977679,-13249.686362,76.609550,1924.535449
1388.977990,-10881.027347,3447.429741,962.267725
1388.978302,-7476.080014,3140.991542,-962.267725
1388.978613,-5033.400406,766.095498,-2294.638420
1388.978925,-3775.050304,-2528.115143,-2072.576638
1388.979236,-4367.215058,-2528.115143,-2368.659014
1388.979548,-5773.606348,-766.095498,-962.267725
1388.979859,-9178.553681,0.000000,1036.288319
1388.980170,-12731.542202,-1838.629195,2812.782580
1388.980482,-14434.015869,-3294.210641,4293.194464
1388.980793,-14211.954086,-3064.381992,4293.194464
1388.981105,-11991.336260,-383.047749,4219.173869
1388.981416,-9918.759623,1762.019645,2590.720797
1388.981727,-6883.915261,689.485948,-0.000000
1388.982039,-4663.297435,-1225.752797,-1480.411884
1388.982350,-3330.926739,-1991.848295,-2072.576638
1388.982662,-2960.823768,153.219100,-2146.597232
1388.982973,-5107.421000,1072.533697,-888.247130
1388.983285,-8882.471304,-2221.676944,592.164754
1388.983596,-12879.583391,-4903.011187,2516.700203
1388.983907,-16284.530724,-3983.696590,4737.318029
1388.984219,-16210.510130,-1225.752797,5699.585753
1388.984530,-14285.974681,0.000000,5551.544565
1388.984842,-11769.274478,-1608.800546,3775.050304
1388.985153,-7179.997637,-3217.601092,962.267725
1388.985465,-2442.679609,-1991.848295,-1036.288319
1388.985776,-370.102971,-153.219100,-2590.720797
1388.986087,-1776.494261,1225.752797,-2442.679609
1388.986399,-4663.297435,-306.438199,-1924.535449
1388.986710,-8660.409521,-2221.676944,-0.000000
1388.987022,-13101.645173,-2604.724693,2072.576638
1388.987333,-15692.365970,-306.438199,3552.988522
1388.987644,-15766.386565,1991.848295,3997.112087
1388.987956,-14434.015869,1378.971896,3775.050304
1388.988267,-10658.965565,-1685.410096,2442.679609
1388.988579,-6143.709319,-689.485948,-0.000000
1388.988890,-3404.947333,995.924147,-2146.597232
1388.989202,-1628.453072,2987.772442,-3775.050304
1388.989513,-1776.494261,4136.915689,-3849.070898
1388.989824,-5181.441594,2604.724693,-3256.906145
1388.990136,-9030.512492,1149.143247,-962.267725
1388.990447,-13323.706956,919.314598,-0.000000
1388.990759,-15544.324782,3294.210641,2146.597232
1388.991070,-15026.180623,3524.039291,2590.720797
1388.991382,-11917.315666,1225.752797,1776.494261
1388.991693,-8216.285956,-1608.800546,740.205942
1388.992004,-5033.400406,-2221.676944,-1332.370696
1388.992316,-3627.009116,-383.047749,-2368.659014
1388.992627,-4663.297435,1762.019645,-1998.556043
1388.992939,-7105.977043,1991.848295,-962.267725
1388.993250,-11103.089130,842.705048,-962.267725
1388.993561,-13915.871710,459.657299,370.102971
1388.993873,-14508.036463,2221.676944,1258.350101
1388.994184,-12213.398043,3907.087040,1924.535449
1388.994496,-10881.027347,2298.286494,592.164754
1388.994807,-7994.224174,0.000000,-0.000000
1388.995119,-5625.565159,-1455.581446,-1406.391290
1388.995430,-4811.338623,-229.828649,-814.226536
1388.995741,-5995.668130,842.705048,-666.185348
1388.996053,-8216.285956,1302.362347,148.041188
1388.996364,-10214.842000,-1149.143247,1332.370696
1388.996676,-12583.501014,-2757.943793,2442.679609
1388.996987,-13915.871710,-1608.800546,2368.659014
1388.997298,-13027.624579,766.095498,1406.391290
1388.997610,-8808.450710,842.705048,814.226536
1388.997921,-6069.688724,-1685.410096,-666.185348
1388.998233,-4441.235652,-3294.210641,-1184.329507
1388.998544,-3478.967927,-3064.381992,-1184.329507
1388.998856,-5181.441594,-1838.629195,370.102971
1388.999167,-8216.285956,-1685.410096,2072.576638
1388.999478,-12065.356855,-2604.724693,3701.029710
1388.999790,-14582.057057,-3294.210641,4441.235652
1389.000101,-14656.077652,-1991.848295,4737.318029
1389.000413,-12361.439231,-153.219100,4663.297435
1389.000724,-9474.636058,1991.848295,2146.597232
1389.001036,-6883.915261,766.095498,-0.000000
1389.001347,-4367.215058,-1302.362347,-888.247130
1389.001658,-2368.659014,-459.657299,-1480.411884
1389.001970,-2664.741391,1455.581446,-1406.391290
1389.002281,-4441.235652,1225.752797,-518.144159
1389.002593,-7994.224174,-842.705048,666.185348
1389.002904,-11621.233289,-3294.210641,1850.514855
1389.003215,-13545.768739,-1991.848295,3330.926739
1389.003527,-14063.912898,383.047749,3182.885551
1389.003838,-12953.603985,1608.800546,3108.864956
1389.004150,-10510.924376,-153.219100,2368.659014
1389.004461,-7254.018232,-2987.772442,222.061783
1389.004773,-4885.359217,-2221.676944,-2072.576638
1389.005084,-3701.029710,306.438199,-3034.844362
1389.005395,-3775.050304,2221.676944,-3108.864956
1389.005707,-6661.853478,1378.971896,-1480.411884
1389.006018,-9696.697840,-459.657299,-370.102971
1389.006330,-13249.686362,-1149.143247,1184.329507
1389.006641,-14804.118840,1378.971896,2664.741391
1389.006953,-14434.015869,4136.915689,3404.947333
1389.007264,-13841.851115,4136.915689,2072.576638
1389.007575,-10066.800811,2604.724693,740.205942
1389.007887,-6957.935855,1838.629195,-1850.514855
1389.008198,-4811.338623,2681.334243,-2886.803174
1389.008510,-3182.885551,4060.306139,-3627.009116
1389.008821,-4885.359217,2451.505594,-3775.050304
1389.009132,-7846.182985,459.657299,-2368.659014
1389.009444,-11177.109724,-383.047749,-1406.391290
1389.009755,-13323.706956,536.266849,592.164754
1389.010067,-13915.871710,1762.019645,2072.576638
1389.010378,-12509.480420,1991.848295,2072.576638
1389.010690,-9178.553681,0.000000,1628.453072
1389.011001,-7698.141797,-1838.629195,888.247130
1389.011312,-5033.400406,-2145.067394,148.041188
1389.011624,-4441.235652,-1302.362347,-814.226536
1389.011935,-7476.080014,-612.876398,-0.000000
1389.012247,-9104.533087,0.000000,962.267725
1389.012558,-11103.089130,-842.705048,444.123565
1389.012869,-12361.439231,-1225.752797,1480.411884
1389.013181,-11621.233289,-229.828649,1924.535449
1389.013492,-10362.883188,0.000000,1776.494261
1389.013804,-8364.327145,76.609550,1850.514855
1389.014115,-5921.647536,-766.095498,962.267725
1389.014427,-5403.503377,-1455.581446,-0.000000
1389.014738,-4441.235652,-1378.971896,592.164754
1389.015049,-5773.606348,-383.047749,592.164754
1389.015361,-7624.121203,-689.485948,1480.411884
1389.015672,-9696.697840,-1225.752797,2294.638420
1389.015984,-11843.295072,-2298.286494,2812.782580
1389.016295,-11843.295072,-2298.286494,3034.844362
1389.016607,-11769.274478,-1915.238745,1702.473667
1389.016918,-9548.656652,-1991.848295,1924.535449
1389.017229,-7031.956449,-2145.067394,962.267725
1389.017541,-6439.791695,-3447.429741,-888.247130
1389.017852,-6143.709319,-2451.505594,-1110.308913
1389.018164,-6143.709319,-459.657299,-888.247130
1389.018475,-6809.894666,536.266849,740.205942
1389.018786,-9400.615463,0.000000,2146.597232
1389.019098,-11843.295072,-1378.971896,2738.761985
1389.019409,-13471.748144,-306.438199,2590.720797
1389.019721,-13101.645173,1762.019645,2960.823768
1389.020032,-11695.253884,2528.115143,2072.576638
1389.020344,-9770.718434,1149.143247,814.226536
1389.020655,-8068.244768,-1072.533697,-1258.350101
1389.020966,-5181.441594,-229.828649,-2738.761985
1389.021278,-3552.988522,1302.362347,-3256.906145
1389.021589,-4737.318029,2451.505594,-2812.782580
1389.021901,-7476.080014,1302.362347,-1850.514855
1389.022212,-9474.636058,-1685.410096,-0.000000
1389.022524,-13175.665768,-2145.067394,1554.432478
1389.022835,-14804.118840,1225.752797,2664.741391
1389.023146,-14508.036463,4596.572988,2516.700203
1389.023458,-12509.480420,3447.429741,2072.576638
1389.023769,-10140.821405,-306.438199,592.164754
1389.024081,-5995.668130,-1149.143247,-1406.391290
1389.024392,-3182.885551,689.485948,-3701.029710
1389.024703,-3478.967927,2911.162892,-3627.009116
1389.025015,-3849.070898,2681.334243,-2960.823768
1389.025326,-7254.018232,1149.143247,-2220.617826
1389.025637,-10807.006753,153.219100,-148.041188
1389.025949,-14211.954086,1378.971896,1110.308913
1389.026260,-15396.283594,4290.134789,2590.720797
1389.026571,-13175.665768,5286.058936,3182.885551
1389.026882,-10584.944971,1072.533697,1332.370696
1389.027194,-6365.771101,-2145.067394,814.226536
1389.027505,-3923.091493,-2298.286494,-518.144159
1389.027816,-4515.256246,-306.438199,-2442.679609
1389.028128,-2886.803174,1608.800546,-962.267725
1389.028439,-6439.791695,-306.438199,-1258.350101
1389.028750,-9918.759623,-2987.772442,1480.411884
1389.029062,-11399.171507,-3600.648841,2294.638420
1389.029373,-13767.830521,-995.924147,2516.700203
1389.029684,-12509.480420,1072.533697,3182.885551
1389.029995,-10510.924376,76.609550,2146.597232
1389.030307,-8734.430116,-3140.991542,370.102971
1389.030618,-6439.791695,-3294.210641,-74.020594
1389.030929,-5625.565159,-2451.505594,-0.000000
1389.031241,-6291.750507,-1302.362347,1110.308913
1389.031552,-8734.430116,-842.705048,1332.370696
1389.031863,-10658.965565,-2604.724693,3256.906145
1389.032175,-11991.336260,-3524.039291,3108.864956
1389.032486,-11991.336260,-1685.410096,2738.761985
1389.032797,-9548.656652,1378.971896,2072.576638
1389.033109,-7994.224174,1915.238745,-0.000000
1389.033420,-5773.606348,0.000000,-592.164754
1389.033731,-5773.606348,-1225.752797,-1998.556043
1389.034042,-6217.729913,-229.828649,-1406.391290
1389.034354,-6291.750507,1532.190996,-444.123565
1389.034665,-8808.450710,-766.095498,1924.535449
1389.034976,-11621.233289,-3600.648841,2738.761985
1389.035288,-13249.686362,-4903.011187,3182.885551
1389.035599,-13323.706956,-2911.162892,3404.947333
1389.035910,-11769.274478,-229.828649,3404.947333
1389.036222,-9992.780217,76.609550,2886.803174
1389.036533,-6957.935855,-689.485948,1554.432478
1389.036844,-4071.132681,-2298.286494,-1628.453072
1389.037155,-2442.679609,-1838.629195,-2442.679609
1389.037467,-2368.659014,1072.533697,-2886.803174
1389.037778,-5033.400406,3217.601092,-2368.659014
1389.038089,-9178.553681,1915.238745,-1702.473667
1389.038401,-13693.809927,459.657299,296.082377
1389.038712,-16802.674883,612.876398,1924.535449
1389.039023,-17690.922014,3677.258390,3182.885551
1389.039335,-14359.995275,4443.353888,3108.864956
1389.039646,-10732.986159,2068.457845,1628.453072
1389.039957,-6809.894666,76.609550,-222.061783
1389.040269,-2886.803174,383.047749,-2516.700203
1389.040580,-1036.288319,2451.505594,-3775.050304
1389.040891,-1776.494261,3753.867940,-3849.070898
1389.041202,-4811.338623,3830.477490,-2442.679609
1389.041514,-10362.883188,1225.752797,-1924.535449
1389.041825,-14434.015869,0.000000,370.102971
1389.042136,-16802.674883,1455.581446,1924.535449
1389.042448,-15544.324782,3753.867940,3034.844362
1389.042759,-12805.562797,2068.457845,2960.823768
1389.043070,-9770.718434,-1991.848295,1628.453072
1389.043382,-5847.626942,-3064.381992,-74.020594
1389.043693,-3627.009116,-1455.581446,-1258.350101
1389.044004,-1924.535449,1149.143247,-1628.453072
1389.044315,-3552.988522,1378.971896,-1628.453072
1389.044627,-6439.791695,-995.924147,-1332.370696
1389.044938,-9770.718434,-2374.896044,-74.020594
1389.045249,-12731.542202,-1072.533697,888.247130
1389.045561,-13249.686362,2068.457845,2368.659014
1389.045872,-13693.809927,2604.724693,2960.823768
1389.046183,-11547.212695,-995.924147,3034.844362
1389.046495,-8290.306550,-3983.696590,1998.556043
1389.046806,-6661.853478,-3753.867940,592.164754
1389.047117,-4885.359217,-459.657299,-0.000000
1389.047429,-4737.318029,919.314598,-0.000000
1389.047740,-5181.441594,-536.266849,740.205942
1389.048051,-7994.224174,-3524.039291,1406.391290
1389.048362,-11843.295072,-4213.525239,2220.617826
1389.048674,-11695.253884,-1762.019645,2812.782580
1389.048985,-11251.130318,689.485948,2442.679609
1389.049296,-10140.821405,-766.095498,888.247130
1389.049608,-9548.656652,-3600.648841,-740.205942
1389.049919,-7105.977043,-3983.696590,-666.185348
1389.050230,-6217.729913,-2451.505594,-666.185348
1389.050542,-7698.141797,0.000000,1480.411884
1389.050853,-9696.697840,-153.219100,1332.370696
1389.051164,-11473.192101,-1685.410096,2368.659014
1389.051475,-11251.130318,-2604.724693,3182.885551
1389.051787,-9844.739029,-1378.971896,3330.926739
1389.052098,-8660.409521,1378.971896,1776.494261
1389.052409,-6809.894666,2451.505594,-0.000000
1389.052721,-6069.688724,1072.533697,-1850.514855
1389.053032,-5477.523971,-383.047749,-3182.885551
1389.053343,-6217.729913,459.657299,-2442.679609
1389.053655,-7179.997637,1302.362347,-1924.535449
1389.053966,-10362.883188,842.705048,-370.102971
1389.054277,-12805.562797,536.266849,1406.391290
1389.054589,-14582.057057,-766.095498,2220.617826
1389.054900,-14952.160028,-536.266849,2960.823768
1389.055211,-12213.398043,1302.362347,3256.906145
1389.055522,-9030.512492,2221.676944,2368.659014
1389.055834,-7031.956449,1685.410096,-444.123565
1389.056145,-3923.091493,383.047749,-2442.679609
1389.056456,-2960.823768,0.000000,-4811.338623
1389.056768,-2664.741391,2374.896044,-4737.318029
1389.057079,-4959.379811,3600.648841,-3256.906145
1389.057390,-9622.677246,1991.848295,-1184.329507
1389.057702,-14359.995275,383.047749,1184.329507
1389.058013,-16728.654289,459.657299,2886.803174
1389.058324,-15470.304188,2834.553343,3849.070898
1389.058635,-14063.912898,4903.011187,3478.967927
1389.058947,-9992.780217,2604.724693,2294.638420
1389.059258,-5625.565159,919.314598,-0.000000
1389.059569,-2368.659014,536.266849,-2294.638420
1389.059881,-888.247130,2145.067394,-3627.009116
1389.060192,-2664.741391,2987.772442,-2664.741391
1389.060503,-5921.647536,1455.581446,-2294.638420
1389.060815,-9030.512492,-1455.581446,444.123565
1389.061126,-13175.665768,-2834.553343,1332.370696
1389.061437,-14730.098246,-1302.362347,3478.967927
1389.061749,-14804.118840,383.047749,4737.318029
1389.062060,-12583.501014,-459.657299,4737.318029
1389.062371,-9104.533087,-2681.334243,3997.112087
1389.062682,-6439.791695,-5286.058936,1480.411884
1389.062994,-2664.741391,-3600.648841,370.102971
1389.063305,-2146.597232,-1991.848295,-740.205942
1389.063616,-4293.194464,-1608.800546,-962.267725
1389.063928,-7031.956449,-2298.286494,-0.000000
1389.064239,-11103.089130,-3830.477490,592.164754
1389.064550,-14359.995275,-2068.457845,1628.453072
1389.064862,-14434.015869,1225.752797,2886.803174
1389.065173,-13397.727550,2451.505594,2590.720797
1389.065484,-11621.233289,842.705048,1998.556043
1389.065795,-7624.121203,-1302.362347,1628.453072
1389.066107,-5551.544565,-2451.505594,-0.000000
1389.066418,-4663.297435,-766.095498,-148.041188
1389.066729,-4885.359217,0.000000,666.185348
1389.067041,-6217.729913,-1378.971896,518.144159
1389.067352,-9474.636058,-3753.867940,296.082377
1389.067663,-11621.233289,-3294.210641,1480.411884
1389.067975,-11473.192101,-2451.505594,1332.370696
1389.068286,-12657.521608,-459.657299,370.102971
1389.068597,-10732.986159,1149.143247,-0.000000
1389.068909,-8882.471304,459.657299,-1998.556043
1389.069220,-8216.285956,-612.876398,-2738.761985
1389.069531,-5625.565159,842.705048,-1924.535449
1389.069842,-5847.626942,1532.190996,-1480.411884
1389.070154,-6735.874072,2068.457845,1480.411884
1389.070465,-9252.574275,0.000000,2368.659014
1389.070776,-12583.501014,-2604.724693,2220.617826
1389.071088,-13545.768739,306.438199,1776.494261
1389.071399,-12583.501014,3064.381992,444.123565
1389.071710,-9770.718434,3677.258390,-962.267725
1389.072022,-7846.182985,2145.067394,-2516.700203
1389.072333,-6587.832884,153.219100,-2590.720797
1389.072644,-4959.379811,229.828649,-2590.720797
1389.072955,-4959.379811,1378.971896,-1480.411884
1389.073267,-7550.100608,2451.505594,-74.020594
1389.073578,-11325.150913,2145.067394,222.061783
1389.073889,-12583.501014,1455.581446,1110.308913
1389.074201,-12731.542202,2221.676944,2146.597232
1389.074512,-11843.295072,3753.867940,2442.679609
1389.074823,-9770.718434,3677.258390,1924.535449
1389.075135,-8586.388927,0.000000,1036.288319
1389.075446,-6587.832884,-2451.505594,370.102971
1389.075757,-4885.359217,-1149.143247,-1406.391290
1389.076069,-5107.421000,1149.143247,-2664.741391
1389.076380,-4441.235652,2298.286494,-1184.329507
1389.076691,-6291.750507,689.485948,-518.144159
1389.077002,-9696.697840,-1302.362347,1258.350101
1389.077314,-12657.521608,-306.438199,3404.947333
1389.077625,-13989.892304,2451.505594,3997.112087
1389.077936,-13545.768739,2681.334243,5033.400406
1389.078248,-11325.150913,689.485948,3627.009116
1389.078559,-7772.162391,-2068.457845,1628.453072
1389.078870,-4441.235652,-2834.553343,-148.041188
1389.079182,-2886.803174,-1762.019645,-1036.288319
1389.079493,-2886.803174,-229.828649,-1258.350101
1389.079804,-5403.503377,-229.828649,-1110.308913
1389.080115,-8734.430116,-2221.676944,444.123565
1389.080427,-12139.377449,-4366.744339,1850.514855
1389.080738,-14359.995275,-2221.676944,3034.844362
1389.081049,-14359.995275,1838.629195,3849.070898
1389.081361,-12731.542202,1838.629195,3404.947333
1389.081672,-9844.739029,-1455.581446,3478.967927
1389.081983,-6069.688724,-4673.182538,2220.617826
1389.082295,-3108.864956,-4290.134789,-0.000000
1389.082606,-1998.556043,-2451.505594,-1480.411884
1389.082917,-3627.009116,-1838.629195,-1184.329507
1389.083229,-6883.915261,-2528.115143,-592.164754
1389.083540,-11695.253884,-3983.696590,-74.020594
1389.083851,-13989.892304,-2834.553343,1110.308913
1389.084162,-14878.139434,306.438199,2220.617826
1389.084474,-13545.768739,3370.820191,1998.556043
1389.084785,-11843.295072,2911.162892,666.185348
1389.085096,-8882.471304,1455.581446,-518.144159
1389.085408,-5403.503377,-612.876398,-1036.288319
1389.085719,-3404.947333,383.047749,-1776.494261
1389.086030,-4663.297435,1762.019645,-1554.432478
1389.086342,-6957.935855,1225.752797,-888.247130
1389.086653,-10510.924376,-995.924147,-444.123565
1389.086964,-12805.562797,-2068.457845,-148.041188
1389.087275,-12731.542202,1149.143247,1332.370696
1389.087587,-13915.871710,2451.505594,296.082377
1389.087898,-12213.398043,2068.457845,592.164754
1389.088209,-8660.409521,612.876398,-370.102971
1389.088521,-6217.729913,-995.924147,-1554.432478
1389.088832,-3701.029710,459.657299,-2294.638420
1389.089143,-4663.297435,1838.629195,-2146.597232
1389.089455,-6735.874072,1685.410096,-666.185348
1389.089766,-9844.739029,76.609550,444.123565
1389.090077,-14211.954086,-612.876398,1036.288319
1389.090389,-14656.077652,459.657299,1554.432478
1389.090700,-13841.851115,1455.581446,2146.597232
1389.091011,-11103.089130,1608.800546,1332.370696
1389.091322,-7772.162391,1455.581446,-0.000000
1389.091634,-5551.544565,612.876398,-1850.514855
1389.091945,-3923.091493,2451.505594,-2442.679609
1389.092256,-2516.700203,3907.087040,-2072.576638
1389.092568,-4071.132681,3830.477490,-222.061783
1389.092879,-7846.182985,1072.533697,592.164754
1389.093190,-11103.089130,-1838.629195,1998.556043
1389.093502,-14063.912898,-919.314598,3034.844362
1389.093813,-13471.748144,1225.752797,3478.967927
1389.094124,-12139.377449,842.705048,3627.009116
1389.094435,-10436.903782,-2451.505594,3108.864956
1389.094747,-7698.141797,-4290.134789,1998.556043
1389.095058,-4811.338623,-3677.258390,148.041188
1389.095369,-2516.700203,-1455.581446,-814.226536
1389.095681,-2738.761985,153.219100,-888.247130
1389.095992,-5551.544565,0.000000,-666.185348
1389.096303,-8660.409521,-1685.410096,1184.329507
1389.096615,-11399.171507,-1072.533697,2442.679609
1389.096926,-13101.645173,995.924147,2960.823768
1389.097237,-14063.912898,1532.190996,3997.112087
1389.097549,-12139.377449,-612.876398,4145.153275
1389.097860,-9992.780217,-3830.477490,2664.741391
1389.098171,-7402.059420,-4443.353888,1184.329507
1389.098482,-5107.421000,-1915.238745,-518.144159
1389.098794,-4959.379811,919.314598,-1406.391290
1389.099105,-4441.235652,689.485948,-1258.350101
1389.099416,-6735.874072,-1455.581446,-1406.391290
1389.099728,-9474.636058,-2911.162892,-0.000000
1389.100039,-12509.480420,-536.266849,1036.288319
1389.100350,-14137.933492,2374.896044,1776.494261
1389.100662,-13841.851115,2911.162892,2220.617826
1389.100973,-12139.377449,-536.266849,1110.308913
1389.101284,-9326.594869,-3524.039291,962.267725
1389.101595,-5773.606348,-3753.867940,444.123565
1389.101907,-4071.132681,-1838.629195,-814.226536
1389.102218,-4959.379811,-1072.533697,-1480.411884
1389.102529,-7550.100608,-919.314598,-666.185348
1389.102841,-9918.759623,-1838.629195,-962.267725
1389.103152,-11695.253884,-689.485948,-666.185348
1389.103463,-13175.665768,3064.381992,-296.082377
1389.103775,-13471.748144,5515.887586,-0.000000
1389.104086,-12657.521608,4826.401637,-666.185348
1389.104397,-9844.739029,2834.553343,-0.000000
1389.104708,-6587.832884,1072.533697,-444.123565
1389.105020,-4589.276840,306.438199,-962.267725
1389.105331,-4515.256246,1225.752797,-888.247130
1389.105642,-5995.668130,1532.190996,-888.247130
1389.105954,-8512.368333,1378.971896,-1406.391290
1389.106265,-11473.192101,1072.533697,-0.000000
1389.106576,-13915.871710,1302.362347,222.061783
1389.106888,-14063.912898,1838.629195,814.226536
1389.107199,-10955.047942,2681.334243,592.164754
1389.107510,-8216.285956,842.705048,-1184.329507
1389.107822,-6291.750507,-536.266849,-2368.659014
1389.108133,-3923.091493,-689.485948,-1998.556043
1389.108444,-3478.967927,0.000000,-814.226536
1389.108755,-4515.256246,306.438199,1702.473667
1389.109067,-9104.533087,-1762.019645,2960.823768
1389.109378,-11917.315666,-4596.572988,4737.318029
1389.109689,-12213.398043,-3600.648841,4959.379811
1389.110001,-11917.315666,-1378.971896,3849.070898
1389.110312,-11103.089130,689.485948,2368.659014
1389.110623,-8586.388927,1149.143247,-0.000000
1389.110935,-6883.915261,-536.266849,-888.247130
1389.111246,-5033.400406,153.219100,-2738.761985
1389.111557,-4145.153275,2528.115143,-2516.700203
1389.111868,-6143.709319,2834.553343,-1554.432478
1389.112180,-8734.430116,459.657299,962.267725
1389.112491,-11029.068536,-1225.752797,2738.761985
1389.112802,-12657.521608,-1685.410096,3849.070898
1389.113114,-12435.459826,-1072.533697,5107.421000
1389.113425,-10807.006753,-1838.629195,5477.523971
1389.113736,-9622.677246,-3140.991542,4367.215058
1389.114048,-7105.977043,-3907.087040,1924.535449
1389.114359,-4737.318029,-3753.867940,-1110.308913
1389.114670,-3923.091493,-1608.800546,-2442.679609
1389.114982,-4589.276840,766.095498,-2516.700203
1389.115293,-6809.894666,0.000000,-2220.617826
1389.115604,-11103.089130,-2451.505594,-888.247130
1389.115915,-13767.830521,-2374.896044,1924.535449
1389.116227,-16432.571912,-612.876398,2812.782580
1389.116538,-15840.407159,1532.190996,4441.235652
1389.116849,-13249.686362,383.047749,5033.400406
1389.117161,-9918.759623,-2528.115143,3849.070898
1389.117472,-5181.441594,-2987.772442,1258.350101
1389.117783,-2442.679609,-612.876398,-1702.473667
1389.118095,-1036.288319,1838.629195,-2664.741391
1389.118406,-2072.576638,2451.505594,-2812.782580
1389.118717,-6069.688724,689.485948,-2664.741391
1389.119028,-10140.821405,-919.314598,-1480.411884
1389.119340,-13915.871710,1072.533697,-666.185348
1389.119651,-15322.262999,3983.696590,814.226536
1389.119962,-14878.139434,4519.963438,1998.556043
1389.120274,-12213.398043,1838.629195,1924.535449
1389.120585,-8586.388927,-995.924147,1628.453072
1389.120896,-5033.400406,-1455.581446,-518.144159
1389.121208,-2664.741391,842.705048,-592.164754
1389.121519,-3923.091493,1991.848295,-1850.514855
1389.121830,-5773.606348,1608.800546,-1850.514855
1389.122142,-8364.327145,842.705048,-814.226536
1389.122453,-13101.645173,-536.266849,-518.144159
1389.122764,-14878.139434,1838.629195,444.123565
1389.123075,-14285.974681,4826.401637,-0.000000
1389.123387,-12213.398043,4519.963438,444.123565
1389.123698,-9178.553681,1225.752797,296.082377
1389.124009,-6217.729913,-459.657299,-222.061783
1389.124321,-3775.050304,-383.047749,-888.247130
1389.124632,-3775.050304,306.438199,-74.020594
1389.124943,-6069.688724,229.828649,-0.000000
1389.125255,-8956.491898,0.000000,1110.308913
1389.125566,-12213.398043,-1149.143247,1554.432478
1389.125877,-12213.398043,-766.095498,2516.700203
1389.126188,-12065.356855,153.219100,1554.432478
1389.126500,-10658.965565,766.095498,962.267725
1389.126811,-7550.100608,-153.219100,592.164754
1389.127122,-6069.688724,-3064.381992,-1554.432478
1389.127434,-4293.194464,-2145.067394,-888.247130
1389.127745,-4663.297435,-229.828649,-370.102971
1389.128056,-7550.100608,0.000000,1406.391290
1389.128368,-10140.821405,-1302.362347,2886.803174
1389.128679,-13249.686362,-3217.601092,4145.153275
1389.128990,-13323.706956,-3064.381992,5107.421000
1389.129302,-11473.192101,-1225.752797,3923.091493
1389.129613,-9770.718434,-306.438199,2072.576638
1389.129925,-7254.018232,-689.485948,592.164754
1389.130236,-4885.359217,-2451.505594,-1110.308913
1389.130547,-5033.400406,-2528.115143,-3034.844362
1389.130859,-4885.359217,536.266849,-1776.494261
1389.131170,-6291.750507,1608.800546,-740.205942
1389.131481,-8808.450710,-383.047749,1332.370696
1389.131793,-11843.295072,-3217.601092,2812.782580
1389.132104,-13767.830521,-3983.696590,3997.112087
1389.132415,-13693.809927,-1532.190996,4219.173869
1389.132727,-11991.336260,1762.019645,3478.967927
1389.133038,-9622.677246,0.000000,1702.473667
1389.133349,-6809.894666,-2221.676944,518.144159
1389.133661,-4811.338623,-2451.505594,-1628.453072
1389.133972,-3478.967927,-383.047749,-2590.720797
1389.134283,-3108.864956,1762.019645,-2368.659014
1389.134595,-6439.791695,919.314598,-1406.391290
1389.134906,-9548.656652,-766.095498,-0.000000
1389.135217,-12139.377449,-1532.190996,814.226536
1389.135529,-14952.160028,0.000000,1850.514855
1389.135840,-14804.118840,3370.820191,2590.720797
1389.136151,-14137.933492,3830.477490,2368.659014
1389.136463,-11621.233289,1225.752797,1406.391290
1389.136774,-7846.182985,0.000000,-148.041188
1389.137085,-5033.400406,842.705048,-1776.494261
1389.137397,-3108.864956,3064.381992,-3256.906145
1389.137708,-2442.679609,4826.401637,-3330.926739
1389.138020,-4737.318029,3064.381992,-3256.906145
1389.138331,-8586.388927,1608.800546,-1850.514855
1389.138642,-13027.624579,2374.896044,-296.082377
1389.138954,-15766.386565,4136.915689,1406.391290
1389.139265,-15100.201217,4979.620737,2516.700203
1389.139576,-12435.459826,2834.553343,2590.720797
1389.139888,-9326.594869,-842.705048,1702.473667
1389.140199,-5033.400406,-2911.162892,-0.000000
1389.140510,-2960.823768,-2528.115143,-1110.308913
1389.140822,-2960.823768,-766.095498,-888.247130
1389.141133,-5033.400406,-842.705048,-666.185348
1389.141444,-9104.533087,-2451.505594,222.061783
1389.141756,-12065.356855,-2528.115143,1406.391290
1389.142067,-14359.995275,-1302.362347,1554.432478
1389.142378,-12435.459826,2757.943793,2442.679609
1389.142690,-10807.006753,3370.820191,2220.617826
1389.143001,-9474.636058,536.266849,1258.350101
1389.143312,-5847.626942,-1608.800546,444.123565
1389.143624,-3627.009116,-2145.067394,-296.082377
1389.143935,-3404.947333,-689.485948,-0.000000
1389.144246,-5625.565159,-689.485948,1184.329507
1389.144558,-8364.327145,-2451.505594,1406.391290
1389.144869,-11103.089130,-3600.648841,2664.741391
1389.145180,-12879.583391,-3907.087040,3034.844362
1389.145492,-12731.542202,-2528.115143,3034.844362
1389.145803,-11695.253884,-1532.190996,1554.432478
1389.146115,-8216.285956,-1225.752797,666.185348
1389.146426,-5847.626942,-2451.505594,-1480.411884
1389.146737,-4663.297435,-1532.190996,-1850.514855
1389.147049,-4219.173869,-229.828649,-666.185348
1389.147360,-7698.141797,-766.095498,444.123565
1389.147671,-9400.615463,-1915.238745,3849.070898
1389.147983,-12805.562797,-2834.553343,4515.256246
1389.148294,-14952.160028,-2834.553343,3701.029710
1389.148605,-11917.315666,-229.828649,3034.844362
1389.148917,-9474.636058,995.924147,148.041188
1389.149228,-6809.894666,1762.019645,-740.205942
1389.149539,-5477.523971,919.314598,-2368.659014
1389.149851,-5477.523971,0.000000,-3478.967927
1389.150162,-5477.523971,1838.629195,-2664.741391
1389.150473,-7476.080014,3600.648841,-814.226536
1389.150785,-10066.800811,2221.676944,1406.391290
1389.151096,-12953.603985,-689.485948,2072.576638
1389.151407,-14285.974681,-1302.362347,2960.823768
1389.151719,-12953.603985,612.876398,2442.679609
1389.152030,-11473.192101,2757.943793,1628.453072
1389.152341,-9474.636058,1838.629195,296.082377
1389.152653,-7476.080014,383.047749,-1480.411884
1389.152964,-4663.297435,919.314598,-2368.659014
1389.153276,-3330.926739,2145.067394,-3701.029710
1389.153587,-3034.844362,3983.696590,-3627.009116
1389.153898,-5403.503377,3370.820191,-2294.638420
1389.154210,-9844.739029,1149.143247,-814.226536
1389.154521,-13323.706956,153.219100,592.164754
1389.154832,-14359.995275,1378.971896,2590.720797
1389.155144,-15100.201217,3830.477490,2812.782580
1389.155455,-13249.686362,1762.019645,3330.926739
1389.155766,-9400.615463,0.000000,1776.494261
1389.156078,-6069.688724,-1608.800546,148.041188
1389.156389,-3330.926739,-689.485948,-1184.329507
1389.156700,-2516.700203,1225.752797,-2220.617826
1389.157012,-3404.947333,2451.505594,-1628.453072
1389.157323,-5255.462188,1072.533697,-1110.308913
1389.157634,-9326.594869,-2221.676944,-74.020594
1389.157946,-12287.418637,-1378.971896,1332.370696
1389.158257,-13841.851115,1072.533697,2294.638420
1389.158568,-13471.748144,2068.457845,2812.782580
1389.158880,-11325.150913,-612.876398,3182.885551
1389.159191,-8808.450710,-4366.744339,2812.782580
1389.159502,-6069.688724,-6665.030833,1554.432478
1389.159814,-3775.050304,-5669.106685,740.205942
1389.160125,-4219.173869,-3294.210641,296.082377
1389.160436,-5921.647536,-2298.286494,370.102971
1389.160748,-9474.636058,-3064.381992,222.061783
1389.161059,-12435.459826,-2834.553343,962.267725
1389.161371,-12657.521608,-383.047749,1554.432478
1389.161682,-12657.521608,2298.286494,1850.514855
1389.161993,-11695.253884,1762.019645,2368.659014
1389.162305,-9326.594869,-919.314598,1480.411884
1389.162616,-8068.244768,-3294.210641,740.205942
1389.162927,-5699.585753,-2298.286494,1184.329507
1389.163239,-6217.729913,-995.924147,-0.000000
1389.163550,-8068.244768,0.000000,592.164754
1389.163861,-8364.327145,-612.876398,666.185348
1389.164173,-10807.006753,-2298.286494,740.205942
1389.164484,-10584.944971,-2757.943793,1406.391290
1389.164795,-11177.109724,-1225.752797,814.226536
1389.165107,-10288.862594,-612.876398,74.020594
1389.165418,-7772.162391,-842.705048,-0.000000
1389.165729,-7254.018232,-2681.334243,-1332.370696
1389.166041,-5255.462188,-2757.943793,-1110.308913
1389.166352,-5551.544565,-1762.019645,-1184.329507
1389.166663,-7698.141797,-1685.410096,148.041188
1389.166975,-9696.697840,-689.485948,2072.576638
1389.167286,-12805.562797,-2298.286494,2368.659014
1389.167597,-13545.768739,-3140.991542,2368.659014
1389.167909,-11547.212695,-1455.581446,2146.597232
1389.168220,-9696.697840,383.047749,222.061783
1389.168531,-7179.997637,2068.457845,-1258.350101
1389.168843,-5847.626942,1991.848295,-3034.844362
1389.169154,-5625.565159,1455.581446,-3997.112087
1389.169466,-5107.421000,2145.067394,-3182.885551
1389.169777,-6809.894666,1838.629195,-2368.659014
1389.170088,-10288.862594,383.047749,-1036.288319
1389.170400,-12213.398043,76.609550,1184.329507
1389.170711,-12435.459826,-995.924147,2368.659014
1389.171022,-12361.439231,-2451.505594,2516.700203
1389.171334,-11029.068536,-3064.381992,2146.597232
1389.171645,-8734.430116,-3064.381992,888.247130
1389.171956,-6883.915261,-2528.115143,-0.000000
1389.172268,-4737.318029,-2145.067394,-1258.350101
1389.172579,-4145.153275,-2834.553343,-2664.741391
1389.172890,-4811.338623,-4519.963438,-2294.638420
1389.173202,-6809.894666,-4749.792088,-666.185348
1389.173513,-9696.697840,-3983.696590,-0.000000
1389.173824,-12731.542202,-2987.772442,1258.350101
1389.174136,-13323.706956,-2221.676944,3627.009116
1389.174447,-13027.624579,-5132.839837,3627.009116
1389.174758,-13027.624579,-7431.126331,4737.318029
1389.175070,-11325.150913,-6128.763984,4071.132681
1389.175381,-9252.574275,-3753.867940,2072.576638
1389.175692,-6365.771101,-2221.676944,-0.000000
1389.176004,-3552.988522,-2068.457845,-1258.350101
1389.176315,-1702.473667,-3524.039291,-2294.638420
1389.176626,-2738.761985,-4903.011187,-2664.741391
1389.176938,-5181.441594,-4213.525239,-1110.308913
1389.177249,-8956.491898,-3370.820191,-444.123565
1389.177561,-13101.645173,-1991.848295,1110.308913
1389.177872,-15396.283594,-2834.553343,3034.844362
1389.178183,-15766.386565,-4519.963438,4663.297435
1389.178495,-14063.912898,-5056.230287,5107.421000
1389.178806,-11251.130318,-4903.011187,4219.173869
1389.179117,-8290.306550,-4366.744339,1924.535449
1389.179429,-6069.688724,-3524.039291,-814.226536
1389.179740,-3108.864956,-3217.601092,-1480.411884
1389.180051,-1924.535449,-4673.182538,-2664.741391
1389.180363,-2664.741391,-4979.620737,-2368.659014
1389.180674,-4811.338623,-4749.792088,-1924.535449
1389.180985,-7920.203579,-3830.477490,-444.123565
1389.181297,-11695.253884,-4979.620737,1110.308913
1389.181608,-15026.180623,-4366.744339,2220.617826
1389.181919,-16358.551318,-3600.648841,3552.988522
1389.182231,-16506.592507,-3370.820191,3701.029710
1389.182542,-13915.871710,-1225.752797,3182.885551
1389.182853,-10510.924376,-459.657299,2220.617826
1389.183165,-6883.915261,-1302.362347,962.267725
1389.183476,-3256.906145,-2834.553343,444.123565
1389.183787,-740.205942,-2528.115143,-1480.411884
1389.184099,-1480.411884,-2604.724693,-3478.967927
1389.184410,-3330.926739,-1072.533697,-4145.153275
1389.184722,-5847.626942,-612.876398,-3775.050304
1389.185033,-10436.903782,-995.924147,-2072.576638
1389.185344,-13989.892304,-1302.362347,370.102971
1389.185656,-15840.407159,-1608.800546,2516.700203
1389.185967,-15914.427753,-2757.943793,3775.050304
1389.186278,-13397.727550,-3370.820191,3775.050304
1389.186590,-10436.903782,-3600.648841,2294.638420
1389.186901,-7254.018232,-4826.401637,592.164754
1389.187212,-4737.318029,-2911.162892,-74.020594
1389.187524,-3997.112087,-2221.676944,-1258.350101
1389.187835,-4737.318029,-1378.971896,-1776.494261
1389.188146,-6291.750507,-1762.019645,-1998.556043
1389.188458,-7550.100608,-1225.752797,-1628.453072
1389.188769,-7698.141797,-1378.971896,-814.226536
1389.189080,-9400.615463,-1915.238745,-0.000000
1389.189392,-10436.903782,-3524.039291,814.226536
1389.189703,-11769.274478,-4213.525239,2368.659014
1389.190014,-12953.603985,-4519.963438,2664.741391
1389.190326,-11991.336260,-3217.601092,3330.926739
1389.190637,-10584.944971,-2221.676944,2220.617826
1389.190948,-7994.224174,-2374.896044,1480.411884
1389.191260,-5477.523971,-3447.429741,222.061783
1389.191571,-4589.276840,-3294.210641,-1702.473667
1389.191882,-4737.318029,-2068.457845,-1850.514855
1389.192194,-5181.441594,-1838.629195,-1924.535449
1389.192505,-6883.915261,-2834.553343,-962.267725
1389.192817,-8068.244768,-3983.696590,-0.000000
1389.193128,-9770.718434,-4136.915689,1406.391290
1389.193439,-11325.150913,-5898.935335,2590.720797
1389.193751,-12435.459826,-6281.983084,3552.988522
1389.194062,-13323.706956,-6511.811733,3478.967927
1389.194373,-12361.439231,-6205.373534,2886.803174
1389.194685,-11843.295072,-4749.792088,2146.597232
1389.194996,-10066.800811,-2451.505594,740.205942
1389.195307,-7920.203579,0.000000,-592.164754
1389.195619,-6069.688724,1455.581446,-1258.350101
1389.195930,-5921.647536,1072.533697,-2072.576638
1389.196241,-5255.462188,536.266849,-962.267725
1389.196553,-5255.462188,-229.828649,-74.020594
1389.196864,-7328.038826,-2298.286494,666.185348
1389.197175,-9178.553681,-4136.915689,1406.391290
1389.197487,-11103.089130,-5056.230287,2072.576638
1389.197798,-12139.377449,-6128.763984,2072.576638
1389.198109,-12287.418637,-6435.202183,1924.535449
1389.198421,-11843.295072,-6128.763984,740.205942
1389.198732,-11029.068536,-5592.497135,1036.288319
1389.199043,-9030.512492,-4903.011187,962.267725
1389.199355,-7476.080014,-4060.306139,592.164754
1389.199666,-6291.750507,-2451.505594,222.061783
1389.199977,-5403.503377,-1302.362347,-0.000000
1389.200289,-4737.318029,-612.876398,148.041188
1389.200600,-5477.523971,-536.266849,296.082377
1389.200912,-6735.874072,-229.828649,666.185348
1389.201223,-8660.409521,-919.314598,148.041188
1389.201534,-10732.986159,-2374.896044,444.123565
1389.201846,-11029.068536,-2528.115143,444.123565
1389.202157,-11251.130318,-2374.896044,-0.000000
1389.202468,-10214.842000,-2068.457845,-74.020594
1389.202780,-7920.203579,-1991.848295,-0.000000
1389.203091,-8956.491898,-2834.553343,-814.226536
1389.203402,-6365.771101,-1915.238745,296.082377
1389.203714,-5625.565159,-2221.676944,-444.123565
1389.204025,-6069.688724,-2757.943793,1110.308913
1389.204336,-9474.636058,-4903.011187,1776.494261
1389.204648,-11695.253884,-5132.839837,2146.597232
1389.204959,-11695.253884,-3217.601092,2368.659014
1389.205270,-11547.212695,-2451.505594,2812.782580
1389.205582,-11769.274478,-4136.915689,1998.556043
1389.205893,-10436.903782,-5286.058936,1628.453072
1389.206204,-9622.677246,-4519.963438,1036.288319
1389.206516,-8734.430116,-3140.991542,1406.391290
1389.206827,-9326.594869,-995.924147,1258.350101
1389.207138,-10807.006753,689.485948,666.185348
1389.207450,-9178.553681,766.095498,1924.535449
1389.207761,-8364.327145,-536.266849,1406.391290
1389.208072,-5995.668130,536.266849,2960.823768
1389.208384,-7624.121203,153.219100,1406.391290
1389.208695,-7476.080014,-2221.676944,2738.761985
1389.209007,-9104.533087,-4213.525239,3627.009116
1389.209318,-9622.677246,-3140.991542,3923.091493
1389.209629,-10510.924376,-766.095498,4885.359217
1389.209941,-12953.603985,-1685.410096,4145.153275
1389.210252,-10436.903782,-1225.752797,4885.359217
1389.210563,-7994.224174,-229.828649,2960.823768
1389.210875,-6735.874072,1455.581446,3404.947333
1389.211186,-5921.647536,1762.019645,2294.638420
1389.211497,-6735.874072,-306.438199,2146.597232
1389.211809,-7031.956449,-383.047749,3330.926739
1389.212120,-6143.709319,-153.219100,4737.318029
1389.212431,-11029.068536,-1532.190996,4145.153275
1389.212743,-10955.047942,-1149.143247,6735.874072
1389.213054,-10584.944971,-1302.362347,6291.750507
1389.213365,-8586.388927,-2451.505594,6587.832884
1389.213677,-7772.162391,-1532.190996,5551.544565
1389.213988,-8290.306550,0.000000,4441.235652
1389.214299,-5847.626942,1455.581446,3923.091493
1389.214611,-5033.400406,1915.238745,2368.659014
1389.214922,-5329.482782,3140.991542,3404.947333
1389.215233,-7846.182985,4136.915689,2886.803174
1389.215545,-8956.491898,2374.896044,4589.276840
1389.215856,-9104.533087,1378.971896,4737.318029
1389.216168,-8068.244768,229.828649,4737.318029
1389.216479,-7698.141797,-383.047749,4811.338623
1389.216790,-8364.327145,-2451.505594,4959.379811
1389.217102,-8364.327145,-3217.601092,4811.338623
1389.217413,-8808.450710,-1302.362347,5699.585753
1389.217724,-9400.615463,536.266849,4885.359217
1389.218036,-10658.965565,919.314598,4737.318029
1389.218347,-11029.068536,766.095498,4293.194464
1389.218658,-9400.615463,1915.238745,4293.194464
1389.218970,-8364.327145,1838.629195,3182.885551
1389.219281,-7772.162391,0.000000,3330.926739
1389.219592,-7402.059420,-1225.752797,3034.844362
1389.219904,-6587.832884,-1532.190996,2590.720797
1389.220215,-5773.606348,-1532.190996,2812.782580
1389.220526,-7476.080014,-2987.772442,3775.050304
1389.220838,-9622.677246,-2987.772442,4515.256246
1389.221149,-11917.315666,-1608.800546,4367.215058
1389.221460,-12139.377449,-689.485948,4515.256246
1389.221772,-11843.295072,536.266849,4219.173869
1389.222083,-11177.109724,1762.019645,2960.823768
1389.222394,-9400.615463,2298.286494,1332.370696
1389.222706,-7402.059420,1915.238745,592.164754
1389.223017,-6661.853478,2451.505594,148.041188
1389.223328,-7031.956449,1149.143247,1332.370696
1389.223640,-8882.471304,-153.219100,2516.700203
1389.223951,-9326.594869,-1915.238745,3849.070898
1389.224263,-10066.800811,-2681.334243,4885.359217
1389.224574,-9622.677246,-2757.943793,5181.441594
1389.224885,-8808.450710,-2145.067394,4367.215058
1389.225197,-8438.347739,-1532.190996,2442.679609
1389.225508,-5995.668130,-612.876398,1406.391290
1389.225819,-6217.729913,1302.362347,-74.020594
1389.226131,-7254.018232,1532.190996,-444.123565
1389.226442,-9474.636058,2451.505594,370.102971
1389.226753,-11695.253884,2298.286494,1702.473667
1389.227065,-13323.706956,1762.019645,3552.988522
1389.227377,-13323.706956,0.000000,4811.338623
1389.227688,-12435.459826,-459.657299,5107.421000
1389.228000,-9770.718434,-1072.533697,5181.441594
1389.228311,-5995.668130,-1991.848295,3627.009116
1389.228622,-3701.029710,-1991.848295,2368.659014
1389.228934,-3404.947333,-1378.971896,1628.453072
1389.229245,-5107.421000,-689.485948,1628.453072
1389.229557,-7994.224174,153.219100,3108.864956
1389.229868,-10881.027347,1072.533697,4293.194464
1389.230179,-12583.501014,995.924147,5329.482782
1389.230491,-13101.645173,-306.438199,5477.523971
1389.230802,-11251.130318,-536.266849,5625.565159
1389.231114,-8364.327145,-229.828649,5107.421000
1389.231425,-6735.874072,-842.705048,3256.906145
1389.231736,-5773.606348,-766.095498,2368.659014
1389.232048,-5033.400406,-383.047749,2146.597232
1389.232359,-4737.318029,0.000000,2294.638420
1389.232671,-7105.977043,1149.143247,2368.659014
1389.232982,-10807.006753,766.095498,3108.864956
1389.233293,-13027.624579,1378.971896,4293.194464
1389.233605,-12509.480420,1378.971896,5033.400406
1389.233916,-11325.150913,536.266849,4515.256246
1389.234227,-9178.553681,0.000000,3701.029710
1389.234539,-6143.709319,76.609550,3182.885551
1389.234850,-5329.482782,153.219100,2294.638420
1389.235162,-5773.606348,612.876398,4145.153275
1389.235473,-8882.471304,0.000000,5033.400406
1389.235784,-11399.171507,0.000000,6439.791695
1389.236096,-11843.295072,0.000000,6365.771101
1389.236407,-11103.089130,689.485948,4737.318029
1389.236719,-8142.265362,2221.676944,2886.803174
1389.237030,-5773.606348,3294.210641,148.041188
1389.237341,-4663.297435,2451.505594,-370.102971
1389.237653,-4885.359217,1915.238745,-296.082377
1389.237964,-8660.409521,536.266849,1628.453072
1389.238276,-11917.315666,0.000000,4515.256246
1389.238587,-14285.974681,-1838.629195,6809.894666
1389.238898,-14730.098246,-2834.553343,8512.368333
1389.239210,-13249.686362,-2834.553343,9326.594869
1389.239521,-11103.089130,-2221.676944,8586.388927
1389.239833,-7624.121203,-1762.019645,7031.956449
1389.240144,-4811.338623,0.000000,4145.153275
1389.240455,-1998.556043,1072.533697,1924.535449
1389.240767,-740.205942,3064.381992,222.061783
1389.241078,-2738.761985,3600.648841,-148.041188
1389.241390,-6439.791695,3294.210641,1258.350101
1389.241701,-9474.636058,2374.896044,2812.782580
1389.242012,-12213.398043,536.266849,5329.482782
1389.242324,-13619.789333,-1302.362347,6735.874072
1389.242635,-13545.768739,-2681.334243,7328.038826
1389.242947,-12435.459826,-2757.943793,6661.853478
1389.243258,-10658.965565,-1838.629195,5847.626942
1389.243569,-8956.491898,-766.095498,5773.606348
1389.243881,-6587.832884,-536.266849,4737.318029
1389.244192,-4219.173869,-229.828649,3997.112087
1389.244504,-2146.597232,842.705048,3923.091493
1389.244815,-1924.535449,1072.533697,2516.700203
1389.245126,-3182.885551,1532.190996,1184.329507
1389.245438,-4737.318029,1302.362347,296.082377
1389.245749,-6735.874072,76.609550,-74.020594
1389.246061,-9252.574275,-919.314598,592.164754
1389.246372,-13693.809927,-153.219100,2220.617826
1389.246683,-16876.695478,76.609550,3108.864956
1389.246995,-18283.086767,0.000000,5477.523971
1389.247306,-16506.592507,0.000000,5773.606348
1389.247618,-11769.274478,0.000000,5255.462188
1389.247929,-5625.565159,0.000000,2738.761985
1389.248240,-148.041188,919.314598,-444.123565
1389.248552,2738.761985,2451.505594,-4515.256246
1389.248863,2590.720797,2528.115143,-6883.915261
1389.249174,-222.061783,1685.410096,-6809.894666
1389.249486,-7105.977043,229.828649,-5181.441594
1389.249797,-15618.345376,-612.876398,-592.164754
1389.250109,-22428.240043,-1302.362347,3034.844362
1389.250420,-26203.290347,-1225.752797,6217.729913
1389.250731,-25167.002028,-1455.581446,6883.915261
1389.251043,-19023.292709,-2221.676944,5033.400406
1389.251354,-9696.697840,-1838.629195,1924.535449
1389.251666,-444.123565,-153.219100,-2886.803174
1389.251977,6217.729913,1072.533697,-6365.771101
1389.252288,7105.977043,842.705048,-9474.636058
1389.252600,2442.679609,1378.971896,-7846.182985
1389.252911,-6217.729913,229.828649,-5107.421000
1389.253223,-15692.365970,-1378.971896,-0.000000
1389.253534,-23094.425390,-1915.238745,3849.070898
1389.253845,-25389.063811,-1991.848295,5921.647536
1389.254157,-22502.260637,-2681.334243,5181.441594
1389.254468,-16136.489536,-2604.724693,3034.844362
1389.254780,-8734.430116,-306.438199,1554.432478
1389.255091,-1184.329507,306.438199,-370.102971
1389.255402,1924.535449,-153.219100,-1776.494261
1389.255714,3552.988522,-536.266849,-3330.926739
1389.256025,2368.659014,1532.190996,-3701.029710
1389.256337,-1924.535449,2068.457845,-3404.947333
1389.256648,-9252.574275,2298.286494,-2294.638420
1389.256959,-16802.674883,2681.334243,-222.061783
1389.257271,-21317.931130,2911.162892,2516.700203
1389.257582,-20947.828159,1608.800546,4959.379811
1389.257894,-16950.716072,-1378.971896,6143.709319
1389.258205,-11177.109724,-2987.772442,5773.606348
1389.258516,-3997.112087,-2374.896044,4219.173869
1389.258828,1480.411884,-1225.752797,3182.885551
1389.259139,3256.906145,-1532.190996,1480.411884
1389.259451,814.226536,-689.485948,-74.020594
1389.259762,-3849.070898,842.705048,222.061783
1389.260073,-7179.997637,1915.238745,-296.082377
1389.260385,-11325.150913,4060.306139,-444.123565
1389.260696,-14359.995275,4749.792088,-0.000000
1389.261008,-15026.180623,2451.505594,2294.638420
1389.261319,-14137.933492,-1225.752797,4219.173869
1389.261630,-11325.150913,-3983.696590,5699.585753
1389.261942,-8734.430116,-3064.381992,5995.668130
1389.262253,-6217.729913,-2757.943793,4515.256246
1389.262564,-3849.070898,-2145.067394,2812.782580
1389.262876,-4293.194464,-1532.190996,1628.453072
1389.263187,-5921.647536,383.047749,740.205942
1389.263499,-7624.121203,2528.115143,-444.123565
1389.263810,-9696.697840,3600.648841,-2146.597232
1389.264121,-9622.677246,4213.525239,-1998.556043
1389.264433,-10362.883188,1915.238745,-1850.514855
1389.264744,-8734.430116,-1378.971896,-222.061783
1389.265056,-7328.038826,-3524.039291,148.041188
1389.265367,-7994.224174,-4366.744339,888.247130
1389.265678,-9104.533087,-3830.477490,2960.823768
1389.265990,-12583.501014,-3064.381992,3034.844362
1389.266301,-14878.139434,-2528.115143,3923.091493
1389.266613,-16358.551318,383.047749,3627.009116
1389.266924,-13989.892304,2681.334243,1924.535449
1389.267235,-8660.409521,4749.792088,-1850.514855
1389.267547,-1924.535449,4749.792088,-4959.379811
1389.267858,2368.659014,2528.115143,-7179.997637
1389.268170,2960.823768,76.609550,-7476.080014
1389.268481,-296.082377,-689.485948,-7698.141797
1389.268792,-6661.853478,-1762.019645,-4367.215058
1389.269104,-14211.954086,-2374.896044,814.226536
1389.269415,-22502.260637,-3907.087040,4367.215058
1389.269727,-25611.125593,-3447.429741,6661.853478
1389.270038,-23686.590144,-1532.190996,6291.750507
1389.270349,-16136.489536,306.438199,2886.803174
1389.270661,-6883.915261,1838.629195,-1998.556043
1389.270972,1406.391290,2757.943793,-5847.626942
1389.271284,6365.771101,3140.991542,-9474.636058
1389.271595,6217.729913,2604.724693,-9918.759623
1389.271906,1110.308913,1532.190996,-8290.306550
1389.272218,-7550.100608,1685.410096,-4737.318029
1389.272529,-16580.613101,-1225.752797,-0.000000
1389.272841,-22872.363608,-3600.648841,5033.400406
1389.273152,-24944.940245,-4290.134789,7328.038826
1389.273463,-22872.363608,-2451.505594,6365.771101
1389.273775,-16062.468941,-459.657299,3923.091493
1389.274086,-7105.977043,-459.657299,518.144159
1389.274398,222.061783,-153.219100,-2220.617826
1389.274709,4885.359217,995.924147,-5403.503377
1389.275020,4959.379811,2604.724693,-6587.832884
1389.275332,1332.370696,2987.772442,-5181.441594
1389.275643,-4959.379811,1378.971896,-2812.782580
1389.275955,-11991.336260,-383.047749,-0.000000
1389.276266,-17098.757260,-2298.286494,2960.823768
1389.276577,-21095.869347,-3524.039291,5255.462188
1389.276889,-19985.560434,-3600.648841,5477.523971
1389.277200,-16136.489536,-2298.286494,5403.503377
1389.277511,-10955.047942,-2298.286494,4737.318029
1389.277823,-5699.585753,-2604.724693,2738.761985
1389.278134,-1036.288319,-1149.143247,592.164754
1389.278446,1702.473667,383.047749,-2516.700203
1389.278757,1480.411884,2451.505594,-2960.823768
1389.279068,-3256.906145,2834.553343,-3034.844362
1389.279380,-9178.553681,2834.553343,-1258.350101
1389.279691,-14730.098246,2757.943793,1258.350101
1389.280003,-17764.942608,1685.410096,3701.029710
1389.280314,-15988.448347,-383.047749,4589.276840
1389.280625,-12287.418637,-2604.724693,4515.256246
1389.280937,-8364.327145,-2834.553343,5403.503377
1389.281248,-6513.812290,-3064.381992,3923.091493
1389.281560,-5033.400406,-2987.772442,2738.761985
1389.281871,-3256.906145,-1378.971896,1554.432478
1389.282182,-3997.112087,-306.438199,592.164754
1389.282494,-5995.668130,1072.533697,-444.123565
1389.282805,-7105.977043,2911.162892,-1628.453072
1389.283117,-8882.471304,3830.477490,-2442.679609
1389.283428,-9326.594869,2757.943793,-1110.308913
1389.283739,-10362.883188,1532.190996,-0.000000
1389.284051,-10658.965565,-766.095498,2442.679609
1389.284362,-9696.697840,-2834.553343,3182.885551
1389.284674,-9104.533087,-3830.477490,3256.906145
1389.284985,-7772.162391,-2451.505594,2368.659014
1389.285296,-7698.141797,-919.314598,222.061783
1389.285608,-8216.285956,0.000000,-0.000000
1389.285919,-8734.430116,1149.143247,-888.247130
1389.286231,-9918.759623,3064.381992,-2220.617826
1389.286542,-9844.739029,4749.792088,-2738.761985
1389.286853,-8882.471304,4060.306139,-3478.967927
1389.287165,-5921.647536,1838.629195,-3108.864956
1389.287476,-4589.276840,-689.485948,-2960.823768
1389.287788,-5181.441594,-2451.505594,-2664.741391
1389.288099,-7105.977043,-2374.896044,-296.082377
1389.288410,-11917.315666,-3677.258390,1036.288319
1389.288722,-16358.551318,-3524.039291,3330.926739
1389.289033,-19763.498651,-3064.381992,4737.318029
1389.289345,-19763.498651,-2298.286494,4293.194464
1389.289656,-15396.283594,306.438199,1850.514855
1389.289967,-7698.141797,1608.800546,-1702.473667
1389.290279,-592.164754,1225.752797,-5181.441594
1389.290590,3923.091493,2068.457845,-6439.791695
1389.290902,3330.926739,-383.047749,-7328.038826
1389.291213,-1850.514855,-306.438199,-4663.297435
1389.291524,-8808.450710,-612.876398,-444.123565
1389.291836,-16654.633695,-2145.067394,2886.803174
1389.292147,-22650.301825,-3140.991542,5773.606348
1389.292458,-23316.487173,-1991.848295,6365.771101
1389.292770,-19541.436869,-153.219100,4441.235652
1389.293081,-13027.624579,842.705048,1332.370696
1389.293393,-5995.668130,2145.067394,-1702.473667
1389.293704,-1184.329507,1991.848295,-3404.947333
1389.294015,2294.638420,2374.896044,-4811.338623
1389.294327,2294.638420,2757.943793,-4885.359217
1389.294638,-740.205942,2221.676944,-3923.091493
1389.294950,-4959.379811,306.438199,-1924.535449
1389.295261,-9770.718434,-1532.190996,1332.370696
1389.295572,-15174.221811,-3217.601092,4589.276840
1389.295884,-20355.663405,-3447.429741,6661.853478
1389.296195,-21465.972318,-2451.505594,7476.080014
1389.296507,-17912.983796,-1991.848295,6217.729913
1389.296818,-10214.842000,-1685.410096,4293.194464
1389.297129,-2590.720797,-766.095498,1332.370696
1389.297441,2812.782580,919.314598,-2812.782580
1389.297752,6069.688724,2451.505594,-4515.256246
1389.298064,2590.720797,3447.429741,-3997.112087
1389.298375,-4071.132681,2987.772442,-1554.432478
1389.298686,-11325.150913,2221.676944,1702.473667
1389.298998,-16580.613101,229.828649,3923.091493
1389.299309,-19023.292709,-153.219100,5107.421000
1389.299621,-16654.633695,0.000000,5551.544565
1389.299932,-13027.624579,-842.705048,3997.112087
1389.300243,-8808.450710,-1915.238745,3108.864956
1389.300555,-5625.565159,-3140.991542,2146.597232
1389.300866,-3849.070898,-2604.724693,-148.041188
1389.301178,-2368.659014,-383.047749,-1036.288319
1389.301489,-3997.112087,1302.362347,-1554.432478
1389.301800,-6439.791695,1455.581446,-1554.432478
1389.302112,-9474.636058,1455.581446,-1110.308913
1389.302423,-11843.295072,2145.067394,222.061783
1389.302735,-14508.036463,2298.286494,1850.514855
1389.303046,-14878.139434,689.485948,3552.988522
1389.303357,-13471.748144,-1149.143247,4663.297435
1389.303669,-10510.924376,-2604.724693,3627.009116
1389.303980,-7328.038826,-2911.162892,2368.659014
1389.304292,-4441.235652,-2221.676944,1110.308913
1389.304603,-3997.112087,-536.266849,-148.041188
1389.304914,-6217.729913,1302.362347,222.061783
1389.305226,-10436.903782,2987.772442,-0.000000
1389.305537,-13989.892304,3140.991542,444.123565
1389.305849,-12583.501014,4290.134789,1184.329507
1389.306160,-8734.430116,3753.867940,-0.000000
1389.306471,-4663.297435,1455.581446,-1184.329507
1389.306783,-1702.473667,-536.266849,-1554.432478
1389.307094,-2368.659014,-2145.067394,-814.226536
1389.307405,-6587.832884,-3294.210641,1406.391290
1389.307717,-11325.150913,-3677.258390,3923.091493
1389.308028,-16210.510130,-4673.182538,5107.421000
1389.308340,-17690.922014,-4366.744339,6513.812290
1389.308651,-16580.613101,-2145.067394,4737.318029
1389.308962,-12065.356855,536.266849,1258.350101
1389.309274,-5107.421000,1991.848295,-1258.350101
1389.309585,-962.267725,1685.410096,-3552.988522
1389.309897,740.205942,1072.533697,-2960.823768
1389.310208,-1554.432478,306.438199,-2886.803174
1389.310519,-5107.421000,0.000000,-1924.535449
1389.310831,-8586.388927,1378.971896,592.164754
1389.311142,-13175.665768,306.438199,2368.659014
1389.311454,-16728.654289,-1378.971896,4811.338623
1389.311765,-19023.292709,-1378.971896,5773.606348
1389.312076,-17764.942608,-459.657299,4219.173869
1389.312388,-12213.398043,1302.362347,1480.411884
1389.312699,-5477.523971,2374.896044,-2294.638420
1389.313011,0.000000,2145.067394,-3849.070898
1389.313322,2516.700203,1378.971896,-5773.606348
1389.313633,1480.411884,1532.190996,-5551.544565
1389.313945,-3108.864956,2145.067394,-2960.823768
1389.314256,-9178.553681,689.485948,-222.061783
1389.314568,-14730.098246,-1838.629195,2590.720797
1389.314879,-18949.272115,-2911.162892,4219.173869
1389.315190,-20429.683999,-2451.505594,4219.173869
1389.315502,-17542.880825,-1455.581446,2960.823768
1389.315813,-12657.521608,-612.876398,518.144159
1389.316125,-7698.141797,536.266849,-666.185348
1389.316436,-3997.112087,153.219100,-1258.350101
1389.316747,-2516.700203,229.828649,-2146.597232
1389.317059,-1998.556043,1225.752797,-2516.700203
1389.317370,-3404.947333,1762.019645,-2442.679609
1389.317682,-5255.462188,1302.362347,-2294.638420
1389.317993,-8512.368333,459.657299,-1258.350101
1389.318304,-12509.480420,0.000000,666.185348
1389.318616,-16506.592507,-383.047749,2220.617826
1389.318927,-18061.024985,-153.219100,4219.173869
1389.319239,-16432.571912,-1378.971896,4515.256246
1389.319550,-13619.789333,-1991.848295,3552.988522
1389.319861,-8364.327145,-2604.724693,2146.597232
1389.320173,-2516.700203,-919.314598,-888.247130
1389.320484,1850.514855,536.266849,-3849.070898
1389.320796,1036.288319,1225.752797,-3923.091493
1389.321107,-4737.318029,995.924147,-3108.864956
1389.321418,-11029.068536,2145.067394,-370.102971
1389.321730,-15914.427753,2221.676944,2294.638420
1389.322041,-17912.983796,2374.896044,3775.050304
1389.322352,-15914.427753,1608.800546,4885.359217
1389.322664,-12213.398043,-1532.190996,4737.318029
1389.322975,-7254.018232,-2604.724693,3552.988522
1389.323287,-3923.091493,-2681.334243,1776.494261
1389.323598,-2368.659014,-1915.238745,444.123565
1389.323909,-3034.844362,-1225.752797,-888.247130
1389.324221,-5921.647536,0.000000,-592.164754
1389.324532,-8734.430116,1149.143247,-296.082377
1389.324844,-11251.130318,3294.210641,-222.061783
1389.325155,-12287.418637,4749.792088,1184.329507
1389.325466,-11325.150913,3447.429741,2072.576638
1389.325778,-9326.594869,612.876398,2442.679609
1389.326089,-6291.750507,-1378.971896,3330.926739
1389.326401,-5477.523971,-1915.238745,2072.576638
1389.326712,-5477.523971,-1762.019645,1554.432478
1389.327024,-6069.688724,-1915.238745,2146.597232
1389.327335,-8512.368333,-2757.943793,1110.308913
1389.327647,-11251.130318,-2221.676944,2886.803174
1389.327958,-13693.809927,-689.485948,2960.823768
1389.328270,-14656.077652,1532.190996,2886.803174
1389.328581,-11621.233289,3677.258390,2368.659014
1389.328893,-7179.997637,2911.162892,962.267725
1389.329204,-2960.823768,1762.019645,-0.000000
1389.329516,666.185348,-306.438199,-2072.576638
1389.329827,0.000000,-383.047749,-2368.659014
1389.330139,-2442.679609,306.438199,-1332.370696
1389.330450,-9400.615463,-766.095498,222.061783
1389.330762,-16950.716072,-2298.286494,3108.864956
1389.331073,-21614.013506,-2145.067394,5403.503377
1389.331385,-22132.157666,-2145.067394,6069.688724
1389.331696,-16506.592507,766.095498,3923.091493
1389.332008,-8660.409521,1455.581446,-962.267725
1389.332319,-1998.556043,766.095498,-3997.112087
1389.332631,4071.132681,766.095498,-5255.462188
1389.332942,4145.153275,689.485948,-6735.874072
1389.333254,0.000000,1608.800546,-4293.194464
1389.333565,-6291.750507,612.876398,-2664.741391
1389.333877,-13693.809927,-766.095498,-222.061783
1389.334189,-18283.086767,-919.314598,3404.947333
1389.334500,-21169.889941,-766.095498,3997.112087
1389.334812,-20355.663405,-1915.238745,3034.844362
1389.335123,-15396.283594,-1149.143247,370.102971
1389.335435,-9252.574275,383.047749,-2220.617826
1389.335746,-3552.988522,995.924147,-4145.153275
1389.336058,-666.185348,536.266849,-5255.462188
1389.336369,296.082377,1991.848295,-5181.441594
1389.336681,-1406.391290,1838.629195,-4811.338623
1389.336992,-5551.544565,459.657299,-2664.741391
1389.337304,-11325.150913,-383.047749,-1110.308913
1389.337615,-16432.571912,-995.924147,592.164754
1389.337927,-19171.333898,-612.876398,1702.473667
1389.338238,-18949.272115,-536.266849,1702.473667
1389.338550,-15766.386565,-383.047749,1554.432478
1389.338861,-11325.150913,-1378.971896,1110.308913
1389.339173,-6217.729913,-2221.676944,-74.020594
1389.339484,-1184.329507,-2221.676944,-1036.288319
1389.339796,1184.329507,-1762.019645,-2960.823768
1389.340107,296.082377,-229.828649,-2738.761985
1389.340419,-4663.297435,-459.657299,-1998.556043
1389.340730,-10214.842000,0.000000,-1110.308913
1389.341042,-14878.139434,689.485948,814.226536
1389.341353,-18061.024985,1608.800546,2664.741391
1389.341665,-16950.716072,1455.581446,3627.009116
1389.341976,-13027.624579,-1532.190996,4441.235652
1389.342288,-8956.491898,-3677.258390,3330.926739
1389.342599,-4663.297435,-3064.381992,2146.597232
1389.342911,-1998.556043,-1608.800546,-0.000000
1389.343222,74.020594,-306.438199,-1406.391290
1389.343534,-3627.009116,76.609550,-2072.576638
1389.343845,-7254.018232,1838.629195,-0.000000
1389.344157,-11917.315666,4290.134789,666.185348
1389.344469,-16062.468941,4749.792088,1776.494261
1389.344780,-15692.365970,5209.449386,3849.070898
1389.345092,-12805.562797,2068.457845,3404.947333
1389.345403,-7328.038826,-1225.752797,2960.823768
1389.345715,-3256.906145,-2451.505594,1628.453072
1389.346026,-1258.350101,-2451.505594,370.102971
1389.346338,-1554.432478,-3140.991542,-0.000000
1389.346649,-6143.709319,-3140.991542,518.144159
1389.346961,-11695.253884,-1991.848295,3256.906145
1389.347272,-15840.407159,-1149.143247,4441.235652
1389.347584,-17394.839637,1225.752797,5033.400406
1389.347895,-13841.851115,3370.820191,3701.029710
1389.348207,-7920.203579,2681.334243,666.185348
1389.348518,-1924.535449,1225.752797,-222.061783
1389.348830,1554.432478,229.828649,-2146.597232
1389.349141,222.061783,-383.047749,-2960.823768
1389.349453,-3404.947333,-919.314598,-1110.308913
1389.349764,-9992.780217,-995.924147,592.164754
1389.350076,-16136.489536,-1378.971896,3849.070898
1389.350387,-19911.539840,-2298.286494,5551.544565
1389.350699,-20503.704593,-1608.800546,5033.400406
1389.351010,-14952.160028,1378.971896,3182.885551
1389.351322,-7772.162391,2298.286494,74.020594
1389.351633,-1850.514855,2221.676944,-2664.741391
1389.351945,2664.741391,1915.238745,-4219.173869
1389.352256,2442.679609,1149.143247,-5995.668130
1389.352568,-962.267725,1685.410096,-4071.132681
1389.352879,-6143.709319,1991.848295,-1628.453072
1389.353191,-12731.542202,-2298.286494,888.247130
1389.353502,-16876.695478,-4136.915689,3330.926739
1389.353814,-19393.395680,-3370.820191,3627.009116
1389.354125,-19319.375086,-1838.629195,3849.070898
1389.354437,-15914.427753,-842.705048,1850.514855
1389.354749,-11177.109724,-1225.752797,-148.041188
1389.355060,-5551.544565,-1149.143247,-1258.350101
1389.355372,-444.123565,-229.828649,-3552.988522
1389.355683,2368.659014,1762.019645,-4589.276840
1389.355995,2294.638420,2068.457845,-5181.441594
1389.356306,-2812.782580,612.876398,-4071.132681
1389.356618,-9030.512492,-536.266849,-1776.494261
1389.356929,-15766.386565,-766.095498,666.185348
1389.357241,-21169.889941,-306.438199,2368.659014
1389.357552,-21984.116477,76.609550,2886.803174
1389.357864,-18653.189738,-536.266849,1850.514855
1389.358175,-12213.398043,-766.095498,148.041188
1389.358487,-6217.729913,-306.438199,-1406.391290
1389.358798,-518.144159,-766.095498,-3108.864956
1389.359110,2664.741391,-306.438199,-4441.235652
1389.359421,444.123565,0.000000,-4367.215058
1389.359733,-4959.379811,-306.438199,-2442.679609
1389.360044,-11917.315666,-383.047749,-740.205942
1389.360356,-16580.613101,842.705048,1554.432478
1389.360667,-20059.581028,1149.143247,2960.823768
1389.360979,-18135.045579,-306.438199,4367.215058
1389.361290,-14434.015869,-2681.334243,4293.194464
1389.361602,-9844.739029,-3830.477490,3256.906145
1389.361913,-4885.359217,-3217.601092,1924.535449
1389.362225,-888.247130,-2451.505594,-0.000000
1389.362536,1036.288319,-1762.019645,-1406.391290
1389.362848,-2368.659014,-766.095498,-888.247130
1389.363159,-7105.977043,1072.533697,296.082377
1389.363471,-12139.377449,3600.648841,296.082377
1389.363782,-14952.160028,5362.668486,1924.535449
1389.364094,-14137.933492,4979.620737,2960.823768
1389.364405,-11325.150913,1072.533697,2664.741391
1389.364717,-6883.915261,-1991.848295,2294.638420
1389.365029,-3034.844362,-1302.362347,814.226536
1389.365340,-2220.617826,-2068.457845,222.061783
1389.365652,-3330.926739,-1915.238745,1406.391290
1389.365963,-6513.812290,-2374.896044,1332.370696
1389.366275,-11991.336260,-1915.238745,2294.638420
1389.366586,-14952.160028,0.000000,3775.050304
1389.366898,-16580.613101,2834.553343,3404.947333
1389.367209,-14582.057057,4979.620737,2738.761985
1389.367521,-9252.574275,3677.258390,814.226536
1389.367832,-4441.235652,1838.629195,222.061783
1389.368144,-1110.308913,0.000000,-74.020594
1389.368455,-1554.432478,-306.438199,-592.164754
1389.368767,-3997.112087,-919.314598,-0.000000
1389.369078,-8216.285956,-1991.848295,1554.432478
1389.369390,-13471.748144,-2528.115143,3701.029710
1389.369701,-16802.674883,-2604.724693,5625.565159
1389.370013,-18949.272115,-1685.410096,5255.462188
1389.370324,-15692.365970,536.266849,4441.235652
1389.370636,-9770.718434,2298.286494,2294.638420
1389.370947,-5255.462188,1149.143247,-222.061783
1389.371259,1850.514855,995.924147,-1258.350101
1389.371570,3923.091493,842.705048,-3552.988522
1389.371882,1332.370696,842.705048,-2738.761985
1389.372193,-3701.029710,153.219100,-592.164754
1389.372505,-11103.089130,-1455.581446,1184.329507
1389.372816,-17394.839637,-2451.505594,5255.462188
1389.373128,-21169.889941,-3830.477490,6809.894666
1389.373439,-21169.889941,-2604.724693,6143.709319
1389.373751,-15766.386565,-536.266849,3108.864956
1389.374062,-8956.491898,689.485948,-222.061783
1389.374374,-2294.638420,1378.971896,-2294.638420
1389.374686,1776.494261,2068.457845,-4515.256246
1389.374997,1850.514855,3140.991542,-3997.112087
1389.375309,-1110.308913,3140.991542,-2590.720797
1389.375620,-6143.709319,2298.286494,-740.205942
1389.375932,-10436.903782,229.828649,1702.473667
1389.376243,-14285.974681,-1532.190996,1776.494261
1389.376555,-16654.633695,-1225.752797,2590.720797
1389.376866,-17024.736666,-383.047749,2590.720797
1389.377178,-15396.283594,-306.438199,1480.411884
1389.377489,-12731.542202,-919.314598,814.226536
1389.377801,-9400.615463,-1072.533697,-222.061783
1389.378112,-4293.194464,-383.047749,-1036.288319
1389.378424,518.144159,0.000000,-2960.823768
1389.378735,1480.411884,536.266849,-3552.988522
1389.379047,-2294.638420,0.000000,-3552.988522
1389.379358,-7550.100608,0.000000,-2368.659014
1389.379670,-13841.851115,-153.219100,-0.000000
1389.379981,-18949.272115,612.876398,2294.638420
1389.380293,-20947.828159,0.000000,3108.864956
1389.380604,-17616.901420,-1532.190996,2516.700203
1389.380916,-12139.377449,-2374.896044,1776.494261
1389.381227,-5847.626942,-2451.505594,-0.000000
1389.381539,-1702.473667,-2604.724693,-2590.720797
1389.381850,148.041188,-1378.971896,-4145.153275
1389.382162,-2146.597232,842.705048,-3997.112087
1389.382473,-8216.285956,842.705048,-3034.844362
1389.382785,-12287.418637,2987.772442,-1332.370696
1389.383096,-17098.757260,4290.134789,-518.144159
1389.383408,-17024.736666,4596.572988,1406.391290
1389.383719,-13175.665768,2068.457845,1628.453072
1389.384031,-9474.636058,-1455.581446,1924.535449
1389.384342,-5995.668130,-3447.429741,1332.370696
1389.384654,-4811.338623,-4136.915689,-370.102971
1389.384966,-3330.926739,-3217.601092,-296.082377
1389.385277,-4589.276840,-2681.334243,-296.082377
1389.385589,-9030.512492,-1838.629195,518.144159
1389.385900,-11917.315666,229.828649,1406.391290
1389.386212,-13397.727550,2221.676944,1480.411884
1389.386523,-12065.356855,3907.087040,1332.370696
1389.386835,-9400.615463,4136.915689,1184.329507
1389.387146,-6513.812290,1915.238745,148.041188
1389.387458,-3552.988522,0.000000,518.144159
1389.387769,-3182.885551,-766.095498,370.102971
1389.388081,-4145.153275,-536.266849,814.226536
1389.388392,-7476.080014,-1072.533697,1702.473667
1389.388704,-12139.377449,-1685.410096,2812.782580
1389.389015,-15322.262999,-2528.115143,4885.359217
1389.389327,-17172.777854,-2068.457845,4811.338623
1389.389638,-15100.201217,229.828649,4367.215058
1389.389950,-10658.965565,2987.772442,2812.782580
1389.390261,-5551.544565,2451.505594,740.205942
1389.390573,-1258.350101,1762.019645,222.061783
1389.390884,1332.370696,1685.410096,-666.185348
1389.391196,518.144159,766.095498,-814.226536
1389.391507,-3923.091493,0.000000,1258.350101
1389.391819,-10066.800811,0.000000,3108.864956
1389.392130,-16728.654289,-1532.190996,5773.606348
1389.392442,-19615.457463,-2834.553343,7920.203579
1389.392753,-19245.354492,-2298.286494,7179.997637
1389.393065,-14434.015869,-306.438199,5107.421000
1389.393376,-6217.729913,842.705048,1776.494261
1389.393688,0.000000,1149.143247,-1258.350101
1389.393999,3775.050304,1838.629195,-3404.947333
1389.394311,4145.153275,2681.334243,-3849.070898
1389.394622,592.164754,2528.115143,-2368.659014
1389.394934,-5995.668130,1915.238745,-0.000000
1389.395246,-12879.583391,-229.828649,2516.700203
1389.395557,-17024.736666,-1532.190996,4145.153275
1389.395869,-19097.313304,-1455.581446,4515.256246
1389.396180,-17098.757260,-1149.143247,3404.947333
1389.396492,-12287.418637,-1532.190996,222.061783
1389.396803,-7550.100608,-842.705048,-1554.432478
1389.397115,-4219.173869,-919.314598,-3330.926739
1389.397426,-2368.659014,-229.828649,-4441.235652
1389.397738,-2294.638420,689.485948,-4515.256246
1389.398049,-3034.844362,2298.286494,-4515.256246
1389.398361,-5921.647536,1608.800546,-4071.132681
1389.398672,-10288.862594,306.438199,-2294.638420
1389.398984,-15322.262999,0.000000,-1702.473667
1389.399295,-17912.983796,1149.143247,-148.041188
1389.399607,-17838.963202,459.657299,888.247130
1389.399918,-16580.613101,-536.266849,1110.308913
1389.400230,-13915.871710,-1915.238745,814.226536
1389.400541,-9178.553681,-2451.505594,-740.205942
1389.400853,-4293.194464,-1915.238745,-1998.556043
1389.401164,-1480.411884,-689.485948,-3627.009116
1389.401476,-1406.391290,-459.657299,-4441.235652
1389.401787,-3997.112087,0.000000,-5181.441594
1389.402099,-8512.368333,536.266849,-4515.256246
1389.402410,-14137.933492,2757.943793,-1998.556043
1389.402722,-18801.230927,3294.210641,888.247130
1389.403033,-19393.395680,1225.752797,2664.741391
1389.403345,-16580.613101,-2604.724693,3849.070898
1389.403656,-10732.986159,-5056.230287,3701.029710
1389.403968,-4811.338623,-5132.839837,1184.329507
1389.404279,-740.205942,-4060.306139,-1554.432478
1389.404591,1406.391290,-2298.286494,-3775.050304
1389.404902,-2294.638420,-2068.457845,-3478.967927
1389.405214,-7624.121203,-306.438199,-1776.494261
1389.405526,-12435.459826,1991.848295,-518.144159
1389.405837,-16062.468941,4213.525239,1332.370696
1389.406149,-14952.160028,5132.839837,2664.741391
1389.406460,-10066.800811,3064.381992,1332.370696
1389.406772,-5403.503377,1072.533697,1332.370696
1389.407083,-2886.803174,-1532.190996,518.144159
1389.407395,-1702.473667,-1838.629195,-296.082377
1389.407706,-3034.844362,-766.095498,148.041188
1389.408018,-8142.265362,-383.047749,740.205942
1389.408329,-12879.583391,-383.047749,2738.761985
1389.408641,-16062.468941,0.000000,3256.906145
1389.408952,-14211.954086,2451.505594,3701.029710
1389.409264,-10288.862594,3294.210641,1850.514855
1389.409575,-6587.832884,2145.067394,1036.288319
1389.409887,-3182.885551,842.705048,148.041188
1389.410198,-592.164754,306.438199,-1554.432478
