#time,accel_x,accel_y,accel_z
1415.251765,-8808.450710,-229.828649,814.226536
1415.252076,-8734.430116,0.000000,74.020594
1415.252387,-8660.409521,76.609550,592.164754
1415.252699,-8660.409521,0.000000,518.144159
1415.253010,-8512.368333,-229.828649,518.144159
1415.253322,-8882.471304,0.000000,518.144159
1415.253633,-9030.512492,-153.219100,518.144159
1415.253944,-8956.491898,0.000000,518.144159
1415.254256,-8808.450710,76.609550,592.164754
1415.254567,-9178.553681,-153.219100,222.061783
1415.254879,-9030.512492,0.000000,444.123565
1415.255190,-8882.471304,-306.438199,222.061783
1415.255501,-8734.430116,0.000000,296.082377
1415.255813,-8882.471304,0.000000,666.185348
1415.256124,-8956.491898,0.000000,444.123565
1415.256436,-8956.491898,-306.438199,444.123565
1415.256747,-8808.450710,0.000000,518.144159
1415.257058,-8956.491898,0.000000,444.123565
1415.257370,-8512.368333,-153.219100,814.226536
1415.257681,-8290.306550,0.000000,814.226536
1415.257993,-9104.533087,0.000000,-0.000000
1415.258304,-8956.491898,0.000000,370.102971
1415.258615,-9030.512492,0.000000,444.123565
1415.258927,-8956.491898,0.000000,592.164754
1415.259238,-9252.574275,-153.219100,370.102971
1415.259550,-8734.430116,0.000000,740.205942
1415.259861,-8290.306550,0.000000,296.082377
1415.260172,-8512.368333,76.609550,370.102971
1415.260484,-8660.409521,229.828649,518.144159
1415.260795,-8882.471304,0.000000,592.164754
1415.261107,-8882.471304,0.000000,444.123565
1415.261418,-9104.533087,0.000000,444.123565
1415.261729,-8660.409521,-383.047749,518.144159
1415.262041,-8734.430116,-153.219100,444.123565
1415.262352,-9030.512492,0.000000,-0.000000
1415.262664,-8882.471304,0.000000,296.082377
1415.262975,-9104.533087,0.000000,518.144159
1415.263286,-9030.512492,0.000000,592.164754
1415.263598,-9104.533087,76.609550,444.123565
1415.263909,-9030.512492,0.000000,444.123565
1415.264221,-8882.471304,76.609550,222.061783
1415.264532,-8882.471304,229.828649,444.123565
1415.264843,-9252.574275,-536.266849,370.102971
1415.265155,-8512.368333,76.609550,962.267725
1415.265466,-8734.430116,0.000000,592.164754
1415.265778,-9030.512492,0.000000,592.164754
1415.266089,-8882.471304,0.000000,444.123565
1415.266400,-8882.471304,76.609550,370.102971
1415.266712,-8808.450710,0.000000,518.144159
1415.267023,-8660.409521,459.657299,296.082377
1415.267334,-8438.347739,0.000000,592.164754
1415.267646,-8808.450710,76.609550,444.123565
1415.267957,-8956.491898,0.000000,444.123565
1415.268269,-8882.471304,0.000000,592.164754
1415.268580,-9030.512492,0.000000,444.123565
1415.268891,-8586.388927,-536.266849,592.164754
1415.269203,-9030.512492,0.000000,444.123565
1415.269514,-8734.430116,76.609550,666.185348
1415.269826,-8734.430116,0.000000,592.164754
1415.270137,-8808.450710,0.000000,740.205942
1415.270448,-9178.553681,0.000000,518.144159
1415.270760,-8956.491898,-229.828649,370.102971
1415.271071,-8734.430116,-153.219100,518.144159
1415.271383,-8734.430116,153.219100,518.144159
1415.271694,-8438.347739,0.000000,370.102971
1415.272005,-8734.430116,-229.828649,666.185348
1415.272317,-8808.450710,-153.219100,666.185348
1415.272628,-9178.553681,0.000000,444.123565
1415.272940,-9030.512492,-76.609550,592.164754
1415.273251,-8882.471304,76.609550,444.123565
1415.273562,-8956.491898,-153.219100,518.144159
1415.273874,-8660.409521,76.609550,-0.000000
1415.274185,-8882.471304,229.828649,518.144159
1415.274497,-9104.533087,0.000000,592.164754
1415.274808,-8808.450710,0.000000,592.164754
1415.275119,-9030.512492,-383.047749,592.164754
1415.275431,-8956.491898,-229.828649,518.144159
1415.275742,-8956.491898,-306.438199,518.144159
1415.276054,-8808.450710,-153.219100,592.164754
1415.276365,-8734.430116,0.000000,444.123565
1415.276676,-9104.533087,-153.219100,222.061783
1415.276988,-8512.368333,0.000000,592.164754
1415.277299,-8586.388927,153.219100,962.267725
1415.277611,-8956.491898,-153.219100,444.123565
1415.277922,-9104.533087,0.000000,370.102971
1415.278233,-8956.491898,-153.219100,518.144159
1415.278545,-9030.512492,-306.438199,444.123565
1415.278856,-8808.450710,689.485948,814.226536
1415.279168,-8660.409521,-612.876398,814.226536
1415.279479,-8882.471304,0.000000,444.123565
1415.279790,-8882.471304,0.000000,444.123565
1415.280102,-8956.491898,0.000000,444.123565
1415.280413,-8882.471304,0.000000,518.144159
1415.280725,-9030.512492,-153.219100,296.082377
1415.281036,-8660.409521,0.000000,592.164754
1415.281347,-9030.512492,-536.266849,296.082377
1415.281659,-10955.047942,383.047749,222.061783
1415.281970,-10955.047942,3140.991542,370.102971
1415.282282,-8364.327145,4979.620737,666.185348
1415.282593,-7846.182985,3830.477490,814.226536
1415.282904,-6439.791695,612.876398,1628.453072
1415.283216,-7254.018232,-1685.410096,-0.000000
1415.283527,-7328.038826,-995.924147,-0.000000
1415.283838,-7698.141797,0.000000,-444.123565
1415.284150,-11399.171507,-1072.533697,-1184.329507
1415.284461,-12583.501014,-229.828649,-666.185348
1415.284773,-10140.821405,383.047749,518.144159
1415.285084,-9030.512492,-306.438199,2146.597232
1415.285395,-9622.677246,-536.266849,3182.885551
1415.285707,-12139.377449,1149.143247,1702.473667
1415.286018,-7698.141797,4290.134789,2516.700203
1415.286330,-4663.297435,5286.058936,1998.556043
1415.286641,-7920.203579,3217.601092,-0.000000
1415.286952,-7031.956449,2987.772442,-814.226536
1415.287264,-7328.038826,3447.429741,-2442.679609
1415.287575,-9326.594869,3753.867940,-1184.329507
1415.287887,-9326.594869,3830.477490,-222.061783
1415.288198,-13545.768739,1455.581446,-1332.370696
1415.288509,-13619.789333,-383.047749,1776.494261
1415.288821,-8068.244768,-1225.752797,2516.700203
1415.289132,-9622.677246,1302.362347,1554.432478
1415.289444,-7920.203579,5439.278036,3034.844362
1415.289755,-8068.244768,5132.839837,1332.370696
1415.290066,-7179.997637,2987.772442,2294.638420
1415.290378,-6291.750507,4749.792088,2368.659014
1415.290689,-8364.327145,6971.469032,444.123565
1415.291001,-7846.182985,6818.249932,-1184.329507
1415.291312,-9548.656652,5209.449386,-1332.370696
1415.291623,-9030.512492,5132.839837,-1554.432478
1415.291935,-11029.068536,5669.106685,-962.267725
1415.292246,-11991.336260,5439.278036,370.102971
1415.292558,-11103.089130,4443.353888,1702.473667
1415.292869,-10584.944971,4213.525239,1924.535449
1415.293180,-8956.491898,5745.716235,2368.659014
1415.293492,-6291.750507,5439.278036,666.185348
1415.293803,-5181.441594,5898.935335,-0.000000
1415.294115,-5107.421000,5056.230287,666.185348
1415.294426,-5329.482782,5362.668486,-518.144159
1415.294737,-6661.853478,4673.182538,-962.267725
1415.295049,-8290.306550,3753.867940,-888.247130
1415.295360,-9622.677246,2528.115143,-370.102971
1415.295672,-10436.903782,842.705048,592.164754
1415.295983,-10436.903782,229.828649,814.226536
1415.296294,-10955.047942,76.609550,2146.597232
1415.296606,-10584.944971,76.609550,2072.576638
1415.296917,-9770.718434,2145.067394,2664.741391
1415.297229,-7994.224174,3753.867940,1924.535449
1415.297540,-6809.894666,3294.210641,370.102971
1415.297851,-6735.874072,3677.258390,-444.123565
1415.298163,-6513.812290,4290.134789,-1184.329507
1415.298474,-5995.668130,4596.572988,-1480.411884
1415.298786,-7550.100608,1225.752797,-1406.391290
1415.299097,-9770.718434,-1378.971896,-666.185348
1415.299408,-11325.150913,-2451.505594,370.102971
1415.299720,-12509.480420,-2451.505594,1480.411884
1415.300031,-13545.768739,-1455.581446,2072.576638
1415.300343,-13619.789333,-919.314598,1406.391290
1415.300654,-12361.439231,1302.362347,1110.308913
1415.300965,-10881.027347,2834.553343,-0.000000
1415.301277,-8290.306550,4290.134789,-444.123565
1415.301588,-6291.750507,4826.401637,-148.041188
1415.301899,-6217.729913,4673.182538,518.144159
1415.302211,-6291.750507,3907.087040,592.164754
1415.302522,-7698.141797,2528.115143,-0.000000
1415.302834,-9992.780217,2068.457845,-74.020594
1415.303145,-11991.336260,1072.533697,-518.144159
1415.303456,-13915.871710,153.219100,-518.144159
1415.303768,-14730.098246,229.828649,370.102971
1415.304079,-14656.077652,1378.971896,370.102971
1415.304391,-11843.295072,2834.553343,1184.329507
1415.304702,-9400.615463,3677.258390,1850.514855
1415.305013,-6513.812290,4060.306139,2220.617826
1415.305325,-3108.864956,4979.620737,1628.453072
1415.305636,-2146.597232,6052.154434,-74.020594
1415.305948,-1702.473667,6435.202183,-1332.370696
1415.306259,-2738.761985,4596.572988,-1480.411884
1415.306570,-7179.997637,3140.991542,-1702.473667
1415.306882,-10732.986159,2757.943793,-814.226536
1415.307193,-13989.892304,3064.381992,148.041188
1415.307505,-15396.283594,2987.772442,2368.659014
1415.307816,-14730.098246,2528.115143,3034.844362
1415.308127,-11473.192101,2834.553343,3478.967927
1415.308439,-7254.018232,3140.991542,2886.803174
1415.308750,-3701.029710,4136.915689,1998.556043
1415.309062,-1480.411884,6205.373534,-0.000000
1415.309373,-2072.576638,7507.735880,-1628.453072
1415.309684,-3849.070898,6511.811733,-1702.473667
1415.309996,-6439.791695,4519.963438,-2072.576638
1415.310307,-8438.347739,3140.991542,-0.000000
1415.310619,-10436.903782,0.000000,-0.000000
1415.310930,-11917.315666,-2221.676944,1332.370696
1415.311241,-12731.542202,-3830.477490,2220.617826
1415.311553,-12731.542202,-2757.943793,2220.617826
1415.311864,-12879.583391,-229.828649,1702.473667
1415.312176,-11695.253884,1991.848295,1998.556043
1415.312487,-11325.150913,4366.744339,1776.494261
1415.312798,-8290.306550,5822.325785,1924.535449
1415.313110,-5773.606348,5209.449386,1924.535449
1415.313421,-6587.832884,3907.087040,296.082377
1415.313733,-5625.565159,3140.991542,-814.226536
1415.314044,-7476.080014,3140.991542,-2516.700203
1415.314355,-9400.615463,3753.867940,-2886.803174
1415.314667,-11251.130318,3983.696590,-2886.803174
1415.314978,-13249.686362,3447.429741,-1554.432478
1415.315290,-13027.624579,1991.848295,666.185348
1415.315601,-12805.562797,842.705048,2516.700203
1415.315912,-12879.583391,1532.190996,2664.741391
1415.316224,-11769.274478,3294.210641,2368.659014
1415.316535,-9474.636058,6358.592633,962.267725
1415.316847,-6957.935855,6741.640382,-0.000000
1415.317158,-6217.729913,5669.106685,-1554.432478
1415.317469,-5551.544565,3830.477490,-1702.473667
1415.317781,-6439.791695,2221.676944,-1480.411884
1415.318092,-8290.306550,1762.019645,-296.082377
1415.318404,-8956.491898,766.095498,962.267725
1415.318715,-9326.594869,-536.266849,962.267725
1415.319026,-7846.182985,-1532.190996,2442.679609
1415.319338,-7772.162391,-1762.019645,1184.329507
1415.319649,-8808.450710,1455.581446,888.247130
1415.319960,-9104.533087,5975.544884,-296.082377
1415.320272,-9770.718434,9346.365076,-1036.288319
1415.320583,-9992.780217,10112.460574,148.041188
1415.320895,-10362.883188,8273.831378,222.061783
1415.321206,-9622.677246,5209.449386,666.185348
1415.321517,-8216.285956,3140.991542,1480.411884
1415.321829,-7254.018232,3524.039291,962.267725
1415.322140,-5033.400406,3983.696590,592.164754
1415.322452,-4367.215058,2681.334243,518.144159
1415.322763,-5403.503377,-1455.581446,888.247130
1415.323074,-5329.482782,-1762.019645,296.082377
1415.323386,-7031.956449,2681.334243,-740.205942
1415.323697,-10066.800811,6052.154434,-666.185348
1415.324009,-13175.665768,6971.469032,-370.102971
1415.324308,-14730.098246,5592.497135,1850.514855
1415.324619,-15396.283594,3524.039291,2590.720797
1415.324931,-13619.789333,2911.162892,3849.070898
1415.325242,-10066.800811,2681.334243,2960.823768
1415.325554,-7698.141797,3064.381992,1184.329507
1415.325865,-3627.009116,-1072.533697,1702.473667
1415.326177,-1924.535449,-5898.935335,296.082377
1415.326488,-4145.153275,-7431.126331,-148.041188
1415.326800,-6735.874072,-3677.258390,-814.226536
1415.327111,-8660.409521,2145.067394,-740.205942
1415.327423,-11843.295072,4749.792088,-0.000000
1415.327734,-16136.489536,3064.381992,1406.391290
1415.328046,-18209.066173,1838.629195,2590.720797
1415.328357,-16506.592507,3677.258390,2368.659014
1415.328669,-10807.006753,7507.735880,1924.535449
1415.328980,-5329.482782,6971.469032,296.082377
1415.329292,-1554.432478,1378.971896,-592.164754
1415.329603,370.102971,-3064.381992,-1554.432478
1415.329915,1184.329507,-3447.429741,-592.164754
1415.330226,-2146.597232,-1225.752797,-296.082377
1415.330538,-9400.615463,0.000000,666.185348
1415.330849,-15988.448347,-1608.800546,1258.350101
1415.331161,-18505.148550,-2681.334243,1332.370696
1415.331472,-17098.757260,-306.438199,1184.329507
1415.331784,-13767.830521,2298.286494,-518.144159
1415.332095,-11325.150913,2834.553343,-1406.391290
1415.332407,-7920.203579,689.485948,-2442.679609
1415.332718,-4219.173869,612.876398,-2368.659014
1415.333030,-2294.638420,1532.190996,-222.061783
1415.333341,-2960.823768,1685.410096,1406.391290
1415.333653,-5329.482782,-689.485948,3923.091493
1415.333964,-9326.594869,-3217.601092,3182.885551
1415.334276,-11621.233289,-383.047749,2220.617826
1415.334587,-12879.583391,5362.668486,-666.185348
1415.334899,-13545.768739,7737.564530,-2442.679609
1415.335210,-12731.542202,6205.373534,-4145.153275
1415.335522,-10140.821405,3677.258390,-4959.379811
1415.335833,-8586.388927,4903.011187,-4737.318029
1415.336145,-7772.162391,6128.763984,-1628.453072
1415.336456,-9992.780217,3140.991542,814.226536
1415.336768,-11843.295072,-1532.190996,4663.297435
1415.337079,-8586.388927,-4366.744339,6439.791695
1415.337391,-5847.626942,-3370.820191,6513.812290
1415.337702,-5847.626942,-3677.258390,3701.029710
1415.338014,-3849.070898,-4213.525239,-222.061783
1415.338325,-3108.864956,-3140.991542,-3849.070898
1415.338637,-3997.112087,-1685.410096,-3478.967927
1415.338948,-8734.430116,1685.410096,-2072.576638
1415.339260,-15840.407159,1685.410096,1036.288319
1415.339571,-18283.086767,-995.924147,3478.967927
1415.339883,-16284.530724,-689.485948,5995.668130
1415.340194,-12213.398043,-153.219100,4663.297435
1415.340506,-8142.265362,2068.457845,2516.700203
1415.340817,-3923.091493,1378.971896,814.226536
1415.341129,2368.659014,-1455.581446,-1480.411884
1415.341440,3775.050304,-1685.410096,-740.205942
1415.341752,-740.205942,-2528.115143,-888.247130
1415.342063,-8290.306550,-2757.943793,-222.061783
1415.342375,-13619.789333,-1915.238745,2368.659014
1415.342686,-16654.633695,-2834.553343,4071.132681
1415.342998,-16580.613101,-2757.943793,3997.112087
1415.343309,-14508.036463,-3447.429741,1480.411884
1415.343621,-11843.295072,-4290.134789,-1554.432478
1415.343932,-6587.832884,-4596.572988,-2220.617826
1415.344244,-3627.009116,-3064.381992,-2886.803174
1415.344556,-5403.503377,-1149.143247,-666.185348
1415.344867,-9474.636058,-919.314598,962.267725
1415.345179,-12361.439231,-2145.067394,4441.235652
1415.345490,-12509.480420,-1455.581446,5921.647536
1415.345802,-10510.924376,1149.143247,4515.256246
1415.346113,-8290.306550,3447.429741,-0.000000
1415.346425,-7254.018232,2451.505594,-3108.864956
1415.346736,-6809.894666,2757.943793,-5921.647536
1415.347048,-6957.935855,4519.963438,-5847.626942
1415.347359,-9918.759623,6128.763984,-5107.421000
1415.347671,-14285.974681,3524.039291,-1702.473667
1415.347982,-16358.551318,919.314598,2146.597232
1415.348294,-14434.015869,-842.705048,4737.318029
1415.348605,-10362.883188,-1302.362347,4959.379811
1415.348917,-6513.812290,-1149.143247,2738.761985
1415.349228,-5625.565159,-1838.629195,-148.041188
1415.349540,-3701.029710,-306.438199,-2812.782580
1415.349851,-2368.659014,2451.505594,-4219.173869
1415.350163,-3478.967927,3907.087040,-3552.988522
1415.350474,-9474.636058,2681.334243,-814.226536
1415.350786,-14063.912898,229.828649,2442.679609
1415.351097,-14952.160028,-995.924147,3923.091493
1415.351409,-12953.603985,1072.533697,3775.050304
1415.351720,-9400.615463,2451.505594,2516.700203
1415.352032,-7254.018232,1838.629195,-962.267725
1415.352343,-4737.318029,153.219100,-2368.659014
1415.352655,-1258.350101,1762.019645,-2664.741391
1415.352966,-1702.473667,2681.334243,-2294.638420
1415.353278,-6513.812290,3140.991542,148.041188
1415.353589,-10955.047942,919.314598,2590.720797
1415.353901,-12065.356855,-2068.457845,4293.194464
1415.354212,-10955.047942,-3524.039291,5773.606348
1415.354524,-8734.430116,-3447.429741,3182.885551
1415.354835,-9474.636058,-2757.943793,740.205942
1415.355147,-8808.450710,-3830.477490,-148.041188
1415.355458,-3404.947333,-2528.115143,-2220.617826
1415.355770,-4145.153275,-766.095498,-518.144159
1415.356081,-7994.224174,-1378.971896,740.205942
1415.356393,-12805.562797,-3447.429741,3775.050304
1415.356704,-14285.974681,-4290.134789,5625.565159
1415.357016,-12139.377449,-2374.896044,5255.462188
1415.357327,-9474.636058,-689.485948,3997.112087
1415.357639,-8142.265362,-1608.800546,-0.000000
1415.357950,-6513.812290,-1991.848295,-2368.659014
1415.358262,-3923.091493,-1455.581446,-4367.215058
1415.358573,-5329.482782,1532.190996,-3923.091493
1415.358885,-11029.068536,1608.800546,-962.267725
1415.359196,-16136.489536,-2145.067394,1110.308913
1415.359508,-16876.695478,-2987.772442,4219.173869
1415.359819,-14063.912898,-2221.676944,5551.544565
1415.360131,-11547.212695,-995.924147,4367.215058
1415.360442,-8956.491898,-1378.971896,592.164754
1415.360754,-5625.565159,-919.314598,-1924.535449
1415.361065,-2590.720797,1149.143247,-3404.947333
1415.361377,-2738.761985,2068.457845,-3997.112087
1415.361688,-8364.327145,2068.457845,-2960.823768
1415.362000,-13545.768739,1608.800546,-296.082377
1415.362311,-14582.057057,995.924147,1776.494261
1415.362623,-13619.789333,1072.533697,2738.761985
1415.362934,-11991.336260,2145.067394,2812.782580
1415.363246,-10436.903782,1149.143247,518.144159
1415.363557,-8512.368333,536.266849,-2146.597232
1415.363869,-4367.215058,3600.648841,-3256.906145
1415.364180,-2886.803174,5439.278036,-2812.782580
1415.364492,-4811.338623,5975.544884,-2368.659014
1415.364803,-8734.430116,2681.334243,-148.041188
1415.365115,-10510.924376,0.000000,1702.473667
1415.365426,-9918.759623,0.000000,3034.844362
1415.365738,-8068.244768,229.828649,2146.597232
1415.366049,-8068.244768,0.000000,370.102971
1415.366361,-8290.306550,-2298.286494,-1406.391290
1415.366672,-3997.112087,-2298.286494,-1998.556043
1415.366984,-3775.050304,383.047749,-1702.473667
1415.367295,-8068.244768,612.876398,-148.041188
1415.367607,-12509.480420,612.876398,1998.556043
1415.367918,-14211.954086,-689.485948,4367.215058
1415.368230,-11399.171507,0.000000,5181.441594
1415.368541,-8438.347739,0.000000,4737.318029
1415.368853,-7105.977043,-1225.752797,592.164754
1415.369164,-5033.400406,0.000000,-1850.514855
1415.369476,-2368.659014,-536.266849,-2886.803174
1415.369787,-1924.535449,-383.047749,-2516.700203
1415.370099,-7476.080014,-536.266849,-0.000000
1415.370410,-12583.501014,-2911.162892,1850.514855
1415.370722,-15322.262999,-4979.620737,3997.112087
1415.371033,-14285.974681,-3983.696590,5699.585753
1415.371345,-12065.356855,-1762.019645,4515.256246
1415.371656,-11325.150913,-2681.334243,1850.514855
1415.371968,-8512.368333,-4213.525239,-296.082377
1415.372279,-5551.544565,-2451.505594,-1554.432478
1415.372591,-4293.194464,-383.047749,-1776.494261
1415.372902,-7328.038826,229.828649,-2294.638420
1415.373214,-11695.253884,-229.828649,-0.000000
1415.373525,-12657.521608,-919.314598,1998.556043
1415.373837,-12583.501014,-1378.971896,3627.009116
1415.374148,-12435.459826,-919.314598,3034.844362
1415.374460,-12509.480420,536.266849,1628.453072
1415.374771,-11029.068536,1225.752797,-370.102971
1415.375083,-7105.977043,2604.724693,-1628.453072
1415.375394,-6069.688724,3830.477490,-1924.535449
1415.375706,-7031.956449,3830.477490,-1924.535449
1415.376017,-9326.594869,2374.896044,-222.061783
1415.376329,-10658.965565,1762.019645,1776.494261
1415.376640,-10066.800811,1608.800546,2516.700203
1415.376952,-8808.450710,995.924147,1850.514855
1415.377263,-7328.038826,-306.438199,148.041188
1415.377575,-8438.347739,-1149.143247,-1776.494261
1415.377886,-5699.585753,0.000000,-1702.473667
1415.378198,-4737.318029,2451.505594,-3256.906145
1415.378509,-9030.512492,3370.820191,-1258.350101
1415.378821,-11695.253884,2528.115143,148.041188
1415.379132,-12361.439231,2068.457845,2516.700203
1415.379444,-9844.739029,3140.991542,4219.173869
1415.379755,-7476.080014,2911.162892,2886.803174
1415.380067,-5255.462188,1149.143247,666.185348
1415.380378,-3701.029710,1762.019645,-2368.659014
1415.380690,-1850.514855,2298.286494,-4071.132681
1415.381001,-2072.576638,1991.848295,-4663.297435
1415.381313,-7179.997637,2451.505594,-3108.864956
1415.381624,-11621.233289,229.828649,592.164754
1415.381936,-14434.015869,-3370.820191,3330.926739
1415.382247,-14359.995275,-4213.525239,5921.647536
1415.382559,-12065.356855,-1608.800546,4737.318029
1415.382870,-9400.615463,-1532.190996,3330.926739
1415.383182,-6365.771101,-4290.134789,-296.082377
1415.383493,-3108.864956,-2604.724693,-1184.329507
1415.383805,-1702.473667,-995.924147,-2294.638420
1415.384116,-4145.153275,-1762.019645,-2368.659014
1415.384428,-9252.574275,-2911.162892,222.061783
1415.384739,-12953.603985,-3983.696590,2368.659014
1415.385051,-14063.912898,-4290.134789,4589.276840
1415.385362,-13915.871710,-4213.525239,4737.318029
1415.385674,-14063.912898,-2987.772442,3108.864956
1415.385985,-12361.439231,-2451.505594,296.082377
1415.386297,-8956.491898,-2451.505594,-1628.453072
1415.386608,-6291.750507,-689.485948,-2220.617826
1415.386920,-6365.771101,536.266849,-1998.556043
1415.387231,-10362.883188,459.657299,-962.267725
1415.387543,-11843.295072,-536.266849,1850.514855
1415.387854,-11621.233289,-766.095498,2442.679609
1415.388166,-11251.130318,0.000000,2368.659014
1415.388477,-9844.739029,-383.047749,740.205942
1415.388789,-9770.718434,-689.485948,-592.164754
1415.389100,-7994.224174,-229.828649,-1110.308913
1415.389412,-6809.894666,1302.362347,-1036.288319
1415.389723,-9326.594869,2528.115143,-370.102971
1415.390035,-12953.603985,2451.505594,1406.391290
1415.390346,-14434.015869,1762.019645,2960.823768
1415.390658,-12361.439231,1838.629195,4663.297435
1415.390969,-8512.368333,1608.800546,3923.091493
1415.391281,-6217.729913,1915.238745,1184.329507
1415.391592,-6365.771101,1762.019645,-2368.659014
1415.391904,-4145.153275,2604.724693,-3330.926739
1415.392215,-814.226536,4443.353888,-4885.359217
1415.392527,-4219.173869,5209.449386,-3701.029710
1415.392838,-8586.388927,4136.915689,-1406.391290
1415.393150,-12509.480420,1915.238745,2072.576638
1415.393461,-13619.789333,1149.143247,5329.482782
1415.393773,-11029.068536,1532.190996,5477.523971
1415.394084,-7402.059420,1302.362347,3849.070898
1415.394396,-5477.523971,0.000000,-74.020594
1415.394707,-2442.679609,766.095498,-2368.659014
1415.395019,444.123565,2834.553343,-3552.988522
1415.395330,-1998.556043,4290.134789,-3256.906145
1415.395642,-7994.224174,2145.067394,-814.226536
1415.395953,-12065.356855,-1072.533697,1480.411884
1415.396265,-13545.768739,-1838.629195,4145.153275
1415.396577,-11917.315666,-1378.971896,4959.379811
1415.396888,-11399.171507,-1608.800546,3923.091493
1415.397200,-9844.739029,-2757.943793,1776.494261
1415.397511,-6735.874072,-2604.724693,-962.267725
1415.397823,-4145.153275,-383.047749,-2294.638420
1415.398134,-5033.400406,-536.266849,-1184.329507
1415.398446,-9474.636058,-1608.800546,-0.000000
1415.398757,-12361.439231,-3524.039291,2516.700203
1415.399069,-11991.336260,-4443.353888,3775.050304
1415.399380,-12435.459826,-3983.696590,3256.906145
1415.399692,-10881.027347,-2451.505594,1184.329507
1415.400003,-9400.615463,-2911.162892,-1184.329507
1415.400315,-7402.059420,-3447.429741,-2368.659014
1415.400626,-6513.812290,-2298.286494,-2368.659014
1415.400938,-9770.718434,-1685.410096,-962.267725
1415.401249,-13767.830521,-1838.629195,370.102971
1415.401561,-16136.489536,-2298.286494,2812.782580
1415.401872,-15470.304188,-1532.190996,3923.091493
1415.402184,-12953.603985,-842.705048,3108.864956
1415.402495,-10732.986159,0.000000,518.144159
1415.402807,-8142.265362,-383.047749,-1258.350101
1415.403118,-4737.318029,995.924147,-4219.173869
1415.403430,-3701.029710,2068.457845,-3478.967927
1415.403741,-5773.606348,2604.724693,-2368.659014
1415.404053,-10510.924376,1532.190996,-666.185348
1415.404364,-13841.851115,689.485948,2072.576638
1415.404676,-13989.892304,689.485948,4145.153275
1415.404987,-13027.624579,1532.190996,3478.967927
1415.405299,-10362.883188,1532.190996,2368.659014
1415.405610,-7105.977043,229.828649,148.041188
1415.405922,-5477.523971,229.828649,-1554.432478
1415.406233,-2812.782580,1685.410096,-2368.659014
1415.406545,-2368.659014,4290.134789,-3701.029710
1415.406856,-5107.421000,5209.449386,-1924.535449
1415.407168,-8660.409521,3830.477490,888.247130
1415.407479,-11103.089130,2298.286494,2738.761985
1415.407791,-9696.697840,3294.210641,4293.194464
1415.408102,-9326.594869,2145.067394,2960.823768
1415.408414,-7698.141797,306.438199,740.205942
1415.408725,-4663.297435,995.924147,-2220.617826
1415.409037,-3108.864956,2681.334243,-2886.803174
1415.409348,-3627.009116,1991.848295,-2738.761985
1415.409660,-7105.977043,1455.581446,-0.000000
1415.409971,-11103.089130,995.924147,1184.329507
1415.410283,-11991.336260,0.000000,3478.967927
1415.410594,-11029.068536,-1302.362347,3997.112087
1415.410906,-8438.347739,-995.924147,2886.803174
1415.411217,-7550.100608,-2987.772442,814.226536
1415.411529,-5255.462188,-4903.011187,-666.185348
1415.411840,-3627.009116,-4060.306139,-1998.556043
1415.412152,-5699.585753,-1915.238745,-148.041188
1415.412463,-11029.068536,-3294.210641,1924.535449
1415.412775,-15026.180623,-5056.230287,4293.194464
1415.413086,-15988.448347,-4826.401637,6069.688724
1415.413398,-13767.830521,-3064.381992,5329.482782
1415.413709,-10362.883188,-842.705048,2146.597232
1415.414021,-8882.471304,-459.657299,-1702.473667
1415.414332,-6809.894666,459.657299,-3849.070898
1415.414644,-3182.885551,842.705048,-5033.400406
1415.414955,-4959.379811,1915.238745,-3627.009116
1415.415267,-11325.150913,-306.438199,-1258.350101
1415.415578,-15026.180623,-1532.190996,1850.514855
1415.415890,-15766.386565,-1991.848295,3849.070898
1415.416201,-15766.386565,-2068.457845,4219.173869
1415.416513,-12287.418637,-1302.362347,3627.009116
1415.416824,-10214.842000,-2528.115143,-0.000000
1415.417136,-7550.100608,-3140.991542,-1184.329507
1415.417447,-4145.153275,-1149.143247,-2516.700203
1415.417759,-5625.565159,689.485948,-2664.741391
1415.418070,-10436.903782,1608.800546,-740.205942
1415.418382,-12731.542202,1149.143247,2220.617826
1415.418693,-14359.995275,306.438199,3701.029710
1415.419005,-12435.459826,1302.362347,4663.297435
1415.419316,-9548.656652,2221.676944,2294.638420
1415.419628,-8438.347739,1762.019645,-1702.473667
1415.419939,-4515.256246,3140.991542,-1850.514855
1415.420251,-2886.803174,3907.087040,-2812.782580
1415.420562,-3034.844362,4213.525239,-2886.803174
1415.420874,-6439.791695,4136.915689,-1332.370696
1415.421185,-10510.924376,2451.505594,666.185348
1415.421497,-11473.192101,2221.676944,2812.782580
1415.421808,-9326.594869,2451.505594,2960.823768
1415.422120,-5773.606348,2451.505594,2442.679609
1415.422431,-5403.503377,-842.705048,-962.267725
1415.422743,-3108.864956,-1072.533697,-2220.617826
1415.423054,-444.123565,1455.581446,-3849.070898
1415.423366,-3404.947333,1762.019645,-2220.617826
1415.423677,-7846.182985,612.876398,370.102971
1415.423989,-13175.665768,-2604.724693,3627.009116
1415.424300,-14878.139434,-3064.381992,6217.729913
1415.424611,-12657.521608,-2604.724693,6957.935855
1415.424923,-10732.986159,-1608.800546,2960.823768
1415.425234,-8734.430116,-1378.971896,592.164754
1415.425545,-6069.688724,-2451.505594,-2368.659014
1415.425857,-2886.803174,-2451.505594,-4293.194464
1415.426168,-3627.009116,-383.047749,-2590.720797
1415.426480,-9252.574275,-153.219100,-1036.288319
1415.426791,-13175.665768,-3370.820191,2072.576638
1415.427102,-14730.098246,-4979.620737,4589.276840
1415.427414,-13841.851115,-5439.278036,5995.668130
1415.427725,-11843.295072,-5132.839837,4145.153275
1415.428036,-10658.965565,-4749.792088,592.164754
1415.428348,-8586.388927,-3217.601092,-1628.453072
1415.428659,-5477.523971,-1225.752797,-3404.947333
1415.428970,-5551.544565,-842.705048,-3182.885551
1415.429282,-9696.697840,-612.876398,-1480.411884
1415.429593,-13545.768739,-919.314598,518.144159
1415.429904,-16062.468941,-1072.533697,2516.700203
1415.430216,-15396.283594,383.047749,3701.029710
1415.430527,-13323.706956,1608.800546,1924.535449
1415.430839,-10436.903782,995.924147,-0.000000
1415.431150,-6661.853478,383.047749,-1184.329507
1415.431461,-3849.070898,459.657299,-3182.885551
1415.431773,-3849.070898,1991.848295,-2072.576638
1415.432084,-7550.100608,2528.115143,-814.226536
1415.432395,-12657.521608,153.219100,1258.350101
1415.432707,-14285.974681,-459.657299,3256.906145
1415.433018,-12805.562797,612.876398,3404.947333
1415.433329,-8882.471304,1991.848295,2368.659014
1415.433641,-8364.327145,919.314598,-296.082377
1415.433952,-5995.668130,-306.438199,-1850.514855
1415.434264,-1850.514855,2757.943793,-3627.009116
1415.434575,-1924.535449,3983.696590,-2146.597232
1415.434886,-7031.956449,4749.792088,-74.020594
1415.435198,-11843.295072,3217.601092,2442.679609
1415.435509,-11843.295072,2834.553343,4219.173869
1415.435820,-9548.656652,3294.210641,4811.338623
1415.436132,-7105.977043,3217.601092,3256.906145
1415.436443,-7031.956449,2987.772442,-814.226536
1415.436754,-4811.338623,1915.238745,-2516.700203
1415.437066,-1702.473667,2374.896044,-4737.318029
1415.437377,-1332.370696,3294.210641,-2960.823768
1415.437688,-4959.379811,2911.162892,-2294.638420
1415.438000,-11473.192101,-229.828649,1332.370696
1415.438311,-14508.036463,-2451.505594,4293.194464
1415.438623,-12953.603985,-2298.286494,5699.585753
1415.438934,-10584.944971,229.828649,5477.523971
1415.439245,-9030.512492,-1838.629195,2886.803174
1415.439557,-8512.368333,-4903.011187,-222.061783
1415.439868,-3701.029710,-3983.696590,-1406.391290
1415.440179,-2368.659014,-2221.676944,-1924.535449
1415.440491,-6957.935855,-1608.800546,-296.082377
1415.440802,-11991.336260,-2451.505594,1628.453072
1415.441113,-15174.221811,-3830.477490,2886.803174
1415.441425,-15840.407159,-4749.792088,4219.173869
1415.441736,-13175.665768,-1685.410096,3404.947333
1415.442048,-11991.336260,-229.828649,222.061783
1415.442359,-9400.615463,-1302.362347,-2072.576638
1415.442670,-4441.235652,-2374.896044,-3034.844362
1415.442982,-4293.194464,-2374.896044,-3108.864956
1415.443293,-6809.894666,-1302.362347,-1554.432478
1415.443604,-11621.233289,-2528.115143,814.226536
1415.443916,-15322.262999,-4826.401637,2146.597232
1415.444227,-14656.077652,-3524.039291,3404.947333
1415.444538,-13545.768739,-2757.943793,2220.617826
1415.444850,-11029.068536,-3524.039291,148.041188
1415.445161,-9918.759623,-3217.601092,-2294.638420
1415.445473,-7698.141797,-1838.629195,-3330.926739
1415.445784,-5995.668130,2298.286494,-3256.906145
1415.446095,-10510.924376,2374.896044,-2516.700203
1415.446407,-13175.665768,3753.867940,740.205942
1415.446718,-13471.748144,2145.067394,3701.029710
1415.447029,-11917.315666,1685.410096,4367.215058
1415.447341,-8660.409521,1838.629195,3849.070898
1415.447652,-7105.977043,2374.896044,666.185348
1415.447963,-5107.421000,2298.286494,-2072.576638
1415.448275,-4293.194464,2374.896044,-4589.276840
1415.448586,-3330.926739,3447.429741,-3701.029710
1415.448897,-5329.482782,4826.401637,-3552.988522
1415.449209,-9622.677246,3064.381992,-518.144159
1415.449520,-11547.212695,1378.971896,2442.679609
1415.449832,-12361.439231,612.876398,4959.379811
1415.450143,-8290.306550,1072.533697,5403.503377
1415.450454,-4737.318029,1532.190996,3256.906145
1415.450766,-4293.194464,-1302.362347,-370.102971
1415.451077,-740.205942,612.876398,-2738.761985
1415.451388,444.123565,3370.820191,-2442.679609
1415.451700,-3997.112087,2911.162892,-2072.576638
1415.452011,-9770.718434,995.924147,1406.391290
1415.452322,-14434.015869,-536.266849,3775.050304
1415.452634,-14137.933492,-536.266849,5699.585753
1415.452945,-11843.295072,689.485948,5403.503377
1415.453257,-10584.944971,306.438199,2146.597232
1415.453568,-7476.080014,-229.828649,-370.102971
1415.453879,-2294.638420,0.000000,-2664.741391
1415.454191,-1184.329507,459.657299,-2664.741391
1415.454502,-4367.215058,995.924147,-1184.329507
1415.454813,-10214.842000,-842.705048,1184.329507
1415.455125,-13989.892304,-3217.601092,4145.153275
1415.455436,-14434.015869,-3753.867940,4737.318029
1415.455747,-12435.459826,-3907.087040,4663.297435
1415.456059,-10955.047942,-3907.087040,2960.823768
1415.456370,-9696.697840,-5209.449386,-814.226536
1415.456682,-7179.997637,-3983.696590,-2590.720797
1415.456993,-5477.523971,-995.924147,-3627.009116
1415.457304,-8882.471304,-306.438199,-2664.741391
1415.457616,-12435.459826,-1149.143247,-148.041188
1415.457927,-14508.036463,-3217.601092,2812.782580
1415.458238,-14285.974681,-3447.429741,3849.070898
1415.458550,-13175.665768,-2757.943793,3997.112087
1415.458861,-12139.377449,-1072.533697,1554.432478
1415.459172,-10214.842000,0.000000,-1850.514855
1415.459484,-6587.832884,766.095498,-3478.967927
1415.459795,-4811.338623,1225.752797,-4219.173869
1415.460106,-6809.894666,2757.943793,-2886.803174
1415.460418,-11029.068536,1838.629195,-444.123565
1415.460729,-14137.933492,689.485948,2072.576638
1415.461041,-14285.974681,919.314598,3552.988522
1415.461352,-12361.439231,1302.362347,3701.029710
1415.461663,-7920.203579,842.705048,2146.597232
1415.461975,-5921.647536,-766.095498,-1850.514855
1415.462286,-4737.318029,612.876398,-4145.153275
1415.462597,-2516.700203,3447.429741,-4589.276840
1415.462909,-4515.256246,5592.497135,-3849.070898
1415.463220,-9548.656652,4366.744339,-74.020594
1415.463531,-12213.398043,1762.019645,3404.947333
1415.463843,-12731.542202,689.485948,5107.421000
1415.464154,-9326.594869,1838.629195,5329.482782
1415.464466,-5921.647536,3294.210641,2516.700203
1415.464777,-3701.029710,2834.553343,-1850.514855
1415.465088,444.123565,3294.210641,-4219.173869
1415.465400,888.247130,2757.943793,-3849.070898
1415.465711,-3256.906145,1991.848295,-2886.803174
1415.466022,-9548.656652,1685.410096,-0.000000
1415.466334,-13989.892304,-612.876398,2960.823768
1415.466645,-13767.830521,-1685.410096,4811.338623
1415.466956,-13249.686362,-2604.724693,5921.647536
1415.467268,-10807.006753,-3447.429741,4663.297435
1415.467579,-7550.100608,-4136.915689,1332.370696
1415.467890,-3775.050304,-4290.134789,-1332.370696
1415.468202,-888.247130,-766.095498,-2664.741391
1415.468513,-3330.926739,306.438199,-1702.473667
1415.468825,-9400.615463,-919.314598,296.082377
1415.469136,-14063.912898,-3370.820191,3627.009116
1415.469447,-14656.077652,-2451.505594,5181.441594
1415.469759,-14137.933492,-459.657299,5107.421000
1415.470070,-12731.542202,-1072.533697,2812.782580
1415.470381,-10807.006753,-2911.162892,222.061783
1415.470693,-7179.997637,-2528.115143,-2072.576638
1415.471004,-3552.988522,-1149.143247,-2516.700203
1415.471315,-6069.688724,-995.924147,-2812.782580
1415.471627,-11473.192101,-919.314598,-2220.617826
1415.471938,-13989.892304,-612.876398,814.226536
1415.472250,-14359.995275,-766.095498,3404.947333
1415.472561,-13397.727550,-689.485948,3849.070898
1415.472872,-12509.480420,-2528.115143,2516.700203
1415.473184,-10807.006753,-2987.772442,-74.020594
1415.473495,-6883.915261,-1685.410096,-1702.473667
1415.473806,-4589.276840,1378.971896,-3552.988522
1415.474118,-7105.977043,3064.381992,-3552.988522
1415.474429,-11473.192101,2298.286494,-962.267725
1415.474740,-14359.995275,-383.047749,2516.700203
1415.475052,-15692.365970,995.924147,4811.338623
1415.475363,-13249.686362,2604.724693,4959.379811
1415.475675,-9548.656652,2145.067394,2146.597232
1415.475986,-6143.709319,842.705048,-0.000000
1415.476297,-3552.988522,1455.581446,-2960.823768
1415.476609,-444.123565,4136.915689,-5181.441594
1415.476920,-2220.617826,6818.249932,-5625.565159
1415.477231,-7254.018232,6358.592633,-3108.864956
1415.477543,-11769.274478,3600.648841,-444.123565
1415.477854,-13175.665768,1608.800546,3552.988522
1415.478165,-10362.883188,-612.876398,4663.297435
1415.478477,-7550.100608,-229.828649,3923.091493
1415.478788,-5255.462188,-1685.410096,1332.370696
1415.479099,-2738.761985,-1225.752797,-2368.659014
1415.479411,222.061783,612.876398,-2886.803174
1415.479722,-1036.288319,2298.286494,-3034.844362
1415.480034,-6587.832884,2528.115143,-0.000000
1415.480345,-10510.924376,689.485948,1702.473667
1415.480656,-14359.995275,-1302.362347,3627.009116
1415.480968,-13101.645173,-842.705048,5921.647536
1415.481279,-11177.109724,0.000000,4071.132681
1415.481590,-10066.800811,-1378.971896,2072.576638
1415.481902,-7105.977043,-2987.772442,-592.164754
1415.482213,-2812.782580,-2681.334243,-2368.659014
1415.482524,-3256.906145,536.266849,-1776.494261
1415.482836,-7402.059420,0.000000,-370.102971
1415.483147,-12139.377449,-2221.676944,2146.597232
1415.483459,-14434.015869,-3447.429741,3775.050304
1415.483770,-13693.809927,-3294.210641,5033.400406
1415.484081,-11029.068536,-3600.648841,3108.864956
1415.484393,-9548.656652,-4213.525239,888.247130
1415.484704,-8216.285956,-4979.620737,-2072.576638
1415.485015,-5181.441594,-3677.258390,-3404.947333
1415.485327,-6883.915261,-1762.019645,-2664.741391
1415.485638,-10881.027347,-689.485948,740.205942
1415.485949,-15100.201217,-2528.115143,3034.844362
1415.486261,-17246.798449,-4060.306139,4515.256246
1415.486572,-14582.057057,-2604.724693,5329.482782
1415.486884,-12361.439231,229.828649,1850.514855
1415.487195,-9474.636058,1762.019645,370.102971
1415.487506,-6587.832884,2068.457845,-3478.967927
1415.487818,-4367.215058,2145.067394,-4589.276840
1415.488129,-4737.318029,3064.381992,-3404.947333
1415.488440,-9178.553681,3140.991542,-2146.597232
1415.488752,-14211.954086,1378.971896,1332.370696
1415.489063,-15322.262999,0.000000,3775.050304
1415.489374,-13249.686362,-306.438199,4589.276840
1415.489686,-8808.450710,153.219100,3775.050304
1415.489997,-8290.306550,459.657299,444.123565
1415.490308,-5699.585753,-536.266849,-592.164754
1415.490620,518.144159,1991.848295,-4145.153275
1415.490931,0.000000,4826.401637,-2960.823768
1415.491243,-6069.688724,4903.011187,-2368.659014
1415.491554,-10881.027347,2681.334243,1036.288319
1415.491865,-11991.336260,2911.162892,2738.761985
1415.492177,-10436.903782,2451.505594,3034.844362
1415.492488,-7105.977043,2911.162892,2368.659014
1415.492799,-6957.935855,2298.286494,-296.082377
1415.493111,-5329.482782,689.485948,-1924.535449
1415.493422,-1702.473667,-612.876398,-2442.679609
1415.493733,-1998.556043,689.485948,-1480.411884
1415.494045,-6883.915261,2068.457845,-1110.308913
1415.494356,-12879.583391,689.485948,1184.329507
1415.494668,-13397.727550,-1302.362347,3182.885551
1415.494979,-11029.068536,-536.266849,3627.009116
1415.495290,-8438.347739,459.657299,4219.173869
1415.495602,-7624.121203,-2451.505594,1036.288319
1415.495913,-7179.997637,-4443.353888,-814.226536
1415.496224,-3108.864956,-2374.896044,-1850.514855
1415.496536,-3034.844362,-2298.286494,-1406.391290
1415.496847,-8068.244768,-3140.991542,222.061783
1415.497158,-13989.892304,-3370.820191,2442.679609
1415.497470,-16580.613101,-4366.744339,4219.173869
1415.497781,-15174.221811,-3370.820191,4071.132681
1415.498092,-13693.809927,-1685.410096,3552.988522
1415.498404,-11843.295072,-1532.190996,592.164754
1415.498715,-8882.471304,-3294.210641,-2590.720797
1415.499027,-5847.626942,-2451.505594,-4515.256246
1415.499338,-4885.359217,689.485948,-3108.864956
1415.499649,-8290.306550,536.266849,-2368.659014
1415.499961,-12805.562797,-766.095498,1480.411884
1415.500272,-14952.160028,-3064.381992,3775.050304
1415.500583,-15174.221811,-3217.601092,4515.256246
1415.500895,-13249.686362,-1838.629195,4293.194464
1415.501206,-10732.986159,-1608.800546,2220.617826
1415.501517,-9400.615463,-1838.629195,-1258.350101
1415.501829,-6217.729913,-1225.752797,-2886.803174
1415.502140,-5403.503377,1608.800546,-2886.803174
1415.502452,-8142.265362,2757.943793,-1702.473667
1415.502763,-11473.192101,2374.896044,1258.350101
1415.503074,-14878.139434,1072.533697,2516.700203
1415.503386,-12287.418637,1532.190996,3552.988522
1415.503697,-8512.368333,3677.258390,2146.597232
1415.504008,-8216.285956,3447.429741,-0.000000
1415.504320,-5329.482782,1991.848295,-1332.370696
1415.504631,-1332.370696,1991.848295,-4663.297435
1415.504942,-1110.308913,4519.963438,-2886.803174
1415.505254,-5551.544565,4979.620737,-1184.329507
1415.505565,-11103.089130,2757.943793,1480.411884
1415.505877,-12435.459826,1532.190996,3923.091493
1415.506188,-11029.068536,612.876398,4367.215058
1415.506499,-6587.832884,1455.581446,3108.864956
1415.506811,-5107.421000,2528.115143,-814.226536
1415.507122,-4293.194464,2068.457845,-3034.844362
1415.507433,-370.102971,306.438199,-4219.173869
1415.507745,-666.185348,306.438199,-2664.741391
1415.508056,-5329.482782,766.095498,-1850.514855
1415.508367,-12583.501014,-383.047749,1258.350101
1415.508679,-16136.489536,-3370.820191,4367.215058
1415.508990,-14359.995275,-2528.115143,5403.503377
1415.509301,-11177.109724,-536.266849,5995.668130
1415.509613,-9178.553681,-2221.676944,3108.864956
1415.509924,-8290.306550,-3524.039291,-0.000000
1415.510236,-3923.091493,-2681.334243,-2220.617826
1415.510547,-1480.411884,-1455.581446,-2442.679609
1415.510858,-4219.173869,-1225.752797,-1628.453072
1415.511170,-9696.697840,-2221.676944,-370.102971
1415.511481,-13545.768739,-3907.087040,2294.638420
1415.511792,-13989.892304,-4903.011187,3923.091493
1415.512104,-14211.954086,-3217.601092,4293.194464
1415.512415,-13989.892304,-3064.381992,3108.864956
1415.512726,-12953.603985,-4366.744339,592.164754
1415.513038,-8882.471304,-3907.087040,-1480.411884
1415.513349,-6809.894666,-1302.362347,-3256.906145
1415.513661,-7920.203579,0.000000,-1850.514855
1415.513972,-10955.047942,0.000000,-296.082377
1415.514283,-14285.974681,-1225.752797,2072.576638
1415.514595,-14063.912898,-919.314598,3108.864956
1415.514906,-12509.480420,76.609550,3256.906145
1415.515217,-11177.109724,536.266849,1406.391290
1415.515529,-9474.636058,-229.828649,-666.185348
1415.515840,-5921.647536,459.657299,-2368.659014
1415.516151,-4515.256246,3524.039291,-2072.576638
1415.516463,-8068.244768,4443.353888,-1850.514855
1415.516774,-12583.501014,3753.867940,-0.000000
1415.517086,-14582.057057,2221.676944,2590.720797
1415.517397,-13471.748144,2298.286494,3552.988522
1415.517708,-8734.430116,2681.334243,3034.844362
1415.518020,-7550.100608,1915.238745,-0.000000
1415.518331,-5699.585753,766.095498,-1332.370696
1415.518642,0.000000,1455.581446,-4367.215058
1415.518954,888.247130,3983.696590,-3997.112087
1415.519265,-3182.885551,4749.792088,-2220.617826
1415.519576,-9474.636058,3524.039291,370.102971
1415.519888,-12879.583391,1991.848295,3552.988522
1415.520199,-11325.150913,2298.286494,4959.379811
1415.520510,-8290.306550,2911.162892,4885.359217
1415.520822,-7254.018232,2911.162892,1628.453072
1415.521133,-6291.750507,1685.410096,-1036.288319
1415.521445,-1850.514855,306.438199,-3775.050304
1415.521756,444.123565,1991.848295,-2886.803174
1415.522067,-2812.782580,2374.896044,-2664.741391
1415.522379,-8956.491898,383.047749,-1628.453072
1415.522690,-12879.583391,-1991.848295,1628.453072
1415.523001,-12509.480420,-2911.162892,4071.132681
1415.523313,-10732.986159,-2068.457845,4959.379811
1415.523624,-11547.212695,-3907.087040,3701.029710
1415.523935,-11769.274478,-5286.058936,1924.535449
1415.524247,-7254.018232,-5439.278036,296.082377
1415.524558,-3701.029710,-3753.867940,-888.247130
1415.524870,-5847.626942,-3140.991542,-1110.308913
1415.525181,-10584.944971,-2451.505594,222.061783
1415.525492,-14211.954086,-3370.820191,1480.411884
1415.525804,-14137.933492,-3217.601092,2886.803174
1415.526115,-12509.480420,-2451.505594,3997.112087
1415.526426,-12583.501014,-2834.553343,1998.556043
1415.526738,-10881.027347,-3907.087040,148.041188
1415.527049,-8216.285956,-3600.648841,-2368.659014
1415.527360,-6291.750507,-306.438199,-2664.741391
1415.527672,-8216.285956,306.438199,-2294.638420
1415.527983,-12805.562797,-1225.752797,-592.164754
1415.528294,-14952.160028,-2145.067394,2072.576638
1415.528606,-15544.324782,-2068.457845,3330.926739
1415.528917,-14137.933492,-1149.143247,3552.988522
1415.529228,-12139.377449,-383.047749,2146.597232
1415.529540,-9992.780217,-1378.971896,-222.061783
1415.529851,-5921.647536,-1149.143247,-1110.308913
1415.530162,-3404.947333,1072.533697,-3034.844362
1415.530474,-4811.338623,3600.648841,-1924.535449
1415.530785,-10140.821405,4213.525239,-222.061783
1415.531096,-12731.542202,2834.553343,2294.638420
1415.531408,-12805.562797,2528.115143,4145.153275
1415.531719,-11843.295072,3907.087040,4219.173869
1415.532030,-9474.636058,4366.744339,2368.659014
1415.532342,-5995.668130,3600.648841,-962.267725
1415.532653,-1998.556043,3447.429741,-2960.823768
1415.532964,592.164754,4519.963438,-4959.379811
1415.533276,-814.226536,4903.011187,-3627.009116
1415.533587,-5995.668130,4903.011187,-1850.514855
1415.533898,-10066.800811,2298.286494,1258.350101
1415.534210,-10066.800811,2221.676944,3330.926739
1415.534521,-9844.739029,2145.067394,3923.091493
1415.534832,-8142.265362,2145.067394,2960.823768
1415.535143,-6809.894666,76.609550,666.185348
1415.535455,-3182.885551,-1685.410096,-666.185348
1415.535766,-222.061783,-919.314598,-2220.617826
1415.536077,-3182.885551,689.485948,-1110.308913
1415.536389,-9474.636058,1072.533697,-0.000000
1415.536700,-13915.871710,-536.266849,1776.494261
1415.537011,-14285.974681,-1608.800546,3627.009116
1415.537323,-12509.480420,-536.266849,4145.153275
1415.537634,-10732.986159,-306.438199,1850.514855
1415.537945,-9474.636058,-2221.676944,-74.020594
1415.538257,-6513.812290,-3677.258390,-740.205942
1415.538568,-3256.906145,-3907.087040,-2590.720797
1415.538879,-4737.318029,-1608.800546,-1702.473667
1415.539191,-9844.739029,-2221.676944,-370.102971
1415.539502,-14582.057057,-3753.867940,1480.411884
1415.539813,-15026.180623,-4060.306139,3923.091493
1415.540125,-14582.057057,-3370.820191,3997.112087
1415.540436,-13323.706956,-3294.210641,3330.926739
1415.540747,-11399.171507,-3830.477490,592.164754
1415.541059,-8512.368333,-3983.696590,-592.164754
1415.541370,-5477.523971,-3140.991542,-2590.720797
1415.541681,-6661.853478,-612.876398,-2368.659014
1415.541993,-9918.759623,153.219100,-814.226536
1415.542304,-13101.645173,-383.047749,888.247130
1415.542615,-14211.954086,-1608.800546,3775.050304
1415.542927,-13841.851115,-1991.848295,4219.173869
1415.543238,-12731.542202,0.000000,2886.803174
1415.543549,-11547.212695,-229.828649,740.205942
1415.543861,-8808.450710,689.485948,-962.267725
1415.544172,-5181.441594,1991.848295,-2738.761985
1415.544483,-4885.359217,2681.334243,-2146.597232
1415.544795,-8068.244768,2834.553343,-1184.329507
1415.545106,-10436.903782,2298.286494,1628.453072
1415.545417,-11325.150913,2451.505594,2738.761985
1415.545729,-10955.047942,2834.553343,3627.009116
1415.546040,-8142.265362,2834.553343,1998.556043
1415.546351,-6217.729913,1532.190996,-518.144159
1415.546663,-3108.864956,1225.752797,-1998.556043
1415.546974,-148.041188,3064.381992,-4293.194464
1415.547285,-2368.659014,5209.449386,-3034.844362
1415.547597,-7846.182985,4826.401637,-1184.329507
1415.547908,-11399.171507,3600.648841,1332.370696
1415.548219,-11473.192101,2068.457845,3478.967927
1415.548531,-9104.533087,2681.334243,4737.318029
1415.548842,-7550.100608,2451.505594,2812.782580
1415.549153,-6809.894666,1072.533697,-518.144159
1415.549465,-3775.050304,1072.533697,-2664.741391
1415.549776,-962.267725,842.705048,-4145.153275
1415.550087,-2294.638420,2221.676944,-3404.947333
1415.550399,-6883.915261,306.438199,-1184.329507
1415.550710,-13249.686362,-3600.648841,1554.432478
1415.551021,-14952.160028,-4290.134789,3923.091493
1415.551333,-13767.830521,-2987.772442,5329.482782
1415.551644,-11843.295072,-1915.238745,4737.318029
1415.551955,-11251.130318,-4213.525239,1850.514855
1415.552266,-9030.512492,-5515.887586,-148.041188
1415.552578,-4441.235652,-2604.724693,-2886.803174
1415.552889,-3404.947333,766.095498,-2886.803174
1415.553200,-7179.997637,766.095498,-962.267725
1415.553512,-12361.439231,-3524.039291,1850.514855
1415.553823,-15322.262999,-5669.106685,3627.009116
1415.554134,-14878.139434,-4290.134789,5255.462188
1415.554446,-13471.748144,-1378.971896,3552.988522
1415.554757,-12879.583391,-1149.143247,592.164754
1415.555068,-10288.862594,-2681.334243,-2072.576638
1415.555380,-5551.544565,-3294.210641,-3552.988522
1415.555691,-5329.482782,-1915.238745,-2738.761985
1415.556002,-8512.368333,-842.705048,-444.123565
1415.556314,-12805.562797,-1762.019645,1776.494261
1415.556625,-14211.954086,-3447.429741,4367.215058
1415.556936,-12879.583391,-2681.334243,4515.256246
1415.557248,-10362.883188,-919.314598,3404.947333
1415.557559,-8512.368333,306.438199,592.164754
1415.557870,-7179.997637,-1225.752797,-1110.308913
1415.558182,-4515.256246,0.000000,-3034.844362
1415.558493,-5255.462188,2068.457845,-2368.659014
1415.558804,-8956.491898,3064.381992,-1184.329507
1415.559116,-13471.748144,2451.505594,1406.391290
1415.559427,-15914.427753,1608.800546,4145.153275
1415.559738,-12583.501014,2221.676944,4737.318029
1415.560050,-7105.977043,4519.963438,2516.700203
1415.560361,-5921.647536,4290.134789,-740.205942
1415.560672,-3775.050304,3600.648841,-2886.803174
1415.560984,1110.308913,4366.744339,-4293.194464
1415.561295,666.185348,5056.230287,-4293.194464
1415.561606,-4885.359217,5056.230287,-2442.679609
1415.561918,-11399.171507,3600.648841,-444.123565
1415.562229,-14359.995275,1685.410096,2590.720797
1415.562540,-12435.459826,1838.629195,4367.215058
1415.562852,-8808.450710,1762.019645,3478.967927
1415.563163,-7402.059420,153.219100,1258.350101
1415.563474,-5699.585753,-1072.533697,-1258.350101
1415.563786,-1776.494261,-842.705048,-2960.823768
1415.564097,-1036.288319,2145.067394,-3627.009116
1415.564408,-5403.503377,2374.896044,-1924.535449
1415.564720,-11991.336260,0.000000,888.247130
1415.565031,-15544.324782,-2681.334243,3627.009116
1415.565342,-13545.768739,-2221.676944,5403.503377
1415.565654,-11769.274478,-2068.457845,5255.462188
1415.565965,-11251.130318,-3600.648841,3404.947333
1415.566276,-8586.388927,-4136.915689,222.061783
1415.566588,-4737.318029,-2987.772442,-2738.761985
1415.566899,-3182.885551,-919.314598,-2812.782580
1415.567210,-4811.338623,-459.657299,-1332.370696
1415.567522,-10584.944971,-1915.238745,-296.082377
1415.567833,-14730.098246,-4136.915689,2368.659014
1415.568144,-13767.830521,-4366.744339,3849.070898
1415.568455,-13397.727550,-3830.477490,3478.967927
1415.568767,-12213.398043,-3830.477490,2368.659014
1415.569078,-9770.718434,-5439.278036,-962.267725
1415.569389,-7105.977043,-5286.058936,-2516.700203
1415.569701,-5477.523971,-2528.115143,-2368.659014
1415.570012,-9326.594869,-919.314598,-740.205942
1415.570323,-13915.871710,-1378.971896,1332.370696
1415.570635,-16062.468941,-1532.190996,4441.235652
1415.570946,-14285.974681,-306.438199,5181.441594
1415.571257,-11325.150913,0.000000,3849.070898
1415.571569,-9252.574275,1685.410096,592.164754
1415.571880,-6735.874072,1991.848295,-2220.617826
1415.572191,-2590.720797,2528.115143,-4441.235652
1415.572503,-2886.803174,3600.648841,-3478.967927
1415.572814,-7031.956449,3524.039291,-2146.597232
1415.573125,-12583.501014,1915.238745,-0.000000
1415.573437,-14730.098246,1072.533697,3478.967927
1415.573748,-14359.995275,1378.971896,4367.215058
1415.574059,-11843.295072,689.485948,4219.173869
1415.574371,-7994.224174,1302.362347,1554.432478
1415.574682,-6143.709319,-612.876398,-888.247130
1415.574993,-1554.432478,689.485948,-2664.741391
1415.575305,0.000000,3830.477490,-2960.823768
1415.575616,-4071.132681,5439.278036,-2368.659014
1415.575927,-8068.244768,4596.572988,-222.061783
1415.576239,-10732.986159,2604.724693,2220.617826
1415.576550,-10140.821405,2604.724693,3923.091493
1415.576861,-8586.388927,3294.210641,3923.091493
1415.577173,-9030.512492,1608.800546,1628.453072
1415.577484,-7476.080014,689.485948,-888.247130
1415.577795,-3330.926739,2068.457845,-3552.988522
1415.578107,-1332.370696,3370.820191,-4145.153275
1415.578418,-3478.967927,1838.629195,-2442.679609
1415.578729,-9030.512492,-612.876398,-74.020594
1415.579041,-12657.521608,-2604.724693,3034.844362
1415.579352,-12213.398043,-1302.362347,4293.194464
1415.579663,-11769.274478,-1915.238745,4367.215058
1415.579975,-11769.274478,-2145.067394,3034.844362
1415.580286,-9622.677246,-4136.915689,888.247130
1415.580597,-4737.318029,-4673.182538,-2072.576638
1415.580909,-3478.967927,-2451.505594,-1924.535449
1415.581220,-6143.709319,-1149.143247,-962.267725
1415.581531,-11695.253884,-1991.848295,1036.288319
1415.581843,-15396.283594,-4366.744339,3775.050304
1415.582154,-15100.201217,-3830.477490,5329.482782
1415.582465,-13915.871710,-2604.724693,4441.235652
1415.582777,-12657.521608,-1838.629195,1998.556043
1415.583088,-9918.759623,-1378.971896,-1850.514855
1415.583399,-5847.626942,-1915.238745,-3849.070898
1415.583711,-3404.947333,-919.314598,-4145.153275
1415.584022,-6365.771101,-1455.581446,-2368.659014
1415.584333,-12213.398043,-2451.505594,-296.082377
1415.584644,-16136.489536,-4060.306139,2516.700203
1415.584956,-16506.592507,-3524.039291,4589.276840
1415.585267,-15100.201217,-2911.162892,4515.256246
1415.585578,-11843.295072,-2451.505594,2368.659014
1415.585890,-9252.574275,-2374.896044,-74.020594
1415.586201,-7328.038826,-1685.410096,-1258.350101
1415.586512,-2590.720797,1378.971896,-2146.597232
1415.586824,-3997.112087,4060.306139,-2886.803174
1415.587135,-7772.162391,3370.820191,-740.205942
1415.587446,-12583.501014,2604.724693,1480.411884
1415.587758,-14434.015869,2911.162892,3923.091493
1415.588069,-12287.418637,3753.867940,2516.700203
1415.588380,-9844.739029,5515.887586,1776.494261
1415.588692,-6883.915261,3753.867940,-1258.350101
1415.589003,-3478.967927,3370.820191,-3182.885551
1415.589314,74.020594,4290.134789,-4145.153275
1415.589626,-1480.411884,4366.744339,-3182.885551
1415.589937,-6217.729913,4136.915689,-370.102971
1415.590248,-9474.636058,3294.210641,1628.453072
1415.590560,-10955.047942,2604.724693,3478.967927
1415.590871,-9474.636058,1915.238745,4071.132681
1415.591182,-7698.141797,1991.848295,1998.556043
1415.591494,-7105.977043,-612.876398,-0.000000
1415.591805,-4367.215058,-1072.533697,-2220.617826
1415.592116,-1628.453072,0.000000,-2886.803174
1415.592428,-4145.153275,1072.533697,-1258.350101
1415.592739,-10362.883188,-1302.362347,888.247130
1415.593050,-14952.160028,-3140.991542,3552.988522
1415.593362,-15248.242405,-2221.676944,5255.462188
1415.593673,-11843.295072,76.609550,5255.462188
1415.593984,-10288.862594,76.609550,3404.947333
1415.594296,-10066.800811,-2451.505594,444.123565
1415.594607,-4663.297435,-1532.190996,-2072.576638
1415.594918,-962.267725,-383.047749,-2664.741391
1415.595230,-2442.679609,-229.828649,-2072.576638
1415.595541,-8438.347739,-1455.581446,-0.000000
1415.595852,-13841.851115,-4519.963438,2220.617826
1415.596164,-14137.933492,-6128.763984,5181.441594
1415.596475,-13101.645173,-4443.353888,5033.400406
1415.596786,-12435.459826,-2834.553343,3404.947333
1415.597098,-13175.665768,-3907.087040,-0.000000
1415.597409,-9252.574275,-4596.572988,-1850.514855
1415.597720,-6069.688724,-2834.553343,-3478.967927
1415.598032,-6735.874072,-612.876398,-2294.638420
1415.598343,-10658.965565,-766.095498,-1332.370696
1415.598654,-15988.448347,-3830.477490,592.164754
1415.598966,-16210.510130,-2068.457845,3404.947333
1415.599277,-12731.542202,459.657299,4441.235652
1415.599588,-11621.233289,383.047749,2072.576638
1415.599900,-9696.697840,-306.438199,592.164754
1415.600211,-6735.874072,-153.219100,-2368.659014
1415.600522,-2812.782580,1378.971896,-3849.070898
1415.600834,-2590.720797,3677.258390,-2146.597232
1415.601145,-7846.182985,2757.943793,-814.226536
1415.601456,-12287.418637,1685.410096,1036.288319
1415.601767,-14063.912898,1762.019645,3478.967927
1415.602079,-12361.439231,2374.896044,4219.173869
1415.602390,-9770.718434,2145.067394,1332.370696
1415.602701,-9178.553681,1762.019645,-518.144159
1415.603013,-5181.441594,995.924147,-2886.803174
1415.603324,-148.041188,1762.019645,-4219.173869
1415.603635,-1554.432478,3524.039291,-2368.659014
1415.603947,-7105.977043,2451.505594,-370.102971
1415.604258,-12213.398043,459.657299,2368.659014
1415.604569,-12139.377449,1225.752797,4737.318029
1415.604881,-10214.842000,3677.258390,4663.297435
1415.605192,-9474.636058,4290.134789,1776.494261
1415.605503,-7994.224174,3064.381992,-962.267725
1415.605815,-3330.926739,3524.039291,-3478.967927
1415.606126,666.185348,4903.011187,-5329.482782
1415.606437,148.041188,5209.449386,-3330.926739
1415.606749,-6957.935855,2757.943793,-1258.350101
1415.607060,-13397.727550,-1072.533697,2072.576638
1415.607371,-14137.933492,-2451.505594,4885.359217
1415.607683,-12213.398043,-1302.362347,4737.318029
1415.607994,-10955.047942,153.219100,3627.009116
1415.608305,-10436.903782,-3600.648841,1998.556043
1415.608617,-6365.771101,-6665.030833,-888.247130
1415.608928,-2368.659014,-4826.401637,-2072.576638
1415.609239,-3923.091493,-2068.457845,-1036.288319
1415.609551,-9622.677246,-2145.067394,518.144159
1415.609862,-15766.386565,-4366.744339,2960.823768
1415.610173,-16580.613101,-4673.182538,5033.400406
1415.610485,-13323.706956,-2604.724693,4811.338623
1415.610796,-9918.759623,-842.705048,3404.947333
1415.611107,-9548.656652,-2145.067394,888.247130
1415.611419,-7846.182985,-3830.477490,-1406.391290
1415.611730,-3627.009116,-2451.505594,-3256.906145
1415.612041,-3849.070898,-459.657299,-2368.659014
1415.612353,-8586.388927,-229.828649,-1332.370696
1415.612664,-14804.118840,-2145.067394,1258.350101
1415.612975,-15766.386565,-2604.724693,3256.906145
1415.613287,-14804.118840,-2451.505594,3182.885551
1415.613598,-12879.583391,-1762.019645,2664.741391
1415.613909,-11251.130318,-1915.238745,-0.000000
1415.614221,-9622.677246,-1915.238745,-2812.782580
1415.614532,-5477.523971,-1302.362347,-3923.091493
1415.614843,-6217.729913,1072.533697,-3330.926739
1415.615155,-9400.615463,3907.087040,-1036.288319
1415.615466,-11843.295072,3830.477490,2146.597232
1415.615777,-12879.583391,2451.505594,4367.215058
1415.616089,-9770.718434,1378.971896,7031.956449
1415.616400,-8438.347739,1302.362347,4367.215058
1415.616711,-7994.224174,1915.238745,148.041188
1415.617023,-6735.874072,3907.087040,-4293.194464
1415.617334,-2442.679609,6435.202183,-6291.750507
1415.617645,-2220.617826,7737.564530,-5403.503377
1415.617956,-5921.647536,6128.763984,-2516.700203
1415.618268,-11325.150913,1608.800546,444.123565
1415.618579,-12731.542202,-612.876398,3923.091493
1415.618890,-10066.800811,1149.143247,5403.503377
1415.619202,-8290.306550,2298.286494,4293.194464
1415.619513,-6439.791695,689.485948,222.061783
1415.619824,-3256.906145,-306.438199,-2146.597232
1415.620136,1554.432478,536.266849,-4219.173869
1415.620447,814.226536,2451.505594,-2960.823768
1415.620758,-6513.812290,2528.115143,-1776.494261
1415.621070,-13841.851115,-383.047749,1924.535449
1415.621381,-16802.674883,-1915.238745,4737.318029
1415.621692,-13545.768739,-1838.629195,6291.750507
1415.622004,-11103.089130,-536.266849,3627.009116
1415.622315,-9992.780217,-689.485948,1110.308913
1415.622626,-7846.182985,-1302.362347,-1036.288319
1415.622938,-2886.803174,-1302.362347,-3256.906145
1415.623249,-1628.453072,766.095498,-1184.329507
1415.623560,-5699.585753,-1149.143247,666.185348
1415.623872,-12287.418637,-4749.792088,2960.823768
1415.624183,-15618.345376,-6435.202183,5329.482782
1415.624494,-12213.398043,-4903.011187,5033.400406
1415.624806,-10288.862594,-3830.477490,3256.906145
1415.625117,-10066.800811,-4213.525239,740.205942
1415.625428,-10214.842000,-4749.792088,-1924.535449
1415.625740,-8290.306550,-4749.792088,-3923.091493
1415.626051,-6883.915261,-1608.800546,-2590.720797
1415.626362,-10140.821405,-995.924147,-296.082377
1415.626674,-15026.180623,-2145.067394,962.267725
1415.626985,-16210.510130,-2834.553343,3404.947333
1415.627296,-12805.562797,-1225.752797,4145.153275
1415.627608,-11399.171507,-383.047749,2368.659014
1415.627919,-10066.800811,1225.752797,-222.061783
1415.628230,-7994.224174,2068.457845,-3627.009116
1415.628542,-5255.462188,995.924147,-4737.318029
1415.628853,-4589.276840,842.705048,-3627.009116
1415.629164,-9030.512492,1685.410096,-1628.453072
1415.629475,-13397.727550,1762.019645,1258.350101
1415.629787,-15840.407159,-153.219100,3256.906145
1415.630098,-13841.851115,1225.752797,4737.318029
1415.630409,-9992.780217,1608.800546,3256.906145
1415.630721,-9252.574275,1302.362347,-222.061783
1415.631032,-5625.565159,-306.438199,-1776.494261
1415.631343,-222.061783,2374.896044,-4589.276840
1415.631655,148.041188,4366.744339,-3775.050304
1415.631966,-4737.318029,4596.572988,-1776.494261
1415.632277,-10510.924376,1149.143247,2294.638420
1415.632589,-12287.418637,0.000000,4219.173869
1415.632900,-11103.089130,1991.848295,5329.482782
1415.633211,-7994.224174,3753.867940,3034.844362
1415.633523,-7920.203579,4213.525239,-222.061783
1415.633834,-5921.647536,3447.429741,-2590.720797
1415.634145,-444.123565,3830.477490,-4811.338623
1415.634457,1036.288319,4290.134789,-3849.070898
1415.634768,-3923.091493,4136.915689,-2294.638420
1415.635079,-10658.965565,1225.752797,1998.556043
1415.635390,-14730.098246,-1685.410096,3701.029710
1415.635702,-12361.439231,-306.438199,5921.647536
1415.636013,-9474.636058,-1072.533697,5329.482782
1415.636324,-10436.903782,-3753.867940,2590.720797
1415.636636,-9326.594869,-4519.963438,-0.000000
1415.636947,-3108.864956,-2604.724693,-2442.679609
1415.637258,-3923.091493,-3064.381992,-888.247130
1415.637570,-6883.915261,-2604.724693,1258.350101
1415.637881,-12731.542202,-3753.867940,2960.823768
1415.638192,-17542.880825,-5898.935335,5107.421000
1415.638504,-13471.748144,-4596.572988,6661.853478
1415.638815,-10510.924376,-1225.752797,3552.988522
1415.639126,-10807.006753,0.000000,-0.000000
1415.639438,-9030.512492,-2221.676944,-1776.494261
1415.639749,-5033.400406,-2451.505594,-4293.194464
1415.640060,-5477.523971,-383.047749,-3849.070898
1415.640371,-8586.388927,1991.848295,-1406.391290
1415.640683,-13027.624579,-1072.533697,888.247130
1415.640994,-16284.530724,-4290.134789,3034.844362
1415.641305,-14063.912898,-3217.601092,5107.421000
1415.641617,-11177.109724,-2145.067394,3552.988522
1415.641928,-10214.842000,-2145.067394,666.185348
1415.642239,-9474.636058,-1149.143247,-1332.370696
1415.642551,-6587.832884,0.000000,-3775.050304
1415.642862,-4219.173869,1149.143247,-3478.967927
1415.643173,-7328.038826,2068.457845,-2368.659014
1415.643485,-12139.377449,76.609550,-222.061783
1415.643796,-14211.954086,-919.314598,1258.350101
1415.644107,-12731.542202,459.657299,3552.988522
1415.644419,-10436.903782,2451.505594,2664.741391
1415.644730,-9992.780217,1225.752797,2146.597232
1415.645041,-6661.853478,459.657299,-0.000000
1415.645353,-2812.782580,1838.629195,-2516.700203
1415.645664,-592.164754,4290.134789,-2812.782580
1415.645975,-4219.173869,5822.325785,-3108.864956
1415.646286,-9770.718434,3983.696590,-814.226536
1415.646598,-11769.274478,2068.457845,518.144159
1415.646909,-9548.656652,1149.143247,2664.741391
1415.647220,-8068.244768,2068.457845,1924.535449
1415.647532,-7550.100608,1991.848295,888.247130
1415.647843,-7476.080014,153.219100,-1480.411884
1415.648154,-4219.173869,-536.266849,-3256.906145
1415.648466,-1110.308913,2221.676944,-2442.679609
1415.648777,-3849.070898,3064.381992,-1480.411884
1415.649088,-11251.130318,766.095498,1110.308913
1415.649400,-14878.139434,-1455.581446,3330.926739
1415.649711,-12435.459826,-229.828649,4737.318029
1415.650022,-10436.903782,612.876398,4293.194464
1415.650334,-9548.656652,1072.533697,1850.514855
1415.650645,-9252.574275,153.219100,-222.061783
1415.650956,-6069.688724,-1302.362347,-1406.391290
1415.651268,-2590.720797,-2451.505594,-1110.308913
1415.651579,-4145.153275,-995.924147,-0.000000
1415.651890,-9770.718434,-2068.457845,1924.535449
1415.652201,-14952.160028,-4290.134789,3552.988522
1415.652513,-13989.892304,-5515.887586,4737.318029
1415.652824,-11917.315666,-3447.429741,4589.276840
1415.653135,-10881.027347,-2298.286494,2442.679609
1415.653447,-11103.089130,-3447.429741,-518.144159
1415.653758,-8808.450710,-3600.648841,-1110.308913
1415.654069,-5033.400406,-1378.971896,-2368.659014
1415.654381,-4811.338623,153.219100,-888.247130
1415.654692,-9178.553681,-1532.190996,-148.041188
1415.655003,-12731.542202,-1685.410096,1776.494261
1415.655315,-11251.130318,-995.924147,3182.885551
1415.655626,-10510.924376,-689.485948,3108.864956
1415.655937,-11473.192101,-689.485948,2664.741391
1415.656249,-11325.150913,-229.828649,-0.000000
1415.656560,-9326.594869,306.438199,-1776.494261
1415.656871,-7254.018232,919.314598,-2368.659014
1415.657182,-6661.853478,2298.286494,-2442.679609
1415.657494,-9622.677246,1991.848295,-1702.473667
1415.657805,-11843.295072,842.705048,222.061783
1415.658116,-11399.171507,459.657299,2294.638420
1415.658428,-9992.780217,919.314598,3404.947333
1415.658739,-8808.450710,76.609550,3627.009116
1415.659050,-8364.327145,-1991.848295,1332.370696
1415.659362,-5033.400406,-1685.410096,-1332.370696
1415.659673,-1924.535449,1915.238745,-2590.720797
1415.659984,-4589.276840,3294.210641,-2590.720797
1415.660296,-10510.924376,2911.162892,-1702.473667
1415.660607,-14137.933492,2528.115143,1184.329507
1415.660918,-12287.418637,3294.210641,3034.844362
1415.661230,-9474.636058,4290.134789,2960.823768
1415.661541,-7328.038826,2681.334243,2072.576638
1415.661852,-6439.791695,1302.362347,-1258.350101
1415.662164,-2368.659014,1685.410096,-3478.967927
1415.662475,-148.041188,3370.820191,-4367.215058
1415.662786,-3108.864956,4443.353888,-3182.885551
1415.663097,-9030.512492,2834.553343,-1406.391290
1415.663409,-14582.057057,-1915.238745,2146.597232
1415.663720,-14730.098246,-3064.381992,4589.276840
1415.664031,-12361.439231,-612.876398,4737.318029
1415.664343,-11547.212695,0.000000,2738.761985
1415.664654,-9918.759623,-2068.457845,888.247130
1415.664965,-6661.853478,-3064.381992,-1406.391290
1415.665277,-1258.350101,-1915.238745,-2294.638420
1415.665588,-2220.617826,-1608.800546,-1184.329507
1415.665899,-7994.224174,-2374.896044,296.082377
1415.666211,-13545.768739,-2451.505594,2368.659014
1415.666522,-14211.954086,-2757.943793,4219.173869
1415.666833,-12435.459826,-2221.676944,4737.318029
1415.667145,-12287.418637,-2221.676944,3849.070898
1415.667456,-12213.398043,-2834.553343,1850.514855
1415.667767,-8956.491898,-2604.724693,-222.061783
1415.668079,-5107.421000,-1685.410096,-2294.638420
1415.668390,-4663.297435,383.047749,-1332.370696
1415.668701,-8216.285956,-1072.533697,-666.185348
1415.669012,-11325.150913,-1302.362347,666.185348
1415.669324,-11399.171507,-1762.019645,3108.864956
1415.669635,-11621.233289,-1685.410096,3108.864956
1415.669946,-10584.944971,-1302.362347,2886.803174
1415.670258,-10510.924376,-1302.362347,370.102971
1415.670569,-9548.656652,-1915.238745,-740.205942
1415.670880,-6587.832884,-153.219100,-1924.535449
1415.671192,-7402.059420,995.924147,-1850.514855
1415.671503,-9770.718434,2298.286494,-222.061783
1415.671814,-14285.974681,306.438199,888.247130
1415.672126,-13619.789333,-383.047749,4219.173869
1415.672437,-9696.697840,919.314598,5329.482782
1415.672748,-8438.347739,1149.143247,2886.803174
1415.673060,-7846.182985,766.095498,222.061783
1415.673371,-5181.441594,1532.190996,-3182.885551
1415.673682,-1554.432478,5209.449386,-4959.379811
1415.673993,-2294.638420,7431.126331,-4959.379811
1415.674305,-7624.121203,5286.058936,-3108.864956
1415.674616,-12509.480420,2528.115143,222.061783
1415.674927,-13619.789333,1072.533697,2960.823768
1415.675239,-11843.295072,1455.581446,4663.297435
1415.675550,-9770.718434,3064.381992,3775.050304
1415.675861,-7624.121203,1608.800546,1036.288319
1415.676173,-3775.050304,0.000000,-1776.494261
1415.676484,666.185348,1149.143247,-4293.194464
1415.676795,518.144159,3217.601092,-3478.967927
1415.677107,-5181.441594,3447.429741,-2146.597232
1415.677418,-12213.398043,-229.828649,1258.350101
1415.677729,-14508.036463,-1915.238745,3330.926739
1415.678041,-11991.336260,-229.828649,5033.400406
1415.678352,-12213.398043,-229.828649,2516.700203
1415.678663,-11769.274478,-2451.505594,1850.514855
1415.678975,-7846.182985,-2911.162892,-962.267725
1415.679286,-3182.885551,-2145.067394,-2146.597232
1415.679597,-2146.597232,-1455.581446,-962.267725
1415.679908,-6217.729913,-2757.943793,518.144159
1415.680220,-12583.501014,-4443.353888,2146.597232
1415.680531,-12953.603985,-4673.182538,3923.091493
1415.680842,-12657.521608,-2834.553343,4071.132681
1415.681154,-12435.459826,-2604.724693,2590.720797
1415.681465,-10584.944971,-2298.286494,1110.308913
1415.681776,-9474.636058,-3677.258390,-962.267725
1415.682088,-6069.688724,-4213.525239,-1332.370696
1415.682399,-6143.709319,-2681.334243,-444.123565
1415.682710,-11029.068536,-1225.752797,-444.123565
1415.683022,-14211.954086,-306.438199,1998.556043
1415.683333,-14285.974681,-1225.752797,3701.029710
1415.683644,-12139.377449,-1608.800546,3923.091493
1415.683956,-11029.068536,-689.485948,2146.597232
1415.684267,-9696.697840,0.000000,-148.041188
1415.684578,-7105.977043,459.657299,-2516.700203
1415.684890,-5551.544565,1455.581446,-3182.885551
1415.685201,-4959.379811,2911.162892,-3552.988522
1415.685512,-8068.244768,1991.848295,-2368.659014
1415.685823,-12509.480420,766.095498,888.247130
1415.686135,-12805.562797,153.219100,3256.906145
1415.686446,-13249.686362,0.000000,4071.132681
1415.686757,-9918.759623,689.485948,4737.318029
1415.687069,-8512.368333,-459.657299,2738.761985
1415.687380,-6957.935855,-1455.581446,-0.000000
1415.687691,-2072.576638,2068.457845,-2294.638420
1415.688003,-1924.535449,4826.401637,-4737.318029
1415.688314,-5921.647536,4519.963438,-3404.947333
1415.688625,-10140.821405,4290.134789,-74.020594
1415.688937,-11399.171507,3600.648841,2294.638420
1415.689248,-11251.130318,2298.286494,3775.050304
1415.689559,-9400.615463,1915.238745,3923.091493
1415.689871,-8364.327145,919.314598,1480.411884
1415.690182,-5699.585753,995.924147,-1554.432478
1415.690493,-1036.288319,1762.019645,-3182.885551
1415.690804,-592.164754,1991.848295,-3404.947333
1415.691116,-5329.482782,2374.896044,-2516.700203
1415.691427,-10955.047942,1225.752797,444.123565
1415.691738,-12805.562797,-536.266849,2886.803174
1415.692050,-12287.418637,-766.095498,3404.947333
1415.692361,-10510.924376,-383.047749,3849.070898
1415.692672,-8734.430116,-1762.019645,2072.576638
1415.692984,-7476.080014,-4596.572988,-666.185348
1415.693295,-3330.926739,-3140.991542,-1480.411884
1415.693606,-2738.761985,-2911.162892,-814.226536
1415.693918,-7994.224174,-3294.210641,814.226536
1415.694229,-14878.139434,-4519.963438,3108.864956
1415.694540,-17616.901420,-5439.278036,4219.173869
1415.694852,-14211.954086,-2834.553343,4367.215058
1415.695163,-11991.336260,-1302.362347,3034.844362
1415.695474,-10658.965565,-842.705048,222.061783
1415.695786,-8660.409521,-1378.971896,-2886.803174
1415.696097,-4737.318029,153.219100,-3997.112087
1415.696408,-4219.173869,1378.971896,-2590.720797
1415.696719,-8586.388927,536.266849,-1776.494261
1415.697031,-13841.851115,-536.266849,518.144159
1415.697342,-14804.118840,-2834.553343,3108.864956
1415.697653,-12879.583391,-3064.381992,3701.029710
1415.697965,-11251.130318,-1532.190996,2590.720797
1415.698276,-9178.553681,-1685.410096,518.144159
1415.698587,-9252.574275,-3294.210641,-1110.308913
1415.698899,-6883.915261,-3064.381992,-1924.535449
1415.699210,-6365.771101,689.485948,-2146.597232
1415.699521,-10807.006753,2374.896044,-1184.329507
1415.699833,-12805.562797,1838.629195,740.205942
1415.700144,-15544.324782,995.924147,2664.741391
1415.700455,-12953.603985,1302.362347,4959.379811
1415.700767,-7402.059420,2451.505594,3256.906145
1415.701078,-6291.750507,2451.505594,1480.411884
1415.701389,-4441.235652,1455.581446,-296.082377
1415.701701,-2368.659014,2604.724693,-2812.782580
1415.702012,-1480.411884,5286.058936,-3478.967927
1415.702323,-4737.318029,5515.887586,-2664.741391
1415.702634,-10807.006753,3753.867940,-222.061783
1415.702946,-11991.336260,2298.286494,1554.432478
1415.703257,-10436.903782,1455.581446,2960.823768
1415.703568,-7254.018232,612.876398,3330.926739
1415.703880,-5773.606348,-1455.581446,1480.411884
1415.704191,-4367.215058,-3064.381992,-1036.288319
1415.704502,-1480.411884,-2911.162892,-2368.659014
1415.704814,-148.041188,-995.924147,-2368.659014
1415.705125,-4737.318029,-459.657299,-740.205942
1415.705436,-11399.171507,-2298.286494,1776.494261
1415.705748,-15174.221811,-5515.887586,4737.318029
1415.706059,-14582.057057,-5592.497135,5773.606348
1415.706370,-11621.233289,-3140.991542,5625.565159
1415.706682,-9400.615463,-3524.039291,3182.885551
1415.706993,-7624.121203,-5898.935335,-0.000000
1415.707304,-4071.132681,-5822.325785,-3108.864956
1415.707615,-1554.432478,-3140.991542,-3552.988522
1415.707927,-4367.215058,-1685.410096,-3034.844362
1415.708238,-10288.862594,-2604.724693,444.123565
1415.708549,-15618.345376,-6128.763984,2368.659014
1415.708861,-15618.345376,-7354.516781,4219.173869
1415.709172,-13989.892304,-5515.887586,3404.947333
1415.709483,-11621.233289,-4213.525239,2368.659014
1415.709795,-9918.759623,-5362.668486,-1480.411884
1415.710106,-8438.347739,-7124.688131,-3404.947333
1415.710417,-5847.626942,-5132.839837,-3775.050304
1415.710729,-6069.688724,-2604.724693,-2516.700203
1415.711040,-9474.636058,-2298.286494,222.061783
1415.711351,-13545.768739,-6511.811733,3034.844362
1415.711663,-16432.571912,-9499.584175,3775.050304
1415.711974,-15100.201217,-7124.688131,3923.091493
1415.712285,-14063.912898,-2451.505594,1776.494261
1415.712597,-12509.480420,-995.924147,148.041188
1415.712908,-8882.471304,-3140.991542,-2146.597232
1415.713219,-6735.874072,-4903.011187,-3775.050304
1415.713530,-5773.606348,-2604.724693,-3404.947333
1415.713842,-6957.935855,1378.971896,-2368.659014
1415.714153,-9770.718434,2987.772442,-222.061783
1415.714464,-9474.636058,459.657299,2738.761985
1415.714776,-8290.306550,-3907.087040,4071.132681
1415.715087,-8364.327145,-4060.306139,4293.194464
1415.715398,-7772.162391,-306.438199,1776.494261
1415.715710,-5329.482782,2604.724693,-74.020594
1415.716021,-3330.926739,1455.581446,-2220.617826
1415.716332,-3552.988522,-766.095498,-3034.844362
1415.716644,-5625.565159,-1149.143247,-2590.720797
1415.716955,-6291.750507,-1455.581446,-1406.391290
1415.717266,-7476.080014,-536.266849,814.226536
1415.717578,-8586.388927,-612.876398,2368.659014
1415.717889,-10510.924376,-383.047749,2442.679609
1415.718200,-10362.883188,-766.095498,3256.906145
1415.718512,-10140.821405,-1991.848295,2960.823768
1415.718823,-8882.471304,-1149.143247,2516.700203
1415.719134,-7772.162391,689.485948,-0.000000
1415.719445,-7994.224174,919.314598,-1554.432478
1415.719757,-6069.688724,153.219100,-1332.370696
1415.720068,-3552.988522,-3064.381992,-962.267725
1415.720379,-2738.761985,-5975.544884,-148.041188
1415.720691,-5181.441594,-8197.221829,444.123565
1415.721002,-8882.471304,-6894.859482,444.123565
1415.721313,-12065.356855,-3294.210641,370.102971
1415.721625,-14063.912898,-1302.362347,1184.329507
1415.721936,-14359.995275,-2298.286494,2516.700203
1415.722247,-14582.057057,-4519.963438,3108.864956
1415.722559,-12435.459826,-4749.792088,3627.009116
1415.722870,-10214.842000,-5286.058936,3108.864956
1415.723181,-7698.141797,-5132.839837,1924.535449
1415.723493,-6143.709319,-5898.935335,296.082377
1415.723804,-4515.256246,-6588.421283,-962.267725
1415.724115,-5181.441594,-6741.640382,-2442.679609
1415.724426,-6439.791695,-6281.983084,-814.226536
1415.724738,-8364.327145,-5515.887586,-592.164754
1415.725049,-11843.295072,-5132.839837,370.102971
1415.725360,-14359.995275,-4519.963438,2146.597232
1415.725672,-15396.283594,-4060.306139,3182.885551
1415.725983,-14730.098246,-4213.525239,3182.885551
1415.726294,-13249.686362,-3907.087040,2220.617826
1415.726606,-10955.047942,-2987.772442,1110.308913
1415.726917,-8068.244768,-3294.210641,-0.000000
1415.727228,-5773.606348,-4213.525239,-592.164754
1415.727540,-4293.194464,-6358.592633,-370.102971
1415.727851,-5181.441594,-7814.174080,-666.185348
1415.728162,-5477.523971,-6358.592633,-962.267725
1415.728474,-7105.977043,-2757.943793,-1406.391290
1415.728785,-9030.512492,-1302.362347,-1406.391290
1415.729096,-10881.027347,-919.314598,-0.000000
1415.729408,-13101.645173,-842.705048,1332.370696
1415.729719,-12435.459826,-229.828649,1628.453072
1415.730030,-10732.986159,842.705048,1776.494261
1415.730342,-8364.327145,153.219100,1110.308913
1415.730653,-5847.626942,-153.219100,296.082377
1415.730964,-4811.338623,-1455.581446,-148.041188
1415.731276,-4145.153275,-1532.190996,-370.102971
1415.731587,-4515.256246,-1149.143247,-370.102971
1415.731898,-6661.853478,459.657299,-74.020594
1415.732210,-7772.162391,0.000000,-518.144159
1415.732521,-8734.430116,-766.095498,-740.205942
1415.732832,-7476.080014,-689.485948,-444.123565
1415.733144,-7328.038826,-1149.143247,-814.226536
1415.733455,-8734.430116,-2374.896044,-370.102971
1415.733766,-10436.903782,-3370.820191,-518.144159
1415.734078,-11843.295072,-3370.820191,666.185348
1415.734389,-11547.212695,-4213.525239,1110.308913
1415.734701,-11769.274478,-4136.915689,1850.514855
1415.735012,-10584.944971,-3907.087040,1480.411884
1415.735323,-9474.636058,-3907.087040,296.082377
1415.735635,-8216.285956,-3677.258390,-296.082377
1415.735946,-6735.874072,-1838.629195,-666.185348
1415.736257,-6439.791695,-1302.362347,-1036.288319
1415.736569,-6735.874072,-1608.800546,-666.185348
1415.736880,-7550.100608,-2068.457845,-370.102971
1415.737191,-9474.636058,-2145.067394,222.061783
1415.737503,-10140.821405,-2987.772442,1184.329507
1415.737814,-10807.006753,-5056.230287,2442.679609
1415.738125,-10584.944971,-6818.249932,3256.906145
1415.738437,-10955.047942,-7201.297681,2738.761985
1415.738748,-11103.089130,-7354.516781,1924.535449
1415.739059,-10436.903782,-5515.887586,1480.411884
1415.739371,-9770.718434,-3217.601092,962.267725
1415.739682,-8660.409521,-2145.067394,1036.288319
1415.739993,-7402.059420,-1302.362347,962.267725
1415.740305,-6735.874072,-1072.533697,814.226536
1415.740616,-6661.853478,-1685.410096,1184.329507
1415.740927,-5995.668130,-2834.553343,1258.350101
1415.741239,-7105.977043,-3140.991542,1036.288319
1415.741550,-9178.553681,-3447.429741,1110.308913
1415.741862,-10658.965565,-4366.744339,1406.391290
1415.742173,-11473.192101,-5132.839837,2072.576638
1415.742484,-11695.253884,-5898.935335,2516.700203
1415.742796,-11029.068536,-6128.763984,2368.659014
1415.743107,-9474.636058,-5745.716235,2516.700203
1415.743418,-7624.121203,-4979.620737,2072.576638
1415.743730,-7105.977043,-2834.553343,1184.329507
1415.744041,-6217.729913,-1762.019645,-0.000000
1415.744352,-5995.668130,-536.266849,-666.185348
1415.744664,-6069.688724,459.657299,-666.185348
1415.744975,-6661.853478,995.924147,-370.102971
1415.745286,-7031.956449,-459.657299,518.144159
1415.745598,-8438.347739,-2451.505594,370.102971
1415.745909,-8290.306550,-3524.039291,1110.308913
1415.746220,-10066.800811,-2987.772442,518.144159
1415.746532,-8882.471304,-2298.286494,-0.000000
1415.746843,-9326.594869,-1685.410096,-518.144159
1415.747154,-9844.739029,-2451.505594,-888.247130
1415.747466,-7624.121203,-1532.190996,-666.185348
1415.747777,-7698.141797,-1685.410096,-1924.535449
1415.748088,-8364.327145,-2374.896044,-74.020594
1415.748400,-11399.171507,-2911.162892,-444.123565
1415.748711,-10955.047942,-2681.334243,592.164754
1415.749023,-10510.924376,-766.095498,444.123565
1415.749334,-10214.842000,-2068.457845,1406.391290
1415.749645,-10288.862594,-3983.696590,1036.288319
1415.749957,-9474.636058,-4136.915689,962.267725
1415.750268,-9474.636058,-3064.381992,1184.329507
1415.750579,-9844.739029,-2451.505594,1406.391290
1415.750891,-12509.480420,-1149.143247,1406.391290
1415.751202,-12361.439231,0.000000,1406.391290
1415.751513,-10955.047942,-1225.752797,1036.288319
1415.751825,-8956.491898,-1302.362347,1332.370696
1415.752136,-6809.894666,76.609550,1480.411884
1415.752447,-7994.224174,-1225.752797,1184.329507
1415.752759,-7328.038826,-3753.867940,3108.864956
1415.753070,-8438.347739,-4443.353888,3182.885551
1415.753381,-7994.224174,-1532.190996,5403.503377
1415.753693,-10584.944971,-2451.505594,5255.462188
1415.754004,-11769.274478,-3370.820191,6809.894666
1415.754315,-8882.471304,-2451.505594,5403.503377
1415.754627,-7328.038826,0.000000,4663.297435
1415.754938,-6735.874072,459.657299,3923.091493
1415.755249,-6365.771101,459.657299,2812.782580
1415.755561,-7624.121203,-689.485948,2146.597232
1415.755872,-5551.544565,1608.800546,4219.173869
1415.756184,-6661.853478,766.095498,3034.844362
1415.756495,-9918.759623,-306.438199,4293.194464
1415.756806,-9992.780217,153.219100,6735.874072
1415.757118,-9400.615463,-1378.971896,5847.626942
1415.757429,-7550.100608,-1532.190996,7254.018232
1415.757740,-8068.244768,-536.266849,5551.544565
1415.758052,-7846.182985,76.609550,5181.441594
1415.758363,-6957.935855,842.705048,4515.256246
1415.758674,-6587.832884,919.314598,3849.070898
1415.758986,-7179.997637,2451.505594,3404.947333
1415.759297,-9252.574275,2451.505594,3627.009116
1415.759608,-9474.636058,1915.238745,4071.132681
1415.759920,-8660.409521,995.924147,4219.173869
1415.760231,-7476.080014,229.828649,4367.215058
1415.760542,-8068.244768,-229.828649,4663.297435
1415.760854,-8586.388927,-2451.505594,5255.462188
1415.761165,-8068.244768,-1685.410096,4811.338623
1415.761476,-8364.327145,0.000000,5921.647536
1415.761788,-9326.594869,1072.533697,4367.215058
1415.762099,-10955.047942,1072.533697,4737.318029
1415.762410,-10510.924376,2221.676944,4367.215058
1415.762722,-8142.265362,2451.505594,4219.173869
1415.763033,-8216.285956,1838.629195,2960.823768
1415.763345,-6661.853478,1149.143247,2738.761985
1415.763656,-6735.874072,0.000000,2072.576638
1415.763967,-5699.585753,153.219100,2294.638420
1415.764279,-6439.791695,-612.876398,2738.761985
1415.764590,-8068.244768,-1532.190996,3330.926739
1415.764901,-9548.656652,-1915.238745,3997.112087
1415.765213,-10807.006753,-1762.019645,4737.318029
1415.765524,-10436.903782,-1378.971896,4737.318029
1415.765835,-10807.006753,-459.657299,5403.503377
1415.766147,-11103.089130,-842.705048,3627.009116
1415.766458,-10066.800811,-306.438199,2442.679609
1415.766769,-8586.388927,536.266849,1702.473667
1415.767081,-7846.182985,1455.581446,1258.350101
1415.767392,-8956.491898,766.095498,1554.432478
1415.767703,-9178.553681,-536.266849,2886.803174
1415.768015,-9770.718434,-919.314598,3627.009116
1415.768326,-9474.636058,-1915.238745,4219.173869
1415.768637,-8438.347739,-1685.410096,4589.276840
1415.768949,-8216.285956,-2068.457845,3627.009116
1415.769260,-7476.080014,-612.876398,2590.720797
1415.769571,-6439.791695,536.266849,592.164754
1415.769883,-7105.977043,1608.800546,-0.000000
1415.770194,-9178.553681,1072.533697,-74.020594
1415.770506,-11029.068536,1302.362347,740.205942
1415.770817,-12879.583391,1378.971896,1998.556043
1415.771128,-13027.624579,536.266849,3256.906145
1415.771440,-12879.583391,-536.266849,3997.112087
1415.771751,-11177.109724,-1149.143247,4071.132681
1415.772062,-7920.203579,-1608.800546,3552.988522
1415.772374,-4663.297435,-1991.848295,2220.617826
1415.772685,-3775.050304,-1532.190996,1628.453072
1415.772996,-4737.318029,-1149.143247,1110.308913
1415.773308,-7920.203579,-459.657299,1332.370696
1415.773619,-10140.821405,995.924147,2738.761985
1415.773930,-12435.459826,1991.848295,3775.050304
1415.774242,-14137.933492,2145.067394,4811.338623
1415.774553,-13175.665768,919.314598,5107.421000
1415.774864,-10510.924376,306.438199,4145.153275
1415.775176,-6587.832884,306.438199,3256.906145
1415.775487,-3849.070898,76.609550,1924.535449
1415.775798,-2960.823768,153.219100,962.267725
1415.776110,-2812.782580,612.876398,1184.329507
1415.776421,-5477.523971,0.000000,2072.576638
1415.776733,-9918.759623,229.828649,3997.112087
1415.777044,-13693.809927,229.828649,5033.400406
1415.777355,-14285.974681,153.219100,6217.729913
1415.777667,-11103.089130,-229.828649,5773.606348
1415.777978,-8586.388927,-1762.019645,4589.276840
1415.778289,-6439.791695,-1532.190996,3701.029710
1415.778601,-5181.441594,-1302.362347,2960.823768
1415.778912,-5921.647536,-383.047749,4219.173869
1415.779223,-8512.368333,0.000000,5995.668130
1415.779535,-11769.274478,-229.828649,7031.956449
1415.779846,-11769.274478,0.000000,7920.203579
1415.780157,-10732.986159,153.219100,6069.688724
1415.780469,-7105.977043,1915.238745,4515.256246
1415.780780,-4959.379811,3370.820191,2368.659014
1415.781091,-5255.462188,3677.258390,370.102971
1415.781403,-6735.874072,2834.553343,962.267725
1415.781714,-8956.491898,1991.848295,2738.761985
1415.782025,-10362.883188,842.705048,4663.297435
1415.782337,-11991.336260,-766.095498,5921.647536
1415.782648,-12509.480420,-2221.676944,7254.018232
1415.782959,-12139.377449,-3447.429741,8882.471304
1415.783271,-10584.944971,-2757.943793,9252.574275
1415.783582,-9474.636058,-1838.629195,8364.327145
1415.783894,-7698.141797,-1378.971896,6883.915261
1415.784205,-5995.668130,-383.047749,4737.318029
1415.784516,-3404.947333,1608.800546,2220.617826
1415.784828,-1924.535449,3524.039291,-0.000000
1415.785139,-3923.091493,3600.648841,-0.000000
1415.785450,-6143.709319,3064.381992,1702.473667
1415.785762,-9178.553681,995.924147,2812.782580
1415.786073,-11843.295072,-842.705048,4737.318029
1415.786384,-14211.954086,-1072.533697,6439.791695
1415.786696,-15248.242405,-1149.143247,7402.059420
1415.787007,-13545.768739,-459.657299,6439.791695
1415.787318,-10881.027347,-1378.971896,5181.441594
1415.787630,-7328.038826,-995.924147,5107.421000
1415.787941,-4515.256246,-612.876398,3552.988522
1415.788252,-2294.638420,-153.219100,2516.700203
1415.788564,-1554.432478,612.876398,1554.432478
1415.788875,-2886.803174,459.657299,666.185348
1415.789186,-4219.173869,689.485948,592.164754
1415.789498,-6809.894666,229.828649,-0.000000
1415.789809,-11251.130318,-995.924147,740.205942
1415.790120,-13989.892304,-995.924147,3108.864956
1415.790432,-17246.798449,-842.705048,4441.235652
1415.790743,-19541.436869,-459.657299,6069.688724
1415.791055,-18061.024985,0.000000,7031.956449
1415.791366,-14285.974681,0.000000,6883.915261
1415.791677,-8808.450710,-919.314598,5551.544565
1415.791989,-1850.514855,-459.657299,2146.597232
1415.792300,2812.782580,306.438199,-2368.659014
1415.792611,4811.338623,2374.896044,-4663.297435
1415.792923,1628.453072,1991.848295,-4737.318029
1415.793234,-6143.709319,612.876398,-3108.864956
1415.793545,-14063.912898,0.000000,1110.308913
1415.793857,-21836.075289,-612.876398,5477.523971
1415.794168,-25685.146187,-229.828649,8956.491898
1415.794479,-23908.651927,-1762.019645,8660.409521
1415.794791,-16432.571912,-2451.505594,7105.977043
1415.795102,-7920.203579,-1608.800546,4219.173869
1415.795413,-592.164754,-919.314598,-0.000000
1415.795725,4515.256246,0.000000,-2664.741391
1415.796036,5181.441594,766.095498,-5033.400406
1415.796347,1184.329507,1685.410096,-3849.070898
1415.796659,-5107.421000,2145.067394,-2220.617826
1415.796970,-12139.377449,1685.410096,222.061783
1415.797281,-17616.901420,1532.190996,3627.009116
1415.797593,-19985.560434,-153.219100,5255.462188
1415.797904,-18209.066173,-1685.410096,5773.606348
1415.798216,-13545.768739,-1991.848295,4959.379811
1415.798527,-8438.347739,-1685.410096,2886.803174
1415.798838,-2812.782580,-995.924147,740.205942
1415.799150,1036.288319,-536.266849,-1924.535449
1415.799461,1702.473667,1225.752797,-2368.659014
1415.799772,-1184.329507,1302.362347,-1554.432478
1415.800084,-6957.935855,995.924147,-518.144159
1415.800395,-11843.295072,1302.362347,444.123565
1415.800706,-15396.283594,2681.334243,1702.473667
1415.801018,-16136.489536,1685.410096,2072.576638
1415.801329,-13693.809927,-229.828649,1702.473667
1415.801640,-11473.192101,-2451.505594,1036.288319
1415.801952,-8216.285956,-2221.676944,1036.288319
1415.802263,-7105.977043,-2221.676944,1036.288319
1415.802574,-7846.182985,-1378.971896,1702.473667
1415.802886,-9252.574275,-1072.533697,3182.885551
1415.803197,-11843.295072,-306.438199,3256.906145
1415.803508,-11103.089130,1302.362347,3478.967927
1415.803820,-8364.327145,2604.724693,444.123565
1415.804131,-4885.359217,3140.991542,-1702.473667
1415.804442,-4515.256246,1991.848295,-3478.967927
1415.804754,-4515.256246,-306.438199,-3627.009116
1415.805065,-5995.668130,-766.095498,-1184.329507
1415.805377,-10584.944971,-1302.362347,2146.597232
1415.805688,-16580.613101,-2298.286494,6365.771101
1415.805999,-19985.560434,-3140.991542,8882.471304
1415.806311,-17764.942608,-2681.334243,9622.677246
1415.806622,-12583.501014,-919.314598,7846.182985
1415.806933,-5995.668130,-766.095498,4367.215058
1415.807245,-222.061783,229.828649,-962.267725
1415.807556,4589.276840,1072.533697,-6069.688724
1415.807867,6291.750507,2451.505594,-7179.997637
1415.808179,1480.411884,3677.258390,-5255.462188
1415.808490,-7328.038826,3140.991542,-1406.391290
1415.808801,-16580.613101,689.485948,3330.926739
1415.809113,-21465.972318,-2221.676944,8364.327145
1415.809424,-20207.622217,-2681.334243,10288.862594
1415.809735,-15100.201217,-2834.553343,7846.182985
1415.810047,-9104.533087,-2987.772442,2738.761985
1415.810358,-1628.453072,-2451.505594,-2368.659014
1415.810669,4145.153275,0.000000,-5329.482782
1415.810981,2812.782580,2834.553343,-6735.874072
1415.811292,-4219.173869,4519.963438,-4145.153275
1415.811603,-11843.295072,3677.258390,-1184.329507
1415.811915,-15544.324782,1762.019645,2590.720797
1415.812226,-14582.057057,229.828649,2368.659014
1415.812538,-11621.233289,0.000000,1406.391290
1415.812849,-9178.553681,-995.924147,444.123565
1415.813160,-8290.306550,-3447.429741,-1480.411884
1415.813472,-7846.182985,-2987.772442,-2738.761985
1415.813783,-8660.409521,-1302.362347,-2072.576638
1415.814094,-11769.274478,0.000000,-518.144159
1415.814406,-13989.892304,-612.876398,1258.350101
1415.814717,-14211.954086,-306.438199,518.144159
1415.815028,-11177.109724,459.657299,-888.247130
1415.815340,-5921.647536,689.485948,-3108.864956
1415.815651,-3923.091493,1149.143247,-5551.544565
1415.815962,-3997.112087,1302.362347,-6735.874072
1415.816274,-5107.421000,0.000000,-5773.606348
1415.816585,-8956.491898,-842.705048,-3701.029710
1415.816896,-14285.974681,-1532.190996,-0.000000
1415.817208,-18875.251521,-2298.286494,3256.906145
1415.817519,-19245.354492,-3294.210641,5773.606348
1415.817830,-16580.613101,-3447.429741,5403.503377
1415.818142,-11177.109724,-2911.162892,2738.761985
1415.818453,-5773.606348,-995.924147,-1776.494261
1415.818764,-1036.288319,0.000000,-5921.647536
1415.819076,2516.700203,2911.162892,-7772.162391
1415.819387,740.205942,3600.648841,-7846.182985
1415.819699,-5551.544565,2987.772442,-5107.421000
1415.820010,-11917.315666,1838.629195,370.102971
1415.820321,-15544.324782,-995.924147,4441.235652
1415.820633,-16506.592507,-2374.896044,6069.688724
1415.820944,-14730.098246,-2834.553343,6513.812290
1415.821255,-12435.459826,-2221.676944,3404.947333
1415.821567,-8512.368333,-2451.505594,148.041188
1415.821878,-3701.029710,-229.828649,-2072.576638
1415.822189,-1480.411884,995.924147,-3775.050304
1415.822501,-2812.782580,2221.676944,-3701.029710
1415.822812,-7105.977043,2068.457845,-2368.659014
1415.823123,-9918.759623,1762.019645,-592.164754
1415.823435,-10807.006753,1455.581446,3256.906145
1415.823746,-10658.965565,919.314598,4367.215058
1415.824057,-10362.883188,-919.314598,3923.091493
1415.824369,-10807.006753,-2987.772442,2960.823768
1415.824680,-8364.327145,-1838.629195,1998.556043
1415.824991,-5403.503377,689.485948,740.205942
1415.825303,-6365.771101,1455.581446,1406.391290
1415.825614,-9400.615463,383.047749,1480.411884
1415.825926,-11547.212695,536.266849,2738.761985
1415.826237,-10214.842000,1302.362347,2664.741391
1415.826548,-8068.244768,1532.190996,2220.617826
1415.826860,-7550.100608,1302.362347,148.041188
1415.827171,-6883.915261,0.000000,-1110.308913
1415.827482,-4737.318029,-612.876398,-1998.556043
1415.827794,-4737.318029,-766.095498,-962.267725
1415.828105,-8660.409521,-383.047749,1628.453072
1415.828416,-13397.727550,-1378.971896,3108.864956
1415.828728,-15174.221811,-2221.676944,5551.544565
1415.829039,-13989.892304,-2911.162892,7402.059420
1415.829351,-10955.047942,-3064.381992,5995.668130
1415.829662,-7920.203579,-2374.896044,3330.926739
1415.829974,-5625.565159,-766.095498,-1184.329507
1415.830285,-3627.009116,1762.019645,-3849.070898
1415.830596,-3182.885551,3600.648841,-4367.215058
1415.830908,-6439.791695,3907.087040,-3552.988522
1415.831219,-9770.718434,2604.724693,-1480.411884
1415.831531,-12139.377449,0.000000,962.267725
1415.831842,-11251.130318,-306.438199,3108.864956
1415.832154,-10955.047942,0.000000,5329.482782
1415.832465,-10881.027347,-1838.629195,5329.482782
1415.832777,-10955.047942,-3830.477490,2812.782580
1415.833088,-8438.347739,-3600.648841,-148.041188
1415.833400,-3849.070898,-306.438199,-2368.659014
1415.833711,-4737.318029,1072.533697,-4737.318029
1415.834022,-6809.894666,2145.067394,-3997.112087
1415.834334,-10214.842000,1302.362347,-3330.926739
1415.834645,-11251.130318,-229.828649,-74.020594
1415.834957,-10066.800811,-919.314598,2812.782580
1415.835268,-10362.883188,-995.924147,2960.823768
1415.835580,-9548.656652,-2374.896044,2146.597232
1415.835891,-7328.038826,-2834.553343,1110.308913
1415.836203,-5033.400406,-383.047749,-1776.494261
1415.836514,-5255.462188,2528.115143,-1998.556043
1415.836826,-9326.594869,2757.943793,-2516.700203
1415.837137,-11843.295072,1608.800546,-1258.350101
1415.837448,-12583.501014,1838.629195,-1406.391290
1415.837760,-11177.109724,2451.505594,-666.185348
1415.838071,-8660.409521,2068.457845,-1998.556043
1415.838383,-6661.853478,459.657299,-3552.988522
1415.838694,-4811.338623,0.000000,-4589.276840
1415.839006,-5181.441594,-766.095498,-4441.235652
1415.839317,-8586.388927,-153.219100,-2368.659014
1415.839629,-12953.603985,-383.047749,592.164754
1415.839940,-15470.304188,-1455.581446,2220.617826
1415.840252,-14730.098246,-3447.429741,3701.029710
1415.840563,-12139.377449,-4596.572988,2442.679609
1415.840874,-9474.636058,-3370.820191,1628.453072
1415.841186,-8068.244768,-1838.629195,-1332.370696
1415.841497,-6735.874072,-1072.533697,-2812.782580
1415.841809,-6143.709319,-153.219100,-4219.173869
1415.842120,-7698.141797,1838.629195,-3701.029710
1415.842432,-10807.006753,3294.210641,-2220.617826
1415.842743,-12213.398043,2681.334243,-888.247130
1415.843055,-11547.212695,2145.067394,1776.494261
1415.843366,-10140.821405,1532.190996,3182.885551
1415.843678,-9844.739029,306.438199,3478.967927
1415.843989,-9548.656652,-1302.362347,2368.659014
1415.844300,-7254.018232,-1608.800546,666.185348
1415.844612,-4811.338623,-383.047749,-1036.288319
1415.844923,-4663.297435,459.657299,-1702.473667
1415.845235,-7105.977043,383.047749,-1332.370696
1415.845546,-9178.553681,76.609550,814.226536
1415.845858,-11325.150913,-1225.752797,3330.926739
1415.846169,-11325.150913,-2451.505594,5477.523971
1415.846481,-10288.862594,-2911.162892,5699.585753
1415.846792,-9548.656652,-2911.162892,4737.318029
1415.847104,-7179.997637,-2451.505594,3330.926739
1415.847415,-4737.318029,-612.876398,1406.391290
1415.847726,-5107.421000,1072.533697,1258.350101
1415.848038,-8734.430116,3600.648841,1776.494261
1415.848349,-11695.253884,2681.334243,3182.885551
1415.848661,-12287.418637,2987.772442,4219.173869
1415.848972,-10510.924376,2987.772442,4737.318029
1415.849284,-7550.100608,1455.581446,3404.947333
1415.849595,-6069.688724,229.828649,1850.514855
1415.849907,-4071.132681,919.314598,296.082377
1415.850218,-2146.597232,1302.362347,-296.082377
1415.850530,-3849.070898,995.924147,-222.061783
1415.850841,-8216.285956,306.438199,1332.370696
1415.851152,-12065.356855,689.485948,2960.823768
1415.851464,-13101.645173,612.876398,5847.626942
1415.851775,-13101.645173,-153.219100,7179.997637
1415.852087,-12361.439231,-842.705048,6365.771101
1415.852398,-9548.656652,-1225.752797,4663.297435
1415.852710,-3997.112087,-2451.505594,2072.576638
1415.853021,-148.041188,-1072.533697,-2590.720797
1415.853333,-1110.308913,766.095498,-3034.844362
1415.853644,-6291.750507,2528.115143,-2516.700203
1415.853955,-12287.418637,1762.019645,-370.102971
1415.854267,-15766.386565,1302.362347,3404.947333
1415.854578,-16358.551318,995.924147,5773.606348
1415.854890,-13175.665768,-306.438199,5329.482782
1415.855201,-8956.491898,-1072.533697,2368.659014
1415.855513,-4515.256246,-1455.581446,-1406.391290
1415.855824,-148.041188,383.047749,-3923.091493
1415.856136,-1480.411884,1991.848295,-4663.297435
1415.856447,-7698.141797,1762.019645,-3627.009116
1415.856759,-13693.809927,229.828649,-1110.308913
1415.857070,-16802.674883,76.609550,814.226536
1415.857381,-15544.324782,-306.438199,2516.700203
1415.857693,-11991.336260,-1838.629195,1036.288319
1415.858004,-8438.347739,-3447.429741,-592.164754
1415.858316,-5403.503377,-4290.134789,-2368.659014
1415.858627,-3627.009116,-3677.258390,-3627.009116
1415.858939,-5403.503377,-612.876398,-3256.906145
1415.859250,-10658.965565,612.876398,-1850.514855
1415.859562,-15026.180623,229.828649,-740.205942
1415.859873,-15396.283594,0.000000,1184.329507
1415.860185,-12435.459826,1302.362347,1184.329507
1415.860496,-11029.068536,1378.971896,296.082377
1415.860807,-10066.800811,153.219100,-2220.617826
1415.861119,-6735.874072,306.438199,-3478.967927
1415.861430,-4737.318029,1762.019645,-4885.359217
1415.861742,-5329.482782,1915.238745,-4219.173869
1415.862053,-8364.327145,2451.505594,-2442.679609
1415.862365,-11843.295072,1149.143247,-444.123565
1415.862676,-12805.562797,-306.438199,2738.761985
1415.862988,-10732.986159,-1762.019645,3997.112087
1415.863299,-10214.842000,-2374.896044,2812.782580
1415.863611,-9030.512492,-2604.724693,1554.432478
1415.863922,-5995.668130,-2911.162892,-1406.391290
1415.864233,-3404.947333,-2374.896044,-2960.823768
1415.864545,-3627.009116,0.000000,-2442.679609
1415.864856,-7254.018232,306.438199,-1776.494261
1415.865168,-11325.150913,0.000000,666.185348
1415.865479,-13989.892304,689.485948,3552.988522
1415.865791,-13767.830521,306.438199,5551.544565
1415.866102,-11325.150913,0.000000,4737.318029
1415.866414,-9252.574275,76.609550,3034.844362
1415.866725,-6661.853478,536.266849,888.247130
1415.867037,-2294.638420,1915.238745,-1480.411884
1415.867348,-2738.761985,2528.115143,-1924.535449
1415.867659,-6143.709319,2298.286494,-1628.453072
1415.867971,-11473.192101,1991.848295,1554.432478
1415.868282,-13619.789333,1455.581446,4441.235652
1415.868594,-12435.459826,153.219100,6513.812290
1415.868905,-10807.006753,-1378.971896,5329.482782
1415.869217,-8882.471304,-2528.115143,4811.338623
1415.869528,-5699.585753,-2374.896044,2368.659014
1415.869840,-2738.761985,-1762.019645,-0.000000
1415.870151,-3627.009116,76.609550,-444.123565
1415.870463,-8438.347739,459.657299,444.123565
1415.870774,-13249.686362,1149.143247,2294.638420
1415.871085,-14582.057057,1225.752797,4811.338623
1415.871397,-14063.912898,842.705048,5551.544565
1415.871708,-11251.130318,459.657299,5477.523971
1415.872020,-7920.203579,-383.047749,2960.823768
1415.872331,-5255.462188,-995.924147,1110.308913
1415.872643,-1850.514855,-383.047749,-74.020594
1415.872954,-2738.761985,689.485948,-518.144159
1415.873266,-6661.853478,842.705048,-0.000000
1415.873577,-10955.047942,1225.752797,1776.494261
1415.873889,-14137.933492,229.828649,2812.782580
1415.874200,-13249.686362,919.314598,5255.462188
1415.874511,-11103.089130,536.266849,4367.215058
1415.874823,-8660.409521,-1072.533697,3256.906145
1415.875134,-5995.668130,-1762.019645,1258.350101
1415.875446,-2146.597232,-1685.410096,-1702.473667
1415.875757,-518.144159,0.000000,-3182.885551
1415.876069,-2886.803174,842.705048,-3256.906145
1415.876380,-9030.512492,2451.505594,-888.247130
1415.876692,-14063.912898,1378.971896,2146.597232
1415.877003,-17098.757260,306.438199,3701.029710
1415.877315,-15470.304188,-536.266849,4885.359217
1415.877626,-11547.212695,-1455.581446,2664.741391
1415.877937,-6365.771101,-1378.971896,-1110.308913
1415.878249,-1184.329507,-766.095498,-5033.400406
1415.878560,444.123565,459.657299,-6957.935855
1415.878872,-2664.741391,1915.238745,-6513.812290
1415.879183,-8364.327145,2374.896044,-4293.194464
1415.879495,-14211.954086,1991.848295,-666.185348
1415.879806,-18061.024985,0.000000,2442.679609
1415.880118,-17098.757260,-1762.019645,3330.926739
1415.880429,-13545.768739,-1915.238745,-0.000000
1415.880741,-7105.977043,-1608.800546,-2886.803174
1415.881052,-2368.659014,-2068.457845,-6143.709319
1415.881363,-1924.535449,-1149.143247,-7994.224174
1415.881675,-5773.606348,536.266849,-6587.832884
1415.881986,-13619.789333,1455.581446,-3552.988522
1415.882298,-19319.375086,459.657299,1184.329507
1415.882609,-19541.436869,842.705048,3108.864956
1415.882921,-15100.201217,-995.924147,1850.514855
1415.883232,-9326.594869,-2374.896044,-2146.597232
1415.883544,-4959.379811,-1455.581446,-4811.338623
1415.883855,-1184.329507,995.924147,-6883.915261
1415.884167,-3404.947333,1762.019645,-7105.977043
1415.884478,-10288.862594,995.924147,-3775.050304
1415.884789,-16062.468941,-306.438199,-0.000000
1415.885101,-18949.272115,-229.828649,3034.844362
1415.885412,-16654.633695,0.000000,4589.276840
1415.885724,-9770.718434,-1685.410096,2960.823768
1415.886035,-6513.812290,-2987.772442,-0.000000
1415.886347,-2960.823768,-3370.820191,-1480.411884
1415.886658,666.185348,-1762.019645,-3849.070898
1415.886970,-3256.906145,76.609550,-2738.761985
1415.887281,-8882.471304,1072.533697,-296.082377
1415.887592,-13841.851115,1608.800546,1924.535449
1415.887904,-15840.407159,306.438199,4737.318029
1415.888215,-14508.036463,-153.219100,5847.626942
1415.888527,-9770.718434,0.000000,5921.647536
1415.888838,-6957.935855,-1762.019645,3404.947333
1415.889150,-5403.503377,-1991.848295,1406.391290
1415.889461,-2516.700203,-842.705048,296.082377
1415.889773,-1184.329507,842.705048,-296.082377
1415.890084,-4219.173869,2451.505594,666.185348
1415.890396,-9400.615463,2451.505594,1998.556043
1415.890707,-12509.480420,2145.067394,4737.318029
1415.891018,-12213.398043,1915.238745,6809.894666
1415.891330,-9474.636058,0.000000,6513.812290
1415.891641,-7179.997637,-689.485948,5551.544565
1415.891953,-5329.482782,-1838.629195,3256.906145
1415.892264,-3108.864956,-1455.581446,1258.350101
1415.892576,-2368.659014,0.000000,444.123565
1415.892887,-4737.318029,689.485948,1110.308913
1415.893199,-9992.780217,1608.800546,1480.411884
1415.893510,-12583.501014,1378.971896,4071.132681
1415.893822,-12139.377449,1991.848295,4959.379811
1415.894133,-11473.192101,766.095498,5107.421000
1415.894444,-8660.409521,229.828649,3997.112087
1415.894756,-6217.729913,-536.266849,814.226536
1415.895067,-4663.297435,766.095498,-888.247130
1415.895379,-4663.297435,2374.896044,-1036.288319
1415.895690,-7772.162391,2145.067394,-1110.308913
1415.896002,-10510.924376,919.314598,-0.000000
1415.896313,-12805.562797,-842.705048,1110.308913
1415.896625,-13175.665768,0.000000,2812.782580
1415.896936,-11473.192101,-1149.143247,3701.029710
1415.897248,-10807.006753,-2451.505594,1776.494261
1415.897559,-8808.450710,-2757.943793,-0.000000
1415.897870,-5255.462188,-2911.162892,-2072.576638
1415.898182,-1702.473667,-1915.238745,-3775.050304
1415.898493,-3034.844362,-383.047749,-5033.400406
1415.898805,-8660.409521,995.924147,-4885.359217
1415.899116,-13323.706956,1149.143247,-1924.535449
1415.899428,-16580.613101,536.266849,592.164754
1415.899739,-16950.716072,-689.485948,2738.761985
1415.900051,-14804.118840,-2528.115143,1332.370696
1415.900362,-10955.047942,-3524.039291,-1776.494261
1415.900674,-5107.421000,-995.924147,-5403.503377
1415.900985,-444.123565,1455.581446,-7698.141797
1415.901296,-3478.967927,1915.238745,-7179.997637
1415.901608,-9030.512492,1762.019645,-4589.276840
1415.901919,-13767.830521,536.266849,-1776.494261
1415.902231,-16136.489536,306.438199,518.144159
1415.902542,-15026.180623,306.438199,1628.453072
1415.902854,-11399.171507,-1072.533697,-962.267725
1415.903165,-5995.668130,-2451.505594,-3330.926739
1415.903477,-2368.659014,-3370.820191,-5255.462188
1415.903788,-2442.679609,-2834.553343,-6217.729913
1415.904100,-6883.915261,-153.219100,-4737.318029
1415.904411,-12287.418637,1072.533697,-2368.659014
1415.904722,-17172.777854,1149.143247,1258.350101
1415.905034,-18357.107362,0.000000,3849.070898
1415.905345,-13841.851115,-536.266849,3923.091493
1415.905657,-9252.574275,-1685.410096,888.247130
1415.905968,-4737.318029,-536.266849,-1036.288319
1415.906280,-2368.659014,0.000000,-4071.132681
1415.906591,-3034.844362,1149.143247,-3478.967927
1415.906903,-7624.121203,1532.190996,-1776.494261
1415.907214,-12953.603985,0.000000,1554.432478
1415.907526,-15618.345376,-229.828649,4367.215058
1415.907837,-14804.118840,995.924147,5477.523971
1415.908148,-9992.780217,536.266849,5551.544565
1415.908460,-7254.018232,-1532.190996,3034.844362
1415.908771,-4367.215058,-2145.067394,1998.556043
1415.909083,-1998.556043,-1532.190996,592.164754
1415.909394,-1850.514855,-383.047749,-888.247130
1415.909706,-5477.523971,842.705048,370.102971
1415.910017,-10214.842000,2221.676944,962.267725
1415.910329,-11843.295072,2681.334243,3034.844362
1415.910640,-12509.480420,919.314598,5403.503377
1415.910952,-11769.274478,-1608.800546,7031.956449
1415.911263,-9770.718434,-2757.943793,6587.832884
1415.911574,-9030.512492,-3447.429741,4959.379811
1415.911886,-5995.668130,-1915.238745,3256.906145
1415.912197,-3849.070898,76.609550,1332.370696
1415.912509,-4885.359217,1608.800546,1406.391290
1415.912820,-8438.347739,1455.581446,1480.411884
1415.913132,-10881.027347,1532.190996,3404.947333
1415.913443,-11843.295072,2451.505594,4959.379811
1415.913755,-9992.780217,2221.676944,5773.606348
1415.914066,-7476.080014,0.000000,4663.297435
1415.914378,-5107.421000,-2145.067394,2738.761985
1415.914689,-3923.091493,-1608.800546,1110.308913
1415.915000,-4145.153275,-383.047749,-222.061783
1415.915312,-5995.668130,842.705048,-296.082377
1415.915623,-9104.533087,1608.800546,-296.082377
1415.915935,-12731.542202,1762.019645,1554.432478
1415.916246,-14656.077652,842.705048,3775.050304
1415.916558,-14359.995275,153.219100,5107.421000
1415.916869,-11547.212695,76.609550,4071.132681
1415.917181,-8290.306550,0.000000,2442.679609
1415.917492,-3849.070898,-536.266849,296.082377
1415.917804,74.020594,-1072.533697,-3108.864956
1415.918115,-962.267725,536.266849,-3997.112087
1415.918426,-5033.400406,1072.533697,-1998.556043
1415.918738,-12509.480420,1608.800546,740.205942
1415.919049,-18209.066173,153.219100,3034.844362
1415.919361,-17912.983796,0.000000,5329.482782
1415.919672,-13915.871710,-1915.238745,3923.091493
1415.919984,-7994.224174,-2757.943793,814.226536
1415.920295,-1554.432478,-1455.581446,-3108.864956
1415.920607,74.020594,-229.828649,-7402.059420
1415.920918,-666.185348,1455.581446,-6365.771101
1415.921230,-6735.874072,1762.019645,-5033.400406
1415.921541,-13101.645173,1685.410096,-1998.556043
1415.921852,-17098.757260,1302.362347,1776.494261
1415.922164,-17394.839637,-306.438199,2368.659014
1415.922475,-12657.521608,-1302.362347,740.205942
1415.922787,-7698.141797,-1991.848295,-2220.617826
1415.923098,-3552.988522,-1991.848295,-5107.421000
1415.923410,-2072.576638,-1762.019645,-6291.750507
1415.923721,-5995.668130,-766.095498,-4811.338623
1415.924033,-12213.398043,306.438199,-3404.947333
1415.924344,-17468.860231,1072.533697,-666.185348
1415.924655,-18505.148550,1455.581446,1406.391290
1415.924967,-14434.015869,1072.533697,1998.556043
1415.925278,-10288.862594,-689.485948,-740.205942
1415.925590,-6809.894666,-1915.238745,-2516.700203
1415.925901,-4219.173869,-1378.971896,-4515.256246
1415.926213,-3256.906145,229.828649,-4959.379811
1415.926524,-7179.997637,1378.971896,-3404.947333
1415.926836,-11917.315666,1762.019645,-888.247130
1415.927147,-16432.571912,536.266849,1924.535449
1415.927459,-16136.489536,459.657299,4663.297435
1415.927770,-13693.809927,-842.705048,5921.647536
1415.928081,-9992.780217,-2451.505594,3034.844362
1415.928393,-6291.750507,-2528.115143,814.226536
1415.928704,-3775.050304,-3140.991542,-1332.370696
1415.929016,-1184.329507,-2221.676944,-2516.700203
1415.929327,-3034.844362,-536.266849,-1850.514855
1415.929639,-9178.553681,0.000000,-148.041188
1415.929950,-12953.603985,383.047749,4071.132681
1415.930262,-15840.407159,229.828649,7031.956449
1415.930573,-14804.118840,153.219100,8216.285956
1415.930884,-10732.986159,-689.485948,6957.935855
1415.931196,-5625.565159,-2145.067394,4441.235652
1415.931507,-1406.391290,-689.485948,1702.473667
1415.931819,1850.514855,1838.629195,-1776.494261
1415.932130,740.205942,2757.943793,-1776.494261
1415.932442,-5107.421000,3294.210641,-296.082377
1415.932753,-11473.192101,2834.553343,2738.761985
1415.933065,-14508.036463,2451.505594,6217.729913
1415.933376,-14508.036463,1072.533697,7994.224174
1415.933687,-10436.903782,-306.438199,6587.832884
1415.933999,-6883.915261,-1762.019645,4737.318029
1415.934310,-3478.967927,-2145.067394,2072.576638
1415.934622,-222.061783,-766.095498,666.185348
1415.934933,-2442.679609,1149.143247,148.041188
1415.935245,-6957.935855,919.314598,814.226536
1415.935556,-12361.439231,919.314598,1998.556043
1415.935867,-14730.098246,995.924147,4071.132681
1415.936179,-14878.139434,1378.971896,5773.606348
1415.936490,-12805.562797,919.314598,5551.544565
1415.936802,-10732.986159,-766.095498,2664.741391
1415.937113,-5995.668130,-995.924147,814.226536
1415.937425,-2072.576638,-1608.800546,-3108.864956
1415.937736,-1480.411884,459.657299,-4367.215058
1415.938048,-4663.297435,2528.115143,-3182.885551
1415.938359,-12213.398043,2834.553343,-814.226536
1415.938670,-17172.777854,1072.533697,2664.741391
1415.938982,-17838.963202,0.000000,4811.338623
1415.939293,-15100.201217,-919.314598,4145.153275
1415.939605,-9548.656652,-612.876398,1406.391290
1415.939916,-4737.318029,-1072.533697,-3034.844362
1415.940228,0.000000,-689.485948,-6661.853478
1415.940539,-666.185348,-306.438199,-6513.812290
1415.940851,-6069.688724,0.000000,-4737.318029
1415.941162,-12583.501014,0.000000,-1110.308913
1415.941473,-17616.901420,-536.266849,2146.597232
1415.941785,-17987.004391,-1225.752797,4293.194464
1415.942096,-13841.851115,-1838.629195,2516.700203
1415.942408,-8364.327145,-1608.800546,-0.000000
1415.942719,-3701.029710,-1762.019645,-2960.823768
1415.943031,-814.226536,-1532.190996,-6069.688724
1415.943342,-1258.350101,76.609550,-6957.935855
1415.943653,-6513.812290,2298.286494,-5625.565159
1415.943965,-12879.583391,3140.991542,-3330.926739
1415.944276,-16136.489536,1991.848295,740.205942
1415.944588,-16210.510130,1225.752797,2368.659014
1415.944899,-13471.748144,-1302.362347,1702.473667
1415.945211,-10214.842000,-2221.676944,-222.061783
1415.945522,-6735.874072,-1762.019645,-2960.823768
1415.945834,-2886.803174,-1302.362347,-4367.215058
1415.946145,-2960.823768,-995.924147,-4811.338623
1415.946456,-7846.182985,-1072.533697,-2886.803174
1415.946768,-12435.459826,306.438199,592.164754
1415.947079,-16432.571912,0.000000,3034.844362
1415.947391,-16506.592507,306.438199,4885.359217
1415.947702,-12435.459826,-1072.533697,5403.503377
1415.948014,-9178.553681,-2834.553343,2590.720797
1415.948325,-4959.379811,-2834.553343,-592.164754
1415.948637,-2072.576638,-1149.143247,-3404.947333
1415.948948,-1110.308913,1302.362347,-3923.091493
1415.949259,-4293.194464,2298.286494,-2368.659014
1415.949571,-10140.821405,1915.238745,518.144159
1415.949882,-14878.139434,1378.971896,2812.782580
1415.950194,-16136.489536,766.095498,5921.647536
1415.950505,-13397.727550,0.000000,5551.544565
1415.950817,-9178.553681,-689.485948,3552.988522
1415.951128,-5995.668130,-1225.752797,222.061783
1415.951439,-1554.432478,-459.657299,-2220.617826
1415.951751,-666.185348,536.266849,-3182.885551
1415.952062,-3997.112087,842.705048,-1554.432478
1415.952374,-9918.759623,995.924147,962.267725
1415.952685,-15100.201217,766.095498,4145.153275
1415.952997,-15914.427753,0.000000,6809.894666
1415.953308,-13027.624579,-1532.190996,6069.688724
1415.953620,-9400.615463,-1991.848295,4145.153275
1415.953931,-5107.421000,-1225.752797,1406.391290
1415.954242,-1776.494261,-766.095498,-1628.453072
1415.954554,-1998.556043,995.924147,-3182.885551
1415.954865,-5551.544565,1838.629195,-2516.700203
1415.955177,-10214.842000,2528.115143,-444.123565
1415.955488,-13841.851115,2068.457845,2738.761985
1415.955800,-14359.995275,919.314598,5255.462188
1415.956111,-12879.583391,-1225.752797,4811.338623
1415.956423,-8438.347739,-1838.629195,3849.070898
1415.956734,-6217.729913,-1915.238745,222.061783
1415.957045,-3627.009116,-766.095498,-592.164754
1415.957357,-3775.050304,0.000000,-2294.638420
1415.957668,-7698.141797,383.047749,-1480.411884
1415.957980,-11991.336260,536.266849,-148.041188
1415.958291,-14582.057057,842.705048,2072.576638
1415.958603,-13619.789333,842.705048,3849.070898
1415.958914,-11103.089130,-153.219100,3478.967927
1415.959225,-8290.306550,-1378.971896,2590.720797
1415.959537,-5181.441594,-2145.067394,740.205942
1415.959848,-3849.070898,-1302.362347,-888.247130
1415.960160,-4589.276840,459.657299,-2072.576638
1415.960471,-7698.141797,1378.971896,-592.164754
1415.960783,-10658.965565,689.485948,-296.082377
1415.961094,-11843.295072,-229.828649,592.164754
1415.961406,-10436.903782,919.314598,1998.556043
1415.961717,-9474.636058,-306.438199,1998.556043
1415.962028,-8808.450710,-383.047749,1702.473667
1415.962340,-8512.368333,-1838.629195,-296.082377
1415.962651,-6809.894666,-1225.752797,-1332.370696
1415.962963,-5107.421000,76.609550,-2220.617826
1415.963274,-6291.750507,1838.629195,-2368.659014
1415.963586,-8068.244768,1762.019645,-2442.679609
1415.963897,-11029.068536,76.609550,-1184.329507
1415.964209,-12065.356855,536.266849,1332.370696
1415.964520,-11473.192101,76.609550,1850.514855
1415.964831,-11251.130318,-1915.238745,1554.432478
1415.965143,-9770.718434,-3064.381992,222.061783
1415.965454,-7105.977043,-2681.334243,-1924.535449
1415.965766,-5329.482782,-306.438199,-4589.276840
1415.966077,-5995.668130,2068.457845,-3775.050304
1415.966389,-9474.636058,2221.676944,-3182.885551
1415.966700,-13841.851115,1762.019645,-814.226536
1415.967011,-14285.974681,459.657299,1628.453072
1415.967323,-13027.624579,-1149.143247,1110.308913
1415.967634,-10881.027347,-1149.143247,666.185348
1415.967946,-7402.059420,-1072.533697,-1332.370696
1415.968257,-5255.462188,-1072.533697,-3182.885551
1415.968569,-5625.565159,-1685.410096,-3256.906145
1415.968880,-9474.636058,-1072.533697,-1258.350101
1415.969192,-13323.706956,-842.705048,-370.102971
1415.969503,-14211.954086,-153.219100,1628.453072
1415.969814,-14285.974681,-1225.752797,3552.988522
1415.970126,-11251.130318,-3064.381992,3256.906145
1415.970437,-6957.935855,-3447.429741,962.267725
1415.970749,-3552.988522,-2221.676944,-666.185348
1415.971060,-2664.741391,-459.657299,-1554.432478
1415.971372,-4589.276840,229.828649,-1702.473667
1415.971683,-8068.244768,1762.019645,-74.020594
1415.971995,-11843.295072,2145.067394,740.205942
1415.972306,-13619.789333,2221.676944,2590.720797
1415.972617,-12287.418637,1915.238745,3923.091493
1415.972929,-9770.718434,612.876398,2590.720797
1415.973240,-7179.997637,-919.314598,1184.329507
1415.973552,-4663.297435,-1072.533697,-0.000000
1415.973863,-2812.782580,-995.924147,-1258.350101
1415.974175,-2368.659014,-766.095498,-1406.391290
1415.974486,-6217.729913,-689.485948,-148.041188
1415.974797,-11325.150913,-306.438199,1554.432478
1415.975109,-14063.912898,842.705048,3701.029710
1415.975420,-15026.180623,612.876398,5477.523971
1415.975732,-12435.459826,-612.876398,5699.585753
1415.976043,-9030.512492,-1455.581446,4737.318029
1415.976355,-6513.812290,-1762.019645,2294.638420
1415.976666,-3256.906145,-689.485948,-148.041188
1415.976978,-2368.659014,842.705048,-888.247130
1415.977289,-4737.318029,1685.410096,-1110.308913
1415.977600,-8586.388927,2604.724693,296.082377
1415.977912,-13249.686362,2298.286494,1924.535449
1415.978223,-14804.118840,1991.848295,3627.009116
1415.978535,-12213.398043,1915.238745,4811.338623
1415.978846,-8808.450710,-153.219100,2738.761985
1415.979158,-5181.441594,-766.095498,-0.000000
1415.979469,-3701.029710,-153.219100,-1628.453072
1415.979781,-4441.235652,536.266849,-666.185348
1415.980092,-7846.182985,-306.438199,148.041188
1415.980403,-11029.068536,-1455.581446,666.185348
1415.980715,-12435.459826,-536.266849,1332.370696
1415.981026,-12805.562797,153.219100,1998.556043
1415.981338,-10955.047942,-842.705048,3256.906145
1415.981649,-9844.739029,-2374.896044,1850.514855
1415.981961,-9030.512492,-2911.162892,370.102971
1415.982272,-7254.018232,-2221.676944,-74.020594
1415.982583,-6735.874072,-766.095498,-1110.308913
1415.982895,-7105.977043,766.095498,-1702.473667
1415.983206,-9326.594869,919.314598,-1850.514855
1415.983518,-11473.192101,842.705048,-1036.288319
1415.983829,-11621.233289,1455.581446,1184.329507
1415.984141,-11177.109724,1762.019645,1406.391290
1415.984452,-9992.780217,0.000000,962.267725
1415.984764,-8290.306550,-1302.362347,-888.247130
1415.985075,-5995.668130,-1225.752797,-2368.659014
1415.985386,-3256.906145,459.657299,-3478.967927
1415.985698,-4663.297435,766.095498,-3478.967927
1415.986009,-8882.471304,689.485948,-1998.556043
1415.986321,-12065.356855,383.047749,-0.000000
1415.986632,-15026.180623,-383.047749,2590.720797
1415.986944,-14804.118840,-536.266849,4737.318029
1415.987255,-11991.336260,-1532.190996,3552.988522
1415.987567,-9030.512492,-2298.286494,888.247130
1415.987878,-5181.441594,-2451.505594,-1480.411884
1415.988189,-2664.741391,-1149.143247,-3330.926739
1415.988501,-3849.070898,536.266849,-2960.823768
1415.988812,-8364.327145,1149.143247,-1184.329507
1415.989124,-13027.624579,459.657299,1184.329507
1415.989435,-15248.242405,306.438199,3330.926739
1415.989747,-14434.015869,842.705048,4737.318029
1415.990058,-11177.109724,459.657299,3997.112087
1415.990369,-7920.203579,-612.876398,2220.617826
1415.990681,-4959.379811,-1378.971896,-222.061783
1415.990992,-1998.556043,-459.657299,-1850.514855
1415.991304,-2516.700203,0.000000,-1628.453072
1415.991615,-7105.977043,229.828649,-148.041188
1415.991927,-11399.171507,306.438199,1702.473667
1415.992238,-13767.830521,-689.485948,3997.112087
1415.992550,-12657.521608,-1149.143247,5329.482782
1415.992861,-10140.821405,-1762.019645,3627.009116
1415.993172,-8068.244768,-1762.019645,1850.514855
1415.993484,-5033.400406,-1225.752797,-0.000000
1415.993795,-3404.947333,-536.266849,-2072.576638
1415.994107,-4885.359217,1685.410096,-2220.617826
1415.994418,-7772.162391,2528.115143,-1332.370696
1415.994730,-11769.274478,2757.943793,-0.000000
1415.995041,-13397.727550,2834.553343,2516.700203
1415.995353,-13101.645173,2068.457845,3478.967927
1415.995664,-10955.047942,689.485948,3478.967927
1415.995975,-7402.059420,-459.657299,1554.432478
1415.996287,-5181.441594,-919.314598,-1406.391290
1415.996598,-3034.844362,229.828649,-2738.761985
1415.996910,-4589.276840,1455.581446,-3330.926739
1415.997221,-8882.471304,1072.533697,-1702.473667
1415.997533,-12731.542202,153.219100,-0.000000
1415.997844,-14582.057057,-766.095498,3330.926739
1415.998155,-14137.933492,-1072.533697,4737.318029
1415.998467,-12287.418637,-1685.410096,3775.050304
1415.998778,-10140.821405,-2145.067394,2368.659014
1415.999090,-7550.100608,-2757.943793,444.123565
1415.999401,-4441.235652,-2221.676944,-1628.453072
1415.999713,-3182.885551,-995.924147,-3627.009116
1416.000024,-5033.400406,1455.581446,-2516.700203
1416.000336,-9918.759623,2528.115143,-1554.432478
1416.000647,-13989.892304,1838.629195,1406.391290
1416.000958,-15766.386565,1149.143247,3997.112087
1416.001270,-15248.242405,306.438199,5181.441594
1416.001581,-12213.398043,0.000000,4071.132681
1416.001893,-7624.121203,-153.219100,962.267725
1416.002204,-1998.556043,0.000000,-2368.659014
1416.002516,518.144159,1072.533697,-5033.400406
1416.002827,-1628.453072,1072.533697,-2886.803174
1416.003138,-6883.915261,306.438199,-1110.308913
1416.003450,-12657.521608,536.266849,2664.741391
1416.003761,-15248.242405,-919.314598,5625.565159
1416.004073,-14582.057057,-1838.629195,5921.647536
1416.004384,-11177.109724,-2298.286494,3404.947333
1416.004696,-6217.729913,-1838.629195,1184.329507
1416.005007,-1702.473667,-2221.676944,-1554.432478
1416.005319,-962.267725,-766.095498,-3997.112087
1416.005630,-3701.029710,1378.971896,-2516.700203
1416.005941,-10288.862594,1991.848295,-1850.514855
1416.006253,-14063.912898,1762.019645,2590.720797
