#time,accel_x,accel_y,accel_z
1458.359204,-8956.491898,0.000000,592.164754
1458.359516,-8808.450710,0.000000,444.123565
1458.359827,-8660.409521,76.609550,518.144159
1458.360139,-8512.368333,0.000000,370.102971
1458.360450,-8956.491898,0.000000,444.123565
1458.360762,-8734.430116,76.609550,592.164754
1458.361073,-8956.491898,-229.828649,444.123565
1458.361385,-8808.450710,-306.438199,592.164754
1458.361696,-9104.533087,0.000000,444.123565
1458.362008,-8956.491898,0.000000,518.144159
1458.362319,-8660.409521,-76.609550,370.102971
1458.362631,-9252.574275,0.000000,444.123565
1458.362942,-9104.533087,306.438199,518.144159
1458.363254,-9030.512492,-153.219100,370.102971
1458.363565,-8882.471304,0.000000,592.164754
1458.363877,-8956.491898,0.000000,592.164754
1458.364188,-8956.491898,0.000000,518.144159
1458.364500,-8882.471304,76.609550,740.205942
1458.364811,-8882.471304,306.438199,740.205942
1458.365123,-8660.409521,-536.266849,740.205942
1458.365434,-8512.368333,0.000000,888.247130
1458.365746,-8734.430116,0.000000,666.185348
1458.366057,-8734.430116,-229.828649,592.164754
1458.366369,-8956.491898,0.000000,444.123565
1458.366680,-8808.450710,0.000000,518.144159
1458.366992,-8660.409521,153.219100,592.164754
1458.367303,-8882.471304,383.047749,444.123565
1458.367615,-8882.471304,-306.438199,370.102971
1458.367926,-8512.368333,-153.219100,518.144159
1458.368238,-8882.471304,153.219100,370.102971
1458.368549,-9030.512492,0.000000,518.144159
1458.368861,-8882.471304,-153.219100,518.144159
1458.369172,-9030.512492,0.000000,518.144159
1458.369484,-8660.409521,76.609550,740.205942
1458.369795,-8882.471304,0.000000,370.102971
1458.370107,-8956.491898,76.609550,296.082377
1458.370418,-8956.491898,0.000000,148.041188
1458.370730,-9030.512492,0.000000,444.123565
1458.371041,-8808.450710,-153.219100,518.144159
1458.371353,-8956.491898,-153.219100,592.164754
1458.371664,-8956.491898,0.000000,444.123565
1458.371976,-8734.430116,0.000000,370.102971
1458.372287,-9178.553681,-842.705048,222.061783
1458.372599,-9252.574275,153.219100,370.102971
1458.372910,-8808.450710,-153.219100,370.102971
1458.373222,-8956.491898,0.000000,518.144159
1458.373533,-9030.512492,0.000000,592.164754
1458.373845,-9104.533087,-153.219100,444.123565
1458.374156,-8882.471304,76.609550,592.164754
1458.374468,-8808.450710,0.000000,592.164754
1458.374779,-8808.450710,76.609550,740.205942
1458.375091,-9104.533087,383.047749,222.061783
1458.375402,-8882.471304,153.219100,222.061783
1458.375714,-8956.491898,-153.219100,444.123565
1458.376025,-8956.491898,-153.219100,370.102971
1458.376337,-8956.491898,0.000000,592.164754
1458.376648,-9030.512492,229.828649,740.205942
1458.376960,-8956.491898,-689.485948,444.123565
1458.377271,-8290.306550,0.000000,518.144159
1458.377583,-9104.533087,536.266849,296.082377
1458.377894,-8882.471304,-76.609550,444.123565
1458.378206,-8956.491898,0.000000,370.102971
1458.378517,-8956.491898,0.000000,444.123565
1458.378829,-8882.471304,-153.219100,444.123565
1458.379140,-8586.388927,306.438199,592.164754
1458.379452,-8734.430116,0.000000,370.102971
1458.379763,-8586.388927,0.000000,370.102971
1458.380075,-9030.512492,0.000000,888.247130
1458.380387,-8808.450710,0.000000,888.247130
1458.380698,-8882.471304,0.000000,740.205942
1458.381010,-8808.450710,0.000000,444.123565
1458.381321,-8882.471304,0.000000,592.164754
1458.381633,-8956.491898,0.000000,222.061783
1458.381944,-8956.491898,-919.314598,518.144159
1458.382256,-8586.388927,0.000000,814.226536
1458.382567,-8734.430116,-612.876398,666.185348
1458.382879,-9030.512492,-229.828649,518.144159
1458.383190,-9104.533087,-306.438199,370.102971
1458.383502,-9030.512492,-153.219100,370.102971
1458.383813,-8956.491898,0.000000,518.144159
1458.384125,-9104.533087,0.000000,444.123565
1458.384436,-8882.471304,536.266849,740.205942
1458.384748,-8956.491898,0.000000,888.247130
1458.385059,-8660.409521,229.828649,518.144159
1458.385371,-8956.491898,0.000000,518.144159
1458.385682,-8956.491898,76.609550,592.164754
1458.385994,-8808.450710,-306.438199,592.164754
1458.386305,-9104.533087,383.047749,444.123565
1458.386617,-8956.491898,-153.219100,518.144159
1458.386928,-8734.430116,229.828649,370.102971
1458.387240,-9178.553681,0.000000,-0.000000
1458.387551,-9030.512492,-76.609550,296.082377
1458.387863,-9178.553681,0.000000,370.102971
1458.388174,-11251.130318,306.438199,-0.000000
1458.388486,-11399.171507,2757.943793,296.082377
1458.388797,-8882.471304,4903.011187,370.102971
1458.389109,-7624.121203,4136.915689,740.205942
1458.389420,-6513.812290,1455.581446,1406.391290
1458.389732,-6883.915261,-995.924147,-148.041188
1458.390043,-7550.100608,-1072.533697,-148.041188
1458.390355,-7550.100608,-153.219100,-370.102971
1458.390666,-11991.336260,-689.485948,-1258.350101
1458.390978,-12583.501014,-306.438199,-296.082377
1458.391289,-10140.821405,919.314598,814.226536
1458.391601,-8660.409521,-229.828649,1702.473667
1458.391912,-9400.615463,-229.828649,2516.700203
1458.392224,-11843.295072,919.314598,1554.432478
1458.392535,-8216.285956,4673.182538,2590.720797
1458.392847,-4959.379811,5439.278036,1776.494261
1458.393158,-7624.121203,3294.210641,518.144159
1458.393470,-7624.121203,2604.724693,-592.164754
1458.393781,-7328.038826,3217.601092,-2368.659014
1458.394093,-8734.430116,3677.258390,-1406.391290
1458.394404,-9030.512492,3677.258390,-296.082377
1458.394716,-12731.542202,2068.457845,-1110.308913
1458.395027,-13841.851115,-995.924147,1184.329507
1458.395339,-8216.285956,-995.924147,2812.782580
1458.395650,-9918.759623,459.657299,962.267725
1458.395962,-8216.285956,5132.839837,2590.720797
1458.396273,-8068.244768,4979.620737,888.247130
1458.396585,-7105.977043,2528.115143,1776.494261
1458.396896,-6513.812290,4673.182538,2738.761985
1458.397208,-8290.306550,6588.421283,888.247130
1458.397519,-8364.327145,6435.202183,-888.247130
1458.397831,-9104.533087,4903.011187,-1258.350101
1458.398142,-9326.594869,4673.182538,-1406.391290
1458.398454,-10362.883188,5669.106685,-1036.288319
1458.398765,-11621.233289,5898.935335,-148.041188
1458.399077,-11325.150913,4903.011187,1406.391290
1458.399388,-10436.903782,4673.182538,1776.494261
1458.399700,-9326.594869,5286.058936,2664.741391
1458.400011,-7105.977043,5209.449386,1258.350101
1458.400323,-5625.565159,6052.154434,-0.000000
1458.400634,-4959.379811,5209.449386,592.164754
1458.400946,-5477.523971,5975.544884,-518.144159
1458.401257,-5995.668130,4519.963438,-666.185348
1458.401569,-8068.244768,3753.867940,-1332.370696
1458.401880,-9178.553681,3524.039291,-740.205942
1458.402192,-10436.903782,1991.848295,592.164754
1458.402503,-10807.006753,919.314598,814.226536
1458.402815,-11399.171507,0.000000,1702.473667
1458.403126,-10955.047942,842.705048,1998.556043
1458.403438,-9400.615463,2834.553343,2368.659014
1458.403749,-8216.285956,4366.744339,1554.432478
1458.404061,-6883.915261,3830.477490,148.041188
1458.404372,-6513.812290,3830.477490,-518.144159
1458.404684,-6809.894666,4060.306139,-814.226536
1458.404995,-6661.853478,3677.258390,-962.267725
1458.405307,-7550.100608,1455.581446,-962.267725
1458.405618,-9400.615463,-1225.752797,-666.185348
1458.405930,-10584.944971,-2221.676944,-0.000000
1458.406241,-12139.377449,-2068.457845,592.164754
1458.406553,-13027.624579,-1762.019645,1628.453072
1458.406864,-13471.748144,-1149.143247,1480.411884
1458.407176,-12435.459826,689.485948,1184.329507
1458.407487,-11029.068536,2757.943793,518.144159
1458.407799,-8586.388927,4519.963438,-148.041188
1458.408110,-6069.688724,4290.134789,-0.000000
1458.408422,-5773.606348,4443.353888,148.041188
1458.408733,-5551.544565,4213.525239,962.267725
1458.409045,-7328.038826,2911.162892,296.082377
1458.409356,-9770.718434,1608.800546,-222.061783
1458.409668,-12139.377449,306.438199,-296.082377
1458.409979,-13693.809927,153.219100,-444.123565
1458.410291,-14063.912898,229.828649,148.041188
1458.410603,-13619.789333,1225.752797,740.205942
1458.410914,-11769.274478,2068.457845,1036.288319
1458.411226,-9474.636058,2911.162892,1776.494261
1458.411537,-7031.956449,4060.306139,1998.556043
1458.411849,-4145.153275,5132.839837,1776.494261
1458.412160,-2368.659014,5669.106685,370.102971
1458.412472,-1850.514855,5822.325785,-518.144159
1458.412783,-2960.823768,4290.134789,-1258.350101
1458.413095,-7179.997637,2911.162892,-1628.453072
1458.413406,-11177.109724,3524.039291,-740.205942
1458.413718,-14508.036463,3677.258390,-0.000000
1458.414029,-15618.345376,3753.867940,2294.638420
1458.414341,-15174.221811,2911.162892,3627.009116
1458.414652,-11991.336260,3217.601092,3775.050304
1458.414964,-7698.141797,3907.087040,2220.617826
1458.415275,-3923.091493,4903.011187,1332.370696
1458.415587,-1628.453072,7354.516781,-444.123565
1458.415898,-1850.514855,7584.345430,-1998.556043
1458.416210,-3256.906145,7584.345430,-1924.535449
1458.416521,-6291.750507,4749.792088,-1554.432478
1458.416833,-7698.141797,2757.943793,296.082377
1458.417144,-10362.883188,0.000000,296.082377
1458.417456,-12805.562797,-2528.115143,740.205942
1458.417767,-11473.192101,-2757.943793,814.226536
1458.418079,-13027.624579,-1608.800546,1554.432478
1458.418390,-13027.624579,0.000000,1924.535449
1458.418702,-11843.295072,1838.629195,1702.473667
1458.419013,-11399.171507,4060.306139,1776.494261
1458.419325,-8586.388927,5898.935335,2960.823768
1458.419636,-6809.894666,6281.983084,2220.617826
1458.419948,-6883.915261,4596.572988,296.082377
1458.420259,-5329.482782,3370.820191,-0.000000
1458.420571,-5995.668130,2528.115143,-2960.823768
1458.420882,-8586.388927,3677.258390,-3404.947333
1458.421194,-10732.986159,4519.963438,-3701.029710
1458.421505,-11769.274478,3447.429741,-1702.473667
1458.421817,-12731.542202,919.314598,444.123565
1458.422128,-13693.809927,-153.219100,2590.720797
1458.422440,-13027.624579,919.314598,2812.782580
1458.422751,-12213.398043,2834.553343,2072.576638
1458.423063,-10436.903782,5439.278036,1332.370696
1458.423374,-7328.038826,7354.516781,-148.041188
1458.423686,-5625.565159,5898.935335,-666.185348
1458.423997,-4885.359217,3677.258390,-444.123565
1458.424309,-5995.668130,1915.238745,-740.205942
1458.424620,-8364.327145,1838.629195,-518.144159
1458.424932,-9104.533087,2604.724693,444.123565
1458.425243,-9400.615463,995.924147,-0.000000
1458.425555,-8956.491898,-1455.581446,1406.391290
1458.425866,-8660.409521,-3370.820191,1110.308913
1458.426178,-8956.491898,-76.609550,592.164754
1458.426489,-9844.739029,4749.792088,-74.020594
1458.426801,-10881.027347,7967.393179,-0.000000
1458.427112,-10436.903782,9959.241474,74.020594
1458.427424,-9770.718434,7507.735880,1702.473667
1458.427735,-8290.306550,4903.011187,2146.597232
1458.428047,-7328.038826,2987.772442,1480.411884
1458.428358,-6217.729913,4060.306139,740.205942
1458.428670,-4811.338623,4979.620737,592.164754
1458.428981,-4145.153275,2451.505594,-0.000000
1458.429293,-5477.523971,-1225.752797,-0.000000
1458.429604,-6513.812290,-1762.019645,-148.041188
1458.429916,-8956.491898,842.705048,-814.226536
1458.430227,-12213.398043,4903.011187,-740.205942
1458.430539,-14211.954086,7354.516781,-370.102971
1458.430850,-14137.933492,6205.373534,2146.597232
1458.431162,-14211.954086,3294.210641,3923.091493
1458.431473,-12139.377449,1149.143247,4293.194464
1458.431785,-9474.636058,2374.896044,2738.761985
1458.432096,-6513.812290,3753.867940,1924.535449
1458.432407,-3182.885551,842.705048,1036.288319
1458.432718,-2812.782580,-2911.162892,-222.061783
1458.433030,-4885.359217,-5669.106685,-962.267725
1458.433341,-6217.729913,-2374.896044,-1036.288319
1458.433652,-8068.244768,3217.601092,-1628.453072
1458.433963,-11399.171507,5592.497135,-0.000000
1458.434275,-15840.407159,4290.134789,962.267725
1458.434586,-17912.983796,2528.115143,2072.576638
1458.434897,-15840.407159,4903.011187,3478.967927
1458.435208,-11769.274478,7354.516781,2664.741391
1458.435520,-7476.080014,7354.516781,444.123565
1458.435831,-3627.009116,2374.896044,370.102971
1458.436142,-1332.370696,-1762.019645,-1406.391290
1458.436453,0.000000,-995.924147,-1184.329507
1458.436765,-2442.679609,1915.238745,-1036.288319
1458.437076,-8882.471304,3064.381992,-518.144159
1458.437387,-14508.036463,1915.238745,-444.123565
1458.437698,-17246.798449,1991.848295,666.185348
1458.438010,-15840.407159,5056.230287,1554.432478
1458.438321,-12953.603985,6128.763984,518.144159
1458.438632,-11621.233289,4443.353888,-592.164754
1458.438943,-9104.533087,1532.190996,-962.267725
1458.439255,-4515.256246,1991.848295,-1110.308913
1458.439566,-2664.741391,3370.820191,-296.082377
1458.439877,-4663.297435,2604.724693,444.123565
1458.440188,-7402.059420,-766.095498,1628.453072
1458.440500,-9844.739029,-995.924147,2368.659014
1458.440811,-9548.656652,2298.286494,2664.741391
1458.441122,-10362.883188,6281.983084,148.041188
1458.441433,-12361.439231,7277.907231,-1850.514855
1458.441745,-10584.944971,5975.544884,-3256.906145
1458.442056,-7476.080014,6588.421283,-3404.947333
1458.442367,-8586.388927,8273.831378,-2368.659014
1458.442678,-11325.150913,8886.707777,-1110.308913
1458.442990,-14434.015869,6128.763984,1628.453072
1458.443301,-11251.130318,1762.019645,4959.379811
1458.443612,-7698.141797,-1455.581446,4885.359217
1458.443923,-5477.523971,-1762.019645,2516.700203
1458.444235,-4737.318029,0.000000,-296.082377
1458.444546,-2812.782580,919.314598,-1776.494261
1458.444857,-2368.659014,2604.724693,-2368.659014
1458.445168,-8142.265362,4290.134789,-222.061783
1458.445480,-13249.686362,4673.182538,1406.391290
1458.445791,-16136.489536,3217.601092,3627.009116
1458.446102,-15100.201217,2068.457845,5033.400406
1458.446413,-10881.027347,1915.238745,3256.906145
1458.446724,-7846.182985,2068.457845,222.061783
1458.447036,-3182.885551,1455.581446,-1332.370696
1458.447347,-1554.432478,-919.314598,-1406.391290
1458.447658,-3627.009116,-4136.915689,-0.000000
1458.447969,-6883.915261,-3524.039291,2368.659014
1458.448281,-10066.800811,-3217.601092,3478.967927
1458.448592,-10807.006753,-4136.915689,4293.194464
1458.448903,-10584.944971,-4136.915689,3108.864956
1458.449214,-8290.306550,-1225.752797,-0.000000
1458.449526,-7254.018232,842.705048,-2294.638420
1458.449837,-9104.533087,1225.752797,-2368.659014
1458.450148,-10584.944971,1685.410096,-1036.288319
1458.450459,-12435.459826,1838.629195,814.226536
1458.450771,-12435.459826,-1225.752797,3701.029710
1458.451082,-11695.253884,-3907.087040,3256.906145
1458.451393,-10140.821405,-1072.533697,1628.453072
1458.451704,-5403.503377,2145.067394,370.102971
1458.452016,-4515.256246,842.705048,-2516.700203
1458.452327,-6809.894666,995.924147,-2886.803174
1458.452638,-9770.718434,3907.087040,-2220.617826
1458.452949,-12509.480420,5056.230287,-1924.535449
1458.453261,-13397.727550,3370.820191,-518.144159
1458.453572,-14952.160028,1455.581446,-1628.453072
1458.453883,-12657.521608,3370.820191,-1184.329507
1458.454194,-10362.883188,2068.457845,-1036.288319
1458.454506,-9474.636058,-383.047749,1110.308913
1458.454817,-10362.883188,-2987.772442,2220.617826
1458.455128,-10066.800811,-2834.553343,2442.679609
1458.455439,-8586.388927,-1991.848295,3627.009116
1458.455751,-7179.997637,-1685.410096,1480.411884
1458.456062,-4959.379811,612.876398,-962.267725
1458.456373,-3108.864956,2757.943793,-3182.885551
1458.456684,-3775.050304,3370.820191,-3404.947333
1458.456996,-7920.203579,3447.429741,-2368.659014
1458.457307,-10881.027347,3447.429741,-444.123565
1458.457618,-13323.706956,1991.848295,1998.556043
1458.457929,-13323.706956,-2911.162892,3923.091493
1458.458241,-11325.150913,-4213.525239,3404.947333
1458.458552,-7402.059420,-2145.067394,1332.370696
1458.458863,-2738.761985,-1072.533697,1110.308913
1458.459174,-4219.173869,-3907.087040,518.144159
1458.459486,-4959.379811,-3753.867940,1776.494261
1458.459797,-5551.544565,-842.705048,1998.556043
1458.460108,-7105.977043,-153.219100,2960.823768
1458.460419,-6291.750507,-459.657299,1110.308913
1458.460731,-5995.668130,612.876398,-1036.288319
1458.461042,-5255.462188,1455.581446,-1850.514855
1458.461353,-7179.997637,0.000000,-1036.288319
1458.461664,-10807.006753,-536.266849,740.205942
1458.461976,-14137.933492,76.609550,2294.638420
1458.462287,-16358.551318,-3064.381992,4885.359217
1458.462598,-15544.324782,-5898.935335,4663.297435
1458.462909,-11843.295072,-4136.915689,1850.514855
1458.463221,-6291.750507,842.705048,-0.000000
1458.463532,-3849.070898,0.000000,-1776.494261
1458.463843,-4737.318029,-1072.533697,-2146.597232
1458.464154,-7254.018232,0.000000,-1480.411884
1458.464466,-9918.759623,1838.629195,-518.144159
1458.464777,-12435.459826,919.314598,962.267725
1458.465088,-14359.995275,459.657299,518.144159
1458.465399,-11843.295072,2451.505594,-370.102971
1458.465711,-9400.615463,1532.190996,-518.144159
1458.466022,-10288.862594,-689.485948,-0.000000
1458.466333,-11769.274478,-842.705048,1998.556043
1458.466644,-13101.645173,1072.533697,1924.535449
1458.466956,-12879.583391,0.000000,3775.050304
1458.467267,-11843.295072,-1072.533697,2072.576638
1458.467578,-8068.244768,2298.286494,-1184.329507
1458.467889,-3997.112087,6435.202183,-2960.823768
1458.468201,-3330.926739,5056.230287,-4071.132681
1458.468512,-5477.523971,3677.258390,-2812.782580
1458.468823,-9030.512492,2681.334243,-1110.308913
1458.469134,-10288.862594,2221.676944,1850.514855
1458.469446,-10214.842000,0.000000,3478.967927
1458.469757,-9622.677246,-1762.019645,3256.906145
1458.470068,-5995.668130,229.828649,2442.679609
1458.470379,-2812.782580,-153.219100,888.247130
1458.470691,-3627.009116,-1532.190996,444.123565
1458.471002,-5477.523971,0.000000,444.123565
1458.471313,-7624.121203,1225.752797,962.267725
1458.471624,-9622.677246,-2298.286494,888.247130
1458.471936,-9844.739029,-3600.648841,296.082377
1458.472247,-7550.100608,-1532.190996,-1924.535449
1458.472558,-4959.379811,76.609550,-2146.597232
1458.472869,-6439.791695,-2221.676944,-1258.350101
1458.473181,-9400.615463,-4366.744339,888.247130
1458.473492,-11843.295072,-2528.115143,2886.803174
1458.473803,-13027.624579,-2145.067394,5403.503377
1458.474114,-12065.356855,-3140.991542,5033.400406
1458.474426,-9326.594869,-2298.286494,2664.741391
1458.474737,-5255.462188,1225.752797,-0.000000
1458.475048,-4071.132681,1838.629195,-2516.700203
1458.475359,-5921.647536,1532.190996,-3330.926739
1458.475671,-9992.780217,3064.381992,-2886.803174
1458.475982,-13175.665768,1149.143247,-1184.329507
1458.476293,-14211.954086,-1225.752797,-444.123565
1458.476604,-14730.098246,-2221.676944,-222.061783
1458.476916,-12361.439231,612.876398,-1184.329507
1458.477227,-10658.965565,1455.581446,-1628.453072
1458.477538,-10881.027347,-536.266849,-0.000000
1458.477849,-10584.944971,-153.219100,2664.741391
1458.478161,-11251.130318,919.314598,4293.194464
1458.478472,-12583.501014,-612.876398,4885.359217
1458.478783,-12139.377449,-1838.629195,2442.679609
1458.479094,-6957.935855,1762.019645,-1110.308913
1458.479405,-5255.462188,3830.477490,-3775.050304
1458.479717,-4885.359217,2451.505594,-4737.318029
1458.480028,-6957.935855,459.657299,-3330.926739
1458.480339,-9992.780217,0.000000,-0.000000
1458.480650,-12287.418637,-2068.457845,4293.194464
1458.480962,-15322.262999,-5669.106685,4737.318029
1458.481273,-13397.727550,-3907.087040,3701.029710
1458.481584,-7698.141797,-306.438199,2368.659014
1458.481895,-4145.153275,919.314598,592.164754
1458.482207,-3034.844362,229.828649,-74.020594
1458.482518,-3923.091493,1838.629195,-296.082377
1458.482829,-4071.132681,2681.334243,1702.473667
1458.483140,-6143.709319,0.000000,2368.659014
1458.483452,-7846.182985,-1532.190996,1332.370696
1458.483763,-5181.441594,153.219100,-222.061783
1458.484074,-2220.617826,0.000000,-1776.494261
1458.484385,-3627.009116,-2145.067394,-444.123565
1458.484697,-7254.018232,-2221.676944,-0.000000
1458.485008,-10658.965565,-306.438199,1480.411884
1458.485319,-13397.727550,-1762.019645,3849.070898
1458.485630,-14211.954086,-3294.210641,4219.173869
1458.485942,-12879.583391,-919.314598,1184.329507
1458.486253,-9252.574275,3370.820191,-1258.350101
1458.486564,-5995.668130,3370.820191,-2368.659014
1458.486875,-5255.462188,1838.629195,-2294.638420
1458.487187,-6365.771101,3217.601092,-592.164754
1458.487498,-9326.594869,2451.505594,1184.329507
1458.487809,-11103.089130,-1378.971896,1924.535449
1458.488120,-10436.903782,-2374.896044,370.102971
1458.488432,-8290.306550,1991.848295,-1332.370696
1458.488743,-8142.265362,1838.629195,-2442.679609
1458.489054,-10807.006753,-1838.629195,-2368.659014
1458.489365,-14137.933492,-919.314598,-444.123565
1458.489677,-16580.613101,1685.410096,1554.432478
1458.489988,-18061.024985,612.876398,3552.988522
1458.490299,-16210.510130,-1532.190996,2516.700203
1458.490610,-10362.883188,-689.485948,370.102971
1458.490922,-5033.400406,842.705048,-1554.432478
1458.491233,-3034.844362,-383.047749,-2368.659014
1458.491544,-5329.482782,-612.876398,-666.185348
1458.491855,-7846.182985,612.876398,1850.514855
1458.492167,-10510.924376,-995.924147,3923.091493
1458.492478,-12657.521608,-3983.696590,4367.215058
1458.492789,-10732.986159,-2451.505594,2146.597232
1458.493100,-5329.482782,919.314598,962.267725
1458.493412,-4441.235652,-306.438199,-592.164754
1458.493723,-6217.729913,-1072.533697,-1480.411884
1458.494034,-8290.306550,1149.143247,-962.267725
1458.494345,-10510.924376,2451.505594,1332.370696
1458.494657,-10362.883188,459.657299,3108.864956
1458.494968,-9104.533087,-995.924147,2368.659014
1458.495279,-5921.647536,0.000000,1554.432478
1458.495590,-2664.741391,0.000000,-0.000000
1458.495902,-2738.761985,-2298.286494,-592.164754
1458.496213,-4293.194464,-919.314598,444.123565
1458.496524,-7105.977043,536.266849,1924.535449
1458.496835,-9844.739029,-2374.896044,2220.617826
1458.497147,-11769.274478,-3677.258390,2516.700203
1458.497458,-10584.944971,-153.219100,370.102971
1458.497769,-7550.100608,2451.505594,-1184.329507
1458.498080,-7846.182985,1762.019645,-962.267725
1458.498392,-9696.697840,-306.438199,-962.267725
1458.498703,-10584.944971,1149.143247,-518.144159
1458.499014,-11917.315666,1302.362347,1184.329507
1458.499325,-11843.295072,-1149.143247,1628.453072
1458.499637,-11029.068536,-459.657299,-296.082377
1458.499948,-8290.306550,2528.115143,-962.267725
1458.500259,-7254.018232,1838.629195,-1554.432478
1458.500570,-9178.553681,-919.314598,-740.205942
1458.500882,-11103.089130,689.485948,148.041188
1458.501193,-13101.645173,2298.286494,1702.473667
1458.501504,-12953.603985,1225.752797,1850.514855
1458.501815,-12435.459826,229.828649,518.144159
1458.502127,-8438.347739,3370.820191,-1702.473667
1458.502438,-4737.318029,4290.134789,-2516.700203
1458.502749,-5107.421000,1608.800546,-2072.576638
1458.503060,-7846.182985,0.000000,-444.123565
1458.503372,-10955.047942,1685.410096,222.061783
1458.503683,-11917.315666,-306.438199,3552.988522
1458.503994,-12435.459826,-4060.306139,4071.132681
1458.504305,-11399.171507,-4443.353888,2368.659014
1458.504617,-7402.059420,-1072.533697,962.267725
1458.504928,-6587.832884,-766.095498,-0.000000
1458.505239,-6957.935855,-1225.752797,222.061783
1458.505550,-7698.141797,689.485948,-370.102971
1458.505862,-9326.594869,306.438199,518.144159
1458.506173,-9178.553681,-2374.896044,2294.638420
1458.506484,-7254.018232,-2757.943793,1776.494261
1458.506795,-3330.926739,153.219100,-0.000000
1458.507107,-2294.638420,76.609550,-0.000000
1458.507418,-4367.215058,-3370.820191,888.247130
1458.507729,-7179.997637,-2757.943793,1924.535449
1458.508040,-10140.821405,0.000000,2812.782580
1458.508352,-11103.089130,-1149.143247,2886.803174
1458.508663,-11621.233289,-3294.210641,2442.679609
1458.508974,-9992.780217,0.000000,-592.164754
1458.509285,-7254.018232,3524.039291,-1702.473667
1458.509597,-7624.121203,2374.896044,-2368.659014
1458.509908,-9474.636058,1149.143247,-0.000000
1458.510219,-12287.418637,2068.457845,1184.329507
1458.510530,-12361.439231,1149.143247,2812.782580
1458.510842,-10214.842000,-766.095498,2960.823768
1458.511153,-7994.224174,-459.657299,444.123565
1458.511464,-5033.400406,2145.067394,-1036.288319
1458.511775,-5551.544565,842.705048,-2368.659014
1458.512087,-9178.553681,-919.314598,-1850.514855
1458.512398,-13101.645173,1991.848295,-0.000000
1458.512709,-14211.954086,3140.991542,1628.453072
1458.513020,-15396.283594,-229.828649,1776.494261
1458.513331,-13545.768739,-3217.601092,1258.350101
1458.513643,-9474.636058,0.000000,-1480.411884
1458.513954,-5921.647536,3524.039291,-2590.720797
1458.514265,-7031.956449,2911.162892,-2368.659014
1458.514576,-8586.388927,2221.676944,370.102971
1458.514888,-9918.759623,1991.848295,2072.576638
1458.515199,-10510.924376,-306.438199,4219.173869
1458.515510,-9252.574275,-1915.238745,3478.967927
1458.515821,-6217.729913,-1225.752797,1036.288319
1458.516133,-3701.029710,-919.314598,-74.020594
1458.516444,-2960.823768,-3217.601092,-1406.391290
1458.516755,-5699.585753,-4673.182538,-1850.514855
1458.517066,-9474.636058,-1455.581446,-74.020594
1458.517378,-12065.356855,-2298.286494,2072.576638
1458.517689,-13101.645173,-5592.497135,3256.906145
1458.518000,-11843.295072,-5286.058936,2072.576638
1458.518311,-7994.224174,-1685.410096,592.164754
1458.518623,-6513.812290,306.438199,-1036.288319
1458.518934,-6735.874072,459.657299,-296.082377
1458.519245,-6809.894666,2068.457845,296.082377
1458.519556,-7846.182985,2221.676944,1554.432478
1458.519868,-8068.244768,0.000000,3256.906145
1458.520179,-8290.306550,0.000000,1258.350101
1458.520490,-6513.812290,1915.238745,-814.226536
1458.520801,-3849.070898,2451.505594,-1776.494261
1458.521113,-5773.606348,-229.828649,-2368.659014
1458.521424,-10584.944971,-1149.143247,-2368.659014
1458.521735,-13915.871710,1608.800546,-740.205942
1458.522046,-15766.386565,766.095498,222.061783
1458.522358,-15840.407159,-1455.581446,2072.576638
1458.522669,-12731.542202,-612.876398,1850.514855
1458.522980,-10214.842000,1378.971896,-222.061783
1458.523291,-7328.038826,1532.190996,962.267725
1458.523603,-6809.894666,383.047749,1776.494261
1458.523914,-7105.977043,1915.238745,2960.823768
1458.524225,-8734.430116,2834.553343,2368.659014
1458.524536,-11991.336260,76.609550,1702.473667
1458.524848,-10436.903782,153.219100,-74.020594
1458.525159,-6661.853478,4443.353888,-1924.535449
1458.525470,-5329.482782,3907.087040,-2516.700203
1458.525781,-8216.285956,-842.705048,-1776.494261
1458.526093,-11325.150913,-1532.190996,148.041188
1458.526404,-11843.295072,1378.971896,3330.926739
1458.526715,-11769.274478,0.000000,4737.318029
1458.527026,-11473.192101,-4366.744339,3923.091493
1458.527338,-6069.688724,-1225.752797,1850.514855
1458.527649,-1776.494261,1838.629195,222.061783
1458.527960,-1628.453072,842.705048,-1110.308913
1458.528271,-3701.029710,0.000000,962.267725
1458.528583,-7179.997637,383.047749,1332.370696
1458.528894,-9104.533087,-1685.410096,4145.153275
1458.529205,-9474.636058,-4060.306139,3478.967927
1458.529516,-9326.594869,-2757.943793,1406.391290
1458.529828,-6291.750507,1072.533697,-1480.411884
1458.530139,-4737.318029,-1072.533697,-1184.329507
1458.530450,-7254.018232,-4136.915689,-1480.411884
1458.530761,-10436.903782,-1762.019645,-296.082377
1458.531073,-13175.665768,-383.047749,1998.556043
1458.531384,-13323.706956,-3447.429741,3108.864956
1458.531695,-12953.603985,-4826.401637,1702.473667
1458.532007,-9326.594869,-995.924147,-592.164754
1458.532318,-5773.606348,1532.190996,-2590.720797
1458.532629,-7402.059420,536.266849,-3256.906145
1458.532940,-8660.409521,1608.800546,-1036.288319
1458.533252,-10436.903782,2911.162892,296.082377
1458.533563,-12509.480420,766.095498,1628.453072
1458.533874,-12065.356855,-766.095498,1036.288319
1458.534186,-10510.924376,612.876398,-1332.370696
1458.534497,-7698.141797,1608.800546,-1776.494261
1458.534808,-9030.512492,-536.266849,-3108.864956
1458.535120,-11695.253884,-1685.410096,-2072.576638
1458.535431,-14285.974681,995.924147,-962.267725
1458.535742,-14656.077652,2068.457845,1924.535449
1458.536054,-13841.851115,-1991.848295,2812.782580
1458.536365,-11547.212695,-4213.525239,1332.370696
1458.536676,-6883.915261,76.609550,-0.000000
1458.536988,-3034.844362,2221.676944,-592.164754
1458.537299,-4071.132681,689.485948,148.041188
1458.537610,-7476.080014,1608.800546,1776.494261
1458.537922,-9992.780217,2374.896044,2960.823768
1458.538233,-8956.491898,1455.581446,2960.823768
1458.538544,-7698.141797,842.705048,2664.741391
1458.538855,-5477.523971,1378.971896,-296.082377
1458.539167,-3849.070898,2068.457845,-1628.453072
1458.539478,-4071.132681,-306.438199,-2072.576638
1458.539789,-5995.668130,-536.266849,-444.123565
1458.540101,-8734.430116,1762.019645,1554.432478
1458.540412,-10362.883188,-842.705048,3404.947333
1458.540723,-11103.089130,-5745.716235,4737.318029
1458.541035,-9622.677246,-6818.249932,3330.926739
1458.541346,-5773.606348,-1378.971896,1924.535449
1458.541657,-5107.421000,0.000000,-148.041188
1458.541969,-6217.729913,-1762.019645,444.123565
1458.542280,-8512.368333,-1455.581446,1258.350101
1458.542591,-9918.759623,306.438199,2146.597232
1458.542903,-11029.068536,0.000000,2146.597232
1458.543214,-10140.821405,-459.657299,1332.370696
1458.543525,-7698.141797,1455.581446,-1036.288319
1458.543836,-6439.791695,3294.210641,-1332.370696
1458.544148,-7994.224174,0.000000,-1924.535449
1458.544459,-10732.986159,-536.266849,-814.226536
1458.544770,-12657.521608,2757.943793,1554.432478
1458.545082,-13915.871710,1378.971896,1702.473667
1458.545393,-14063.912898,-2374.896044,666.185348
1458.545704,-11325.150913,-1302.362347,-1258.350101
1458.546016,-7179.997637,2987.772442,-2146.597232
1458.546327,-7179.997637,2068.457845,-3034.844362
1458.546638,-10362.883188,-383.047749,-1998.556043
1458.546950,-12139.377449,2068.457845,-0.000000
1458.547261,-13767.830521,2145.067394,1776.494261
1458.547572,-12213.398043,-383.047749,2960.823768
1458.547884,-9622.677246,-689.485948,1184.329507
1458.548195,-6957.935855,1455.581446,-592.164754
1458.548506,-4441.235652,1302.362347,-1406.391290
1458.548818,-5699.585753,-1225.752797,-1702.473667
1458.549129,-8808.450710,-229.828649,-148.041188
1458.549440,-10732.986159,1302.362347,2220.617826
1458.549751,-11843.295072,-2451.505594,2664.741391
1458.550063,-10955.047942,-4443.353888,2590.720797
1458.550374,-7846.182985,-1378.971896,-0.000000
1458.550685,-3775.050304,1685.410096,-814.226536
1458.550997,-4663.297435,-1608.800546,-1776.494261
1458.551308,-6143.709319,-1608.800546,-296.082377
1458.551619,-7254.018232,1685.410096,1628.453072
1458.551931,-9104.533087,153.219100,3108.864956
1458.552242,-8438.347739,-2068.457845,4219.173869
1458.552553,-7254.018232,-2298.286494,2220.617826
1458.552865,-3256.906145,76.609550,1036.288319
1458.553176,-2516.700203,-995.924147,-296.082377
1458.553487,-5773.606348,-2681.334243,-666.185348
1458.553799,-9178.553681,-612.876398,-0.000000
1458.554110,-11695.253884,-459.657299,1924.535449
1458.554421,-12509.480420,-3753.867940,2812.782580
1458.554732,-13915.871710,-4213.525239,740.205942
1458.555044,-11325.150913,842.705048,-1184.329507
1458.555355,-9252.574275,3830.477490,-2516.700203
1458.555666,-9844.739029,2834.553343,-2146.597232
1458.555978,-10732.986159,2834.553343,-148.041188
1458.556289,-12805.562797,3447.429741,1332.370696
1458.556600,-11917.315666,1532.190996,3627.009116
1458.556912,-9104.533087,-995.924147,2368.659014
1458.557223,-6291.750507,766.095498,-148.041188
1458.557534,-4737.318029,2145.067394,-2146.597232
1458.557846,-7179.997637,-612.876398,-3404.947333
1458.558157,-10362.883188,-1225.752797,-2368.659014
1458.558468,-14211.954086,2451.505594,-962.267725
1458.558780,-16580.613101,1225.752797,666.185348
1458.559091,-16654.633695,-2911.162892,1480.411884
1458.559402,-13989.892304,-3753.867940,1110.308913
1458.559714,-7920.203579,842.705048,148.041188
1458.560025,-4515.256246,2298.286494,-296.082377
1458.560336,-4219.173869,0.000000,814.226536
1458.560647,-6365.771101,689.485948,2590.720797
1458.560959,-8586.388927,1838.629195,4515.256246
1458.561270,-7476.080014,-612.876398,3775.050304
1458.561581,-6513.812290,-689.485948,1628.453072
1458.561893,-3775.050304,842.705048,-518.144159
1458.562204,-1776.494261,0.000000,-1480.411884
1458.562515,-4589.276840,-3447.429741,-1184.329507
1458.562827,-7254.018232,-2604.724693,-222.061783
1458.563138,-10436.903782,-842.705048,2294.638420
1458.563449,-13619.789333,-3064.381992,3404.947333
1458.563761,-12435.459826,-4290.134789,3775.050304
1458.564072,-9770.718434,-2451.505594,1554.432478
1458.564383,-5107.421000,842.705048,222.061783
1458.564695,-3552.988522,1302.362347,-592.164754
1458.565006,-5329.482782,0.000000,-444.123565
1458.565317,-6069.688724,1149.143247,592.164754
1458.565628,-7550.100608,1072.533697,3849.070898
1458.565940,-9400.615463,-2298.286494,2590.720797
1458.566251,-10288.862594,-1838.629195,222.061783
1458.566562,-9104.533087,2068.457845,-1776.494261
1458.566874,-8290.306550,2451.505594,-2294.638420
1458.567185,-12213.398043,-306.438199,-2738.761985
1458.567496,-14285.974681,689.485948,-222.061783
1458.567808,-15396.283594,2834.553343,592.164754
1458.568119,-14730.098246,-229.828649,2368.659014
1458.568430,-13101.645173,-2987.772442,1554.432478
1458.568742,-9474.636058,153.219100,-888.247130
1458.569053,-5403.503377,4366.744339,-2294.638420
1458.569364,-6291.750507,2911.162892,-2072.576638
1458.569676,-8956.491898,1838.629195,-740.205942
1458.569987,-12287.418637,3294.210641,444.123565
1458.570298,-13397.727550,2528.115143,2072.576638
1458.570610,-11917.315666,-842.705048,1702.473667
1458.570921,-9622.677246,383.047749,-74.020594
1458.571232,-6069.688724,2681.334243,-888.247130
1458.571543,-5033.400406,1072.533697,-2294.638420
1458.571855,-6809.894666,-919.314598,-962.267725
1458.572166,-9474.636058,1149.143247,1036.288319
1458.572477,-10807.006753,2604.724693,3404.947333
1458.572789,-11695.253884,-1072.533697,3404.947333
1458.573100,-9992.780217,-2757.943793,2960.823768
1458.573411,-5033.400406,-995.924147,592.164754
1458.573723,-296.082377,995.924147,222.061783
1458.574034,-1554.432478,-1915.238745,-666.185348
1458.574345,-6143.709319,-3677.258390,1480.411884
1458.574657,-7994.224174,-2451.505594,2294.638420
1458.574968,-9474.636058,-1838.629195,3775.050304
1458.575279,-10732.986159,-3600.648841,3923.091493
1458.575591,-8586.388927,-2068.457845,592.164754
1458.575902,-5403.503377,459.657299,-888.247130
1458.576213,-4737.318029,-1149.143247,-1554.432478
1458.576524,-7698.141797,-2451.505594,-814.226536
1458.576836,-9918.759623,1149.143247,-222.061783
1458.577147,-11843.295072,1762.019645,1850.514855
1458.577458,-12287.418637,-2604.724693,3478.967927
1458.577770,-10140.821405,-4136.915689,2442.679609
1458.578081,-8512.368333,612.876398,296.082377
1458.578392,-7031.956449,459.657299,-888.247130
1458.578704,-7698.141797,-995.924147,-1036.288319
1458.579015,-11621.233289,612.876398,-666.185348
1458.579326,-13767.830521,3447.429741,-0.000000
1458.579638,-13249.686362,1149.143247,962.267725
1458.579949,-13027.624579,-842.705048,148.041188
1458.580260,-9918.759623,3064.381992,-1110.308913
1458.580572,-7476.080014,4596.572988,-2220.617826
1458.580883,-9474.636058,1072.533697,-1850.514855
1458.581194,-11473.192101,612.876398,444.123565
1458.581506,-12879.583391,3524.039291,1554.432478
1458.581817,-13027.624579,1838.629195,1924.535449
1458.582128,-12065.356855,-1991.848295,1850.514855
1458.582439,-8808.450710,-1838.629195,222.061783
1458.582751,-4811.338623,2145.067394,-888.247130
1458.583062,-4589.276840,1302.362347,-1480.411884
1458.583373,-7846.182985,-842.705048,-666.185348
1458.583685,-9992.780217,-306.438199,2368.659014
1458.583996,-9326.594869,-306.438199,3330.926739
1458.584307,-9326.594869,-1685.410096,2812.782580
1458.584619,-8808.450710,-1532.190996,740.205942
1458.584930,-4811.338623,1762.019645,962.267725
1458.585241,-2442.679609,1991.848295,-1554.432478
1458.585553,-3330.926739,-153.219100,-888.247130
1458.585864,-6587.832884,-1455.581446,888.247130
1458.586175,-8734.430116,-919.314598,2886.803174
1458.586487,-9622.677246,-2604.724693,4515.256246
1458.586798,-9474.636058,-4903.011187,3256.906145
1458.587109,-6957.935855,-2451.505594,1480.411884
1458.587420,-4515.256246,-153.219100,-444.123565
1458.587732,-4811.338623,-995.924147,-1776.494261
1458.588043,-7254.018232,-2221.676944,-1776.494261
1458.588354,-9104.533087,842.705048,-74.020594
1458.588666,-10584.944971,1455.581446,1924.535449
1458.588977,-11251.130318,-1915.238745,2812.782580
1458.589288,-10214.842000,-1762.019645,2072.576638
1458.589600,-7105.977043,1762.019645,222.061783
1458.589911,-5181.441594,1149.143247,-740.205942
1458.590222,-7328.038826,76.609550,-740.205942
1458.590534,-10807.006753,1225.752797,-444.123565
1458.590845,-14285.974681,1762.019645,-592.164754
1458.591156,-16728.654289,-919.314598,-296.082377
1458.591468,-15840.407159,-1225.752797,-370.102971
1458.591779,-13767.830521,3140.991542,-2220.617826
1458.592090,-9992.780217,3983.696590,-1850.514855
1458.592402,-8956.491898,-1225.752797,-1554.432478
1458.592713,-9474.636058,-459.657299,-0.000000
1458.593024,-10436.903782,2528.115143,2368.659014
1458.593335,-11399.171507,1838.629195,3182.885551
1458.593647,-11399.171507,-919.314598,1998.556043
1458.593958,-8512.368333,919.314598,-0.000000
1458.594269,-4071.132681,3753.867940,-1406.391290
1458.594581,-4071.132681,1149.143247,-2146.597232
1458.594892,-8068.244768,-995.924147,-1332.370696
1458.595203,-10066.800811,229.828649,-0.000000
1458.595515,-12435.459826,-229.828649,1776.494261
1458.595826,-13101.645173,-2145.067394,3034.844362
1458.596137,-9770.718434,-3447.429741,1850.514855
1458.596449,-6291.750507,-919.314598,-0.000000
1458.596760,-3849.070898,-383.047749,148.041188
1458.597071,-2516.700203,-1378.971896,-0.000000
1458.597383,-3849.070898,-306.438199,1924.535449
1458.597694,-7402.059420,-612.876398,3552.988522
1458.598005,-8216.285956,-3600.648841,5107.421000
1458.598316,-7105.977043,-4673.182538,3404.947333
1458.598628,-5403.503377,-842.705048,518.144159
1458.598939,-1776.494261,1378.971896,-962.267725
1458.599250,-4293.194464,-1915.238745,-2886.803174
1458.599562,-9104.533087,-2834.553343,-1628.453072
1458.599873,-11177.109724,0.000000,-0.000000
1458.600184,-13101.645173,306.438199,1554.432478
1458.600496,-15322.262999,-1915.238745,2516.700203
1458.600807,-12805.562797,-1149.143247,814.226536
1458.601118,-8882.471304,1455.581446,-888.247130
1458.601430,-7031.956449,1532.190996,-222.061783
1458.601741,-7402.059420,1225.752797,592.164754
1458.602052,-9178.553681,1991.848295,1184.329507
1458.602364,-10584.944971,536.266849,2146.597232
1458.602675,-11695.253884,-2681.334243,666.185348
1458.602986,-11177.109724,-1455.581446,-1702.473667
1458.603298,-9030.512492,3370.820191,-3404.947333
1458.603609,-8364.327145,3217.601092,-3256.906145
1458.603920,-10288.862594,-1225.752797,-2368.659014
1458.604231,-14063.912898,-919.314598,-444.123565
1458.604543,-15988.448347,2298.286494,1702.473667
1458.604854,-15174.221811,1149.143247,3404.947333
1458.605165,-13767.830521,-1762.019645,3256.906145
1458.605477,-9474.636058,536.266849,888.247130
1458.605788,-4367.215058,3064.381992,-814.226536
1458.606099,-2812.782580,2528.115143,-888.247130
1458.606411,-5033.400406,1072.533697,444.123565
1458.606722,-9104.533087,1991.848295,1554.432478
1458.607033,-9844.739029,-153.219100,2368.659014
1458.607345,-9400.615463,-2145.067394,2368.659014
1458.607656,-7920.203579,-2068.457845,444.123565
1458.607967,-4219.173869,153.219100,-1406.391290
1458.608279,-2960.823768,-1225.752797,-2294.638420
1458.608590,-5551.544565,-3447.429741,-1332.370696
1458.608901,-8290.306550,229.828649,888.247130
1458.609212,-10584.944971,1532.190996,2960.823768
1458.609524,-11621.233289,-995.924147,5033.400406
1458.609835,-11251.130318,-4519.963438,4737.318029
1458.610146,-6661.853478,-2604.724693,2146.597232
1458.610458,-1702.473667,766.095498,-518.144159
1458.610769,-2220.617826,-919.314598,-2220.617826
1458.611080,-5773.606348,-3064.381992,-1628.453072
1458.611392,-9548.656652,-1149.143247,148.041188
1458.611703,-11695.253884,-689.485948,1776.494261
1458.612014,-12657.521608,-2451.505594,1998.556043
1458.612326,-11769.274478,-919.314598,666.185348
1458.612637,-8364.327145,2374.896044,-888.247130
1458.612948,-6957.935855,842.705048,-1110.308913
1458.613260,-7772.162391,-1149.143247,-592.164754
1458.613571,-9622.677246,2374.896044,-222.061783
1458.613882,-11843.295072,4749.792088,814.226536
1458.614194,-12139.377449,766.095498,740.205942
1458.614505,-11769.274478,-1072.533697,-592.164754
1458.614816,-9622.677246,1685.410096,-2368.659014
1458.615127,-8142.265362,2834.553343,-2368.659014
1458.615439,-10807.006753,0.000000,-2220.617826
1458.615750,-13471.748144,-229.828649,-0.000000
1458.616061,-14582.057057,2451.505594,1258.350101
1458.616373,-14434.015869,306.438199,2960.823768
1458.616684,-12509.480420,-1532.190996,1850.514855
1458.616995,-7846.182985,1225.752797,148.041188
1458.617307,-3775.050304,2528.115143,-888.247130
1458.617618,-4515.256246,0.000000,-740.205942
1458.617929,-7624.121203,-1685.410096,296.082377
1458.618241,-9622.677246,1455.581446,1628.453072
1458.618552,-10881.027347,612.876398,2664.741391
1458.618863,-11843.295072,-3294.210641,2886.803174
1458.619175,-10436.903782,-2451.505594,1628.453072
1458.619486,-5477.523971,459.657299,296.082377
1458.619797,-2442.679609,-229.828649,-444.123565
1458.620108,-5329.482782,-3140.991542,-148.041188
1458.620420,-7402.059420,-1149.143247,1184.329507
1458.620731,-8586.388927,1302.362347,2442.679609
1458.621042,-8216.285956,-383.047749,3330.926739
1458.621354,-7772.162391,-2681.334243,2368.659014
1458.621665,-4367.215058,-306.438199,1332.370696
1458.621976,-1332.370696,153.219100,592.164754
1458.622288,-3849.070898,-3370.820191,-444.123565
1458.622599,-7476.080014,-3217.601092,740.205942
1458.622910,-10288.862594,76.609550,888.247130
1458.623222,-12361.439231,-1072.533697,2368.659014
1458.623533,-12879.583391,-4673.182538,1924.535449
1458.623844,-12731.542202,-2911.162892,-0.000000
1458.624156,-8808.450710,2987.772442,-740.205942
1458.624467,-8068.244768,1915.238745,-1628.453072
1458.624778,-9474.636058,0.000000,-74.020594
1458.625090,-11621.233289,2298.286494,-0.000000
1458.625401,-12435.459826,3064.381992,1184.329507
1458.625712,-10362.883188,459.657299,888.247130
1458.626023,-8216.285956,1225.752797,-814.226536
1458.626335,-5773.606348,4290.134789,-1702.473667
1458.626646,-6291.750507,3217.601092,-3182.885551
1458.626957,-10288.862594,-919.314598,-2886.803174
1458.627269,-13027.624579,919.314598,-666.185348
1458.627580,-14730.098246,2604.724693,814.226536
1458.627891,-15840.407159,-766.095498,1332.370696
1458.628203,-15174.221811,-3064.381992,814.226536
1458.628514,-10214.842000,0.000000,-962.267725
1458.628825,-5329.482782,3753.867940,-1110.308913
1458.629137,-5995.668130,2221.676944,-666.185348
1458.629448,-7031.956449,612.876398,1258.350101
1458.629759,-10140.821405,1225.752797,2368.659014
1458.630071,-10955.047942,76.609550,4515.256246
1458.630382,-7328.038826,-1532.190996,3182.885551
1458.630693,-5773.606348,306.438199,296.082377
1458.631004,-3182.885551,1072.533697,-962.267725
1458.631316,-2738.761985,-1072.533697,-1850.514855
1458.631627,-5329.482782,-2221.676944,-444.123565
1458.631938,-8068.244768,306.438199,740.205942
1458.632250,-10436.903782,-842.705048,3330.926739
1458.632561,-11843.295072,-5515.887586,3701.029710
1458.632872,-10955.047942,-4903.011187,3256.906145
1458.633184,-6587.832884,-1072.533697,-296.082377
1458.633495,-4663.297435,1149.143247,-1850.514855
1458.633806,-5181.441594,1225.752797,-740.205942
1458.634118,-6587.832884,153.219100,814.226536
1458.634429,-8956.491898,536.266849,2960.823768
1458.634740,-9622.677246,-306.438199,3849.070898
1458.635052,-9622.677246,-1378.971896,3034.844362
1458.635363,-6883.915261,-229.828649,740.205942
1458.635674,-4589.276840,612.876398,-518.144159
1458.635986,-6365.771101,-919.314598,-2960.823768
1458.636297,-10362.883188,-842.705048,-3034.844362
1458.636608,-14137.933492,1838.629195,-1776.494261
1458.636919,-15840.407159,2145.067394,592.164754
1458.637231,-16432.571912,-2451.505594,1036.288319
1458.637542,-14211.954086,-2451.505594,-0.000000
1458.637853,-9474.636058,1608.800546,-1110.308913
1458.638165,-6587.832884,3217.601092,-888.247130
1458.638476,-6661.853478,1378.971896,814.226536
1458.638787,-8290.306550,1608.800546,1776.494261
1458.639099,-10732.986159,2374.896044,3108.864956
1458.639410,-12065.356855,76.609550,3330.926739
1458.639721,-10955.047942,-995.924147,888.247130
1458.640033,-7179.997637,3140.991542,-1628.453072
1458.640344,-5107.421000,2068.457845,-2886.803174
1458.640655,-6883.915261,-1608.800546,-3182.885551
1458.640967,-9918.759623,-1378.971896,-1258.350101
1458.641278,-11843.295072,1302.362347,1554.432478
1458.641589,-13249.686362,-536.266849,3849.070898
1458.641900,-13175.665768,-4673.182538,4145.153275
1458.642212,-9474.636058,-1762.019645,1850.514855
1458.642523,-4145.153275,2451.505594,888.247130
1458.642834,-814.226536,612.876398,-592.164754
1458.643146,-2960.823768,-1455.581446,1628.453072
1458.643457,-6069.688724,-306.438199,2368.659014
1458.643768,-8290.306550,-689.485948,3478.967927
1458.644080,-8956.491898,-2528.115143,3256.906145
1458.644391,-7920.203579,-1915.238745,962.267725
1458.644702,-4515.256246,766.095498,-1332.370696
1458.645014,-3701.029710,612.876398,-2738.761985
1458.645325,-6661.853478,-1685.410096,-2072.576638
1458.645636,-9474.636058,-306.438199,-666.185348
1458.645948,-11991.336260,2298.286494,2294.638420
1458.646259,-14211.954086,-1455.581446,4737.318029
1458.646570,-14137.933492,-4213.525239,3923.091493
1458.646882,-9548.656652,-1608.800546,814.226536
1458.647193,-5773.606348,2834.553343,-1702.473667
1458.647504,-4589.276840,2298.286494,-2368.659014
1458.647816,-7105.977043,1302.362347,-1776.494261
1458.648127,-10881.027347,2451.505594,296.082377
1458.648438,-12657.521608,1149.143247,888.247130
1458.648749,-14137.933492,-536.266849,1036.288319
1458.649061,-11843.295072,919.314598,-0.000000
1458.649372,-7846.182985,3447.429741,-1998.556043
1458.649683,-7772.162391,919.314598,-2812.782580
1458.649995,-10288.862594,-536.266849,-1850.514855
1458.650306,-11991.336260,2068.457845,222.061783
1458.650617,-13841.851115,2911.162892,2442.679609
1458.650929,-14582.057057,-383.047749,3108.864956
1458.651240,-12657.521608,-2451.505594,1184.329507
1458.651551,-7328.038826,1455.581446,-370.102971
1458.651863,-3775.050304,2604.724693,-1110.308913
1458.652174,-4811.338623,-689.485948,-888.247130
1458.652485,-8142.265362,-842.705048,148.041188
1458.652797,-9770.718434,1302.362347,2072.576638
1458.653108,-10510.924376,-383.047749,2886.803174
1458.653419,-10807.006753,-1608.800546,2812.782580
1458.653731,-7994.224174,-383.047749,962.267725
1458.654042,-3775.050304,842.705048,-962.267725
1458.654353,-2220.617826,-995.924147,-1406.391290
1458.654665,-5107.421000,-1991.848295,-370.102971
1458.654976,-7328.038826,1072.533697,1924.535449
1458.655287,-9400.615463,-229.828649,3849.070898
1458.655599,-10140.821405,-5669.106685,4737.318029
1458.655910,-9548.656652,-6052.154434,3627.009116
1458.656221,-4885.359217,-689.485948,814.226536
1458.656533,-3552.988522,459.657299,-1480.411884
1458.656844,-7846.182985,-2987.772442,-1184.329507
1458.657155,-8956.491898,-1608.800546,74.020594
1458.657467,-10436.903782,1532.190996,222.061783
1458.657778,-12509.480420,-612.876398,2960.823768
1458.658089,-12731.542202,-1685.410096,2960.823768
1458.658400,-10066.800811,1149.143247,222.061783
1458.658712,-6661.853478,3600.648841,-666.185348
1458.659023,-6069.688724,995.924147,-1554.432478
1458.659334,-7328.038826,612.876398,-370.102971
1458.659646,-10066.800811,3140.991542,962.267725
1458.659957,-11991.336260,229.828649,962.267725
1458.660268,-12657.521608,-2681.334243,370.102971
1458.660580,-12879.583391,76.609550,-2220.617826
1458.660891,-10288.862594,4290.134789,-2368.659014
1458.661202,-9474.636058,1991.848295,-2886.803174
1458.661514,-12435.459826,-689.485948,-1776.494261
1458.661825,-12805.562797,1838.629195,814.226536
1458.662136,-12213.398043,2451.505594,2664.741391
1458.662448,-10214.842000,-689.485948,3775.050304
1458.662759,-7476.080014,-1915.238745,2590.720797
1458.663070,-7105.977043,0.000000,-296.082377
1458.663382,-2812.782580,2145.067394,-2072.576638
1458.663693,-4959.379811,2911.162892,-2220.617826
1458.664004,-9770.718434,2757.943793,-814.226536
1458.664316,-10658.965565,995.924147,2960.823768
1458.664627,-12139.377449,-4443.353888,3034.844362
1458.664938,-12287.418637,-6128.763984,3627.009116
1458.665250,-7624.121203,-1991.848295,1702.473667
1458.665561,-3997.112087,2221.676944,-1924.535449
1458.665872,-4441.235652,2298.286494,-1702.473667
1458.666184,-6365.771101,-536.266849,-592.164754
1458.666495,-7476.080014,536.266849,888.247130
1458.666806,-8068.244768,2221.676944,3627.009116
1458.667118,-8512.368333,0.000000,4515.256246
1458.667429,-7179.997637,-2528.115143,3330.926739
1458.667740,-4367.215058,-1225.752797,1184.329507
1458.668051,-2368.659014,-766.095498,-370.102971
1458.668363,-3330.926739,-2987.772442,-1406.391290
1458.668674,-8290.306550,-1532.190996,-666.185348
1458.668985,-11399.171507,229.828649,1258.350101
1458.669297,-13915.871710,-4290.134789,1554.432478
1458.669608,-14434.015869,-7431.126331,1776.494261
1458.669919,-12879.583391,-1302.362347,-74.020594
1458.670231,-10955.047942,2528.115143,-1628.453072
1458.670542,-10362.883188,1762.019645,-2590.720797
1458.670853,-11843.295072,1762.019645,-296.082377
1458.671165,-11473.192101,4136.915689,1480.411884
1458.671476,-10288.862594,2298.286494,3108.864956
1458.671787,-8290.306550,-689.485948,2368.659014
1458.672099,-4589.276840,1225.752797,296.082377
1458.672410,-3849.070898,2298.286494,-2442.679609
1458.672721,-5995.668130,919.314598,-3775.050304
1458.673033,-11473.192101,459.657299,-3627.009116
1458.673344,-15544.324782,2987.772442,-1702.473667
1458.673655,-17246.798449,1608.800546,1702.473667
1458.673967,-18431.127956,-3140.991542,1998.556043
1458.674278,-15100.201217,-3524.039291,1332.370696
1458.674589,-8586.388927,995.924147,-1480.411884
1458.674901,-2812.782580,2604.724693,-888.247130
1458.675212,-3478.967927,995.924147,-0.000000
1458.675523,-6513.812290,383.047749,2516.700203
1458.675835,-6587.832884,919.314598,3775.050304
1458.676146,-6735.874072,689.485948,5033.400406
1458.676457,-8142.265362,-1608.800546,2960.823768
1458.676769,-5773.606348,383.047749,-74.020594
1458.677080,-3330.926739,1302.362347,-2368.659014
1458.677391,-3552.988522,-612.876398,-2664.741391
1458.677702,-6809.894666,-2068.457845,-1184.329507
1458.678014,-9178.553681,0.000000,592.164754
1458.678325,-11917.315666,-1915.238745,3404.947333
1458.678636,-14285.974681,-6971.469032,3923.091493
1458.678948,-10288.862594,-3753.867940,2590.720797
1458.679259,-5847.626942,2068.457845,-222.061783
1458.679570,-3627.009116,2221.676944,-1998.556043
1458.679882,-4145.153275,-842.705048,-222.061783
1458.680193,-5551.544565,-1608.800546,1110.308913
1458.680504,-7254.018232,-689.485948,2960.823768
1458.680816,-10584.944971,-3064.381992,3552.988522
1458.681127,-10658.965565,-2221.676944,1776.494261
1458.681438,-9844.739029,3064.381992,-888.247130
1458.681750,-8290.306550,2451.505594,-2442.679609
1458.682061,-8660.409521,-383.047749,-3182.885551
1458.682372,-12361.439231,1072.533697,-1628.453072
1458.682684,-14137.933492,2757.943793,740.205942
1458.682995,-15766.386565,-689.485948,2146.597232
1458.683306,-16654.633695,-3524.039291,962.267725
1458.683618,-11325.150913,612.876398,-0.000000
1458.683929,-6661.853478,2987.772442,-2442.679609
1458.684240,-5477.523971,1532.190996,-2442.679609
1458.684552,-7179.997637,0.000000,-666.185348
1458.684863,-9030.512492,919.314598,962.267725
1458.685174,-11251.130318,-842.705048,3330.926739
1458.685486,-13471.748144,-2911.162892,3849.070898
1458.685797,-11177.109724,0.000000,1184.329507
1458.686108,-7254.018232,3983.696590,-1924.535449
1458.686420,-5255.462188,3677.258390,-2812.782580
1458.686731,-7772.162391,1149.143247,-2738.761985
1458.687042,-10584.944971,2145.067394,-1332.370696
1458.687353,-10955.047942,2451.505594,2072.576638
1458.687665,-12139.377449,-2298.286494,3330.926739
1458.687976,-11029.068536,-3753.867940,3330.926739
1458.688287,-6365.771101,229.828649,1110.308913
1458.688599,-1258.350101,536.266849,-296.082377
1458.688910,0.000000,-2068.457845,-0.000000
1458.689221,-3849.070898,-4136.915689,1332.370696
1458.689533,-6143.709319,-842.705048,3330.926739
1458.689844,-8956.491898,-1685.410096,4663.297435
1458.690155,-10658.965565,-3753.867940,4145.153275
1458.690467,-7105.977043,-766.095498,1554.432478
1458.690778,-3627.009116,3064.381992,-1628.453072
1458.691089,-4663.297435,1608.800546,-2220.617826
1458.691401,-7476.080014,-919.314598,-666.185348
1458.691712,-10066.800811,1225.752797,1554.432478
1458.692023,-12583.501014,1378.971896,3923.091493
1458.692335,-13545.768739,-1991.848295,3404.947333
1458.692646,-11917.315666,-2604.724693,1924.535449
1458.692957,-7476.080014,689.485948,-74.020594
1458.693269,-4663.297435,689.485948,-1924.535449
1458.693580,-6217.729913,-2221.676944,-1924.535449
1458.693891,-9918.759623,153.219100,-1554.432478
1458.694203,-13175.665768,2374.896044,814.226536
1458.694514,-13841.851115,306.438199,2442.679609
1458.694825,-12953.603985,-2604.724693,2072.576638
1458.695137,-10436.903782,0.000000,-148.041188
1458.695448,-7624.121203,2451.505594,-2294.638420
1458.695759,-7772.162391,1838.629195,-2886.803174
1458.696071,-9844.739029,1608.800546,-518.144159
1458.696382,-12805.562797,2374.896044,1258.350101
1458.696693,-14656.077652,-995.924147,2960.823768
1458.697005,-14730.098246,-3830.477490,2146.597232
1458.697316,-11547.212695,-842.705048,296.082377
1458.697627,-7031.956449,2911.162892,-1554.432478
1458.697938,-5773.606348,1149.143247,-2738.761985
1458.698250,-7550.100608,-842.705048,-1184.329507
1458.698561,-9178.553681,1149.143247,1184.329507
1458.698872,-9844.739029,1072.533697,2220.617826
1458.699184,-9696.697840,76.609550,3627.009116
1458.699495,-8216.285956,-459.657299,2664.741391
1458.699806,-3849.070898,1838.629195,444.123565
1458.700118,-1702.473667,1762.019645,-814.226536
1458.700429,-1776.494261,0.000000,-1184.329507
1458.700740,-5403.503377,0.000000,-444.123565
1458.701052,-7846.182985,0.000000,1480.411884
1458.701363,-9104.533087,-1762.019645,3256.906145
1458.701674,-12435.459826,-5975.544884,2812.782580
1458.701986,-10066.800811,-4060.306139,1184.329507
1458.702297,-5847.626942,76.609550,-222.061783
1458.702608,-6587.832884,-842.705048,-1998.556043
1458.702920,-8882.471304,-2451.505594,-962.267725
1458.703231,-9400.615463,1149.143247,296.082377
1458.703542,-10214.842000,689.485948,2294.638420
1458.703854,-10584.944971,-1378.971896,3701.029710
1458.704165,-9104.533087,-995.924147,2072.576638
1458.704476,-6957.935855,2451.505594,-518.144159
1458.704788,-3775.050304,2911.162892,-518.144159
1458.705099,-5107.421000,76.609550,-1184.329507
1458.705410,-9252.574275,1685.410096,-1184.329507
1458.705722,-12953.603985,3294.210641,592.164754
1458.706033,-14434.015869,-995.924147,814.226536
1458.706344,-15470.304188,-3907.087040,148.041188
1458.706656,-13323.706956,383.047749,-888.247130
1458.706967,-9696.697840,2451.505594,-2368.659014
1458.707278,-11103.089130,-1149.143247,-3108.864956
1458.707589,-12065.356855,-995.924147,-222.061783
1458.707901,-11769.274478,2528.115143,1628.453072
1458.708212,-11547.212695,1072.533697,3034.844362
1458.708523,-10584.944971,-1532.190996,3923.091493
1458.708835,-7698.141797,-612.876398,2294.638420
1458.709146,-5329.482782,1302.362347,-592.164754
1458.709457,-4219.173869,1762.019645,-1628.453072
1458.709769,-6513.812290,536.266849,-1776.494261
1458.710080,-9992.780217,1991.848295,-888.247130
1458.710391,-13101.645173,1532.190996,2220.617826
1458.710703,-13693.809927,-2068.457845,2368.659014
1458.711014,-12361.439231,-2757.943793,2220.617826
1458.711325,-6587.832884,689.485948,666.185348
1458.711637,-2590.720797,1302.362347,-1998.556043
1458.711948,-4145.153275,-766.095498,-1554.432478
1458.712259,-4959.379811,-1072.533697,962.267725
1458.712571,-6735.874072,-383.047749,3478.967927
1458.712882,-7328.038826,-2298.286494,5181.441594
1458.713193,-7920.203579,-3140.991542,4737.318029
1458.713505,-7105.977043,-1838.629195,2442.679609
1458.713816,-2368.659014,-153.219100,592.164754
1458.714127,-2516.700203,-1302.362347,-1110.308913
1458.714439,-5773.606348,-1915.238745,-1258.350101
1458.714750,-8808.450710,689.485948,-518.144159
1458.715061,-11917.315666,536.266849,1184.329507
1458.715373,-14211.954086,-2451.505594,1850.514855
1458.715684,-13101.645173,-1532.190996,1554.432478
1458.715995,-10066.800811,1838.629195,-666.185348
1458.716307,-7105.977043,2221.676944,-814.226536
1458.716618,-8068.244768,-229.828649,-444.123565
1458.716929,-8734.430116,1685.410096,962.267725
1458.717240,-9474.636058,2911.162892,1998.556043
1458.717552,-9844.739029,229.828649,2368.659014
1458.717863,-9918.759623,-1455.581446,-0.000000
1458.718174,-7920.203579,2068.457845,-2368.659014
1458.718486,-6439.791695,3447.429741,-3552.988522
1458.718797,-9622.677246,0.000000,-4145.153275
1458.719108,-13915.871710,306.438199,-2072.576638
1458.719420,-16580.613101,2987.772442,-148.041188
1458.719731,-17098.757260,536.266849,2294.638420
1458.720042,-17320.819043,-3907.087040,2960.823768
1458.720354,-12879.583391,-1378.971896,1110.308913
1458.720665,-7031.956449,2604.724693,-444.123565
1458.720976,-4071.132681,2298.286494,-1258.350101
1458.721288,-5033.400406,-306.438199,740.205942
1458.721599,-7624.121203,612.876398,1110.308913
1458.721910,-8142.265362,-536.266849,2960.823768
1458.722222,-9400.615463,-2451.505594,2368.659014
1458.722533,-7846.182985,-1455.581446,962.267725
1458.722844,-5625.565159,1762.019645,-814.226536
1458.723156,-4441.235652,76.609550,-1258.350101
1458.723467,-5255.462188,-3140.991542,-740.205942
1458.723778,-8882.471304,-2528.115143,370.102971
1458.724090,-10510.924376,536.266849,2368.659014
1458.724401,-10881.027347,383.047749,3330.926739
1458.724712,-11251.130318,-2604.724693,3182.885551
1458.725024,-6587.832884,-1608.800546,1924.535449
1458.725335,-962.267725,229.828649,1036.288319
1458.725646,-1258.350101,-1608.800546,-222.061783
1458.725958,-4811.338623,-2834.553343,518.144159
1458.726269,-7550.100608,-1225.752797,2072.576638
1458.726580,-9252.574275,-995.924147,2072.576638
1458.726891,-10881.027347,-3217.601092,2368.659014
1458.727203,-10510.924376,-2221.676944,222.061783
1458.727514,-8956.491898,2068.457845,-1406.391290
1458.727825,-8068.244768,2145.067394,-1628.453072
1458.728137,-10140.821405,-766.095498,-1110.308913
1458.728448,-12509.480420,1225.752797,370.102971
1458.728759,-13841.851115,3677.258390,2368.659014
1458.729071,-12287.418637,0.000000,2664.741391
1458.729382,-10362.883188,-2604.724693,444.123565
1458.729693,-7624.121203,995.924147,-1110.308913
1458.730005,-5181.441594,3370.820191,-2590.720797
1458.730316,-7402.059420,153.219100,-2738.761985
1458.730627,-12213.398043,-306.438199,-1184.329507
1458.730939,-15618.345376,2298.286494,1110.308913
1458.731250,-15174.221811,919.314598,2664.741391
1458.731561,-13989.892304,-1532.190996,2516.700203
1458.731873,-10436.903782,1378.971896,444.123565
1458.732184,-5107.421000,3753.867940,-1258.350101
1458.732495,-3923.091493,995.924147,-1776.494261
1458.732807,-5847.626942,-1762.019645,-740.205942
1458.733118,-8068.244768,1762.019645,296.082377
1458.733429,-9548.656652,306.438199,1554.432478
1458.733741,-10214.842000,-5132.839837,3330.926739
1458.734052,-8734.430116,-8120.612279,2812.782580
1458.734363,-5995.668130,-7277.907231,1110.308913
1458.734675,-4293.194464,-5898.935335,-0.000000
1458.734986,-6217.729913,-6588.421283,666.185348
1458.735297,-9992.780217,-4979.620737,1776.494261
1458.735609,-10584.944971,-2451.505594,3108.864956
1458.735920,-10510.924376,-3753.867940,2294.638420
1458.736231,-8734.430116,-3370.820191,1554.432478
1458.736543,-5107.421000,459.657299,1258.350101
1458.736854,-2368.659014,1149.143247,-1036.288319
1458.737166,-1628.453072,-2068.457845,-1406.391290
1458.737477,-4515.256246,-3983.696590,-74.020594
1458.737788,-8290.306550,-1991.848295,888.247130
1458.738100,-10436.903782,-995.924147,1406.391290
1458.738411,-11843.295072,-3677.258390,1036.288319
1458.738722,-12435.459826,-5132.839837,-444.123565
1458.739034,-11103.089130,-2451.505594,-1702.473667
1458.739345,-8586.388927,459.657299,-1998.556043
1458.739656,-10214.842000,-459.657299,-1332.370696
1458.739968,-13101.645173,-2451.505594,1184.329507
1458.740279,-12805.562797,-2604.724693,2442.679609
1458.740590,-9918.759623,-3983.696590,3182.885551
1458.740902,-7179.997637,-4903.011187,2516.700203
1458.741213,-5847.626942,-4366.744339,370.102971
1458.741524,-5551.544565,-3753.867940,-2738.761985
1458.741836,-5995.668130,-4136.915689,-2812.782580
1458.742147,-10066.800811,-3983.696590,-1850.514855
1458.742459,-16210.510130,-1915.238745,-0.000000
1458.742770,-20577.725188,-842.705048,1332.370696
1458.743081,-18283.086767,-3524.039291,3478.967927
1458.743393,-12731.542202,-3983.696590,2738.761985
1458.743704,-8290.306550,-2528.115143,814.226536
1458.744015,-3923.091493,-2298.286494,-1850.514855
1458.744327,-222.061783,-1991.848295,-2590.720797
1458.744638,-1480.411884,-1608.800546,-1776.494261
1458.744949,-5477.523971,-1072.533697,888.247130
1458.745261,-9400.615463,-2374.896044,888.247130
1458.745572,-10955.047942,-3140.991542,2442.679609
1458.745883,-11325.150913,-3294.210641,3923.091493
1458.746195,-8660.409521,-3294.210641,3552.988522
1458.746506,-7698.141797,-3217.601092,740.205942
1458.746817,-8068.244768,-3140.991542,-962.267725
1458.747129,-5625.565159,-1149.143247,-1184.329507
1458.747440,-4219.173869,306.438199,-444.123565
1458.747752,-5625.565159,-842.705048,444.123565
1458.748063,-9400.615463,-5209.449386,1776.494261
1458.748374,-9252.574275,-7660.954980,3849.070898
1458.748686,-5995.668130,-5975.544884,3478.967927
1458.748997,-5329.482782,-5898.935335,2812.782580
1458.749308,-6957.935855,-8120.612279,962.267725
1458.749620,-7772.162391,-9499.584175,-962.267725
1458.749931,-6883.915261,-8120.612279,-814.226536
1458.750242,-7179.997637,-4136.915689,-888.247130
1458.750554,-10140.821405,-1072.533697,74.020594
1458.750865,-13693.809927,-2374.896044,1850.514855
1458.751176,-14582.057057,-5822.325785,3627.009116
1458.751488,-12435.459826,-4826.401637,3627.009116
1458.751799,-10436.903782,919.314598,2146.597232
1458.752110,-8734.430116,2374.896044,-444.123565
1458.752422,-6291.750507,-1838.629195,-2590.720797
1458.752733,-5329.482782,-3447.429741,-4367.215058
1458.753045,-6513.812290,-1072.533697,-4515.256246
1458.753356,-9696.697840,612.876398,-3701.029710
1458.753667,-14285.974681,383.047749,-962.267725
1458.753979,-16728.654289,-459.657299,2368.659014
1458.754290,-16580.613101,-2374.896044,3552.988522
1458.754601,-15026.180623,-3370.820191,3478.967927
1458.754913,-11769.274478,-1915.238745,2442.679609
1458.755224,-7846.182985,1072.533697,-0.000000
1458.755535,-2590.720797,1302.362347,-1258.350101
1458.755847,-1850.514855,-1991.848295,-3108.864956
1458.756158,-3182.885551,-4979.620737,-2960.823768
1458.756469,-4885.359217,-4366.744339,-1702.473667
1458.756781,-7254.018232,-2681.334243,-0.000000
1458.757092,-10807.006753,-2298.286494,1628.453072
1458.757403,-14359.995275,-3907.087040,2664.741391
1458.757715,-14508.036463,-4519.963438,3701.029710
1458.758026,-12879.583391,-3447.429741,3627.009116
1458.758338,-9474.636058,-1225.752797,3256.906145
1458.758649,-6661.853478,306.438199,962.267725
1458.758960,-5033.400406,229.828649,-0.000000
1458.759272,-2664.741391,-1302.362347,-1110.308913
1458.759583,444.123565,-1378.971896,-0.000000
1458.759894,592.164754,-3524.039291,-444.123565
1458.760206,-2368.659014,-5898.935335,-296.082377
1458.760517,-6661.853478,-6588.421283,-296.082377
1458.760828,-11103.089130,-4979.620737,-0.000000
1458.761140,-13323.706956,-2911.162892,1850.514855
1458.761451,-15618.345376,-3294.210641,2738.761985
1458.761762,-16580.613101,-4826.401637,4219.173869
1458.762074,-14211.954086,-4443.353888,4589.276840
1458.762385,-11991.336260,-3753.867940,2220.617826
1458.762697,-7105.977043,-2068.457845,1776.494261
1458.763008,-3997.112087,-1455.581446,-1110.308913
1458.763319,-1406.391290,-2451.505594,-2072.576638
1458.763631,-1036.288319,-4213.525239,-2886.803174
1458.763942,-2812.782580,-5056.230287,-2516.700203
1458.764253,-5255.462188,-5132.839837,-1406.391290
1458.764565,-8586.388927,-6281.983084,-0.000000
1458.764876,-14804.118840,-7890.783629,888.247130
1458.765187,-18653.189738,-7124.688131,2590.720797
1458.765499,-19689.478057,-4673.182538,3256.906145
1458.765810,-18727.210333,-3217.601092,3627.009116
1458.766121,-15766.386565,-3064.381992,2368.659014
1458.766433,-11547.212695,-2757.943793,1554.432478
1458.766744,-6143.709319,-3907.087040,-74.020594
1458.767055,-1924.535449,-5209.449386,-814.226536
1458.767367,592.164754,-5362.668486,-2368.659014
1458.767678,-2294.638420,-4213.525239,-2886.803174
1458.767990,-5921.647536,-3677.258390,-2220.617826
1458.768301,-8512.368333,-3217.601092,-1998.556043
1458.768612,-13249.686362,-1608.800546,222.061783
1458.768924,-16136.489536,-1302.362347,1554.432478
1458.769235,-16802.674883,-1149.143247,1998.556043
1458.769546,-14656.077652,-766.095498,2146.597232
1458.769858,-11177.109724,-306.438199,1332.370696
1458.770169,-6587.832884,153.219100,-222.061783
1458.770480,-4515.256246,-229.828649,-1480.411884
1458.770792,-4367.215058,-612.876398,-1184.329507
1458.771103,-2294.638420,-1072.533697,-1110.308913
1458.771414,-2812.782580,-383.047749,-962.267725
1458.771726,-4737.318029,-1532.190996,-0.000000
1458.772037,-6143.709319,-3907.087040,444.123565
1458.772348,-7772.162391,-4903.011187,888.247130
1458.772660,-8512.368333,-4136.915689,1480.411884
1458.772971,-10288.862594,-3370.820191,1924.535449
1458.773283,-12805.562797,-3294.210641,1628.453072
1458.773594,-13471.748144,-2451.505594,2294.638420
1458.773905,-11991.336260,-1608.800546,1702.473667
1458.774217,-9326.594869,-1532.190996,1480.411884
1458.774528,-6957.935855,-1378.971896,518.144159
1458.774839,-5329.482782,-1762.019645,-148.041188
1458.775151,-3775.050304,-2374.896044,-740.205942
1458.775462,-3404.947333,-2681.334243,-888.247130
1458.775773,-4515.256246,-2834.553343,-740.205942
1458.776085,-6217.729913,-3907.087040,-0.000000
1458.776396,-9030.512492,-4136.915689,740.205942
1458.776707,-11029.068536,-4519.963438,1480.411884
1458.777019,-12805.562797,-4903.011187,2516.700203
1458.777330,-13693.809927,-5592.497135,3256.906145
1458.777641,-13101.645173,-5745.716235,3182.885551
1458.777953,-12139.377449,-4749.792088,1998.556043
1458.778264,-11621.233289,-2987.772442,666.185348
1458.778576,-9770.718434,-229.828649,-370.102971
1458.778887,-7920.203579,842.705048,-592.164754
1458.779198,-6365.771101,689.485948,-814.226536
1458.779510,-5921.647536,76.609550,-296.082377
1458.779821,-6217.729913,-1149.143247,592.164754
1458.780132,-7328.038826,-2374.896044,1480.411884
1458.780444,-8734.430116,-3447.429741,1554.432478
1458.780755,-9992.780217,-4903.011187,1480.411884
1458.781066,-11695.253884,-5439.278036,1332.370696
1458.781378,-11917.315666,-5209.449386,518.144159
1458.781689,-12657.521608,-5209.449386,-0.000000
1458.782000,-12731.542202,-5056.230287,370.102971
1458.782312,-10066.800811,-5822.325785,-148.041188
1458.782623,-7550.100608,-5056.230287,222.061783
1458.782934,-6365.771101,-4673.182538,370.102971
1458.783246,-5699.585753,-3294.210641,814.226536
1458.783557,-6143.709319,-3370.820191,666.185348
1458.783869,-5921.647536,-2451.505594,1258.350101
1458.784180,-6587.832884,-1608.800546,1554.432478
1458.784491,-8438.347739,-1532.190996,740.205942
1458.784803,-9992.780217,-1838.629195,814.226536
1458.785114,-11399.171507,-2374.896044,-148.041188
1458.785425,-10584.944971,-2374.896044,-296.082377
1458.785737,-10510.924376,-1608.800546,-1036.288319
1458.786048,-8438.347739,-1225.752797,-1406.391290
1458.786359,-7698.141797,-2221.676944,-1184.329507
1458.786671,-7476.080014,-3294.210641,-666.185348
1458.786982,-5699.585753,-2374.896044,814.226536
1458.787293,-6439.791695,-3064.381992,444.123565
1458.787605,-7328.038826,-3907.087040,2220.617826
1458.787916,-10362.883188,-4213.525239,1480.411884
1458.788227,-10362.883188,-2528.115143,1776.494261
1458.788539,-10436.903782,-1532.190996,888.247130
1458.788850,-10214.842000,-2221.676944,888.247130
1458.789162,-10881.027347,-2451.505594,148.041188
1458.789473,-10510.924376,-3217.601092,-74.020594
1458.789784,-9696.697840,-1838.629195,888.247130
1458.790096,-10140.821405,-1072.533697,1110.308913
1458.790407,-11547.212695,-153.219100,1554.432478
1458.790718,-10807.006753,689.485948,1776.494261
1458.791030,-9474.636058,-306.438199,1628.453072
1458.791341,-7105.977043,-842.705048,3034.844362
1458.791652,-6217.729913,-229.828649,2812.782580
1458.791964,-7624.121203,-2145.067394,2664.741391
1458.792275,-8068.244768,-4136.915689,4071.132681
1458.792586,-9696.697840,-4443.353888,3627.009116
1458.792898,-9252.574275,-1685.410096,4885.359217
1458.793209,-11695.253884,-153.219100,4071.132681
1458.793521,-12213.398043,-919.314598,5033.400406
1458.793832,-8364.327145,-919.314598,3775.050304
1458.794143,-7179.997637,1455.581446,3701.029710
1458.794455,-6365.771101,1838.629195,3552.988522
1458.794766,-6217.729913,766.095498,3701.029710
1458.795077,-7476.080014,-766.095498,3478.967927
1458.795389,-5255.462188,0.000000,5699.585753
1458.795700,-7179.997637,-153.219100,4441.235652
1458.796011,-10807.006753,-1149.143247,4959.379811
1458.796323,-10288.862594,-306.438199,6217.729913
1458.796634,-10066.800811,-842.705048,4737.318029
1458.796945,-8068.244768,-842.705048,5625.565159
1458.797257,-8882.471304,-766.095498,4367.215058
1458.797568,-7994.224174,0.000000,5107.421000
1458.797879,-5403.503377,459.657299,4219.173869
1458.798191,-5699.585753,1072.533697,3849.070898
1458.798502,-6291.750507,2528.115143,4145.153275
1458.798814,-8068.244768,1838.629195,4589.276840
1458.799125,-9030.512492,919.314598,4737.318029
1458.799436,-8364.327145,153.219100,4959.379811
1458.799748,-8216.285956,76.609550,4663.297435
1458.800059,-8586.388927,-1072.533697,4071.132681
1458.800370,-8808.450710,-2604.724693,4071.132681
1458.800682,-8142.265362,-1915.238745,4145.153275
1458.800993,-7994.224174,459.657299,5181.441594
1458.801304,-8808.450710,766.095498,3997.112087
1458.801616,-10658.965565,919.314598,4293.194464
1458.801927,-10140.821405,1991.848295,3701.029710
1458.802238,-8882.471304,2604.724693,3775.050304
1458.802550,-8660.409521,1915.238745,3552.988522
1458.802861,-7920.203579,0.000000,3108.864956
1458.803172,-7920.203579,-306.438199,3034.844362
1458.803484,-7105.977043,-1072.533697,3034.844362
1458.803795,-7105.977043,-1685.410096,3330.926739
1458.804107,-8660.409521,-1915.238745,3701.029710
1458.804418,-9622.677246,-1685.410096,3997.112087
1458.804729,-10732.986159,-1072.533697,3849.070898
1458.805041,-9770.718434,-459.657299,3627.009116
1458.805352,-9844.739029,153.219100,3256.906145
1458.805663,-9104.533087,612.876398,1850.514855
1458.805975,-9326.594869,612.876398,1258.350101
1458.806286,-8734.430116,1302.362347,1628.453072
1458.806597,-10362.883188,1149.143247,2738.761985
1458.806909,-11399.171507,-153.219100,3775.050304
1458.807220,-11103.089130,-1685.410096,4589.276840
1458.807531,-9622.677246,-2604.724693,4589.276840
1458.807843,-7328.038826,-2374.896044,4293.194464
1458.808154,-5477.523971,-3217.601092,2590.720797
1458.808465,-4589.276840,-2145.067394,1184.329507
1458.808777,-4885.359217,-919.314598,370.102971
1458.809088,-5921.647536,383.047749,-518.144159
1458.809400,-8438.347739,1149.143247,-148.041188
1458.809711,-11399.171507,2068.457845,370.102971
1458.810022,-13249.686362,2145.067394,1850.514855
1458.810334,-14508.036463,2374.896044,2664.741391
1458.810645,-13767.830521,1532.190996,3330.926739
1458.810956,-12139.377449,919.314598,2812.782580
1458.811268,-9696.697840,-383.047749,2664.741391
1458.811579,-6661.853478,-612.876398,1998.556043
1458.811890,-4589.276840,-1072.533697,814.226536
1458.812202,-3775.050304,-919.314598,814.226536
1458.812513,-4811.338623,-536.266849,740.205942
1458.812824,-8660.409521,-153.219100,1924.535449
1458.813136,-11029.068536,919.314598,3552.988522
1458.813447,-14137.933492,1302.362347,5329.482782
1458.813758,-15248.242405,1302.362347,6365.771101
1458.814070,-13693.809927,153.219100,6143.709319
1458.814381,-10807.006753,-689.485948,5477.523971
1458.814693,-6809.894666,-1302.362347,3923.091493
1458.815004,-4145.153275,-1532.190996,2442.679609
1458.815315,-1776.494261,-1532.190996,2294.638420
1458.815627,-2516.700203,-153.219100,2368.659014
1458.815938,-6587.832884,-842.705048,3552.988522
1458.816249,-10881.027347,-536.266849,5181.441594
1458.816561,-13619.789333,-153.219100,6661.853478
1458.816872,-13397.727550,536.266849,6957.935855
1458.817183,-10436.903782,536.266849,5847.626942
1458.817495,-7254.018232,-612.876398,4219.173869
1458.817806,-5403.503377,-1072.533697,3330.926739
1458.818117,-4589.276840,-919.314598,3701.029710
1458.818429,-6069.688724,306.438199,5181.441594
1458.818740,-8882.471304,229.828649,6587.832884
1458.819051,-11103.089130,-76.609550,8142.265362
1458.819363,-11177.109724,229.828649,8660.409521
1458.819674,-9770.718434,1149.143247,6439.791695
1458.819986,-6513.812290,2298.286494,4071.132681
1458.820297,-4589.276840,3447.429741,1110.308913
1458.820608,-3923.091493,4060.306139,-0.000000
1458.820920,-5033.400406,3370.820191,-370.102971
1458.821231,-7179.997637,2298.286494,962.267725
1458.821542,-10807.006753,1149.143247,3182.885551
1458.821854,-13767.830521,0.000000,5921.647536
1458.822165,-15396.283594,-1991.848295,8290.306550
1458.822476,-14582.057057,-3907.087040,9770.718434
1458.822788,-12435.459826,-3677.258390,9474.636058
1458.823099,-9104.533087,-1991.848295,8734.430116
1458.823410,-5773.606348,-1685.410096,5773.606348
1458.823722,-3552.988522,-306.438199,2664.741391
1458.824033,-1628.453072,1225.752797,-0.000000
1458.824345,-1258.350101,2221.676944,-1184.329507
1458.824656,-3404.947333,1838.629195,-592.164754
1458.824967,-6661.853478,2221.676944,814.226536
1458.825279,-11399.171507,536.266849,2960.823768
1458.825590,-16062.468941,-1302.362347,5551.544565
1458.825901,-17987.004391,-1991.848295,7179.997637
1458.826213,-16580.613101,-2145.067394,7179.997637
1458.826524,-13027.624579,-1225.752797,5625.565159
1458.826835,-8734.430116,153.219100,4959.379811
1458.827147,-5995.668130,-536.266849,3330.926739
1458.827458,-4441.235652,0.000000,2590.720797
1458.827769,-2886.803174,229.828649,2812.782580
1458.828081,-2590.720797,459.657299,1924.535449
1458.828392,-2812.782580,459.657299,1480.411884
1458.828703,-4515.256246,76.609550,-370.102971
1458.829015,-6809.894666,0.000000,-814.226536
1458.829326,-9918.759623,-383.047749,-148.041188
1458.829638,-13027.624579,-689.485948,2294.638420
1458.829949,-17838.963202,-459.657299,4737.318029
1458.830260,-19837.519246,-766.095498,6883.915261
1458.830572,-18061.024985,-383.047749,7698.141797
1458.830883,-13545.768739,-229.828649,6957.935855
1458.831194,-7105.977043,459.657299,5107.421000
1458.831506,-444.123565,383.047749,1258.350101
1458.831817,3404.947333,689.485948,-2886.803174
1458.832128,4959.379811,1838.629195,-5403.503377
1458.832440,1406.391290,2068.457845,-5403.503377
1458.832751,-5551.544565,536.266849,-3034.844362
1458.833062,-13397.727550,-306.438199,1480.411884
1458.833374,-21243.910535,-1838.629195,6069.688724
1458.833685,-25611.125593,-2451.505594,9696.697840
1458.833997,-25167.002028,-1302.362347,10881.027347
1458.834308,-19615.457463,-1378.971896,9474.636058
1458.834620,-12435.459826,383.047749,8216.285956
1458.834931,-4737.318029,689.485948,3627.009116
1458.835243,3034.844362,612.876398,-1036.288319
1458.835554,8142.265362,842.705048,-5255.462188
1458.835866,7920.203579,2221.676944,-5995.668130
1458.836177,1332.370696,3447.429741,-2886.803174
1458.836489,-9474.636058,1532.190996,370.102971
1458.836800,-19911.539840,612.876398,5551.544565
1458.837112,-27017.516883,-995.924147,9844.739029
1458.837423,-25241.022622,-1378.971896,11991.336260
1458.837734,-17616.901420,-1762.019645,10214.842000
1458.838046,-9992.780217,-2834.553343,6291.750507
1458.838357,-296.082377,-2528.115143,1554.432478
1458.838669,6143.709319,-766.095498,-1480.411884
1458.838980,6735.874072,1225.752797,-1258.350101
1458.839292,-222.061783,2451.505594,740.205942
1458.839603,-10214.842000,1838.629195,3478.967927
1458.839915,-15470.304188,766.095498,5773.606348
1458.840226,-15396.283594,2681.334243,5403.503377
1458.840538,-11843.295072,1455.581446,4071.132681
1458.840849,-9104.533087,-919.314598,2294.638420
1458.841161,-7402.059420,-3294.210641,1776.494261
1458.841472,-6735.874072,-2834.553343,2368.659014
1458.841784,-8660.409521,-1072.533697,5551.544565
1458.842095,-11991.336260,1302.362347,7772.162391
1458.842407,-13767.830521,1149.143247,9918.759623
1458.842718,-12509.480420,229.828649,9770.718434
1458.843029,-7402.059420,0.000000,8068.244768
1458.843341,-2072.576638,1838.629195,2960.823768
1458.843652,-444.123565,3600.648841,-1036.288319
1458.843964,0.000000,2528.115143,-3182.885551
1458.844275,-3701.029710,1455.581446,-2368.659014
1458.844587,-9252.574275,0.000000,814.226536
1458.844898,-15174.221811,-689.485948,5995.668130
1458.845210,-18801.230927,-2757.943793,9770.718434
1458.845521,-17616.901420,-4060.306139,12879.583391
1458.845833,-14285.974681,-4826.401637,11769.274478
1458.846144,-9326.594869,-4673.182538,8660.409521
1458.846456,-4071.132681,-2528.115143,3330.926739
1458.846767,-518.144159,1302.362347,-1184.329507
1458.847079,1998.556043,5439.278036,-4589.276840
1458.847390,1184.329507,5669.106685,-5625.565159
1458.847702,-3923.091493,4903.011187,-4293.194464
1458.848013,-8660.409521,2681.334243,-1406.391290
1458.848324,-11991.336260,76.609550,2294.638420
1458.848636,-13989.892304,-1608.800546,5403.503377
1458.848947,-15692.365970,-3140.991542,5255.462188
1458.849259,-16136.489536,-3677.258390,4885.359217
1458.849570,-12213.398043,-2528.115143,3404.947333
1458.849882,-8808.450710,0.000000,666.185348
1458.850193,-6513.812290,1532.190996,-1332.370696
1458.850505,-5921.647536,766.095498,-3404.947333
1458.850816,-5625.565159,612.876398,-3701.029710
1458.851128,-3997.112087,1225.752797,-4071.132681
1458.851439,-4737.318029,306.438199,-3330.926739
1458.851751,-7624.121203,-306.438199,-3256.906145
1458.852062,-12065.356855,-383.047749,-1776.494261
1458.852374,-16358.551318,153.219100,296.082377
1458.852685,-16802.674883,-919.314598,2664.741391
1458.852997,-15470.304188,-3064.381992,1332.370696
1458.853308,-11473.192101,-3217.601092,-740.205942
1458.853619,-7179.997637,-1302.362347,-2516.700203
1458.853931,-6661.853478,229.828649,-2368.659014
1458.854242,-9178.553681,1455.581446,-2146.597232
1458.854554,-11843.295072,995.924147,-888.247130
1458.854865,-12213.398043,-1991.848295,-888.247130
1458.855177,-7772.162391,-1302.362347,-2146.597232
1458.855488,-4515.256246,229.828649,-5255.462188
1458.855800,-3478.967927,383.047749,-5773.606348
1458.856111,-7031.956449,-2145.067394,-5181.441594
1458.856423,-11029.068536,-2221.676944,-814.226536
1458.856734,-14211.954086,-2221.676944,2738.761985
1458.857046,-17542.880825,-2451.505594,5255.462188
1458.857357,-15766.386565,-2221.676944,5403.503377
1458.857669,-11695.253884,-383.047749,592.164754
1458.857980,-6735.874072,2145.067394,-2146.597232
1458.858292,-2590.720797,3294.210641,-4219.173869
1458.858603,-2072.576638,4290.134789,-6587.832884
1458.858914,-2664.741391,4749.792088,-4589.276840
1458.859226,-7328.038826,2221.676944,-2072.576638
1458.859537,-9992.780217,-689.485948,2368.659014
1458.859849,-11399.171507,-1685.410096,4071.132681
1458.860160,-10362.883188,-2145.067394,5107.421000
1458.860472,-8364.327145,-3140.991542,4515.256246
1458.860783,-9474.636058,-3064.381992,3330.926739
1458.861095,-7846.182985,-1149.143247,3108.864956
1458.861406,-7920.203579,842.705048,2220.617826
1458.861718,-9400.615463,2528.115143,666.185348
1458.862029,-9474.636058,3907.087040,148.041188
1458.862341,-8068.244768,3753.867940,-1406.391290
1458.862652,-5329.482782,2298.286494,-222.061783
1458.862964,-5033.400406,842.705048,-1036.288319
1458.863275,-6809.894666,306.438199,-0.000000
1458.863587,-8882.471304,-1915.238745,2738.761985
1458.863898,-12361.439231,-3753.867940,4663.297435
1458.864209,-13989.892304,-4290.134789,6217.729913
1458.864521,-13545.768739,-3753.867940,6069.688724
1458.864832,-10436.903782,-2145.067394,4441.235652
1458.865144,-7105.977043,-306.438199,3034.844362
1458.865455,-6069.688724,1991.848295,1332.370696
1458.865767,-5033.400406,2221.676944,1036.288319
1458.866078,-6365.771101,1838.629195,740.205942
1458.866390,-7105.977043,1378.971896,1850.514855
1458.866701,-7254.018232,1838.629195,370.102971
1458.867013,-6809.894666,2757.943793,-0.000000
1458.867324,-7624.121203,1532.190996,-222.061783
1458.867636,-9548.656652,-306.438199,592.164754
1458.867947,-11473.192101,-1532.190996,2072.576638
1458.868259,-13027.624579,-1149.143247,3330.926739
1458.868570,-14359.995275,-1991.848295,4293.194464
1458.868882,-13915.871710,-2451.505594,4367.215058
1458.869193,-10881.027347,-1378.971896,3478.967927
1458.869504,-7920.203579,0.000000,1628.453072
1458.869816,-3108.864956,459.657299,-1110.308913
1458.870127,0.000000,229.828649,-3552.988522
1458.870439,74.020594,536.266849,-3997.112087
1458.870750,-3330.926739,842.705048,-1776.494261
1458.871062,-7698.141797,-995.924147,-888.247130
1458.871373,-12805.562797,-2068.457845,296.082377
1458.871685,-16506.592507,-1302.362347,1924.535449
1458.871996,-17024.736666,-1838.629195,1924.535449
1458.872308,-14137.933492,0.000000,814.226536
1458.872619,-9474.636058,459.657299,-1776.494261
1458.872931,-6809.894666,766.095498,-3849.070898
1458.873242,-5625.565159,612.876398,-4737.318029
1458.873554,-4589.276840,2298.286494,-4663.297435
1458.873865,-6957.935855,2757.943793,-3849.070898
1458.874177,-9178.553681,1302.362347,-2368.659014
1458.874488,-9918.759623,0.000000,-1406.391290
1458.874799,-9844.739029,383.047749,-1998.556043
1458.875111,-7624.121203,229.828649,-1258.350101
1458.875422,-7698.141797,-1915.238745,-1554.432478
1458.875734,-9474.636058,-2911.162892,-1332.370696
1458.876045,-9696.697840,-2221.676944,-1332.370696
1458.876357,-10140.821405,-1302.362347,-1332.370696
1458.876668,-11917.315666,-383.047749,-1110.308913
1458.876980,-12213.398043,2145.067394,-1406.391290
1458.877291,-11547.212695,2834.553343,-1998.556043
1458.877603,-11843.295072,2145.067394,-1406.391290
1458.877914,-11399.171507,689.485948,-0.000000
1458.878226,-10362.883188,-383.047749,-518.144159
1458.878537,-8586.388927,-842.705048,-888.247130
1458.878849,-7476.080014,-1608.800546,-518.144159
1458.879160,-7179.997637,-2451.505594,-888.247130
1458.879472,-7624.121203,-1915.238745,592.164754
1458.879783,-8882.471304,-1149.143247,1702.473667
1458.880094,-10732.986159,-2451.505594,4219.173869
1458.880406,-12583.501014,-2911.162892,4589.276840
1458.880717,-13175.665768,-1302.362347,4663.297435
1458.881029,-11325.150913,76.609550,2960.823768
1458.881340,-8882.471304,1455.581446,666.185348
1458.881652,-6291.750507,1762.019645,-148.041188
1458.881963,-5181.441594,2298.286494,-370.102971
1458.882275,-5773.606348,766.095498,1036.288319
1458.882586,-6439.791695,-536.266849,3034.844362
1458.882898,-9252.574275,-1838.629195,5181.441594
1458.883209,-10214.842000,-1608.800546,5255.462188
1458.883521,-10214.842000,-1455.581446,5329.482782
1458.883832,-8290.306550,-536.266849,3775.050304
1458.884144,-6513.812290,1072.533697,2294.638420
1458.884455,-5773.606348,2911.162892,1480.411884
1458.884767,-6069.688724,2911.162892,740.205942
1458.885078,-6291.750507,2834.553343,-296.082377
1458.885389,-5477.523971,2298.286494,-370.102971
1458.885701,-5625.565159,2145.067394,-0.000000
1458.886012,-7105.977043,1762.019645,666.185348
1458.886324,-9104.533087,1225.752797,2294.638420
1458.886635,-9400.615463,-383.047749,3034.844362
1458.886947,-9844.739029,-2298.286494,2960.823768
1458.887258,-10955.047942,-2068.457845,2516.700203
1458.887570,-11473.192101,-919.314598,1480.411884
1458.887881,-11251.130318,229.828649,814.226536
1458.888193,-8956.491898,-689.485948,-962.267725
1458.888504,-5477.523971,-1455.581446,-2590.720797
1458.888816,-2664.741391,-919.314598,-3923.091493
1458.889127,-3330.926739,1225.752797,-2146.597232
1458.889439,-7772.162391,842.705048,592.164754
1458.889750,-13693.809927,-612.876398,1702.473667
1458.890062,-17616.901420,-919.314598,2516.700203
1458.890373,-15766.386565,-842.705048,2664.741391
1458.890684,-11029.068536,-766.095498,1258.350101
1458.890996,-8438.347739,-995.924147,-1184.329507
1458.891307,-6735.874072,-1149.143247,-3404.947333
1458.891619,-6513.812290,-2221.676944,-2960.823768
1458.891930,-7624.121203,-2374.896044,-1406.391290
1458.892242,-10510.924376,-1225.752797,-296.082377
1458.892553,-12805.562797,-306.438199,370.102971
1458.892865,-12213.398043,-1838.629195,-222.061783
1458.893176,-9770.718434,0.000000,-888.247130
1458.893488,-7994.224174,2528.115143,-962.267725
1458.893799,-7846.182985,2451.505594,-518.144159
1458.894111,-8882.471304,-153.219100,-74.020594
1458.894422,-10288.862594,-1608.800546,-0.000000
1458.894734,-10732.986159,-306.438199,296.082377
1458.895045,-9696.697840,919.314598,-296.082377
1458.895357,-9548.656652,2145.067394,-1184.329507
1458.895668,-9696.697840,1838.629195,-1406.391290
1458.895979,-10140.821405,766.095498,296.082377
1458.896291,-10881.027347,0.000000,666.185348
1458.896602,-9844.739029,306.438199,1406.391290
1458.896914,-8142.265362,1072.533697,740.205942
1458.897225,-4959.379811,612.876398,518.144159
1458.897537,-4219.173869,-689.485948,-74.020594
1458.897848,-4885.359217,-1072.533697,814.226536
1458.898160,-6661.853478,-536.266849,2072.576638
1458.898471,-8956.491898,-306.438199,3627.009116
1458.898783,-10066.800811,0.000000,4589.276840
1458.899094,-11695.253884,0.000000,2812.782580
1458.899406,-10732.986159,153.219100,1702.473667
1458.899717,-7624.121203,1608.800546,370.102971
1458.900029,-5699.585753,2374.896044,-1110.308913
1458.900340,-5403.503377,1455.581446,-592.164754
1458.900652,-7328.038826,306.438199,962.267725
1458.900963,-9474.636058,-1149.143247,2220.617826
1458.901275,-10584.944971,-1302.362347,2664.741391
1458.901586,-10214.842000,-1762.019645,2960.823768
1458.901897,-8808.450710,-2374.896044,3108.864956
1458.902209,-9104.533087,-2911.162892,1998.556043
1458.902520,-6883.915261,-2987.772442,1628.453072
1458.902832,-7105.977043,-2221.676944,1110.308913
1458.903143,-9696.697840,-1072.533697,2368.659014
1458.903455,-11991.336260,-919.314598,2590.720797
1458.903766,-12435.459826,-1149.143247,1406.391290
1458.904078,-10807.006753,383.047749,-296.082377
1458.904389,-7105.977043,2374.896044,-1924.535449
1458.904701,-6735.874072,2604.724693,-3034.844362
1458.905012,-7402.059420,2374.896044,-2220.617826
1458.905324,-9622.677246,1072.533697,-74.020594
1458.905635,-11917.315666,-766.095498,1554.432478
1458.905947,-12583.501014,-1685.410096,2590.720797
1458.906258,-11991.336260,-612.876398,2294.638420
1458.906570,-8512.368333,0.000000,148.041188
1458.906881,-5403.503377,0.000000,-1480.411884
1458.907192,-4071.132681,0.000000,-1850.514855
1458.907504,-5699.585753,842.705048,-1628.453072
1458.907815,-8216.285956,842.705048,-518.144159
1458.908127,-9918.759623,995.924147,-148.041188
1458.908438,-11103.089130,1532.190996,296.082377
1458.908750,-10881.027347,1685.410096,-444.123565
1458.909061,-9622.677246,1838.629195,-888.247130
1458.909373,-8438.347739,1915.238745,-518.144159
1458.909684,-8734.430116,612.876398,814.226536
1458.909996,-10510.924376,-689.485948,1850.514855
1458.910307,-11029.068536,-1838.629195,1480.411884
1458.910619,-9474.636058,-1532.190996,1554.432478
1458.910930,-7772.162391,-995.924147,1036.288319
1458.911242,-6143.709319,-842.705048,-740.205942
1458.911553,-5329.482782,-459.657299,-1258.350101
1458.911865,-7254.018232,766.095498,-296.082377
1458.912176,-10362.883188,1378.971896,3256.906145
1458.912487,-11917.315666,-229.828649,4663.297435
1458.912799,-11473.192101,-2145.067394,3627.009116
1458.913110,-9474.636058,-1915.238745,1850.514855
1458.913422,-5477.523971,-306.438199,592.164754
1458.913733,-3627.009116,1532.190996,148.041188
1458.914045,-6513.812290,1378.971896,370.102971
1458.914356,-11399.171507,0.000000,3034.844362
1458.914668,-13915.871710,-2068.457845,4737.318029
1458.914979,-12731.542202,-1455.581446,5329.482782
1458.915291,-9178.553681,0.000000,3701.029710
1458.915602,-5847.626942,-612.876398,666.185348
1458.915914,-3256.906145,-766.095498,-740.205942
1458.916225,-3404.947333,-459.657299,-1036.288319
1458.916537,-4589.276840,306.438199,222.061783
1458.916848,-9030.512492,-153.219100,2220.617826
1458.917160,-11621.233289,-689.485948,2442.679609
1458.917471,-12657.521608,-612.876398,1554.432478
1458.917782,-10732.986159,919.314598,740.205942
1458.918094,-7476.080014,1915.238745,222.061783
1458.918405,-7624.121203,2604.724693,-1776.494261
1458.918717,-8142.265362,3064.381992,-1480.411884
1458.919028,-11399.171507,2451.505594,518.144159
1458.919340,-12731.542202,1378.971896,740.205942
1458.919651,-11843.295072,153.219100,740.205942
1458.919963,-8438.347739,-919.314598,-888.247130
1458.920274,-3923.091493,-1532.190996,-3256.906145
1458.920586,-3034.844362,-842.705048,-4811.338623
1458.920897,-4885.359217,-612.876398,-3923.091493
1458.921209,-8882.471304,-306.438199,-1036.288319
1458.921520,-13693.809927,-2145.067394,1184.329507
1458.921832,-15248.242405,-2451.505594,2146.597232
1458.922143,-14434.015869,-1915.238745,592.164754
1458.922455,-10362.883188,689.485948,-814.226536
1458.922766,-6439.791695,1608.800546,-2960.823768
1458.923077,-5773.606348,1685.410096,-4515.256246
1458.923389,-7698.141797,842.705048,-2072.576638
1458.923700,-10436.903782,-842.705048,-666.185348
1458.924012,-11991.336260,-1532.190996,1184.329507
1458.924323,-12139.377449,-1762.019645,962.267725
1458.924635,-10288.862594,-1762.019645,-0.000000
1458.924946,-7254.018232,-1838.629195,-1110.308913
1458.925258,-5477.523971,-995.924147,-1554.432478
1458.925569,-6291.750507,-383.047749,-666.185348
1458.925881,-9252.574275,-536.266849,962.267725
1458.926192,-11695.253884,-1149.143247,1924.535449
1458.926504,-10732.986159,-1838.629195,2146.597232
1458.926815,-8882.471304,0.000000,518.144159
1458.927127,-8290.306550,1302.362347,-518.144159
1458.927438,-7179.997637,2374.896044,-444.123565
1458.927750,-7254.018232,1302.362347,-444.123565
1458.928061,-9104.533087,153.219100,1628.453072
1458.928372,-11547.212695,0.000000,2664.741391
1458.928684,-11473.192101,0.000000,3923.091493
1458.928995,-9770.718434,1072.533697,3256.906145
1458.929307,-8438.347739,-153.219100,3256.906145
1458.929618,-7105.977043,536.266849,2590.720797
1458.929930,-5995.668130,0.000000,1924.535449
1458.930241,-3701.029710,-459.657299,1258.350101
1458.930553,-3775.050304,-459.657299,1036.288319
1458.930864,-6217.729913,1302.362347,2368.659014
1458.931176,-8364.327145,1455.581446,2442.679609
1458.931487,-11547.212695,383.047749,2220.617826
1458.931799,-11769.274478,153.219100,3627.009116
1458.932110,-11029.068536,612.876398,3108.864956
1458.932422,-8956.491898,1378.971896,2294.638420
1458.932733,-7994.224174,536.266849,1850.514855
1458.933045,-7179.997637,-1302.362347,1184.329507
1458.933356,-5699.585753,-1762.019645,518.144159
1458.933667,-6439.791695,-1378.971896,-518.144159
1458.933979,-7105.977043,-229.828649,-1332.370696
1458.934290,-8216.285956,153.219100,-666.185348
1458.934602,-10955.047942,383.047749,370.102971
1458.934913,-12953.603985,1225.752797,2146.597232
1458.935225,-13989.892304,-766.095498,3108.864956
1458.935536,-12065.356855,-2298.286494,3034.844362
1458.935848,-8956.491898,-1838.629195,-74.020594
1458.936159,-4737.318029,0.000000,-1998.556043
1458.936471,-3849.070898,995.924147,-4441.235652
1458.936782,-6069.688724,1072.533697,-4145.153275
1458.937093,-9696.697840,2298.286494,-1998.556043
1458.937405,-13027.624579,1225.752797,-0.000000
1458.937716,-15174.221811,-612.876398,1406.391290
1458.938027,-14582.057057,-1149.143247,2146.597232
1458.938339,-11251.130318,-1685.410096,-0.000000
1458.938650,-7328.038826,-2298.286494,-1480.411884
1458.938962,-3849.070898,-306.438199,-3701.029710
1458.939273,-3552.988522,229.828649,-3775.050304
1458.939584,-5921.647536,-995.924147,-1776.494261
1458.939896,-9992.780217,-2298.286494,-0.000000
1458.940207,-11473.192101,-1608.800546,1184.329507
1458.940518,-12435.459826,-766.095498,962.267725
1458.940830,-12509.480420,995.924147,1110.308913
1458.941141,-10732.986159,1915.238745,-518.144159
1458.941453,-9474.636058,1149.143247,-2220.617826
1458.941764,-8142.265362,1532.190996,-2146.597232
1458.942075,-7550.100608,1685.410096,-444.123565
1458.942387,-7105.977043,1685.410096,-74.020594
1458.942698,-6661.853478,153.219100,-666.185348
1458.943009,-5773.606348,-919.314598,-814.226536
1458.943321,-6587.832884,-1149.143247,-296.082377
1458.943632,-7920.203579,1302.362347,-0.000000
1458.943944,-9918.759623,766.095498,962.267725
1458.944255,-11621.233289,-536.266849,1406.391290
1458.944566,-12213.398043,-2068.457845,1554.432478
1458.944878,-10881.027347,-612.876398,592.164754
1458.945189,-9548.656652,842.705048,-222.061783
1458.945500,-8586.388927,1149.143247,148.041188
1458.945812,-6735.874072,-536.266849,-518.144159
1458.946123,-5699.585753,-1149.143247,-1184.329507
1458.946435,-6291.750507,383.047749,592.164754
1458.946746,-10140.821405,76.609550,3182.885551
1458.947057,-12583.501014,-306.438199,4145.153275
1458.947369,-12953.603985,-1149.143247,3478.967927
1458.947680,-11029.068536,-1225.752797,2664.741391
1458.947991,-8068.244768,-1149.143247,1036.288319
1458.948303,-5403.503377,995.924147,-148.041188
1458.948614,-4811.338623,766.095498,-1702.473667
1458.948926,-7105.977043,0.000000,-0.000000
1458.949237,-9326.594869,-2145.067394,1036.288319
1458.949548,-9178.553681,-1685.410096,1332.370696
1458.949860,-9918.759623,-153.219100,592.164754
1458.950171,-10066.800811,612.876398,740.205942
1458.950482,-10881.027347,-229.828649,962.267725
1458.950794,-12509.480420,76.609550,296.082377
1458.951105,-11769.274478,1838.629195,2220.617826
1458.951417,-10807.006753,0.000000,2368.659014
1458.951728,-8142.265362,-383.047749,2294.638420
1458.952039,-7179.997637,-612.876398,740.205942
1458.952351,-6809.894666,-1225.752797,-74.020594
1458.952662,-5847.626942,-459.657299,-444.123565
1458.952973,-5255.462188,2374.896044,-888.247130
1458.953285,-6365.771101,1072.533697,-740.205942
1458.953596,-10066.800811,-229.828649,222.061783
1458.953908,-10140.821405,-383.047749,1332.370696
1458.954219,-9030.512492,842.705048,-0.000000
1458.954530,-8068.244768,2451.505594,-1258.350101
1458.954842,-8068.244768,2451.505594,-1110.308913
1458.955153,-8586.388927,1302.362347,148.041188
1458.955464,-8660.409521,-229.828649,814.226536
1458.955776,-10214.842000,612.876398,2294.638420
1458.956087,-10732.986159,383.047749,2146.597232
1458.956399,-9178.553681,306.438199,1628.453072
1458.956710,-7031.956449,-536.266849,222.061783
1458.957021,-5773.606348,-1149.143247,-370.102971
1458.957333,-5699.585753,-1072.533697,-74.020594
1458.957644,-7328.038826,0.000000,-148.041188
1458.957955,-7772.162391,-919.314598,1702.473667
1458.958267,-9400.615463,-2451.505594,1480.411884
1458.958578,-10510.924376,-2145.067394,2220.617826
1458.958890,-11029.068536,0.000000,1924.535449
1458.959201,-10955.047942,153.219100,1628.453072
1458.959512,-10362.883188,229.828649,1776.494261
1458.959824,-10584.944971,842.705048,518.144159
1458.960135,-9770.718434,1532.190996,1036.288319
1458.960446,-9252.574275,-383.047749,2368.659014
1458.960758,-8660.409521,-1915.238745,2590.720797
1458.961069,-9326.594869,-1378.971896,1924.535449
1458.961381,-8586.388927,0.000000,2146.597232
1458.961692,-7624.121203,-306.438199,1924.535449
1458.962003,-7550.100608,-1149.143247,666.185348
1458.962315,-6735.874072,-1225.752797,370.102971
1458.962626,-5699.585753,-766.095498,-74.020594
1458.962937,-7179.997637,-306.438199,-0.000000
1458.963249,-9548.656652,-153.219100,1554.432478
1458.963560,-12583.501014,536.266849,1258.350101
1458.963872,-13323.706956,689.485948,1628.453072
1458.964183,-11621.233289,766.095498,1480.411884
1458.964494,-9548.656652,1608.800546,-222.061783
1458.964806,-7105.977043,2451.505594,-962.267725
1458.965117,-5033.400406,229.828649,-2590.720797
1458.965428,-3478.967927,-1149.143247,-3923.091493
1458.965740,-4589.276840,-536.266849,-2442.679609
1458.966051,-8290.306550,689.485948,-1702.473667
1458.966363,-12065.356855,689.485948,-0.000000
1458.966674,-14211.954086,229.828649,1036.288319
1458.966985,-13471.748144,-153.219100,1554.432478
1458.967297,-10436.903782,76.609550,888.247130
1458.967608,-7328.038826,229.828649,-1406.391290
1458.967919,-5107.421000,0.000000,-3108.864956
1458.968231,-5699.585753,-612.876398,-3478.967927
1458.968542,-8068.244768,0.000000,-2146.597232
1458.968854,-11251.130318,689.485948,-962.267725
1458.969165,-12435.459826,612.876398,148.041188
1458.969476,-12287.418637,-153.219100,1110.308913
1458.969788,-10658.965565,-1838.629195,666.185348
1458.970099,-8734.430116,-1685.410096,-0.000000
1458.970410,-7328.038826,-1762.019645,-444.123565
1458.970722,-7105.977043,-766.095498,-370.102971
1458.971033,-8660.409521,-766.095498,-0.000000
1458.971345,-10510.924376,-995.924147,1036.288319
1458.971656,-10288.862594,-1302.362347,1406.391290
1458.971967,-10140.821405,-536.266849,2664.741391
1458.972279,-9030.512492,0.000000,2368.659014
1458.972590,-8142.265362,-459.657299,592.164754
1458.972901,-8808.450710,-536.266849,1036.288319
1458.973213,-9474.636058,0.000000,1480.411884
1458.973524,-10362.883188,229.828649,1702.473667
1458.973836,-9992.780217,536.266849,2072.576638
1458.974147,-8216.285956,612.876398,1628.453072
1458.974458,-7476.080014,459.657299,2368.659014
1458.974770,-7994.224174,229.828649,3404.947333
1458.975081,-8882.471304,-229.828649,2886.803174
1458.975392,-7994.224174,306.438199,3404.947333
1458.975704,-7846.182985,153.219100,3182.885551
1458.976015,-7105.977043,1378.971896,2516.700203
1458.976327,-5773.606348,1762.019645,1628.453072
1458.976638,-5477.523971,1378.971896,1850.514855
1458.976949,-6513.812290,1685.410096,2294.638420
1458.977261,-8956.491898,1838.629195,2220.617826
1458.977572,-10214.842000,2298.286494,3182.885551
1458.977884,-9622.677246,1072.533697,2368.659014
1458.978195,-8438.347739,-995.924147,814.226536
1458.978506,-6661.853478,-459.657299,-222.061783
1458.978818,-5847.626942,1225.752797,370.102971
1458.979129,-6587.832884,0.000000,814.226536
1458.979440,-8512.368333,-1991.848295,962.267725
1458.979752,-10214.842000,-1838.629195,1850.514855
1458.980063,-10584.944971,-536.266849,3256.906145
1458.980375,-9474.636058,0.000000,2516.700203
1458.980686,-8216.285956,-536.266849,1702.473667
1458.980997,-7550.100608,-1302.362347,-370.102971
1458.981309,-5699.585753,-1532.190996,-2368.659014
1458.981620,-5477.523971,536.266849,-1924.535449
1458.981931,-9548.656652,1225.752797,-1480.411884
1458.982243,-14137.933492,76.609550,-666.185348
1458.982554,-15322.262999,-1149.143247,-222.061783
1458.982866,-14211.954086,-612.876398,-814.226536
1458.983177,-11325.150913,766.095498,-74.020594
1458.983488,-8142.265362,153.219100,-222.061783
1458.983800,-7402.059420,-1991.848295,-1776.494261
1458.984111,-6809.894666,-2528.115143,-1036.288319
1458.984422,-8290.306550,-1762.019645,-1036.288319
1458.984734,-9474.636058,-229.828649,222.061783
1458.985045,-10584.944971,76.609550,666.185348
1458.985357,-10584.944971,-1302.362347,-0.000000
1458.985668,-9474.636058,-1608.800546,-1184.329507
1458.985979,-8734.430116,-229.828649,-1702.473667
1458.986291,-7402.059420,1608.800546,-1850.514855
1458.986602,-8364.327145,1072.533697,-2220.617826
1458.986913,-9548.656652,76.609550,-1924.535449
1458.987225,-9178.553681,766.095498,-2368.659014
1458.987536,-10658.965565,2451.505594,-2294.638420
1458.987848,-9844.739029,2757.943793,-370.102971
1458.988159,-10214.842000,1532.190996,296.082377
1458.988470,-10140.821405,0.000000,222.061783
1458.988782,-9474.636058,-842.705048,740.205942
1458.989093,-9474.636058,-919.314598,814.226536
1458.989404,-8142.265362,-306.438199,-74.020594
1458.989716,-5699.585753,306.438199,-1480.411884
1458.990027,-5033.400406,-919.314598,-1110.308913
1458.990339,-5921.647536,-1915.238745,-296.082377
1458.990650,-7772.162391,-1302.362347,1110.308913
1458.990961,-9326.594869,-612.876398,1110.308913
1458.991273,-11917.315666,306.438199,962.267725
1458.991584,-11695.253884,919.314598,1850.514855
1458.991895,-10732.986159,1455.581446,444.123565
1458.992207,-9992.780217,1532.190996,370.102971
1458.992518,-8882.471304,383.047749,1036.288319
1458.992830,-8216.285956,-459.657299,1036.288319
1458.993141,-8068.244768,0.000000,1850.514855
1458.993452,-9844.739029,-459.657299,3404.947333
1458.993764,-9474.636058,-2068.457845,3701.029710
1458.994075,-6217.729913,-2681.334243,2590.720797
1458.994386,-3997.112087,-1302.362347,814.226536
1458.994698,-3478.967927,383.047749,1480.411884
1458.995009,-7105.977043,153.219100,1998.556043
1458.995321,-9992.780217,-1378.971896,2368.659014
1458.995632,-11843.295072,-1532.190996,2368.659014
1458.995943,-12139.377449,-459.657299,3034.844362
1458.996255,-10362.883188,383.047749,2738.761985
1458.996566,-8364.327145,1225.752797,814.226536
1458.996877,-6957.935855,153.219100,-74.020594
1458.997189,-6957.935855,-1378.971896,666.185348
1458.997500,-7624.121203,-383.047749,962.267725
1458.997812,-9252.574275,995.924147,1554.432478
1458.998123,-9844.739029,306.438199,1776.494261
1458.998434,-9474.636058,-995.924147,592.164754
1458.998746,-7846.182985,766.095498,-518.144159
1458.999057,-6661.853478,2528.115143,-1554.432478
1458.999368,-6809.894666,3064.381992,-0.000000
1458.999680,-8142.265362,995.924147,592.164754
1458.999991,-8808.450710,0.000000,444.123565
1459.000303,-9548.656652,0.000000,148.041188
1459.000614,-9474.636058,612.876398,222.061783
1459.000925,-9104.533087,1762.019645,444.123565
1459.001237,-8956.491898,1991.848295,-1480.411884
1459.001548,-9326.594869,536.266849,-740.205942
1459.001859,-10732.986159,-1302.362347,222.061783
1459.002171,-9844.739029,-1532.190996,1184.329507
1459.002482,-9770.718434,-766.095498,-222.061783
1459.002794,-8364.327145,-1072.533697,-740.205942
1459.003105,-8290.306550,-1608.800546,-1480.411884
1459.003416,-8586.388927,-919.314598,-1332.370696
1459.003728,-7550.100608,0.000000,-740.205942
1459.004039,-8586.388927,-536.266849,-0.000000
1459.004350,-10732.986159,-1225.752797,1850.514855
1459.004662,-11547.212695,-1608.800546,2220.617826
1459.004973,-10066.800811,-1762.019645,888.247130
1459.005285,-8734.430116,-995.924147,-740.205942
1459.005596,-7476.080014,0.000000,-2294.638420
1459.005907,-8882.471304,766.095498,-2590.720797
1459.006219,-11473.192101,689.485948,-740.205942
1459.006530,-12509.480420,-1149.143247,740.205942
1459.006841,-12065.356855,-2298.286494,740.205942
1459.007153,-9844.739029,-1378.971896,518.144159
1459.007464,-6883.915261,-995.924147,-444.123565
1459.007776,-5255.462188,-1685.410096,-1850.514855
1459.008087,-4885.359217,0.000000,-1924.535449
1459.008398,-7105.977043,1838.629195,-1036.288319
1459.008710,-11473.192101,1378.971896,1036.288319
1459.009021,-13397.727550,842.705048,3330.926739
1459.009332,-12065.356855,306.438199,2368.659014
1459.009644,-8364.327145,-919.314598,-0.000000
1459.009955,-4515.256246,459.657299,-1628.453072
1459.010267,-3034.844362,2911.162892,-2516.700203
1459.010578,-6513.812290,3064.381992,-1332.370696
1459.010889,-10658.965565,306.438199,148.041188
1459.011201,-12583.501014,-2145.067394,2146.597232
1459.011512,-12213.398043,-766.095498,2516.700203
1459.011823,-8734.430116,229.828649,1554.432478
1459.012135,-5107.421000,153.219100,222.061783
1459.012446,-4145.153275,-1149.143247,-1480.411884
1459.012758,-6661.853478,-689.485948,-1924.535449
1459.013069,-8660.409521,229.828649,888.247130
1459.013380,-11991.336260,229.828649,1924.535449
1459.013692,-13397.727550,-229.828649,2738.761985
1459.014003,-11991.336260,-459.657299,1258.350101
1459.014314,-9770.718434,-306.438199,-0.000000
1459.014626,-6661.853478,229.828649,-0.000000
1459.014937,-7328.038826,766.095498,-370.102971
1459.015249,-9326.594869,0.000000,518.144159
1459.015560,-10658.965565,-1762.019645,2590.720797
1459.015871,-11621.233289,-2604.724693,2368.659014
1459.016183,-10732.986159,-1225.752797,2368.659014
1459.016494,-8364.327145,-536.266849,2072.576638
1459.016805,-6217.729913,-1072.533697,1110.308913
1459.017117,-5995.668130,-1378.971896,-0.000000
1459.017428,-7920.203579,-766.095498,1258.350101
1459.017740,-9770.718434,0.000000,2960.823768
1459.018051,-11325.150913,-766.095498,3627.009116
1459.018362,-10436.903782,-612.876398,2368.659014
1459.018674,-8956.491898,-459.657299,962.267725
1459.018985,-7772.162391,766.095498,-0.000000
1459.019296,-5773.606348,1762.019645,-74.020594
1459.019608,-6661.853478,2145.067394,-962.267725
1459.019919,-8438.347739,1838.629195,962.267725
1459.020231,-10436.903782,0.000000,2368.659014
1459.020542,-10288.862594,-1072.533697,2368.659014
1459.020853,-8808.450710,0.000000,1850.514855
1459.021165,-6587.832884,229.828649,962.267725
1459.021476,-5921.647536,383.047749,-0.000000
1459.021788,-6883.915261,919.314598,-0.000000
1459.022099,-7994.224174,919.314598,-0.000000
1459.022410,-8290.306550,229.828649,296.082377
1459.022722,-7920.203579,-229.828649,370.102971
1459.023033,-8438.347739,612.876398,-592.164754
1459.023344,-6809.894666,306.438199,-1110.308913
1459.023656,-5625.565159,306.438199,-3108.864956
1459.023967,-7624.121203,1532.190996,-2220.617826
1459.024279,-12509.480420,3600.648841,148.041188
1459.024590,-17616.901420,1915.238745,2738.761985
1459.024901,-18209.066173,-1608.800546,3775.050304
1459.025213,-13175.665768,-3447.429741,1554.432478
1459.025524,-6217.729913,-1838.629195,-888.247130
1459.025835,-1332.370696,-383.047749,-3108.864956
1459.026147,-1258.350101,-1225.752797,-3552.988522
1459.026458,-5699.585753,-1532.190996,-2442.679609
1459.026770,-11029.068536,-1608.800546,148.041188
1459.027081,-14434.015869,-995.924147,3478.967927
1459.027392,-16136.489536,-842.705048,3775.050304
1459.027704,-14063.912898,-383.047749,1184.329507
1459.028015,-9326.594869,-612.876398,-2368.659014
1459.028326,-4441.235652,306.438199,-4367.215058
1459.028638,-3330.926739,1072.533697,-4293.194464
1459.028949,-7550.100608,1608.800546,-1332.370696
1459.029261,-12879.583391,-229.828649,1850.514855
1459.029572,-14952.160028,-3064.381992,3849.070898
1459.029883,-13989.892304,-2298.286494,3997.112087
1459.030195,-10214.842000,-1685.410096,1850.514855
1459.030506,-5699.585753,-459.657299,518.144159
1459.030817,-1924.535449,-1991.848295,-1554.432478
1459.031129,-3330.926739,-1608.800546,-2294.638420
1459.031440,-7105.977043,0.000000,-592.164754
1459.031752,-10510.924376,153.219100,1258.350101
1459.032063,-11769.274478,229.828649,2886.803174
1459.032374,-10881.027347,0.000000,2072.576638
1459.032686,-9030.512492,612.876398,444.123565
1459.032997,-7698.141797,2221.676944,888.247130
1459.033308,-7920.203579,4136.915689,814.226536
1459.033620,-9104.533087,2834.553343,888.247130
1459.033931,-10436.903782,1455.581446,1702.473667
1459.034243,-9770.718434,995.924147,1554.432478
1459.034554,-7994.224174,1225.752797,444.123565
1459.034865,-5033.400406,153.219100,-148.041188
1459.035177,-4367.215058,-689.485948,-1406.391290
1459.035488,-5847.626942,-689.485948,-518.144159
1459.035800,-8216.285956,-766.095498,962.267725
1459.036111,-11695.253884,-995.924147,2960.823768
1459.036423,-13693.809927,-2221.676944,3849.070898
1459.036734,-11843.295072,-2451.505594,3256.906145
1459.037045,-8512.368333,-1455.581446,1110.308913
1459.037357,-6661.853478,766.095498,-0.000000
1459.037668,-6735.874072,1302.362347,-0.000000
1459.037980,-8068.244768,766.095498,-444.123565
1459.038291,-10362.883188,1378.971896,2442.679609
1459.038603,-12879.583391,229.828649,3330.926739
1459.038914,-12065.356855,-459.657299,2442.679609
1459.039226,-9622.677246,229.828649,592.164754
1459.039537,-6291.750507,76.609550,-74.020594
1459.039849,-4589.276840,-766.095498,-0.000000
1459.040160,-7402.059420,-919.314598,444.123565
1459.040472,-9326.594869,-459.657299,2294.638420
1459.040783,-8586.388927,-2298.286494,2146.597232
1459.041095,-7624.121203,-2757.943793,2664.741391
1459.041406,-8142.265362,-383.047749,2812.782580
1459.041718,-10140.821405,536.266849,518.144159
1459.042029,-10066.800811,0.000000,888.247130
1459.042341,-9252.574275,-842.705048,888.247130
1459.042652,-10510.924376,459.657299,-74.020594
1459.042964,-9474.636058,1991.848295,1184.329507
1459.043275,-8660.409521,1149.143247,740.205942
1459.043587,-7846.182985,-995.924147,814.226536
1459.043898,-7476.080014,-1149.143247,222.061783
1459.044210,-7105.977043,-229.828649,-0.000000
1459.044521,-6735.874072,2451.505594,814.226536
1459.044833,-8586.388927,2145.067394,740.205942
1459.045144,-9252.574275,689.485948,-148.041188
1459.045456,-8808.450710,842.705048,-370.102971
1459.045767,-7550.100608,1072.533697,-370.102971
1459.046079,-6217.729913,1915.238745,-1554.432478
1459.046390,-7846.182985,1608.800546,-2368.659014
1459.046702,-8290.306550,2298.286494,-1702.473667
1459.047013,-9770.718434,229.828649,-1406.391290
1459.047325,-12139.377449,76.609550,740.205942
1459.047636,-12435.459826,-536.266849,2590.720797
1459.047948,-11621.233289,-919.314598,888.247130
1459.048259,-9770.718434,-1915.238745,-0.000000
1459.048571,-7846.182985,-2298.286494,-370.102971
1459.048882,-5921.647536,-2451.505594,-1924.535449
1459.049194,-5255.462188,-1838.629195,-3256.906145
1459.049505,-7698.141797,153.219100,-2886.803174
1459.049817,-11843.295072,-153.219100,-0.000000
1459.050128,-14804.118840,-995.924147,1924.535449
1459.050440,-15322.262999,-1302.362347,2220.617826
1459.050751,-13767.830521,-1072.533697,1110.308913
1459.051063,-9770.718434,-689.485948,-518.144159
1459.051374,-6143.709319,536.266849,-1480.411884
1459.051686,-5625.565159,2451.505594,-3701.029710
1459.051997,-7920.203579,1225.752797,-2812.782580
1459.052308,-9770.718434,-1072.533697,-370.102971
1459.052620,-10658.965565,-1072.533697,2590.720797
1459.052931,-10066.800811,-612.876398,3256.906145
1459.053243,-10140.821405,-1915.238745,1998.556043
1459.053554,-8586.388927,-2604.724693,1110.308913
1459.053866,-6365.771101,-1455.581446,666.185348
1459.054177,-5773.606348,-306.438199,592.164754
1459.054489,-6365.771101,-1378.971896,592.164754
1459.054800,-8142.265362,-1762.019645,2146.597232
1459.055112,-9770.718434,-1072.533697,2146.597232
1459.055423,-10807.006753,919.314598,1258.350101
1459.055735,-9622.677246,2145.067394,2812.782580
1459.056046,-7328.038826,1225.752797,1702.473667
1459.056358,-6365.771101,459.657299,-74.020594
1459.056669,-5847.626942,1991.848295,-0.000000
1459.056981,-7328.038826,3600.648841,1332.370696
1459.057292,-8290.306550,2528.115143,2072.576638
1459.057604,-8882.471304,995.924147,2220.617826
1459.057915,-9252.574275,-1378.971896,1628.453072
1459.058227,-6809.894666,-766.095498,2368.659014
1459.058538,-7105.977043,536.266849,1258.350101
1459.058850,-7920.203579,536.266849,1406.391290
1459.059161,-7476.080014,-1149.143247,1110.308913
1459.059473,-8290.306550,-2451.505594,148.041188
1459.059784,-8216.285956,0.000000,1036.288319
1459.060096,-9474.636058,306.438199,-0.000000
1459.060407,-9992.780217,766.095498,-0.000000
1459.060719,-9844.739029,1608.800546,-148.041188
1459.061030,-10584.944971,1532.190996,-222.061783
1459.061342,-10288.862594,1532.190996,1258.350101
1459.061653,-11325.150913,459.657299,2368.659014
1459.061965,-10214.842000,-306.438199,1480.411884
1459.062276,-8660.409521,-1225.752797,666.185348
1459.062588,-8216.285956,-995.924147,222.061783
1459.062899,-7179.997637,153.219100,888.247130
1459.063211,-7328.038826,612.876398,444.123565
1459.063522,-7550.100608,-536.266849,-0.000000
1459.063834,-8882.471304,-1302.362347,1258.350101
1459.064145,-10066.800811,-1608.800546,1406.391290
1459.064457,-9326.594869,-383.047749,1554.432478
1459.064768,-8808.450710,-995.924147,-370.102971
1459.065080,-6661.853478,-995.924147,-1258.350101
1459.065391,-7254.018232,-919.314598,-1998.556043
1459.065703,-9252.574275,459.657299,-1554.432478
1459.066014,-11473.192101,1378.971896,1332.370696
1459.066326,-14730.098246,-306.438199,2368.659014
1459.066637,-14952.160028,-842.705048,4071.132681
1459.066949,-12953.603985,-919.314598,1702.473667
1459.067260,-7846.182985,76.609550,148.041188
1459.067571,-2960.823768,-459.657299,-1406.391290
1459.067883,-2738.761985,153.219100,-2960.823768
1459.068194,-4737.318029,0.000000,-3034.844362
1459.068506,-7846.182985,0.000000,-1480.411884
1459.068817,-9770.718434,153.219100,740.205942
1459.069129,-12139.377449,0.000000,1702.473667
1459.069440,-12213.398043,-536.266849,296.082377
1459.069752,-10288.862594,459.657299,-814.226536
1459.070063,-8216.285956,1991.848295,-444.123565
1459.070375,-6957.935855,1991.848295,-296.082377
1459.070686,-8586.388927,459.657299,-74.020594
1459.070998,-9548.656652,-766.095498,592.164754
1459.071309,-9326.594869,-689.485948,-518.144159
1459.071621,-8734.430116,0.000000,-518.144159
1459.071932,-6735.874072,1302.362347,-666.185348
1459.072244,-6735.874072,536.266849,-2590.720797
1459.072555,-8290.306550,-689.485948,-2220.617826
1459.072867,-10066.800811,-459.657299,1110.308913
1459.073178,-12361.439231,-1072.533697,2516.700203
1459.073490,-11695.253884,-1991.848295,2072.576638
1459.073801,-8956.491898,-2834.553343,-888.247130
1459.074113,-4589.276840,-1302.362347,-1702.473667
1459.074424,-3478.967927,766.095498,-1036.288319
1459.074736,-7624.121203,1225.752797,-814.226536
1459.075047,-12879.583391,-306.438199,1036.288319
1459.075359,-15618.345376,-1532.190996,2368.659014
1459.075670,-14359.995275,-536.266849,3849.070898
1459.075982,-10955.047942,-229.828649,1998.556043
1459.076293,-6957.935855,-1302.362347,-370.102971
1459.076605,-3775.050304,-1991.848295,-1924.535449
1459.076916,-2442.679609,-1225.752797,-2516.700203
1459.077228,-3923.091493,1149.143247,-962.267725
1459.077539,-9030.512492,842.705048,2220.617826
1459.077851,-13545.768739,-1455.581446,4959.379811
1459.078162,-14656.077652,-1532.190996,4441.235652
1459.078474,-12583.501014,689.485948,2368.659014
1459.078785,-8438.347739,4596.572988,518.144159
1459.079097,-6439.791695,3907.087040,-222.061783
1459.079408,-6143.709319,2298.286494,-370.102971
1459.079720,-7772.162391,1149.143247,-148.041188
1459.080031,-9548.656652,766.095498,1776.494261
1459.080343,-9918.759623,536.266849,3034.844362
1459.080654,-8438.347739,76.609550,3108.864956
1459.080966,-5921.647536,-1455.581446,1332.370696
1459.081277,-4589.276840,-2911.162892,-444.123565
1459.081589,-6069.688724,-1608.800546,-1258.350101
1459.081900,-8660.409521,1225.752797,-0.000000
1459.082212,-12805.562797,1991.848295,2368.659014
1459.082523,-16654.633695,-459.657299,3552.988522
1459.082834,-16654.633695,-1838.629195,3923.091493
1459.083146,-11917.315666,-612.876398,1998.556043
1459.083457,-4737.318029,766.095498,296.082377
1459.083769,-2072.576638,766.095498,-1628.453072
1459.084080,-2886.803174,0.000000,-1702.473667
1459.084392,-6809.894666,-995.924147,148.041188
1459.084703,-10436.903782,-995.924147,2590.720797
1459.085015,-12287.418637,-459.657299,3256.906145
1459.085326,-10955.047942,-306.438199,2516.700203
1459.085638,-6809.894666,-766.095498,-74.020594
1459.085949,-4441.235652,306.438199,-1554.432478
1459.086261,-3775.050304,1532.190996,-1184.329507
1459.086572,-5625.565159,612.876398,-296.082377
1459.086884,-9030.512492,-536.266849,1850.514855
1459.087195,-11695.253884,-1149.143247,2590.720797
1459.087507,-11103.089130,-1685.410096,2146.597232
1459.087818,-9696.697840,-612.876398,-0.000000
1459.088130,-8142.265362,919.314598,-518.144159
1459.088441,-7846.182985,1762.019645,-1258.350101
1459.088753,-9548.656652,689.485948,-740.205942
1459.089064,-10584.944971,-383.047749,1184.329507
1459.089376,-10658.965565,-2221.676944,296.082377
1459.089687,-9400.615463,-2604.724693,148.041188
1459.089999,-7846.182985,-612.876398,-0.000000
1459.090310,-6587.832884,459.657299,-148.041188
1459.090622,-7846.182985,0.000000,-666.185348
1459.090933,-11103.089130,229.828649,814.226536
1459.091245,-12435.459826,76.609550,1110.308913
1459.091556,-12361.439231,612.876398,1776.494261
1459.091868,-10140.821405,995.924147,962.267725
1459.092179,-7846.182985,1225.752797,-2368.659014
1459.092491,-6365.771101,1149.143247,-4293.194464
1459.092802,-4589.276840,1072.533697,-3775.050304
1459.093114,-7179.997637,1915.238745,-2590.720797
1459.093425,-12213.398043,1149.143247,-0.000000
1459.093737,-14804.118840,306.438199,2368.659014
1459.094048,-14878.139434,-1915.238745,2368.659014
1459.094360,-11621.233289,-1225.752797,1850.514855
1459.094671,-7105.977043,76.609550,1406.391290
1459.094983,-4959.379811,-766.095498,-666.185348
1459.095294,-3849.070898,-1455.581446,-1776.494261
1459.095606,-5625.565159,76.609550,-1184.329507
1459.095917,-8882.471304,536.266849,666.185348
1459.096229,-11399.171507,1378.971896,2886.803174
1459.096540,-11325.150913,-612.876398,3108.864956
1459.096852,-10510.924376,-2374.896044,444.123565
1459.097163,-7328.038826,-383.047749,-666.185348
1459.097475,-3923.091493,995.924147,-2368.659014
1459.097786,-7105.977043,1378.971896,-2146.597232
1459.098097,-11695.253884,689.485948,962.267725
1459.098409,-14063.912898,-1225.752797,3923.091493
1459.098720,-13471.748144,-3064.381992,5477.523971
1459.099032,-10362.883188,-2374.896044,4737.318029
1459.099343,-6291.750507,-1455.581446,2738.761985
1459.099655,-2516.700203,-1072.533697,1110.308913
1459.099966,-2072.576638,-383.047749,-222.061783
1459.100278,-5403.503377,-229.828649,1332.370696
1459.100589,-9696.697840,-766.095498,2590.720797
1459.100901,-11991.336260,0.000000,2368.659014
1459.101212,-10658.965565,1532.190996,2886.803174
1459.101524,-9918.759623,0.000000,-0.000000
1459.101835,-7179.997637,995.924147,-0.000000
1459.102147,-4885.359217,1915.238745,-814.226536
1459.102458,-6883.915261,2374.896044,-1480.411884
1459.102770,-9844.739029,2221.676944,518.144159
1459.103081,-13249.686362,689.485948,2368.659014
1459.103393,-13915.871710,1149.143247,2960.823768
1459.103704,-11621.233289,536.266849,2072.576638
1459.104016,-8290.306550,-229.828649,296.082377
1459.104327,-5773.606348,689.485948,-962.267725
1459.104639,-5773.606348,1532.190996,-1406.391290
1459.104950,-6735.874072,153.219100,-74.020594
1459.105262,-8660.409521,-2451.505594,592.164754
1459.105573,-8660.409521,-2221.676944,740.205942
1459.105885,-9474.636058,0.000000,296.082377
1459.106196,-10214.842000,229.828649,962.267725
1459.106508,-10288.862594,229.828649,740.205942
1459.106819,-11843.295072,689.485948,296.082377
1459.107131,-12583.501014,1072.533697,1036.288319
1459.107442,-11473.192101,536.266849,2516.700203
1459.107754,-9992.780217,-1532.190996,962.267725
1459.108065,-6957.935855,-1378.971896,592.164754
1459.108377,-5921.647536,-1762.019645,-1776.494261
1459.108688,-3997.112087,-1991.848295,-2220.617826
1459.109000,-3775.050304,-995.924147,-444.123565
1459.109311,-7105.977043,-612.876398,296.082377
1459.109623,-10288.862594,-1685.410096,2368.659014
1459.109934,-12583.501014,-1455.581446,2368.659014
1459.110246,-11547.212695,0.000000,2664.741391
1459.110557,-9548.656652,689.485948,814.226536
1459.110869,-6809.894666,306.438199,-222.061783
1459.111180,-5255.462188,383.047749,-1628.453072
1459.111492,-6883.915261,842.705048,-2368.659014
1459.111803,-9622.677246,1532.190996,-0.000000
1459.112115,-11843.295072,919.314598,1998.556043
1459.112426,-11473.192101,0.000000,2812.782580
1459.112738,-9252.574275,-1532.190996,1184.329507
1459.113049,-7328.038826,-2221.676944,-1110.308913
1459.113360,-4071.132681,0.000000,-1332.370696
1459.113672,-5181.441594,1685.410096,-1924.535449
1459.113983,-9326.594869,1608.800546,-1110.308913
1459.114295,-12583.501014,76.609550,666.185348
1459.114606,-14063.912898,229.828649,2664.741391
1459.114918,-11399.171507,842.705048,1924.535449
1459.115229,-8512.368333,1455.581446,-74.020594
1459.115541,-6217.729913,612.876398,-2368.659014
1459.115852,-5551.544565,306.438199,-2368.659014
1459.116164,-8068.244768,1225.752797,-1036.288319
1459.116475,-11029.068536,-229.828649,1036.288319
1459.116787,-13027.624579,-2145.067394,3034.844362
1459.117098,-12731.542202,-2681.334243,2516.700203
1459.117410,-10288.862594,-2145.067394,888.247130
1459.117721,-6587.832884,-1608.800546,-1110.308913
1459.118033,-3775.050304,-612.876398,-1998.556043
1459.118344,-5477.523971,229.828649,-2220.617826
