#time,accel_x,accel_y,accel_z
1450.529344,-8956.491898,459.657299,1110.308913
1450.529656,-8808.450710,0.000000,370.102971
1450.529967,-8808.450710,-153.219100,222.061783
1450.530279,-8512.368333,153.219100,370.102971
1450.530590,-8882.471304,0.000000,518.144159
1450.530902,-8956.491898,0.000000,370.102971
1450.531213,-9104.533087,-153.219100,518.144159
1450.531525,-8882.471304,-153.219100,666.185348
1450.531836,-8734.430116,0.000000,370.102971
1450.532148,-8956.491898,536.266849,592.164754
1450.532460,-8512.368333,0.000000,370.102971
1450.532771,-8734.430116,0.000000,296.082377
1450.533083,-8882.471304,0.000000,518.144159
1450.533394,-9178.553681,-153.219100,592.164754
1450.533706,-9326.594869,-153.219100,444.123565
1450.534017,-9178.553681,0.000000,592.164754
1450.534329,-9104.533087,-153.219100,-0.000000
1450.534640,-8586.388927,0.000000,444.123565
1450.534952,-8808.450710,-153.219100,-0.000000
1450.535264,-8660.409521,-306.438199,222.061783
1450.535575,-8956.491898,-153.219100,814.226536
1450.535887,-8882.471304,-383.047749,592.164754
1450.536198,-8956.491898,0.000000,518.144159
1450.536510,-8734.430116,0.000000,592.164754
1450.536821,-8808.450710,153.219100,592.164754
1450.537133,-8882.471304,-229.828649,296.082377
1450.537444,-8660.409521,0.000000,444.123565
1450.537756,-9030.512492,-459.657299,148.041188
1450.538068,-8808.450710,-153.219100,814.226536
1450.538379,-9178.553681,76.609550,370.102971
1450.538691,-8808.450710,76.609550,592.164754
1450.539002,-8808.450710,76.609550,592.164754
1450.539314,-8660.409521,689.485948,592.164754
1450.539625,-8956.491898,153.219100,148.041188
1450.539937,-8438.347739,76.609550,740.205942
1450.540248,-9252.574275,0.000000,296.082377
1450.540560,-9104.533087,0.000000,444.123565
1450.540872,-8956.491898,-153.219100,518.144159
1450.541183,-8882.471304,0.000000,740.205942
1450.541495,-9178.553681,-229.828649,370.102971
1450.541806,-8808.450710,0.000000,518.144159
1450.542118,-8808.450710,459.657299,888.247130
1450.542429,-8808.450710,153.219100,740.205942
1450.542741,-8882.471304,-306.438199,592.164754
1450.543052,-9104.533087,-153.219100,518.144159
1450.543364,-9104.533087,76.609550,518.144159
1450.543675,-8882.471304,0.000000,592.164754
1450.543987,-8956.491898,76.609550,444.123565
1450.544299,-8660.409521,-383.047749,370.102971
1450.544610,-8956.491898,0.000000,444.123565
1450.544922,-8882.471304,-153.219100,148.041188
1450.545233,-8956.491898,0.000000,592.164754
1450.545545,-9104.533087,-153.219100,592.164754
1450.545856,-8734.430116,-153.219100,518.144159
1450.546168,-8808.450710,0.000000,592.164754
1450.546479,-8660.409521,0.000000,592.164754
1450.546791,-8586.388927,-153.219100,370.102971
1450.547103,-8660.409521,153.219100,-0.000000
1450.547414,-8660.409521,-306.438199,518.144159
1450.547726,-8882.471304,0.000000,518.144159
1450.548037,-8882.471304,0.000000,592.164754
1450.548349,-9030.512492,0.000000,444.123565
1450.548660,-8956.491898,0.000000,444.123565
1450.548972,-8734.430116,0.000000,222.061783
1450.549283,-9178.553681,612.876398,444.123565
1450.549595,-8956.491898,-383.047749,444.123565
1450.549907,-8956.491898,0.000000,296.082377
1450.550218,-8956.491898,0.000000,370.102971
1450.550530,-8660.409521,0.000000,518.144159
1450.550841,-8956.491898,0.000000,666.185348
1450.551153,-8882.471304,229.828649,518.144159
1450.551464,-8956.491898,76.609550,518.144159
1450.551776,-8808.450710,0.000000,148.041188
1450.552087,-8734.430116,229.828649,666.185348
1450.552399,-8956.491898,-153.219100,592.164754
1450.552711,-8956.491898,-153.219100,592.164754
1450.553022,-9030.512492,-153.219100,592.164754
1450.553334,-9030.512492,0.000000,518.144159
1450.553645,-8808.450710,0.000000,444.123565
1450.553957,-9030.512492,383.047749,444.123565
1450.554268,-8882.471304,-153.219100,666.185348
1450.554580,-8956.491898,383.047749,592.164754
1450.554891,-8956.491898,0.000000,444.123565
1450.555203,-8882.471304,0.000000,592.164754
1450.555515,-8956.491898,0.000000,814.226536
1450.555826,-8808.450710,-76.609550,592.164754
1450.556138,-8882.471304,-229.828649,370.102971
1450.556449,-8734.430116,0.000000,222.061783
1450.556761,-8882.471304,-153.219100,296.082377
1450.557072,-9178.553681,0.000000,222.061783
1450.557384,-9178.553681,0.000000,518.144159
1450.557695,-9030.512492,-153.219100,444.123565
1450.558007,-8956.491898,-153.219100,518.144159
1450.558319,-9104.533087,0.000000,592.164754
1450.558630,-10362.883188,536.266849,-0.000000
1450.558942,-11473.192101,2451.505594,-0.000000
1450.559253,-9178.553681,4903.011187,518.144159
1450.559565,-7698.141797,4443.353888,962.267725
1450.559876,-6809.894666,1685.410096,1480.411884
1450.560188,-6587.832884,-995.924147,296.082377
1450.560499,-7550.100608,-1225.752797,-222.061783
1450.560811,-7105.977043,-306.438199,-222.061783
1450.561123,-10658.965565,-1225.752797,-1332.370696
1450.561434,-13101.645173,-919.314598,-814.226536
1450.561746,-10510.924376,689.485948,666.185348
1450.562057,-9252.574275,0.000000,1554.432478
1450.562369,-8734.430116,-459.657299,3108.864956
1450.562680,-11769.274478,0.000000,1776.494261
1450.562992,-9474.636058,3524.039291,2294.638420
1450.563303,-4959.379811,5515.887586,1924.535449
1450.563615,-6661.853478,4290.134789,1258.350101
1450.563927,-7994.224174,2681.334243,-666.185348
1450.564238,-7402.059420,3064.381992,-2072.576638
1450.564550,-9030.512492,3447.429741,-1924.535449
1450.564861,-8956.491898,3907.087040,-74.020594
1450.565173,-11473.192101,2451.505594,-1110.308913
1450.565484,-14582.057057,-383.047749,222.061783
1450.565796,-9178.553681,-1532.190996,2886.803174
1450.566107,-9326.594869,0.000000,1406.391290
1450.566419,-8660.409521,4213.525239,2812.782580
1450.566730,-7550.100608,5592.497135,1776.494261
1450.567042,-7920.203579,2834.553343,1702.473667
1450.567354,-6365.771101,3753.867940,2368.659014
1450.567665,-7624.121203,6281.983084,666.185348
1450.567977,-8734.430116,7048.078582,-814.226536
1450.568288,-8512.368333,5745.716235,-1332.370696
1450.568600,-9326.594869,4519.963438,-1258.350101
1450.568911,-9844.739029,5132.839837,-1184.329507
1450.569223,-11695.253884,5745.716235,-0.000000
1450.569534,-11695.253884,4903.011187,962.267725
1450.569846,-10510.924376,3907.087040,2146.597232
1450.570158,-9400.615463,5056.230287,2368.659014
1450.570469,-7624.121203,5362.668486,2146.597232
1450.570781,-5773.606348,6358.592633,-0.000000
1450.571092,-5773.606348,5362.668486,296.082377
1450.571404,-5033.400406,5209.449386,296.082377
1450.571715,-6143.709319,4673.182538,-1332.370696
1450.572027,-7328.038826,4213.525239,-518.144159
1450.572338,-9030.512492,2834.553343,-740.205942
1450.572650,-10288.862594,2068.457845,814.226536
1450.572962,-10510.924376,1455.581446,370.102971
1450.573273,-10807.006753,-536.266849,1924.535449
1450.573585,-10436.903782,689.485948,1924.535449
1450.573896,-10066.800811,2374.896044,2146.597232
1450.574208,-9030.512492,3524.039291,1850.514855
1450.574519,-6809.894666,3677.258390,222.061783
1450.574831,-5921.647536,3600.648841,-148.041188
1450.575142,-6957.935855,3217.601092,-962.267725
1450.575454,-6883.915261,3907.087040,-1110.308913
1450.575766,-7179.997637,2681.334243,-1406.391290
1450.576077,-9030.512492,76.609550,-1480.411884
1450.576389,-9844.739029,-2145.067394,-74.020594
1450.576700,-11991.336260,-2681.334243,1110.308913
1450.577012,-12879.583391,-2681.334243,1998.556043
1450.577323,-13027.624579,-1378.971896,2072.576638
1450.577635,-12657.521608,459.657299,1480.411884
1450.577946,-11399.171507,2451.505594,444.123565
1450.578258,-9252.574275,2911.162892,-148.041188
1450.578570,-6661.853478,4903.011187,-666.185348
1450.578881,-5995.668130,4979.620737,-0.000000
1450.579193,-6291.750507,4519.963438,222.061783
1450.579504,-7476.080014,3064.381992,592.164754
1450.579816,-9992.780217,1455.581446,148.041188
1450.580127,-11399.171507,842.705048,222.061783
1450.580439,-12879.583391,76.609550,-222.061783
1450.580750,-14211.954086,153.219100,-222.061783
1450.581062,-13545.768739,919.314598,148.041188
1450.581374,-12287.418637,2145.067394,370.102971
1450.581685,-10362.883188,3217.601092,1406.391290
1450.581997,-7698.141797,4290.134789,1628.453072
1450.582308,-5181.441594,5286.058936,1850.514855
1450.582620,-2368.659014,5822.325785,666.185348
1450.582931,-1184.329507,6205.373534,-148.041188
1450.583243,-1702.473667,4519.963438,-1406.391290
1450.583554,-5477.523971,3600.648841,-1554.432478
1450.583866,-9844.739029,3524.039291,-1332.370696
1450.584178,-13841.851115,3677.258390,-0.000000
1450.584489,-15544.324782,3677.258390,1850.514855
1450.584801,-16358.551318,3294.210641,3182.885551
1450.585112,-13249.686362,3217.601092,3034.844362
1450.585424,-8068.244768,4290.134789,2960.823768
1450.585735,-4071.132681,3983.696590,1924.535449
1450.586047,-1110.308913,5515.887586,148.041188
1450.586358,-1332.370696,6971.469032,-1258.350101
1450.586670,-2294.638420,7431.126331,-2220.617826
1450.586981,-5699.585753,5592.497135,-1480.411884
1450.587293,-8068.244768,3217.601092,-814.226536
1450.587605,-9992.780217,1838.629195,814.226536
1450.587916,-11103.089130,-1838.629195,1184.329507
1450.588228,-12287.418637,-3064.381992,1776.494261
1450.588539,-13323.706956,-2987.772442,1628.453072
1450.588851,-12953.603985,-1149.143247,1258.350101
1450.589162,-12287.418637,1838.629195,2072.576638
1450.589474,-10955.047942,3447.429741,1924.535449
1450.589785,-9622.677246,5745.716235,2146.597232
1450.590097,-7624.121203,5822.325785,1480.411884
1450.590409,-5847.626942,4366.744339,814.226536
1450.590720,-6069.688724,2911.162892,-222.061783
1450.591032,-6587.832884,2757.943793,-2220.617826
1450.591343,-8660.409521,3217.601092,-2738.761985
1450.591655,-10288.862594,3524.039291,-2960.823768
1450.591966,-11917.315666,3370.820191,-1406.391290
1450.592278,-12805.562797,1838.629195,-74.020594
1450.592589,-12435.459826,612.876398,1850.514855
1450.592901,-12583.501014,1072.533697,1998.556043
1450.593213,-12731.542202,2604.724693,2146.597232
1450.593524,-10807.006753,5592.497135,1480.411884
1450.593836,-8660.409521,7124.688131,-0.000000
1450.594147,-5699.585753,6128.763984,-148.041188
1450.594459,-5033.400406,3600.648841,-666.185348
1450.594770,-5921.647536,2451.505594,-740.205942
1450.595082,-7772.162391,2298.286494,-296.082377
1450.595393,-8808.450710,2528.115143,296.082377
1450.595705,-10214.842000,1225.752797,-0.000000
1450.596017,-9400.615463,-842.705048,1258.350101
1450.596328,-8660.409521,-2604.724693,1184.329507
1450.596640,-9030.512492,-1455.581446,740.205942
1450.596951,-9326.594869,2987.772442,-0.000000
1450.597263,-9992.780217,7048.078582,-1036.288319
1450.597574,-9474.636058,9039.926876,296.082377
1450.597886,-8586.388927,7890.783629,1850.514855
1450.598197,-8142.265362,4826.401637,1924.535449
1450.598509,-8586.388927,2987.772442,1406.391290
1450.598821,-7105.977043,4366.744339,888.247130
1450.599132,-5403.503377,5745.716235,-74.020594
1450.599444,-4589.276840,3983.696590,222.061783
1450.599755,-5477.523971,383.047749,222.061783
1450.600067,-4885.359217,-2451.505594,592.164754
1450.600378,-7402.059420,0.000000,-74.020594
1450.600690,-11399.171507,4136.915689,-0.000000
1450.601001,-12879.583391,7431.126331,-666.185348
1450.601313,-13915.871710,7124.688131,1184.329507
1450.601625,-13619.789333,3677.258390,3330.926739
1450.601936,-13693.809927,842.705048,3404.947333
1450.602248,-11029.068536,3217.601092,3108.864956
1450.602559,-7624.121203,5362.668486,2590.720797
1450.602871,-4589.276840,2757.943793,1406.391290
1450.603182,-3552.988522,-3524.039291,888.247130
1450.603494,-4367.215058,-6205.373534,-74.020594
1450.603805,-5477.523971,-3677.258390,-888.247130
1450.604117,-6513.812290,1762.019645,-1406.391290
1450.604429,-10584.944971,5515.887586,-1480.411884
1450.604740,-14359.995275,4749.792088,-0.000000
1450.605051,-17542.880825,1838.629195,1702.473667
1450.605363,-16728.654289,2834.553343,3849.070898
1450.605674,-13175.665768,7201.297681,3330.926739
1450.605986,-9252.574275,8120.612279,962.267725
1450.606297,-5033.400406,3064.381992,-0.000000
1450.606609,-2368.659014,-1608.800546,-1258.350101
1450.606920,-296.082377,153.219100,-1924.535449
1450.607231,-1184.329507,3140.991542,-1184.329507
1450.607543,-6587.832884,3983.696590,-814.226536
1450.607854,-13175.665768,1838.629195,222.061783
1450.608166,-16136.489536,1685.410096,740.205942
1450.608477,-15396.283594,4596.572988,1184.329507
1450.608789,-11769.274478,6358.592633,888.247130
1450.609100,-10955.047942,4136.915689,-1110.308913
1450.609411,-10066.800811,1455.581446,-2368.659014
1450.609723,-5477.523971,2681.334243,-2368.659014
1450.610034,-3775.050304,3677.258390,-1184.329507
1450.610346,-5477.523971,3064.381992,814.226536
1450.610657,-8882.471304,-229.828649,2442.679609
1450.610969,-10881.027347,-2834.553343,3330.926739
1450.611280,-9474.636058,-383.047749,3997.112087
1450.611591,-9844.739029,4749.792088,888.247130
1450.611903,-11325.150913,7737.564530,-1998.556043
1450.612214,-9844.739029,7354.516781,-3923.091493
1450.612526,-7105.977043,6435.202183,-4663.297435
1450.612837,-7179.997637,7814.174080,-2146.597232
1450.613149,-11547.212695,8427.050478,-1628.453072
1450.613460,-14063.912898,6971.469032,666.185348
1450.613771,-12139.377449,2451.505594,4441.235652
1450.614083,-8808.450710,-1915.238745,5403.503377
1450.614394,-6291.750507,-3370.820191,2960.823768
1450.614706,-6217.729913,-383.047749,-0.000000
1450.615017,-3404.947333,1455.581446,-888.247130
1450.615329,74.020594,1915.238745,-1776.494261
1450.615640,-5403.503377,1991.848295,-814.226536
1450.615951,-11843.295072,1378.971896,888.247130
1450.616263,-16136.489536,1378.971896,2146.597232
1450.616574,-15840.407159,2374.896044,5403.503377
1450.616886,-11917.315666,2604.724693,4145.153275
1450.617197,-9918.759623,306.438199,1332.370696
1450.617509,-5107.421000,-2068.457845,-1110.308913
1450.617820,-1184.329507,-3140.991542,-1406.391290
1450.618132,-1924.535449,-3370.820191,-74.020594
1450.618443,-5329.482782,-2068.457845,1258.350101
1450.618754,-9622.677246,-2834.553343,2294.638420
1450.619066,-11621.233289,-5898.935335,4367.215058
1450.619377,-12435.459826,-5898.935335,3997.112087
1450.619689,-9844.739029,-1915.238745,2072.576638
1450.620000,-8068.244768,0.000000,-1924.535449
1450.620312,-8216.285956,153.219100,-2812.782580
1450.620623,-8438.347739,536.266849,-1406.391290
1450.620934,-10362.883188,536.266849,-592.164754
1450.621246,-11547.212695,-919.314598,1110.308913
1450.621557,-10658.965565,-3140.991542,2812.782580
1450.621869,-11769.274478,-3447.429741,1480.411884
1450.622180,-9770.718434,1225.752797,814.226536
1450.622492,-5921.647536,3217.601092,-1702.473667
1450.622803,-5847.626942,306.438199,-1924.535449
1450.623114,-8956.491898,1072.533697,-0.000000
1450.623426,-11843.295072,2987.772442,-740.205942
1450.623737,-13841.851115,4060.306139,-1554.432478
1450.624049,-14730.098246,2681.334243,-1702.473667
1450.624360,-12805.562797,2834.553343,-1110.308913
1450.624672,-9622.677246,3217.601092,-2516.700203
1450.624983,-8142.265362,1685.410096,-1406.391290
1450.625294,-8364.327145,-919.314598,1184.329507
1450.625606,-10362.883188,-1225.752797,2368.659014
1450.625917,-11399.171507,459.657299,3923.091493
1450.626229,-8290.306550,306.438199,3552.988522
1450.626540,-6217.729913,-1225.752797,1258.350101
1450.626852,-4293.194464,459.657299,-1110.308913
1450.627163,-1850.514855,3064.381992,-4737.318029
1450.627474,-3552.988522,4213.525239,-5403.503377
1450.627786,-8216.285956,3217.601092,-2812.782580
1450.628097,-12731.542202,919.314598,296.082377
1450.628409,-14878.139434,-1685.410096,3256.906145
1450.628720,-14582.057057,-3830.477490,4959.379811
1450.629032,-11843.295072,-3983.696590,4071.132681
1450.629343,-6513.812290,-1838.629195,2368.659014
1450.629654,-962.267725,0.000000,1628.453072
1450.629966,-370.102971,-1685.410096,1258.350101
1450.630277,-2738.761985,-2604.724693,1776.494261
1450.630589,-5181.441594,-1225.752797,2590.720797
1450.630900,-5921.647536,76.609550,3034.844362
1450.631212,-4663.297435,-612.876398,2072.576638
1450.631523,-5699.585753,-2451.505594,-0.000000
1450.631834,-9252.574275,-1915.238745,-2886.803174
1450.632146,-13841.851115,-766.095498,-3034.844362
1450.632457,-17838.963202,1072.533697,-1332.370696
1450.632769,-20133.601622,2757.943793,962.267725
1450.633080,-18135.045579,1838.629195,3997.112087
1450.633392,-11843.295072,-2451.505594,4959.379811
1450.633703,-5699.585753,-4519.963438,3627.009116
1450.634015,-1850.514855,-3140.991542,-740.205942
1450.634326,1850.514855,842.705048,-2146.597232
1450.634637,2294.638420,2221.676944,-2368.659014
1450.634949,-2146.597232,1149.143247,-1184.329507
1450.635260,-11621.233289,-1149.143247,-370.102971
1450.635572,-18431.127956,-1685.410096,370.102971
1450.635883,-20281.642811,-919.314598,1702.473667
1450.636195,-20281.642811,459.657299,1924.535449
1450.636506,-17320.819043,-383.047749,962.267725
1450.636817,-13323.706956,-1838.629195,1332.370696
1450.637129,-9474.636058,-2604.724693,2442.679609
1450.637440,-7105.977043,-1915.238745,3627.009116
1450.637752,-7698.141797,-383.047749,2072.576638
1450.638063,-6883.915261,2451.505594,1258.350101
1450.638375,-5403.503377,3524.039291,-1702.473667
1450.638686,-4737.318029,4519.963438,-4515.256246
1450.638997,-3182.885551,5209.449386,-4663.297435
1450.639309,-4441.235652,4366.744339,-4367.215058
1450.639620,-7994.224174,1378.971896,-1628.453072
1450.639932,-11917.315666,383.047749,1258.350101
1450.640243,-13767.830521,1072.533697,3775.050304
1450.640555,-13545.768739,0.000000,5033.400406
1450.640866,-11103.089130,0.000000,4737.318029
1450.641177,-5699.585753,842.705048,1258.350101
1450.641489,0.000000,3294.210641,-2072.576638
1450.641800,2812.782580,3753.867940,-1110.308913
1450.642112,-740.205942,-612.876398,-1924.535449
1450.642423,-7105.977043,-3830.477490,-1036.288319
1450.642735,-10658.965565,-3140.991542,740.205942
1450.643046,-12287.418637,-2757.943793,666.185348
1450.643357,-12805.562797,-3140.991542,1184.329507
1450.643669,-11621.233289,-3983.696590,1036.288319
1450.643980,-11103.089130,-5592.497135,444.123565
1450.644292,-10807.006753,-4826.401637,3108.864956
1450.644603,-11621.233289,-1149.143247,3108.864956
1450.644915,-11177.109724,1685.410096,4071.132681
1450.645226,-9030.512492,919.314598,3627.009116
1450.645537,-4959.379811,-1149.143247,2960.823768
1450.645849,74.020594,306.438199,-814.226536
1450.646160,1776.494261,2451.505594,-5329.482782
1450.646472,-592.164754,4290.134789,-5847.626942
1450.646783,-7920.203579,1991.848295,-5551.544565
1450.647095,-14952.160028,0.000000,-2368.659014
1450.647406,-20429.683999,-1915.238745,-0.000000
1450.647718,-23242.466579,-2834.553343,3256.906145
1450.648029,-21762.054695,-2145.067394,4663.297435
1450.648340,-17394.839637,-2221.676944,3701.029710
1450.648652,-12213.398043,-1072.533697,2072.576638
1450.648963,-8364.327145,-1225.752797,1554.432478
1450.649275,-5033.400406,1072.533697,1184.329507
1450.649586,-4219.173869,2528.115143,518.144159
1450.649898,-3849.070898,1915.238745,-0.000000
1450.650209,-5107.421000,459.657299,-2072.576638
1450.650520,-7105.977043,995.924147,-3330.926739
1450.650832,-8364.327145,3830.477490,-4071.132681
1450.651143,-9844.739029,3753.867940,-2442.679609
1450.651455,-12731.542202,536.266849,592.164754
1450.651766,-14211.954086,-1149.143247,4071.132681
1450.652078,-15174.221811,-2068.457845,5181.441594
1450.652389,-12509.480420,-1455.581446,6957.935855
1450.652700,-7772.162391,-612.876398,4885.359217
1450.653012,-4811.338623,1608.800546,518.144159
1450.653323,-296.082377,2604.724693,-1850.514855
1450.653635,2516.700203,2221.676944,-4219.173869
1450.653946,518.144159,612.876398,-3701.029710
1450.654258,-2368.659014,459.657299,-1776.494261
1450.654569,-7920.203579,-1532.190996,592.164754
1450.654880,-12361.439231,-4903.011187,3775.050304
1450.655192,-13619.789333,-6281.983084,5107.421000
1450.655503,-11177.109724,-5132.839837,4441.235652
1450.655815,-9030.512492,-3753.867940,2812.782580
1450.656126,-8438.347739,-1915.238745,1924.535449
1450.656438,-7328.038826,-229.828649,1258.350101
1450.656749,-8216.285956,995.924147,1258.350101
1450.657060,-5847.626942,1149.143247,2738.761985
1450.657372,-4367.215058,-536.266849,666.185348
1450.657683,-4737.318029,842.705048,-2442.679609
1450.657995,-5625.565159,2987.772442,-5625.565159
1450.658306,-8142.265362,3447.429741,-6291.750507
1450.658618,-12287.418637,3524.039291,-4441.235652
1450.658929,-16432.571912,3064.381992,-962.267725
1450.659240,-18357.107362,1455.581446,2220.617826
1450.659552,-17098.757260,-919.314598,5255.462188
1450.659863,-14137.933492,-1991.848295,4737.318029
1450.660175,-10214.842000,-306.438199,1924.535449
1450.660486,-4145.153275,1378.971896,-222.061783
1450.660798,-1776.494261,1225.752797,-1184.329507
1450.661109,-3256.906145,919.314598,-1776.494261
1450.661421,-7698.141797,1225.752797,-2146.597232
1450.661732,-12657.521608,383.047749,-2072.576638
1450.662043,-14508.036463,-842.705048,-740.205942
1450.662355,-15100.201217,-1838.629195,-666.185348
1450.662666,-13619.789333,-2451.505594,592.164754
1450.662978,-13175.665768,-4290.134789,1036.288319
1450.663289,-13915.871710,-3447.429741,2442.679609
1450.663601,-13915.871710,-995.924147,4959.379811
1450.663912,-12731.542202,995.924147,5921.647536
1450.664223,-8364.327145,76.609550,6217.729913
1450.664535,-4589.276840,-1378.971896,3552.988522
1450.664846,-2072.576638,383.047749,-740.205942
1450.665158,3182.885551,3064.381992,-4293.194464
1450.665469,5847.626942,4749.792088,-6439.791695
1450.665781,1776.494261,1302.362347,-4515.256246
1450.666092,-5847.626942,-2068.457845,-1628.453072
1450.666403,-12139.377449,-2221.676944,1850.514855
1450.666715,-16432.571912,-2145.067394,5625.565159
1450.667026,-18579.169144,-2451.505594,7476.080014
1450.667338,-15618.345376,-1455.581446,5773.606348
1450.667649,-11621.233289,-383.047749,2146.597232
1450.667961,-6291.750507,766.095498,1258.350101
1450.668272,-2960.823768,-306.438199,296.082377
1450.668583,-2516.700203,1608.800546,-666.185348
1450.668895,-2812.782580,1225.752797,-222.061783
1450.669206,-3627.009116,-1532.190996,-592.164754
1450.669518,-3404.947333,-1838.629195,-1924.535449
1450.669829,-4145.153275,995.924147,-3404.947333
1450.670141,-5329.482782,2374.896044,-2960.823768
1450.670452,-10140.821405,612.876398,-444.123565
1450.670763,-16802.674883,612.876398,1924.535449
1450.671075,-20059.581028,1915.238745,3849.070898
1450.671386,-20355.663405,1455.581446,4737.318029
1450.671698,-17690.922014,842.705048,4367.215058
1450.672009,-11325.150913,1991.848295,962.267725
1450.672321,-5033.400406,2068.457845,-3404.947333
1450.672632,-518.144159,1915.238745,-5107.421000
1450.672943,148.041188,459.657299,-5181.441594
1450.673255,-7105.977043,-383.047749,-4441.235652
1450.673566,-10881.027347,536.266849,-1110.308913
1450.673878,-13397.727550,459.657299,1184.329507
1450.674189,-17542.880825,-1378.971896,3256.906145
1450.674501,-15248.242405,-1302.362347,4737.318029
1450.674812,-12953.603985,-1072.533697,2516.700203
1450.675124,-12583.501014,383.047749,2590.720797
1450.675435,-11695.253884,1915.238745,2664.741391
1450.675746,-11843.295072,2374.896044,814.226536
1450.676058,-9326.594869,2987.772442,1258.350101
1450.676369,-5403.503377,1532.190996,666.185348
1450.676681,-1850.514855,-689.485948,-2294.638420
1450.676992,-296.082377,459.657299,-4663.297435
1450.677304,148.041188,383.047749,-4293.194464
1450.677615,-1776.494261,-919.314598,-1998.556043
1450.677926,-5625.565159,-3294.210641,2590.720797
1450.678238,-11917.315666,-4826.401637,5329.482782
1450.678549,-15840.407159,-4749.792088,6217.729913
1450.678861,-16876.695478,-2451.505594,6365.771101
1450.679172,-14211.954086,-842.705048,4663.297435
1450.679484,-6809.894666,153.219100,1332.370696
1450.679795,-2738.761985,689.485948,-0.000000
1450.680106,-1628.453072,-2068.457845,-740.205942
1450.680418,-1628.453072,-1762.019645,-1258.350101
1450.680729,-4293.194464,-1149.143247,-1184.329507
1450.681041,-4737.318029,-1762.019645,-444.123565
1450.681352,-7105.977043,-3064.381992,-592.164754
1450.681664,-9918.759623,-1991.848295,-1554.432478
1450.681975,-11843.295072,689.485948,-1110.308913
1450.682286,-14804.118840,1991.848295,592.164754
1450.682598,-17098.757260,1685.410096,3182.885551
1450.682909,-18949.272115,1532.190996,5107.421000
1450.683221,-15174.221811,229.828649,4885.359217
1450.683532,-10658.965565,-1532.190996,3330.926739
1450.683844,-6513.812290,0.000000,-518.144159
1450.684155,222.061783,4673.182538,-4145.153275
1450.684466,296.082377,4826.401637,-7698.141797
1450.684778,-2368.659014,3447.429741,-5773.606348
1450.685089,-8512.368333,2221.676944,-3923.091493
1450.685401,-13989.892304,1149.143247,-0.000000
1450.685712,-16210.510130,383.047749,3404.947333
1450.686024,-17838.963202,-1838.629195,3923.091493
1450.686335,-17320.819043,-995.924147,2664.741391
1450.686646,-13101.645173,1149.143247,2368.659014
1450.686958,-9474.636058,1302.362347,1332.370696
1450.687269,-7994.224174,766.095498,1702.473667
1450.687581,-7476.080014,2451.505594,2368.659014
1450.687892,-7328.038826,1455.581446,1776.494261
1450.688204,-5255.462188,-1838.629195,1406.391290
1450.688515,-2294.638420,-995.924147,-888.247130
1450.688826,518.144159,-383.047749,-2442.679609
1450.689138,518.144159,-1302.362347,-3923.091493
1450.689449,-5033.400406,-2834.553343,-1850.514855
1450.689761,-10362.883188,-3370.820191,1554.432478
1450.690072,-16580.613101,-3983.696590,3997.112087
1450.690384,-18431.127956,-4136.915689,6809.894666
1450.690695,-16580.613101,-4060.306139,6291.750507
1450.691007,-13175.665768,-3753.867940,4441.235652
1450.691318,-7031.956449,-2145.067394,444.123565
1450.691629,-1776.494261,306.438199,-2072.576638
1450.691941,296.082377,1149.143247,-2738.761985
1450.692252,74.020594,919.314598,-2146.597232
1450.692564,-3330.926739,766.095498,-814.226536
1450.692875,-5995.668130,0.000000,-74.020594
1450.693187,-7920.203579,536.266849,444.123565
1450.693498,-8734.430116,229.828649,370.102971
1450.693809,-10214.842000,995.924147,-666.185348
1450.694121,-13915.871710,1608.800546,296.082377
1450.694432,-16506.592507,766.095498,1776.494261
1450.694744,-18949.272115,612.876398,2368.659014
1450.695055,-16876.695478,1072.533697,2738.761985
1450.695367,-12583.501014,1225.752797,370.102971
1450.695678,-7772.162391,919.314598,-2442.679609
1450.695989,-1628.453072,2221.676944,-3923.091493
1450.696301,962.267725,2451.505594,-5255.462188
1450.696612,-888.247130,1762.019645,-2960.823768
1450.696924,-7254.018232,459.657299,-74.020594
1450.697235,-14211.954086,0.000000,2590.720797
1450.697547,-18505.148550,0.000000,4737.318029
1450.697858,-19689.478057,536.266849,4737.318029
1450.698169,-16580.613101,1225.752797,2960.823768
1450.698481,-10732.986159,2298.286494,814.226536
1450.698792,-6143.709319,1302.362347,-444.123565
1450.699104,-3923.091493,-76.609550,-666.185348
1450.699415,-3775.050304,0.000000,-888.247130
1450.699727,-5181.441594,1302.362347,-0.000000
1450.700038,-4515.256246,766.095498,1036.288319
1450.700349,-4737.318029,-842.705048,-74.020594
1450.700661,-5551.544565,-689.485948,-0.000000
1450.700972,-4663.297435,536.266849,-74.020594
1450.701284,-8142.265362,-612.876398,370.102971
1450.701595,-11991.336260,-2068.457845,3849.070898
1450.701907,-13989.892304,-1915.238745,5403.503377
1450.702218,-13323.706956,-3217.601092,6513.812290
1450.702529,-10214.842000,-3524.039291,5921.647536
1450.702841,-7179.997637,-2604.724693,2368.659014
1450.703152,-3108.864956,-459.657299,-2146.597232
1450.703464,1258.350101,1532.190996,-3849.070898
1450.703775,518.144159,-306.438199,-4367.215058
1450.704087,-3552.988522,-2374.896044,-2294.638420
1450.704398,-9030.512492,-1915.238745,-1184.329507
1450.704710,-13027.624579,-2374.896044,592.164754
1450.705021,-15322.262999,-3370.820191,2146.597232
1450.705333,-16432.571912,-3907.087040,2220.617826
1450.705644,-16506.592507,-3447.429741,1924.535449
1450.705956,-15470.304188,-2757.943793,1258.350101
1450.706267,-14878.139434,-1455.581446,1184.329507
1450.706579,-13471.748144,2068.457845,1702.473667
1450.706890,-9400.615463,2451.505594,1998.556043
1450.707202,-6587.832884,0.000000,222.061783
1450.707513,-3404.947333,-1225.752797,-1850.514855
1450.707825,-740.205942,1455.581446,-4959.379811
1450.708136,-1406.391290,4290.134789,-6217.729913
1450.708448,-5995.668130,3983.696590,-4811.338623
1450.708759,-12509.480420,1915.238745,-3034.844362
1450.709071,-17616.901420,-306.438199,888.247130
1450.709382,-20503.704593,-229.828649,4515.256246
1450.709694,-19837.519246,-612.876398,6365.771101
1450.710005,-17394.839637,-1762.019645,4737.318029
1450.710317,-10214.842000,-229.828649,3034.844362
1450.710628,-2146.597232,2451.505594,-0.000000
1450.710940,-1554.432478,2987.772442,-3182.885551
1450.711251,-1110.308913,2451.505594,-1480.411884
1450.711563,666.185348,4213.525239,-2664.741391
1450.711874,-666.185348,3140.991542,-1258.350101
1450.712186,-4515.256246,919.314598,-0.000000
1450.712497,-9474.636058,-919.314598,1332.370696
1450.712809,-10362.883188,-842.705048,1406.391290
1450.713120,-10955.047942,-459.657299,2590.720797
1450.713432,-11843.295072,-1302.362347,3256.906145
1450.713743,-13323.706956,-383.047749,3627.009116
1450.714055,-13027.624579,612.876398,5477.523971
1450.714366,-10584.944971,-3524.039291,3923.091493
1450.714678,-5847.626942,-4366.744339,3552.988522
1450.714989,-740.205942,-1149.143247,-370.102971
1450.715301,1776.494261,459.657299,-3849.070898
1450.715612,592.164754,383.047749,-4071.132681
1450.715924,-4219.173869,-1455.581446,-2294.638420
1450.716235,-9252.574275,-1302.362347,-0.000000
1450.716547,-12879.583391,-1149.143247,3108.864956
1450.716858,-17246.798449,-2987.772442,3923.091493
1450.717170,-18061.024985,-2374.896044,4737.318029
1450.717481,-14359.995275,-1991.848295,3404.947333
1450.717793,-9770.718434,-1225.752797,1998.556043
1450.718104,-9104.533087,153.219100,1480.411884
1450.718416,-8882.471304,1532.190996,148.041188
1450.718727,-10214.842000,1838.629195,-1924.535449
1450.719039,-8364.327145,1302.362347,-1628.453072
1450.719350,-6661.853478,1225.752797,-3330.926739
1450.719662,-7105.977043,919.314598,-4959.379811
1450.719973,-6513.812290,1072.533697,-5255.462188
1450.720285,-9400.615463,1225.752797,-3182.885551
1450.720596,-13915.871710,0.000000,-0.000000
1450.720908,-17616.901420,0.000000,3997.112087
1450.721219,-20799.786970,-229.828649,6439.791695
1450.721531,-17912.983796,0.000000,7328.038826
1450.721842,-11029.068536,229.828649,4515.256246
1450.722154,-4071.132681,919.314598,-74.020594
1450.722465,1332.370696,2221.676944,-3034.844362
1450.722777,2220.617826,995.924147,-4367.215058
1450.723088,-888.247130,0.000000,-4737.318029
1450.723400,-6143.709319,1378.971896,-2664.741391
1450.723711,-10436.903782,383.047749,-0.000000
1450.724023,-13101.645173,-1838.629195,1702.473667
1450.724334,-13175.665768,-3447.429741,2886.803174
1450.724646,-10066.800811,-2834.553343,2368.659014
1450.724957,-8068.244768,-2068.457845,2516.700203
1450.725269,-8216.285956,-1302.362347,3034.844362
1450.725580,-9030.512492,153.219100,3108.864956
1450.725892,-7550.100608,306.438199,5181.441594
1450.726203,-4367.215058,-1072.533697,4885.359217
1450.726515,-1184.329507,-1762.019645,3108.864956
1450.726826,-1480.411884,0.000000,-2664.741391
1450.727137,-2516.700203,2221.676944,-6513.812290
1450.727449,-3775.050304,2681.334243,-6957.935855
1450.727760,-7772.162391,1532.190996,-4589.276840
1450.728072,-11621.233289,-153.219100,-222.061783
1450.728383,-14730.098246,-3294.210641,2516.700203
1450.728695,-16654.633695,-4060.306139,5255.462188
1450.729006,-17246.798449,-3217.601092,5033.400406
1450.729318,-15100.201217,0.000000,2442.679609
1450.729629,-11029.068536,3600.648841,592.164754
1450.729941,-8660.409521,4213.525239,-518.144159
1450.730252,-6883.915261,3217.601092,-1480.411884
1450.730564,-5181.441594,1378.971896,-666.185348
1450.730875,-5477.523971,153.219100,-1258.350101
1450.731187,-4663.297435,-1378.971896,-814.226536
1450.731498,-7254.018232,-2221.676944,-2812.782580
1450.731810,-10288.862594,-306.438199,-2220.617826
1450.732121,-12731.542202,-536.266849,-1776.494261
1450.732433,-16728.654289,-1608.800546,1332.370696
1450.732744,-19985.560434,-1302.362347,4145.153275
1450.733056,-21243.910535,842.705048,4737.318029
1450.733367,-17468.860231,612.876398,4441.235652
1450.733679,-11177.109724,-689.485948,3330.926739
1450.733990,-2664.741391,-229.828649,-148.041188
1450.734302,3775.050304,1991.848295,-2812.782580
1450.734613,2072.576638,995.924147,-4885.359217
1450.734925,740.205942,919.314598,-4367.215058
1450.735236,-3108.864956,3217.601092,-2146.597232
1450.735548,-10658.965565,1532.190996,1554.432478
1450.735859,-13841.851115,-1302.362347,5847.626942
1450.736171,-14508.036463,-3983.696590,6143.709319
1450.736482,-10658.965565,-3140.991542,4663.297435
1450.736794,-5847.626942,-842.705048,3330.926739
1450.737105,-4959.379811,-383.047749,962.267725
1450.737417,-7476.080014,306.438199,888.247130
1450.737728,-9030.512492,-383.047749,1628.453072
1450.738040,-7328.038826,-1915.238745,1628.453072
1450.738351,-6439.791695,-459.657299,1258.350101
1450.738663,-3108.864956,229.828649,-1406.391290
1450.738974,-1554.432478,0.000000,-3923.091493
1450.739286,-1850.514855,-995.924147,-2516.700203
1450.739597,-5255.462188,-842.705048,-740.205942
1450.739909,-10436.903782,-1072.533697,2442.679609
1450.740220,-15988.448347,-995.924147,5181.441594
1450.740532,-18949.272115,-306.438199,5403.503377
1450.740843,-15766.386565,919.314598,3478.967927
1450.741155,-10881.027347,1455.581446,518.144159
1450.741466,-5477.523971,1762.019645,-518.144159
1450.741778,-3849.070898,995.924147,-3849.070898
1450.742089,-7179.997637,-229.828649,-4071.132681
1450.742401,-9696.697840,536.266849,-3775.050304
1450.742712,-11621.233289,689.485948,-2294.638420
1450.743024,-12065.356855,0.000000,-592.164754
1450.743335,-12657.521608,-1225.752797,-666.185348
1450.743647,-12953.603985,-612.876398,-1480.411884
1450.743958,-11917.315666,1302.362347,-0.000000
1450.744270,-13915.871710,2528.115143,1776.494261
1450.744581,-15026.180623,2987.772442,3627.009116
1450.744893,-14952.160028,1838.629195,3701.029710
1450.745204,-12361.439231,229.828649,3478.967927
1450.745516,-5403.503377,0.000000,1628.453072
1450.745827,-2960.823768,1838.629195,-2220.617826
1450.746139,-592.164754,2911.162892,-3849.070898
1450.746450,1332.370696,1838.629195,-6809.894666
1450.746762,-2664.741391,1149.143247,-3627.009116
1450.747073,-8290.306550,229.828649,-518.144159
1450.747385,-13841.851115,0.000000,2442.679609
1450.747696,-16284.530724,-1072.533697,6069.688724
1450.748008,-15692.365970,-2528.115143,5403.503377
1450.748319,-12213.398043,-1302.362347,4811.338623
1450.748631,-5329.482782,76.609550,2886.803174
1450.748942,-2590.720797,-306.438199,1924.535449
1450.749254,-3923.091493,-3447.429741,2072.576638
1450.749565,-4071.132681,-4290.134789,1628.453072
1450.749877,-3330.926739,-2681.334243,370.102971
1450.750188,-3627.009116,-2987.772442,-0.000000
1450.750500,-5255.462188,-3294.210641,-1850.514855
1450.750811,-4737.318029,-2145.067394,-2960.823768
1450.751123,-6143.709319,-612.876398,-2664.741391
1450.751434,-9622.677246,-766.095498,444.123565
1450.751746,-14730.098246,-842.705048,2812.782580
1450.752057,-18431.127956,919.314598,5255.462188
1450.752369,-15840.407159,383.047749,7179.997637
1450.752680,-12731.542202,-2298.286494,5551.544565
1450.752992,-10362.883188,-612.876398,2738.761985
1450.753303,-7402.059420,2757.943793,-2072.576638
1450.753615,-4589.276840,3294.210641,-6143.709319
1450.753926,-4589.276840,2834.553343,-5625.565159
1450.754238,-7179.997637,3600.648841,-4367.215058
1450.754549,-7328.038826,3140.991542,-2812.782580
1450.754861,-9326.594869,1378.971896,-592.164754
1450.755172,-13101.645173,-919.314598,-0.000000
1450.755484,-12583.501014,1455.581446,740.205942
1450.755795,-12879.583391,4136.915689,1554.432478
1450.756107,-14952.160028,3983.696590,3034.844362
1450.756418,-14952.160028,3140.991542,3182.885551
1450.756730,-15396.283594,1685.410096,2442.679609
1450.757041,-13175.665768,459.657299,2220.617826
1450.757353,-7698.141797,-1378.971896,1258.350101
1450.757664,-2664.741391,-2145.067394,-2220.617826
1450.757976,-2294.638420,-1532.190996,-3849.070898
1450.758287,-1480.411884,-2451.505594,-3330.926739
1450.758599,-3701.029710,-2221.676944,-2886.803174
1450.758910,-9992.780217,-766.095498,296.082377
1450.759222,-13249.686362,919.314598,3256.906145
1450.759533,-13841.851115,1225.752797,5255.462188
1450.759845,-14804.118840,-76.609550,6217.729913
1450.760156,-9992.780217,-919.314598,4737.318029
1450.760468,-2590.720797,-919.314598,2886.803174
1450.760779,518.144159,0.000000,-148.041188
1450.761091,1110.308913,-153.219100,-0.000000
1450.761402,-2368.659014,-3064.381992,-1406.391290
1450.761714,-5181.441594,-3370.820191,-0.000000
1450.762025,-5403.503377,-3064.381992,740.205942
1450.762337,-7476.080014,-4290.134789,-814.226536
1450.762648,-9252.574275,-2604.724693,-1480.411884
1450.762960,-10584.944971,-1532.190996,-1776.494261
1450.763271,-12805.562797,-1072.533697,-148.041188
1450.763583,-14211.954086,-995.924147,2664.741391
1450.763894,-16136.489536,842.705048,4219.173869
1450.764206,-16136.489536,1149.143247,5329.482782
1450.764517,-12287.418637,-689.485948,4071.132681
1450.764829,-7105.977043,-153.219100,1554.432478
1450.765140,-1924.535449,1915.238745,-1850.514855
1450.765452,1554.432478,3524.039291,-4071.132681
1450.765763,0.000000,2451.505594,-4737.318029
1450.766075,-7105.977043,1149.143247,-4219.173869
1450.766386,-13693.809927,689.485948,-2886.803174
1450.766698,-18061.024985,153.219100,-888.247130
1450.767009,-20281.642811,1072.533697,222.061783
1450.767321,-18505.148550,1302.362347,1332.370696
1450.767632,-15396.283594,-1302.362347,740.205942
1450.767944,-12953.603985,-2221.676944,1776.494261
1450.768255,-11251.130318,-919.314598,2294.638420
1450.768567,-8808.450710,1149.143247,2664.741391
1450.768878,-7031.956449,1608.800546,3775.050304
1450.769190,-7920.203579,-1302.362347,2812.782580
1450.769501,-4663.297435,-1302.362347,-444.123565
1450.769813,-2220.617826,2451.505594,-3552.988522
1450.770124,222.061783,4903.011187,-4737.318029
1450.770436,-2738.761985,4060.306139,-4219.173869
1450.770747,-9992.780217,383.047749,-1258.350101
1450.771059,-14359.995275,-1762.019645,2072.576638
1450.771370,-17320.819043,-1532.190996,5033.400406
1450.771682,-14804.118840,612.876398,6439.791695
1450.771993,-11399.171507,1838.629195,3701.029710
1450.772305,-6957.935855,0.000000,1998.556043
1450.772616,-666.185348,-1302.362347,-0.000000
1450.772928,2886.803174,-306.438199,-666.185348
1450.773239,3701.029710,689.485948,444.123565
1450.773551,-1110.308913,-995.924147,370.102971
1450.773862,-5403.503377,-3064.381992,1184.329507
1450.774174,-7105.977043,-3983.696590,592.164754
1450.774485,-10140.821405,-3600.648841,148.041188
1450.774797,-9844.739029,-2068.457845,-222.061783
1450.775108,-12435.459826,-1532.190996,-222.061783
1450.775420,-16210.510130,-2911.162892,1184.329507
1450.775731,-17172.777854,-3983.696590,2516.700203
1450.776043,-16432.571912,-2451.505594,4515.256246
1450.776354,-13175.665768,-1685.410096,5921.647536
1450.776666,-8956.491898,-2757.943793,2516.700203
1450.776977,-3997.112087,-2068.457845,-444.123565
1450.777289,-592.164754,459.657299,-3627.009116
1450.777600,0.000000,1915.238745,-4811.338623
1450.777912,-6365.771101,2451.505594,-4811.338623
1450.778223,-13101.645173,2451.505594,-2294.638420
1450.778535,-16728.654289,1302.362347,296.082377
1450.778846,-17987.004391,-229.828649,2368.659014
1450.779158,-16876.695478,-383.047749,2738.761985
1450.779469,-15026.180623,383.047749,962.267725
1450.779781,-13693.809927,1455.581446,-592.164754
1450.780092,-11399.171507,2298.286494,-370.102971
1450.780404,-9622.677246,3600.648841,-444.123565
1450.780715,-8290.306550,3830.477490,-518.144159
1450.781027,-4589.276840,1915.238745,148.041188
1450.781338,-1924.535449,459.657299,-1628.453072
1450.781650,-3552.988522,919.314598,-2516.700203
1450.781961,-5181.441594,2911.162892,-1998.556043
1450.782273,-8808.450710,2604.724693,-1258.350101
1450.782584,-11917.315666,1762.019645,2146.597232
1450.782896,-14730.098246,153.219100,4811.338623
1450.783207,-15840.407159,-2528.115143,5551.544565
1450.783519,-13175.665768,-4060.306139,6735.874072
1450.783830,-8068.244768,-4290.134789,3627.009116
1450.784142,-370.102971,-1991.848295,-0.000000
1450.784453,4367.215058,-229.828649,-2368.659014
1450.784765,2294.638420,-919.314598,-3182.885551
1450.785076,-2294.638420,-1225.752797,-2072.576638
1450.785388,-6661.853478,229.828649,-1628.453072
1450.785699,-9326.594869,1072.533697,1110.308913
1450.786011,-11917.315666,-995.924147,2146.597232
1450.786322,-13249.686362,-3140.991542,2812.782580
1450.786634,-11843.295072,-4290.134789,2664.741391
1450.786945,-10658.965565,-4060.306139,1554.432478
1450.787257,-8660.409521,-1455.581446,2294.638420
1450.787568,-10510.924376,-153.219100,1332.370696
1450.787880,-10955.047942,0.000000,1924.535449
1450.788191,-9104.533087,-1149.143247,2072.576638
1450.788503,-7328.038826,-1991.848295,-296.082377
1450.788814,-4737.318029,1302.362347,-3034.844362
1450.789126,-2072.576638,4596.572988,-5255.462188
1450.789437,-3182.885551,4443.353888,-5107.421000
1450.789749,-8660.409521,1455.581446,-2812.782580
1450.790060,-15248.242405,995.924147,-592.164754
1450.790372,-19319.375086,995.924147,1776.494261
1450.790683,-20577.725188,1378.971896,4145.153275
1450.790995,-19245.354492,995.924147,3627.009116
1450.791306,-14878.139434,995.924147,1924.535449
1450.791618,-9770.718434,229.828649,-740.205942
1450.791929,-5551.544565,153.219100,-0.000000
1450.792241,-4145.153275,229.828649,-814.226536
1450.792552,-5921.647536,919.314598,-222.061783
1450.792864,-7698.141797,153.219100,-814.226536
1450.793175,-6661.853478,-1149.143247,-1332.370696
1450.793487,-7105.977043,1532.190996,-1850.514855
1450.793798,-6217.729913,2451.505594,-1776.494261
1450.794110,-8438.347739,1762.019645,-222.061783
1450.794421,-11843.295072,-2145.067394,3627.009116
1450.794733,-14211.954086,-3600.648841,6069.688724
1450.795044,-16284.530724,-2987.772442,7031.956449
1450.795356,-11843.295072,-2681.334243,7031.956449
1450.795667,-7994.224174,-1608.800546,3404.947333
1450.795979,-3775.050304,689.485948,-148.041188
1450.796290,1998.556043,3677.258390,-4663.297435
1450.796602,2664.741391,4443.353888,-5403.503377
1450.796913,1702.473667,2528.115143,-3108.864956
1450.797225,-4663.297435,-383.047749,-148.041188
1450.797536,-8216.285956,-1378.971896,3034.844362
1450.797848,-10658.965565,-1915.238745,3923.091493
1450.798159,-12065.356855,-2681.334243,5181.441594
1450.798471,-9548.656652,-2145.067394,3552.988522
1450.798782,-8882.471304,-1302.362347,2516.700203
1450.799094,-9252.574275,-2068.457845,1924.535449
1450.799405,-10362.883188,-3217.601092,1850.514855
1450.799717,-11473.192101,-2451.505594,888.247130
1450.800028,-10881.027347,-1532.190996,148.041188
1450.800340,-8734.430116,-1608.800546,-2220.617826
1450.800651,-7254.018232,0.000000,-4959.379811
1450.800963,-5107.421000,1915.238745,-5625.565159
1450.801274,-5329.482782,2834.553343,-3775.050304
1450.801586,-9252.574275,995.924147,-592.164754
1450.801897,-14656.077652,-306.438199,3330.926739
1450.802209,-18505.148550,-536.266849,4959.379811
1450.802520,-18135.045579,76.609550,5551.544565
1450.802831,-15470.304188,536.266849,2886.803174
1450.803143,-10436.903782,459.657299,-444.123565
1450.803454,-5033.400406,1685.410096,-4071.132681
1450.803766,-4441.235652,689.485948,-4589.276840
1450.804077,-6439.791695,383.047749,-3627.009116
1450.804389,-10066.800811,766.095498,-3552.988522
1450.804700,-11621.233289,919.314598,-888.247130
1450.805012,-11251.130318,1149.143247,740.205942
1450.805323,-10584.944971,612.876398,1554.432478
1450.805635,-9696.697840,766.095498,444.123565
1450.805946,-8142.265362,1532.190996,1480.411884
1450.806258,-9992.780217,2757.943793,2738.761985
1450.806569,-13619.789333,2911.162892,4441.235652
1450.806881,-12805.562797,1915.238745,5477.523971
1450.807192,-9104.533087,229.828649,4293.194464
1450.807504,-4071.132681,-1072.533697,2368.659014
1450.807815,1036.288319,-1225.752797,-1850.514855
1450.808127,3256.906145,612.876398,-4885.359217
1450.808438,1776.494261,1072.533697,-5255.462188
1450.808749,-3478.967927,-459.657299,-3627.009116
1450.809061,-7105.977043,-919.314598,518.144159
1450.809372,-12583.501014,-1072.533697,2886.803174
1450.809684,-15988.448347,-3370.820191,5181.441594
1450.809995,-15174.221811,-5209.449386,5699.585753
1450.810306,-11991.336260,-4826.401637,5255.462188
1450.810618,-7476.080014,-2451.505594,3034.844362
1450.810929,-6217.729913,-2451.505594,2146.597232
1450.811241,-7105.977043,-2298.286494,1480.411884
1450.811552,-6809.894666,-383.047749,888.247130
1450.811864,-5773.606348,459.657299,-0.000000
1450.812175,-5107.421000,153.219100,-592.164754
1450.812486,-5773.606348,153.219100,-2886.803174
1450.812798,-6957.935855,995.924147,-3923.091493
1450.813109,-7476.080014,2221.676944,-2442.679609
1450.813421,-10955.047942,2451.505594,-740.205942
1450.813732,-15248.242405,1915.238745,1036.288319
1450.814043,-18949.272115,1149.143247,1850.514855
1450.814355,-18727.210333,-306.438199,3330.926739
1450.814666,-14952.160028,612.876398,2886.803174
1450.814978,-11177.109724,1915.238745,-222.061783
1450.815289,-6365.771101,2451.505594,-2294.638420
1450.815600,-3404.947333,2068.457845,-2294.638420
1450.815912,-3478.967927,842.705048,-1258.350101
1450.816223,-6661.853478,1532.190996,-888.247130
1450.816535,-11251.130318,1378.971896,962.267725
1450.816846,-12213.398043,1225.752797,1110.308913
1450.817157,-12361.439231,383.047749,518.144159
1450.817469,-9696.697840,76.609550,666.185348
1450.817780,-9548.656652,-536.266849,-518.144159
1450.818092,-10214.842000,-383.047749,1110.308913
1450.818403,-11917.315666,-459.657299,3256.906145
1450.818714,-11769.274478,-1915.238745,3701.029710
1450.819026,-8586.388927,-1302.362347,4441.235652
1450.819337,-7698.141797,-2145.067394,2960.823768
1450.819649,-3775.050304,-1378.971896,740.205942
1450.819960,1110.308913,1455.581446,-2738.761985
1450.820272,2220.617826,3294.210641,-3923.091493
1450.820583,0.000000,689.485948,-2146.597232
1450.820894,-5847.626942,-919.314598,296.082377
1450.821206,-11399.171507,-1378.971896,3627.009116
1450.821517,-13619.789333,-3217.601092,5551.544565
1450.821829,-13175.665768,-3983.696590,5329.482782
1450.822140,-11695.253884,-3064.381992,3701.029710
1450.822451,-7550.100608,-1455.581446,1480.411884
1450.822763,-7254.018232,-1685.410096,-740.205942
1450.823074,-6587.832884,-1532.190996,-296.082377
1450.823386,-7772.162391,919.314598,-1702.473667
1450.823697,-7994.224174,1762.019645,-740.205942
1450.824008,-7105.977043,995.924147,-814.226536
1450.824320,-7698.141797,0.000000,-1776.494261
1450.824631,-6365.771101,383.047749,-2220.617826
1450.824943,-7994.224174,689.485948,-2146.597232
1450.825254,-12435.459826,1302.362347,-296.082377
1450.825565,-16062.468941,2298.286494,962.267725
1450.825877,-18431.127956,1378.971896,2368.659014
1450.826188,-17024.736666,-536.266849,3108.864956
1450.826500,-13175.665768,-1455.581446,2886.803174
1450.826811,-10140.821405,-995.924147,-740.205942
1450.827123,-4885.359217,2451.505594,-3627.009116
1450.827434,-2664.741391,3140.991542,-4663.297435
1450.827745,-4663.297435,1608.800546,-3923.091493
1450.828057,-8142.265362,1608.800546,-1480.411884
1450.828368,-12065.356855,995.924147,-0.000000
1450.828680,-13841.851115,306.438199,1480.411884
1450.828991,-14359.995275,-459.657299,2220.617826
1450.829302,-13915.871710,-842.705048,2220.617826
1450.829614,-11251.130318,-306.438199,1258.350101
1450.829925,-8660.409521,-919.314598,1924.535449
1450.830237,-9252.574275,153.219100,2738.761985
1450.830548,-7550.100608,1685.410096,3108.864956
1450.830859,-6291.750507,995.924147,2886.803174
1450.831171,-4737.318029,-1302.362347,2960.823768
1450.831482,-1036.288319,-1072.533697,-148.041188
1450.831794,222.061783,2451.505594,-3552.988522
1450.832105,-518.144159,3217.601092,-4441.235652
1450.832416,-4367.215058,1532.190996,-2664.741391
1450.832728,-7624.121203,-1532.190996,1332.370696
1450.833039,-11695.253884,-2451.505594,4145.153275
1450.833351,-16062.468941,-4519.963438,7105.977043
1450.833662,-15618.345376,-5362.668486,7920.203579
1450.833973,-13249.686362,-4290.134789,5107.421000
1450.834285,-7254.018232,-1608.800546,1776.494261
1450.834596,-2368.659014,0.000000,-1258.350101
1450.834908,-2368.659014,-153.219100,-2738.761985
1450.835219,-3701.029710,536.266849,-2072.576638
1450.835531,-5625.565159,919.314598,-1110.308913
1450.835842,-7179.997637,-689.485948,-74.020594
1450.836153,-9696.697840,-2451.505594,666.185348
1450.836465,-11029.068536,-1149.143247,-0.000000
1450.836776,-10288.862594,229.828649,148.041188
1450.837088,-13101.645173,-612.876398,-296.082377
1450.837399,-15766.386565,1149.143247,1924.535449
1450.837710,-16432.571912,1838.629195,1850.514855
1450.838022,-16062.468941,612.876398,2368.659014
1450.838333,-13101.645173,-1991.848295,2886.803174
1450.838645,-9400.615463,-766.095498,-1554.432478
1450.838956,-5329.482782,3140.991542,-4737.318029
1450.839267,-2220.617826,4596.572988,-6143.709319
1450.839579,-2442.679609,1838.629195,-5403.503377
1450.839890,-8438.347739,536.266849,-3404.947333
1450.840202,-11991.336260,1455.581446,-518.144159
1450.840513,-15100.201217,766.095498,2590.720797
1450.840824,-17468.860231,229.828649,4441.235652
1450.841136,-14434.015869,306.438199,4885.359217
1450.841447,-9548.656652,229.828649,2738.761985
1450.841759,-6513.812290,-153.219100,1924.535449
1450.842070,-6143.709319,1149.143247,1850.514855
1450.842382,-6069.688724,1685.410096,814.226536
1450.842693,-5847.626942,3217.601092,-222.061783
1450.843004,-4589.276840,1149.143247,-0.000000
1450.843316,-3849.070898,-995.924147,-2368.659014
1450.843627,-3330.926739,0.000000,-3478.967927
1450.843939,-2738.761985,919.314598,-3330.926739
1450.844250,-6217.729913,-1225.752797,-888.247130
1450.844561,-11325.150913,-3140.991542,3182.885551
1450.844873,-14878.139434,-3907.087040,6661.853478
1450.845184,-15248.242405,-3370.820191,7846.182985
1450.845496,-13471.748144,-2987.772442,8216.285956
1450.845807,-8882.471304,-2145.067394,5403.503377
1450.846118,-3478.967927,-536.266849,148.041188
1450.846430,1110.308913,153.219100,-3182.885551
1450.846741,2812.782580,0.000000,-4219.173869
1450.847053,-1628.453072,-1532.190996,-3478.967927
1450.847364,-6291.750507,-1302.362347,-2368.659014
1450.847675,-10955.047942,-1838.629195,-666.185348
1450.847987,-15026.180623,-3753.867940,148.041188
1450.848298,-16284.530724,-2451.505594,1628.453072
1450.848610,-17172.777854,-766.095498,888.247130
1450.848921,-16802.674883,76.609550,1776.494261
1450.849233,-16654.633695,1378.971896,2368.659014
1450.849544,-15988.448347,2221.676944,3330.926739
1450.849855,-11251.130318,3830.477490,2442.679609
1450.850167,-6587.832884,2374.896044,1036.288319
1450.850478,-888.247130,1991.848295,-888.247130
1450.850790,1110.308913,2451.505594,-4515.256246
1450.851101,740.205942,2834.553343,-5773.606348
1450.851412,-3108.864956,2681.334243,-5477.523971
1450.851724,-11177.109724,1302.362347,-3627.009116
1450.852035,-17912.983796,153.219100,-74.020594
1450.852347,-21984.116477,0.000000,3330.926739
1450.852658,-22280.198854,-1608.800546,4885.359217
1450.852969,-18579.169144,-1149.143247,4589.276840
1450.853281,-12065.356855,-842.705048,2738.761985
1450.853592,-5403.503377,-306.438199,2368.659014
1450.853904,-1850.514855,-766.095498,814.226536
1450.854215,-370.102971,919.314598,814.226536
1450.854526,-666.185348,2374.896044,-518.144159
1450.854838,-1332.370696,1762.019645,-518.144159
1450.855149,-3108.864956,76.609550,-962.267725
1450.855461,-5255.462188,-612.876398,-2072.576638
1450.855772,-5551.544565,153.219100,-1850.514855
1450.856083,-8142.265362,-306.438199,-370.102971
1450.856395,-11325.150913,-1608.800546,2590.720797
1450.856706,-14952.160028,-2681.334243,4367.215058
1450.857018,-15174.221811,-2681.334243,5625.565159
1450.857329,-12879.583391,-3370.820191,6143.709319
1450.857641,-9770.718434,-2298.286494,3108.864956
1450.857952,-4737.318029,689.485948,-296.082377
1450.858263,222.061783,2374.896044,-3923.091493
1450.858575,1258.350101,-459.657299,-2960.823768
1450.858886,-888.247130,-1991.848295,-1702.473667
1450.859198,-6513.812290,-1991.848295,-740.205942
1450.859509,-9844.739029,-612.876398,592.164754
1450.859820,-13693.809927,-1378.971896,2072.576638
1450.860132,-15026.180623,-1838.629195,2220.617826
1450.860443,-13693.809927,0.000000,1554.432478
1450.860755,-14804.118840,229.828649,814.226536
1450.861066,-15100.201217,842.705048,1036.288319
1450.861377,-15322.262999,1685.410096,1332.370696
1450.861689,-13841.851115,2757.943793,592.164754
1450.862000,-10066.800811,1455.581446,518.144159
1450.862312,-6513.812290,-1225.752797,-2294.638420
1450.862623,-3256.906145,0.000000,-4885.359217
1450.862934,-444.123565,2451.505594,-5995.668130
1450.863246,-2886.803174,919.314598,-4589.276840
1450.863557,-9104.533087,-1991.848295,-370.102971
1450.863869,-15618.345376,-3600.648841,3552.988522
1450.864180,-20281.642811,-2528.115143,6143.709319
1450.864492,-19319.375086,-459.657299,7254.018232
1450.864803,-17098.757260,689.485948,3701.029710
1450.865114,-11621.233289,2911.162892,370.102971
1450.865426,-4515.256246,4136.915689,-2738.761985
1450.865737,-962.267725,3907.087040,-3108.864956
1450.866049,-444.123565,2451.505594,-2442.679609
1450.866360,-3478.967927,612.876398,-1258.350101
1450.866671,-4885.359217,-1149.143247,-222.061783
1450.866983,-7105.977043,-1378.971896,-518.144159
1450.867294,-5847.626942,842.705048,518.144159
1450.867606,-6513.812290,995.924147,-0.000000
1450.867917,-7105.977043,-1378.971896,2442.679609
1450.868228,-9104.533087,-2757.943793,4293.194464
1450.868540,-13397.727550,-3064.381992,5551.544565
1450.868851,-13027.624579,-2451.505594,6217.729913
1450.869163,-10584.944971,229.828649,5329.482782
1450.869474,-7254.018232,-1072.533697,1702.473667
1450.869785,-2812.782580,306.438199,-1998.556043
1450.870097,1184.329507,1685.410096,-4737.318029
1450.870408,1924.535449,1149.143247,-5107.421000
1450.870720,-3404.947333,-536.266849,-1776.494261
1450.871031,-9178.553681,-1762.019645,1258.350101
1450.871342,-14952.160028,-3294.210641,3108.864956
1450.871654,-17912.983796,-2757.943793,5329.482782
1450.871965,-17024.736666,-1225.752797,4441.235652
1450.872277,-15396.283594,0.000000,2146.597232
1450.872588,-11473.192101,0.000000,814.226536
1450.872900,-9178.553681,-1149.143247,444.123565
1450.873211,-9030.512492,-995.924147,-592.164754
1450.873522,-8364.327145,1915.238745,-296.082377
1450.873834,-7031.956449,2221.676944,-1110.308913
1450.874145,-6883.915261,76.609550,-2368.659014
1450.874457,-5403.503377,766.095498,-3775.050304
1450.874768,-4441.235652,3294.210641,-4589.276840
1450.875079,-7105.977043,3064.381992,-2886.803174
1450.875391,-11547.212695,1532.190996,1036.288319
1450.875702,-17320.819043,-459.657299,2738.761985
1450.876014,-21317.931130,-766.095498,5033.400406
1450.876325,-20503.704593,-459.657299,5625.565159
1450.876636,-15766.386565,995.924147,2886.803174
1450.876948,-9104.533087,1991.848295,-148.041188
1450.877259,-1628.453072,1532.190996,-1702.473667
1450.877571,-444.123565,-612.876398,-2886.803174
1450.877882,-518.144159,-919.314598,-2072.576638
1450.878193,-1776.494261,2681.334243,-1628.453072
1450.878505,-5477.523971,1455.581446,-296.082377
1450.878816,-7920.203579,612.876398,666.185348
1450.879128,-9030.512492,459.657299,1628.453072
1450.879439,-8586.388927,536.266849,296.082377
1450.879751,-7402.059420,612.876398,2368.659014
1450.880062,-9252.574275,-536.266849,2590.720797
1450.880373,-11843.295072,0.000000,3256.906145
1450.880685,-13027.624579,-306.438199,4589.276840
1450.880996,-10732.986159,-2451.505594,2886.803174
1450.881308,-6069.688724,-2604.724693,2664.741391
1450.881619,-2294.638420,-2221.676944,-1110.308913
1450.881930,-370.102971,-2374.896044,-3701.029710
1450.882242,-444.123565,-2298.286494,-4219.173869
1450.882553,-3923.091493,-1532.190996,-2590.720797
1450.882865,-9918.759623,-689.485948,-148.041188
1450.883176,-13249.686362,-995.924147,2590.720797
1450.883487,-17320.819043,-995.924147,4293.194464
1450.883799,-17838.963202,-306.438199,4441.235652
1450.884110,-14434.015869,766.095498,3775.050304
1450.884422,-10066.800811,1838.629195,1406.391290
1450.884733,-7846.182985,1225.752797,666.185348
1450.885044,-6883.915261,612.876398,-0.000000
1450.885356,-6883.915261,1072.533697,-2590.720797
1450.885667,-6069.688724,1225.752797,-3256.906145
1450.885979,-6365.771101,1225.752797,-4071.132681
1450.886290,-7402.059420,612.876398,-4737.318029
1450.886602,-9252.574275,153.219100,-3627.009116
1450.886913,-12361.439231,0.000000,-1480.411884
1450.887224,-16580.613101,-842.705048,1184.329507
1450.887536,-20281.642811,0.000000,3627.009116
1450.887847,-19763.498651,919.314598,6069.688724
1450.888159,-14211.954086,0.000000,6587.832884
1450.888470,-10214.842000,-1608.800546,4737.318029
1450.888781,-7105.977043,-2298.286494,1702.473667
1450.889093,1628.453072,1149.143247,-3108.864956
1450.889404,3849.070898,3830.477490,-5181.441594
1450.889716,-814.226536,1685.410096,-4145.153275
1450.890027,-6661.853478,153.219100,-2664.741391
1450.890338,-11695.253884,-229.828649,-666.185348
1450.890650,-14359.995275,76.609550,2960.823768
1450.890961,-14211.954086,-1149.143247,4589.276840
1450.891273,-12805.562797,-612.876398,3627.009116
1450.891584,-11251.130318,-1378.971896,3034.844362
1450.891895,-7624.121203,-1991.848295,3034.844362
1450.892207,-4441.235652,306.438199,2442.679609
1450.892518,-2960.823768,3217.601092,2368.659014
1450.892830,-3256.906145,1302.362347,2072.576638
1450.893141,-1406.391290,-3370.820191,2516.700203
1450.893452,-888.247130,-3217.601092,-74.020594
1450.893764,-740.205942,306.438199,-2220.617826
1450.894075,-222.061783,1838.629195,-3182.885551
1450.894387,-6439.791695,-2145.067394,-2738.761985
1450.894698,-13101.645173,-3907.087040,444.123565
1450.895010,-16580.613101,-3294.210641,2220.617826
1450.895321,-20207.622217,-1915.238745,4663.297435
1450.895632,-20947.828159,-459.657299,5477.523971
1450.895944,-17838.963202,383.047749,3552.988522
1450.896255,-11103.089130,229.828649,814.226536
1450.896567,-4219.173869,1072.533697,-296.082377
1450.896878,-1036.288319,2145.067394,-1406.391290
1450.897189,-666.185348,2987.772442,-1776.494261
1450.897501,-2368.659014,3217.601092,-2960.823768
1450.897812,-5477.523971,2298.286494,-3182.885551
1450.898124,-9548.656652,1302.362347,-3256.906145
1450.898435,-13471.748144,2451.505594,-3108.864956
1450.898746,-14952.160028,2298.286494,-1998.556043
1450.899058,-17764.942608,76.609550,-518.144159
1450.899369,-19615.457463,-1685.410096,2812.782580
1450.899681,-19763.498651,-1455.581446,4515.256246
1450.899992,-17172.777854,-1915.238745,4737.318029
1450.900303,-11177.109724,-2298.286494,3775.050304
1450.900615,-4737.318029,-1455.581446,-0.000000
1450.900926,0.000000,2451.505594,-2590.720797
1450.901238,1998.556043,3294.210641,-3775.050304
1450.901549,1110.308913,1225.752797,-4145.153275
1450.901861,-4959.379811,612.876398,-1110.308913
1450.902172,-11843.295072,-306.438199,1924.535449
1450.902483,-14952.160028,-842.705048,4071.132681
1450.902795,-16432.571912,-919.314598,4219.173869
1450.903106,-12361.439231,-1072.533697,3923.091493
1450.903418,-5921.647536,-2145.067394,1924.535449
1450.903729,-2812.782580,-1608.800546,666.185348
1450.904040,-4293.194464,-459.657299,592.164754
1450.904352,-5403.503377,459.657299,666.185348
1450.904663,-5403.503377,1532.190996,1554.432478
1450.904975,-4367.215058,-536.266849,1776.494261
1450.905286,-2886.803174,-2834.553343,666.185348
1450.905597,-3478.967927,-2834.553343,-1406.391290
1450.905909,-2960.823768,-2068.457845,-1036.288319
1450.906220,-5847.626942,-1915.238745,-592.164754
1450.906532,-11843.295072,-3907.087040,1998.556043
1450.906843,-16950.716072,-4136.915689,4293.194464
1450.907154,-19097.313304,-3294.210641,5181.441594
1450.907466,-17394.839637,-2757.943793,4367.215058
1450.907777,-12657.521608,-995.924147,2072.576638
1450.908089,-6957.935855,2451.505594,-518.144159
1450.908400,-2886.803174,3140.991542,-2886.803174
1450.908711,-2812.782580,2145.067394,-3256.906145
1450.909023,-4885.359217,2604.724693,-1702.473667
1450.909334,-7328.038826,3064.381992,-1258.350101
1450.909645,-9622.677246,2298.286494,-814.226536
1450.909957,-12213.398043,153.219100,-1480.411884
1450.910268,-13767.830521,459.657299,-740.205942
1450.910580,-15100.201217,459.657299,-962.267725
1450.910891,-15618.345376,0.000000,666.185348
1450.911202,-17542.880825,-229.828649,2368.659014
1450.911514,-16876.695478,689.485948,4219.173869
1450.911825,-12731.542202,995.924147,4071.132681
1450.912136,-10288.862594,-612.876398,2072.576638
1450.912448,-3552.988522,0.000000,-296.082377
1450.912759,888.247130,3677.258390,-4737.318029
1450.913071,2812.782580,4903.011187,-5033.400406
1450.913382,-592.164754,3447.429741,-4293.194464
1450.913693,-8364.327145,229.828649,-888.247130
1450.914005,-14434.015869,-1378.971896,2664.741391
1450.914316,-16506.592507,-1915.238745,5995.668130
1450.914628,-16580.613101,-3600.648841,6883.915261
1450.914939,-12657.521608,-3677.258390,4663.297435
1450.915250,-6661.853478,-3753.867940,2072.576638
1450.915562,-2072.576638,-4290.134789,-814.226536
1450.915873,0.000000,-2528.115143,-1184.329507
1450.916184,-1332.370696,-383.047749,-1332.370696
1450.916496,-3478.967927,-1455.581446,370.102971
1450.916807,-4737.318029,-3294.210641,1332.370696
1450.917119,-5699.585753,-3983.696590,296.082377
1450.917430,-5107.421000,-2374.896044,518.144159
1450.917741,-4885.359217,-3753.867940,740.205942
1450.918053,-7402.059420,-5209.449386,1036.288319
1450.918364,-12509.480420,-5286.058936,1850.514855
1450.918675,-16284.530724,-4366.744339,3256.906145
1450.918987,-16580.613101,-2757.943793,3552.988522
1450.919298,-15914.427753,-1532.190996,2294.638420
1450.919610,-11843.295072,-229.828649,148.041188
1450.919921,-7402.059420,-1991.848295,-3256.906145
1450.920232,-4145.153275,-919.314598,-5033.400406
1450.920544,-2886.803174,612.876398,-4145.153275
1450.920855,-7254.018232,-689.485948,-3108.864956
1450.921167,-11843.295072,-1608.800546,-444.123565
1450.921478,-13767.830521,-1608.800546,814.226536
1450.921789,-13323.706956,-1991.848295,2368.659014
1450.922101,-11991.336260,-2528.115143,2368.659014
1450.922412,-11621.233289,-2681.334243,666.185348
1450.922723,-10066.800811,-2987.772442,296.082377
1450.923035,-10214.842000,-2757.943793,148.041188
1450.923346,-12065.356855,-2528.115143,1480.411884
1450.923658,-13989.892304,-2068.457845,296.082377
1450.923969,-12435.459826,-2298.286494,-370.102971
1450.924280,-8586.388927,-3217.601092,-1110.308913
1450.924592,-5033.400406,-3753.867940,-2294.638420
1450.924903,-4885.359217,-4290.134789,-2812.782580
1450.925214,-5921.647536,-4366.744339,-2072.576638
1450.925526,-5773.606348,-4903.011187,962.267725
1450.925837,-7994.224174,-4903.011187,3923.091493
1450.926149,-12065.356855,-4749.792088,6513.812290
1450.926460,-13471.748144,-4136.915689,6661.853478
1450.926771,-9844.739029,-3753.867940,5921.647536
1450.927083,-4367.215058,-1685.410096,4441.235652
1450.927394,-1702.473667,-306.438199,518.144159
1450.927706,-444.123565,-1149.143247,-3256.906145
1450.928017,-222.061783,-1378.971896,-5477.523971
1450.928328,-1628.453072,-1532.190996,-4663.297435
1450.928640,-3849.070898,-1302.362347,-2294.638420
1450.928951,-11547.212695,-3217.601092,-0.000000
1450.929262,-15840.407159,-5975.544884,3034.844362
1450.929574,-16062.468941,-6281.983084,5329.482782
1450.929885,-12953.603985,-4903.011187,6217.729913
1450.930197,-8808.450710,-5209.449386,4663.297435
1450.930508,-6513.812290,-7584.345430,1480.411884
1450.930819,-4737.318029,-7890.783629,-666.185348
1450.931131,-2368.659014,-3600.648841,-2590.720797
1450.931442,-2516.700203,153.219100,-2590.720797
1450.931753,-7031.956449,-1302.362347,-1628.453072
1450.932065,-12657.521608,-6435.202183,888.247130
1450.932376,-14211.954086,-7201.297681,1998.556043
1450.932688,-14137.933492,-3140.991542,1628.453072
1450.932999,-14137.933492,0.000000,518.144159
1450.933310,-13101.645173,-1762.019645,-592.164754
1450.933622,-11621.233289,-3907.087040,-1554.432478
1450.933933,-9030.512492,-3064.381992,-1480.411884
1450.934245,-8808.450710,-1149.143247,-2294.638420
1450.934556,-10510.924376,1762.019645,-222.061783
1450.934867,-10066.800811,306.438199,1480.411884
1450.935179,-10584.944971,-3140.991542,1554.432478
1450.935490,-10955.047942,-5669.106685,1184.329507
1450.935801,-11029.068536,-3064.381992,-296.082377
1450.936113,-9548.656652,0.000000,-1258.350101
1450.936424,-8882.471304,383.047749,-2294.638420
1450.936736,-7698.141797,-2221.676944,-1924.535449
1450.937047,-7031.956449,-3753.867940,-2294.638420
1450.937358,-7624.121203,-3217.601092,148.041188
1450.937670,-7994.224174,-2145.067394,1554.432478
1450.937981,-8290.306550,-306.438199,2664.741391
1450.938292,-10955.047942,76.609550,2886.803174
1450.938604,-10807.006753,0.000000,2738.761985
1450.938915,-8512.368333,689.485948,2294.638420
1450.939227,-7031.956449,842.705048,1702.473667
1450.939538,-6143.709319,-306.438199,666.185348
1450.939849,-5699.585753,-1915.238745,-296.082377
1450.940161,-4885.359217,-2451.505594,-370.102971
1450.940472,-2812.782580,-2834.553343,-74.020594
1450.940784,-2516.700203,-5822.325785,-0.000000
1450.941095,-4589.276840,-8044.002729,962.267725
1450.941406,-7920.203579,-7507.735880,1628.453072
1450.941718,-9770.718434,-4826.401637,2294.638420
1450.942029,-11843.295072,-2451.505594,2812.782580
1450.942340,-12583.501014,-1991.848295,3478.967927
1450.942652,-12213.398043,-3983.696590,3404.947333
1450.942963,-10436.903782,-5822.325785,3552.988522
1450.943275,-8216.285956,-5286.058936,2664.741391
1450.943586,-6143.709319,-5286.058936,888.247130
1450.943897,-4663.297435,-3983.696590,-1184.329507
1450.944209,-5773.606348,-4290.134789,-3034.844362
1450.944520,-6143.709319,-4136.915689,-2368.659014
1450.944831,-8364.327145,-4136.915689,-1406.391290
1450.945143,-9474.636058,-3677.258390,-518.144159
1450.945454,-11177.109724,-3217.601092,370.102971
1450.945766,-12287.418637,-2681.334243,1184.329507
1450.946077,-13397.727550,-2451.505594,1924.535449
1450.946388,-13693.809927,-2374.896044,1480.411884
1450.946700,-12583.501014,-2451.505594,2294.638420
1450.947011,-11991.336260,-2911.162892,1184.329507
1450.947323,-10214.842000,-3447.429741,518.144159
1450.947634,-8290.306550,-4673.182538,-296.082377
1450.947945,-5995.668130,-6894.859482,-222.061783
1450.948257,-5773.606348,-7890.783629,-518.144159
1450.948568,-7328.038826,-8350.440928,-666.185348
1450.948879,-7920.203579,-5056.230287,-1184.329507
1450.949191,-9400.615463,-1991.848295,-1332.370696
1450.949502,-12065.356855,-1225.752797,-148.041188
1450.949814,-13915.871710,-842.705048,1036.288319
1450.950125,-13767.830521,-842.705048,1258.350101
1450.950436,-11473.192101,-842.705048,1332.370696
1450.950748,-9178.553681,-1838.629195,1110.308913
1450.951059,-6661.853478,-2987.772442,-444.123565
1450.951370,-5847.626942,-2451.505594,-740.205942
1450.951682,-6291.750507,-2757.943793,-1258.350101
1450.951993,-5995.668130,-1685.410096,-222.061783
1450.952305,-6883.915261,0.000000,370.102971
1450.952616,-8364.327145,-306.438199,-74.020594
1450.952927,-7846.182985,-1608.800546,370.102971
1450.953239,-6143.709319,-1302.362347,-222.061783
1450.953550,-5477.523971,-459.657299,-74.020594
1450.953862,-5699.585753,-1685.410096,148.041188
1450.954173,-8216.285956,-3294.210641,-74.020594
1450.954484,-10066.800811,-4060.306139,814.226536
1450.954796,-10140.821405,-4060.306139,1702.473667
1450.955107,-10288.862594,-4443.353888,2146.597232
1450.955418,-10214.842000,-4673.182538,1702.473667
1450.955730,-8808.450710,-4519.963438,1702.473667
1450.956041,-8068.244768,-3907.087040,518.144159
1450.956353,-6661.853478,-2298.286494,148.041188
1450.956664,-6661.853478,-306.438199,-74.020594
1450.956975,-5847.626942,153.219100,-222.061783
1450.957287,-6217.729913,-919.314598,-222.061783
1450.957598,-7031.956449,-1608.800546,-0.000000
1450.957909,-8586.388927,-1991.848295,370.102971
1450.958221,-10436.903782,-3830.477490,1332.370696
1450.958532,-11769.274478,-5975.544884,2294.638420
1450.958844,-12805.562797,-6665.030833,2146.597232
1450.959155,-12731.542202,-6971.469032,2220.617826
1450.959466,-11991.336260,-4903.011187,1776.494261
1450.959778,-10732.986159,-3447.429741,1184.329507
1450.960089,-9400.615463,-1915.238745,962.267725
1450.960401,-7698.141797,-842.705048,518.144159
1450.960712,-6513.812290,0.000000,74.020594
1450.961023,-6883.915261,-536.266849,444.123565
1450.961335,-6883.915261,-919.314598,444.123565
1450.961646,-7772.162391,-1762.019645,740.205942
1450.961957,-9030.512492,-2604.724693,592.164754
1450.962269,-10066.800811,-3983.696590,666.185348
1450.962580,-11177.109724,-5056.230287,888.247130
1450.962892,-11473.192101,-5209.449386,1184.329507
1450.963203,-11769.274478,-5132.839837,962.267725
1450.963514,-10584.944971,-6358.592633,1628.453072
1450.963826,-8956.491898,-4979.620737,1628.453072
1450.964137,-7476.080014,-3524.039291,1110.308913
1450.964448,-6365.771101,-2374.896044,222.061783
1450.964760,-6069.688724,-1762.019645,-444.123565
1450.965071,-5921.647536,-306.438199,-518.144159
1450.965383,-6883.915261,-229.828649,-444.123565
1450.965694,-7402.059420,-1378.971896,-0.000000
1450.966005,-8734.430116,-2834.553343,-0.000000
1450.966317,-9030.512492,-4290.134789,888.247130
1450.966628,-9622.677246,-4060.306139,444.123565
1450.966940,-9474.636058,-3600.648841,740.205942
1450.967251,-8586.388927,-3600.648841,518.144159
1450.967562,-10140.821405,-4213.525239,-666.185348
1450.967874,-7179.997637,-2145.067394,222.061783
1450.968185,-7328.038826,-1455.581446,-1258.350101
1450.968496,-7920.203579,-2374.896044,-0.000000
1450.968808,-9844.739029,-2681.334243,-0.000000
1450.969119,-10584.944971,-1915.238745,740.205942
1450.969431,-9474.636058,-919.314598,888.247130
1450.969742,-9030.512492,-1149.143247,1924.535449
1450.970053,-8956.491898,-3217.601092,1406.391290
1450.970365,-8512.368333,-4903.011187,1332.370696
1450.970676,-8512.368333,-3983.696590,1184.329507
1450.970987,-9030.512492,-3140.991542,1554.432478
1450.971299,-11769.274478,-612.876398,1332.370696
1450.971610,-13027.624579,153.219100,962.267725
1450.971922,-11473.192101,0.000000,1554.432478
1450.972233,-10510.924376,-459.657299,962.267725
1450.972544,-7254.018232,306.438199,1776.494261
1450.972856,-7772.162391,-459.657299,518.144159
1450.973167,-7105.977043,-2757.943793,2886.803174
1450.973479,-8882.471304,-4060.306139,3701.029710
1450.973790,-8808.450710,-2834.553343,5107.421000
1450.974101,-10214.842000,-1915.238745,6217.729913
1450.974413,-12805.562797,-2987.772442,6439.791695
1450.974724,-10066.800811,-2757.943793,6365.771101
1450.975035,-7698.141797,-153.219100,4589.276840
1450.975347,-7254.018232,1149.143247,3923.091493
1450.975658,-5921.647536,1378.971896,3256.906145
1450.975970,-7402.059420,153.219100,2072.576638
1450.976281,-6809.894666,1302.362347,3256.906145
1450.976592,-6587.832884,1149.143247,3478.967927
1450.976904,-9844.739029,229.828649,3330.926739
1450.977215,-9474.636058,1302.362347,7105.977043
1450.977526,-9474.636058,-1072.533697,5995.668130
1450.977838,-7105.977043,-2068.457845,7624.121203
1450.978149,-7698.141797,-2221.676944,5921.647536
1450.978461,-7994.224174,-689.485948,6069.688724
1450.978772,-6513.812290,153.219100,4811.338623
1450.979083,-6217.729913,766.095498,3552.988522
1450.979395,-6735.874072,1991.848295,3552.988522
1450.979706,-8808.450710,2834.553343,2220.617826
1450.980018,-8956.491898,2451.505594,3552.988522
1450.980329,-8068.244768,1608.800546,3775.050304
1450.980640,-7328.038826,229.828649,4145.153275
1450.980952,-7994.224174,-306.438199,4589.276840
1450.981263,-8660.409521,-1838.629195,5033.400406
1450.981574,-8364.327145,-2451.505594,4885.359217
1450.981886,-8216.285956,-459.657299,5847.626942
1450.982197,-8956.491898,229.828649,4441.235652
1450.982509,-10436.903782,536.266849,4293.194464
1450.982820,-10807.006753,1072.533697,3404.947333
1450.983131,-8956.491898,2298.286494,3701.029710
1450.983443,-8734.430116,2068.457845,2368.659014
1450.983754,-7772.162391,919.314598,2146.597232
1450.984065,-7476.080014,229.828649,1702.473667
1450.984377,-6439.791695,-153.219100,1406.391290
1450.984688,-5921.647536,-306.438199,2368.659014
1450.985000,-7254.018232,-1302.362347,2516.700203
1450.985311,-9474.636058,-1915.238745,3923.091493
1450.985622,-11251.130318,-1838.629195,4367.215058
1450.985934,-11769.274478,-1608.800546,4663.297435
1450.986245,-11991.336260,-919.314598,4441.235652
1450.986557,-11991.336260,-383.047749,3330.926739
1450.986868,-10658.965565,459.657299,1924.535449
1450.987179,-9104.533087,383.047749,1036.288319
1450.987491,-8068.244768,995.924147,740.205942
1450.987802,-8290.306550,153.219100,1036.288319
1450.988113,-9474.636058,-229.828649,2220.617826
1450.988425,-9252.574275,-1072.533697,3182.885551
1450.988736,-9178.553681,-1225.752797,4219.173869
1450.989048,-8438.347739,-1455.581446,4959.379811
1450.989359,-8660.409521,-1991.848295,3404.947333
1450.989670,-7402.059420,-919.314598,2886.803174
1450.989982,-5921.647536,76.609550,1480.411884
1450.990293,-6957.935855,612.876398,296.082377
1450.990604,-8734.430116,1225.752797,-74.020594
1450.990916,-10436.903782,1685.410096,814.226536
1450.991227,-12213.398043,1532.190996,1850.514855
1450.991539,-13101.645173,689.485948,3256.906145
1450.991850,-12361.439231,-153.219100,3997.112087
1450.992161,-11177.109724,-1225.752797,4441.235652
1450.992473,-8512.368333,-1608.800546,4293.194464
1450.992784,-5255.462188,-2451.505594,2664.741391
1450.993096,-3627.009116,-1991.848295,2368.659014
1450.993407,-4293.194464,-1302.362347,1776.494261
1450.993718,-7550.100608,-306.438199,1924.535449
1450.994030,-10807.006753,1225.752797,3627.009116
1450.994341,-13249.686362,2528.115143,4959.379811
1450.994652,-14804.118840,1838.629195,5773.606348
1450.994964,-13471.748144,919.314598,6587.832884
1450.995275,-10140.821405,459.657299,5921.647536
1450.995587,-6069.688724,-689.485948,4367.215058
1450.995898,-2590.720797,-612.876398,2220.617826
1450.996209,-1480.411884,-536.266849,814.226536
1450.996521,-1998.556043,1302.362347,962.267725
1450.996832,-6069.688724,153.219100,2738.761985
1450.997143,-10807.006753,536.266849,4663.297435
1450.997455,-14952.160028,0.000000,6143.709319
1450.997766,-15766.386565,306.438199,7254.018232
1450.998078,-11621.233289,0.000000,6217.729913
1450.998389,-7476.080014,-1302.362347,4071.132681
1450.998700,-4663.297435,-1608.800546,2220.617826
1450.999012,-3034.844362,-459.657299,1258.350101
1450.999323,-4515.256246,459.657299,2294.638420
1450.999635,-7476.080014,1302.362347,4737.318029
1450.999946,-11843.295072,1149.143247,6291.750507
1451.000257,-13915.871710,76.609550,8512.368333
1451.000569,-12509.480420,229.828649,7254.018232
1451.000880,-8512.368333,1455.581446,4811.338623
1451.001191,-4589.276840,3370.820191,2072.576638
1451.001503,-2886.803174,3294.210641,-1258.350101
1451.001814,-3627.009116,2681.334243,-2146.597232
1451.002126,-6957.935855,1225.752797,-1184.329507
1451.002437,-10732.986159,1991.848295,1258.350101
1451.002748,-14137.933492,689.485948,5033.400406
1451.003060,-16654.633695,-2145.067394,7624.121203
1451.003371,-16358.551318,-4060.306139,9104.533087
1451.003682,-13175.665768,-3983.696590,9548.656652
1451.003994,-9918.759623,-2757.943793,8216.285956
1451.004305,-6365.771101,-1072.533697,6069.688724
1451.004617,-4293.194464,-919.314598,2738.761985
1451.004928,-2886.803174,536.266849,666.185348
1451.005239,-2220.617826,2374.896044,592.164754
1451.005551,-4737.318029,2528.115143,666.185348
1451.005862,-7402.059420,1762.019645,2368.659014
1451.006174,-9696.697840,383.047749,2960.823768
1451.006485,-12657.521608,-689.485948,4959.379811
1451.006796,-14285.974681,-1149.143247,6217.729913
1451.007108,-14952.160028,-459.657299,6439.791695
1451.007419,-14063.912898,-919.314598,5847.626942
1451.007731,-11103.089130,-306.438199,5107.421000
1451.008042,-8438.347739,229.828649,4589.276840
1451.008354,-5403.503377,306.438199,3775.050304
1451.008665,-3034.844362,306.438199,3256.906145
1451.008977,-1406.391290,229.828649,2146.597232
1451.009288,-1702.473667,0.000000,2072.576638
1451.009600,-3997.112087,383.047749,1184.329507
1451.009911,-6735.874072,459.657299,888.247130
1451.010223,-10140.821405,-153.219100,962.267725
1451.010534,-12583.501014,-766.095498,2590.720797
1451.010846,-15026.180623,-766.095498,4293.194464
1451.011157,-17320.819043,-612.876398,5625.565159
1451.011469,-16580.613101,153.219100,6957.935855
1451.011780,-13027.624579,0.000000,7476.080014
1451.012092,-8956.491898,-536.266849,6291.750507
1451.012403,-3775.050304,-153.219100,4885.359217
1451.012715,0.000000,842.705048,962.267725
1451.013026,2664.741391,1532.190996,-2442.679609
1451.013338,2812.782580,2068.457845,-4737.318029
1451.013649,-888.247130,1608.800546,-4367.215058
1451.013960,-7772.162391,1455.581446,-1406.391290
1451.014272,-15914.427753,459.657299,3404.947333
1451.014583,-24278.754898,-1455.581446,8290.306550
1451.014895,-26721.434506,-1991.848295,11843.295072
1451.015206,-23538.548956,-2145.067394,12065.356855
1451.015518,-15692.365970,-2374.896044,9474.636058
1451.015829,-5699.585753,-1915.238745,4959.379811
1451.016141,2590.720797,-1608.800546,-740.205942
1451.016452,8586.388927,76.609550,-5033.400406
1451.016764,7105.977043,1455.581446,-5921.647536
1451.017075,-518.144159,2681.334243,-3108.864956
1451.017387,-11029.068536,1838.629195,370.102971
1451.017698,-20059.581028,1072.533697,5625.565159
1451.018010,-25167.002028,842.705048,8808.450710
1451.018321,-22576.281231,0.000000,8956.491898
1451.018633,-16136.489536,-842.705048,7698.141797
1451.018944,-9474.636058,-383.047749,5107.421000
1451.019256,-3775.050304,-229.828649,2072.576638
1451.019567,518.144159,153.219100,1332.370696
1451.019879,1924.535449,76.609550,444.123565
1451.020190,740.205942,229.828649,1036.288319
1451.020501,-4441.235652,1149.143247,1924.535449
1451.020813,-9326.594869,2298.286494,3923.091493
1451.021124,-12065.356855,2528.115143,4885.359217
1451.021436,-13989.892304,1455.581446,4959.379811
1451.021747,-13101.645173,-1225.752797,4589.276840
1451.022059,-10955.047942,-3140.991542,3923.091493
1451.022370,-7624.121203,-2068.457845,4071.132681
1451.022682,-7179.997637,-995.924147,3849.070898
1451.022993,-8660.409521,383.047749,4663.297435
1451.023305,-9474.636058,76.609550,7105.977043
1451.023616,-9992.780217,-383.047749,7179.997637
1451.023928,-7994.224174,842.705048,7402.059420
1451.024239,-5107.421000,1378.971896,2960.823768
1451.024551,-2516.700203,2681.334243,-1554.432478
1451.024862,-296.082377,3140.991542,-4293.194464
1451.025174,-1258.350101,2298.286494,-4885.359217
1451.025485,-5403.503377,1149.143247,-2294.638420
1451.025797,-12065.356855,-842.705048,2368.659014
1451.026108,-19763.498651,-2681.334243,7846.182985
1451.026420,-21762.054695,-3830.477490,11325.150913
1451.026731,-19319.375086,-4136.915689,11251.130318
1451.027043,-13175.665768,-4213.525239,8808.450710
1451.027354,-7698.141797,-3140.991542,2738.761985
1451.027665,-1332.370696,153.219100,-1406.391290
1451.027977,3404.947333,3983.696590,-5625.565159
1451.028288,3330.926739,5898.935335,-7550.100608
1451.028600,-1332.370696,6281.983084,-6217.729913
1451.028911,-7476.080014,2834.553343,-4589.276840
1451.029223,-12583.501014,766.095498,-0.000000
1451.029534,-16580.613101,-383.047749,2886.803174
1451.029846,-18949.272115,-1225.752797,5477.523971
1451.030157,-18949.272115,-2528.115143,5255.462188
1451.030469,-16802.674883,-3064.381992,3997.112087
1451.030780,-11843.295072,-2068.457845,1850.514855
1451.031092,-5921.647536,0.000000,-518.144159
1451.031403,-3552.988522,1072.533697,-2664.741391
1451.031715,-1850.514855,-153.219100,-4145.153275
1451.032026,74.020594,-995.924147,-4959.379811
1451.032338,-2072.576638,-689.485948,-4885.359217
1451.032649,-5995.668130,536.266849,-3108.864956
1451.032961,-12657.521608,153.219100,-1110.308913
1451.033272,-17764.942608,-1455.581446,1332.370696
1451.033584,-20873.807564,-1838.629195,3627.009116
1451.033895,-19023.292709,-1762.019645,3849.070898
1451.034206,-14211.954086,-1991.848295,2738.761985
1451.034518,-9992.780217,-1378.971896,296.082377
1451.034829,-4811.338623,-919.314598,-0.000000
1451.035141,-3256.906145,76.609550,-1924.535449
1451.035452,-3627.009116,1455.581446,-1850.514855
1451.035764,-6217.729913,2374.896044,-1554.432478
1451.036075,-8660.409521,1762.019645,-1776.494261
1451.036387,-6587.832884,1072.533697,-1850.514855
1451.036698,-5255.462188,76.609550,-3997.112087
1451.037010,-5625.565159,-153.219100,-3552.988522
1451.037321,-7846.182985,-1455.581446,-1110.308913
1451.037633,-11399.171507,-2604.724693,1850.514855
1451.037944,-14508.036463,-2604.724693,5255.462188
1451.038256,-17764.942608,-2451.505594,7846.182985
1451.038567,-17912.983796,-689.485948,8142.265362
1451.038879,-13323.706956,1225.752797,4663.297435
1451.039190,-4885.359217,2374.896044,370.102971
1451.039502,2960.823768,1378.971896,-5107.421000
1451.039813,6587.832884,1378.971896,-9696.697840
1451.040125,5255.462188,3447.429741,-8956.491898
1451.040436,-2738.761985,4060.306139,-4959.379811
1451.040748,-12953.603985,383.047749,814.226536
1451.041059,-20429.683999,-1838.629195,6291.750507
1451.041370,-22946.384202,-3447.429741,9474.636058
1451.041682,-19171.333898,-4060.306139,9770.718434
1451.041993,-12879.583391,-2681.334243,7179.997637
1451.042305,-7254.018232,-842.705048,592.164754
1451.042616,-1480.411884,1762.019645,-2368.659014
1451.042928,1554.432478,3140.991542,-5551.544565
1451.043239,518.144159,2987.772442,-4219.173869
1451.043551,-4589.276840,3524.039291,-3552.988522
1451.043862,-9474.636058,1149.143247,-2442.679609
1451.044174,-12731.542202,-306.438199,-1036.288319
1451.044485,-13619.789333,-689.485948,1406.391290
1451.044797,-14508.036463,-2145.067394,2368.659014
1451.045108,-14804.118840,-4673.182538,3182.885551
1451.045420,-16136.489536,-5132.839837,3775.050304
1451.045731,-14285.974681,-2987.772442,4663.297435
1451.046043,-11621.233289,0.000000,3701.029710
1451.046354,-8512.368333,-229.828649,2664.741391
1451.046666,-3775.050304,229.828649,1332.370696
1451.046977,-1258.350101,1225.752797,-1258.350101
1451.047289,-1554.432478,2528.115143,-1850.514855
1451.047600,-3923.091493,3447.429741,-2590.720797
1451.047912,-6661.853478,2681.334243,-2886.803174
1451.048223,-8438.347739,2834.553343,-1628.453072
1451.048534,-10881.027347,76.609550,-370.102971
1451.048846,-11917.315666,-1608.800546,1406.391290
1451.049157,-13323.706956,-2834.553343,2886.803174
1451.049469,-12879.583391,-3217.601092,4071.132681
1451.049780,-11399.171507,-2911.162892,6365.771101
1451.050092,-11399.171507,-3370.820191,6069.688724
1451.050403,-10066.800811,-2681.334243,5699.585753
1451.050715,-7402.059420,-919.314598,1702.473667
1451.051026,-1776.494261,459.657299,-1924.535449
1451.051338,1998.556043,2834.553343,-5181.441594
1451.051649,1702.473667,2068.457845,-6587.832884
1451.051961,-1776.494261,229.828649,-5255.462188
1451.052272,-7254.018232,-153.219100,-1924.535449
1451.052584,-13915.871710,-919.314598,2368.659014
1451.052895,-19097.313304,-842.705048,5847.626942
1451.053207,-21095.869347,-1072.533697,6291.750507
1451.053518,-17542.880825,-383.047749,4737.318029
1451.053830,-11547.212695,459.657299,222.061783
1451.054141,-5995.668130,2757.943793,-2886.803174
1451.054453,-3478.967927,5286.058936,-6069.688724
1451.054764,-3108.864956,5975.544884,-6069.688724
1451.055075,-5181.441594,2298.286494,-3701.029710
1451.055387,-5699.585753,-1455.581446,-2368.659014
1451.055698,-5551.544565,-2604.724693,-2886.803174
1451.056010,-6069.688724,-1685.410096,-1850.514855
1451.056321,-8216.285956,-1225.752797,-0.000000
1451.056633,-14434.015869,-2987.772442,2146.597232
1451.056944,-19245.354492,-3830.477490,4737.318029
1451.057256,-19911.539840,-2145.067394,5033.400406
1451.057567,-17320.819043,0.000000,5255.462188
1451.057879,-10288.862594,1532.190996,1184.329507
1451.058190,-3108.864956,1915.238745,-3182.885551
1451.058502,1924.535449,1685.410096,-7105.977043
1451.058813,3108.864956,1378.971896,-7254.018232
1451.059125,-444.123565,919.314598,-5995.668130
1451.059436,-7994.224174,383.047749,-3552.988522
1451.059748,-14582.057057,-1072.533697,962.267725
1451.060059,-20133.601622,-2221.676944,4071.132681
1451.060371,-21539.992912,-2528.115143,5847.626942
1451.060682,-17616.901420,-2834.553343,5625.565159
1451.060994,-10955.047942,-3447.429741,3256.906145
1451.061305,-5551.544565,-2604.724693,1480.411884
1451.061617,-2220.617826,-919.314598,-962.267725
1451.061928,-1406.391290,1072.533697,-1480.411884
1451.062239,-2960.823768,842.705048,-962.267725
1451.062551,-5107.421000,2145.067394,-444.123565
1451.062862,-7476.080014,2604.724693,-1258.350101
1451.063174,-9400.615463,2068.457845,-592.164754
1451.063485,-10362.883188,1378.971896,-222.061783
1451.063797,-10362.883188,919.314598,1406.391290
1451.064108,-11473.192101,-689.485948,2442.679609
1451.064420,-12805.562797,-1838.629195,4145.153275
1451.064731,-13027.624579,-1915.238745,5921.647536
1451.065043,-12435.459826,-689.485948,5773.606348
1451.065354,-9252.574275,-229.828649,4145.153275
1451.065666,-4663.297435,689.485948,1924.535449
1451.065977,-888.247130,1608.800546,-1036.288319
1451.066289,222.061783,3294.210641,-2812.782580
1451.066600,-1702.473667,3677.258390,-3775.050304
1451.066912,-3404.947333,2451.505594,-3034.844362
1451.067223,-6883.915261,919.314598,-1110.308913
1451.067535,-10807.006753,0.000000,1258.350101
1451.067846,-13545.768739,-383.047749,3182.885551
1451.068158,-16728.654289,-2604.724693,3997.112087
1451.068469,-17912.983796,-2221.676944,5181.441594
1451.068781,-16506.592507,-1225.752797,4737.318029
1451.069092,-13545.768739,-383.047749,4441.235652
1451.069403,-9844.739029,-383.047749,2960.823768
1451.069715,-7772.162391,-1532.190996,-814.226536
1451.070026,-2294.638420,383.047749,-3108.864956
1451.070338,2220.617826,1685.410096,-4589.276840
1451.070649,962.267725,1302.362347,-4811.338623
1451.070961,-3849.070898,-306.438199,-3182.885551
1451.071272,-9992.780217,-1532.190996,-740.205942
1451.071584,-14508.036463,-842.705048,2738.761985
1451.071895,-16728.654289,-919.314598,5699.585753
1451.072207,-18579.169144,-766.095498,5995.668130
1451.072518,-17246.798449,-2145.067394,3849.070898
1451.072830,-12805.562797,-995.924147,2738.761985
1451.073141,-7105.977043,919.314598,740.205942
1451.073453,-3997.112087,2145.067394,-1554.432478
1451.073764,-3478.967927,2528.115143,-2368.659014
1451.074076,-3404.947333,1072.533697,-2146.597232
1451.074387,-4737.318029,-689.485948,-1480.411884
1451.074699,-6217.729913,0.000000,-666.185348
1451.075010,-6883.915261,-1915.238745,-1480.411884
1451.075322,-7105.977043,-3907.087040,-740.205942
1451.075633,-7624.121203,-3907.087040,1332.370696
1451.075944,-11473.192101,-2834.553343,2146.597232
1451.076256,-17320.819043,-1608.800546,4737.318029
1451.076567,-20725.766376,-459.657299,6291.750507
1451.076879,-19023.292709,766.095498,5995.668130
1451.077190,-11547.212695,2757.943793,2442.679609
1451.077502,-1850.514855,3294.210641,-1184.329507
1451.077813,3256.906145,3524.039291,-6513.812290
1451.078125,4663.297435,2528.115143,-8956.491898
1451.078436,2442.679609,3677.258390,-7328.038826
1451.078748,-4737.318029,2757.943793,-4219.173869
1451.079059,-13841.851115,229.828649,1258.350101
1451.079371,-20503.704593,-2834.553343,4737.318029
1451.079682,-20873.807564,-3217.601092,6291.750507
1451.079994,-16728.654289,-1915.238745,5477.523971
1451.080305,-11473.192101,-306.438199,3627.009116
1451.080617,-6883.915261,612.876398,1554.432478
1451.080928,-3552.988522,689.485948,-74.020594
1451.081240,-1702.473667,612.876398,-444.123565
1451.081551,-3627.009116,383.047749,-2516.700203
1451.081863,-4737.318029,3064.381992,-1850.514855
1451.082174,-5995.668130,4673.182538,-4293.194464
1451.082486,-7402.059420,2451.505594,-4515.256246
1451.082797,-9474.636058,76.609550,-1998.556043
1451.083108,-13397.727550,-2221.676944,740.205942
1451.083420,-18135.045579,-3600.648841,3701.029710
1451.083731,-19541.436869,-4136.915689,6069.688724
1451.084043,-18727.210333,-3294.210641,6957.935855
1451.084354,-13989.892304,-3677.258390,6587.832884
1451.084666,-8068.244768,-3753.867940,3997.112087
1451.084977,-2664.741391,-1991.848295,1110.308913
1451.085289,222.061783,612.876398,-666.185348
1451.085600,370.102971,1838.629195,-1554.432478
1451.085912,-3478.967927,383.047749,-1702.473667
1451.086223,-6957.935855,-612.876398,-518.144159
1451.086535,-9622.677246,-153.219100,-0.000000
1451.086846,-11547.212695,0.000000,814.226536
1451.087158,-12139.377449,0.000000,1628.453072
1451.087469,-14211.954086,306.438199,2812.782580
1451.087781,-14508.036463,-383.047749,3923.091493
1451.088092,-14063.912898,-229.828649,5181.441594
1451.088404,-11547.212695,0.000000,5625.565159
1451.088715,-7698.141797,919.314598,3775.050304
1451.089027,-3701.029710,1608.800546,592.164754
1451.089338,1480.411884,2298.286494,-3182.885551
1451.089649,3552.988522,1915.238745,-4589.276840
1451.089961,1480.411884,2528.115143,-4441.235652
1451.090272,-3849.070898,2374.896044,-2886.803174
1451.090584,-10288.862594,766.095498,-0.000000
1451.090895,-15026.180623,-153.219100,3330.926739
1451.091207,-17098.757260,-1455.581446,5255.462188
1451.091518,-16136.489536,-1149.143247,5033.400406
1451.091830,-13175.665768,-536.266849,3775.050304
1451.092141,-9104.533087,-153.219100,592.164754
1451.092453,-5773.606348,1455.581446,-1332.370696
1451.092764,-5033.400406,2374.896044,-2442.679609
1451.093076,-5921.647536,2681.334243,-2294.638420
1451.093387,-6587.832884,1532.190996,-2590.720797
1451.093699,-7328.038826,612.876398,-2368.659014
1451.094010,-6883.915261,-1455.581446,-2072.576638
1451.094322,-7624.121203,-2145.067394,-1924.535449
1451.094633,-9918.759623,-2528.115143,370.102971
1451.094945,-13693.809927,-2834.553343,3034.844362
1451.095256,-18357.107362,-2911.162892,5699.585753
1451.095568,-19023.292709,-3600.648841,6587.832884
1451.095879,-15322.262999,-2528.115143,4811.338623
1451.096191,-8660.409521,-919.314598,-0.000000
1451.096502,-1480.411884,1762.019645,-2960.823768
1451.096813,1036.288319,3524.039291,-4663.297435
1451.097125,-2516.700203,1838.629195,-4737.318029
1451.097436,-7105.977043,1455.581446,-1776.494261
1451.097748,-13249.686362,76.609550,370.102971
1451.098059,-15174.221811,-1225.752797,3627.009116
1451.098371,-13767.830521,-2451.505594,3182.885551
1451.098682,-11843.295072,-3524.039291,1554.432478
1451.098994,-9104.533087,-3447.429741,1258.350101
1451.099305,-8068.244768,-2451.505594,-296.082377
1451.099617,-8216.285956,153.219100,518.144159
1451.099928,-9622.677246,1072.533697,2368.659014
1451.100240,-10732.986159,459.657299,2368.659014
1451.100551,-8882.471304,1532.190996,1776.494261
1451.100863,-4737.318029,3064.381992,-1406.391290
1451.101174,-1184.329507,4519.963438,-3552.988522
1451.101486,-740.205942,3600.648841,-4515.256246
1451.101797,-3182.885551,1915.238745,-3923.091493
1451.102109,-8216.285956,766.095498,-1850.514855
1451.102420,-13249.686362,0.000000,1998.556043
1451.102732,-16876.695478,-1378.971896,4219.173869
1451.103043,-16876.695478,-2145.067394,4811.338623
1451.103355,-13841.851115,-2298.286494,3552.988522
1451.103666,-10584.944971,-2604.724693,1924.535449
1451.103977,-6217.729913,-919.314598,1332.370696
1451.104289,-3923.091493,1455.581446,-1184.329507
1451.104600,-1998.556043,2221.676944,-3034.844362
1451.104912,-1406.391290,1455.581446,-3404.947333
1451.105223,-2738.761985,-229.828649,-2664.741391
1451.105535,-4885.359217,-919.314598,-2516.700203
1451.105846,-7772.162391,-1608.800546,-814.226536
1451.106158,-11399.171507,-153.219100,1184.329507
1451.106469,-16876.695478,-919.314598,3404.947333
1451.106781,-20355.663405,-1838.629195,5625.565159
1451.107092,-19541.436869,-1915.238745,5995.668130
1451.107404,-15914.427753,-1378.971896,5033.400406
1451.107715,-9992.780217,-229.828649,2294.638420
1451.108027,-3775.050304,689.485948,-1628.453072
1451.108339,2294.638420,306.438199,-4885.359217
1451.108650,4293.194464,536.266849,-6513.812290
1451.108962,-888.247130,612.876398,-5255.462188
1451.109273,-7476.080014,383.047749,-1110.308913
1451.109585,-14508.036463,-306.438199,1998.556043
1451.109896,-18801.230927,-1532.190996,4589.276840
1451.110208,-18431.127956,-2221.676944,5625.565159
1451.110519,-15618.345376,-3064.381992,4663.297435
1451.110831,-12657.521608,-1225.752797,3478.967927
1451.111142,-8734.430116,0.000000,2072.576638
1451.111454,-7402.059420,383.047749,592.164754
1451.111765,-6143.709319,1762.019645,296.082377
1451.112077,-4737.318029,2145.067394,740.205942
1451.112388,-3330.926739,919.314598,-592.164754
1451.112700,-2886.803174,306.438199,-2146.597232
1451.113011,-4071.132681,2451.505594,-2368.659014
1451.113323,-5255.462188,1302.362347,-2516.700203
1451.113634,-8956.491898,1608.800546,-592.164754
1451.113946,-13175.665768,1685.410096,2590.720797
1451.114258,-15766.386565,0.000000,5107.421000
1451.114569,-14434.015869,-2221.676944,5107.421000
1451.114881,-9844.739029,-2451.505594,2442.679609
1451.115192,-5699.585753,1225.752797,666.185348
1451.115504,-3552.988522,2528.115143,-1110.308913
1451.115815,-3997.112087,2298.286494,-2072.576638
1451.116127,-7698.141797,1378.971896,-2812.782580
1451.116438,-9770.718434,1685.410096,-1628.453072
1451.116750,-9178.553681,2221.676944,-740.205942
1451.117061,-7254.018232,689.485948,-1406.391290
1451.117373,-6883.915261,-2374.896044,-1924.535449
1451.117684,-6883.915261,-4060.306139,-1332.370696
1451.117996,-7179.997637,-3753.867940,666.185348
1451.118307,-12287.418637,-2221.676944,1776.494261
1451.118619,-17172.777854,-919.314598,3923.091493
1451.118930,-19911.539840,-1915.238745,4885.359217
1451.119242,-17468.860231,-842.705048,4737.318029
1451.119554,-10140.821405,459.657299,1554.432478
1451.119865,-4071.132681,766.095498,-3182.885551
1451.120177,1036.288319,1915.238745,-6661.853478
1451.120488,2960.823768,2451.505594,-7698.141797
1451.120800,666.185348,383.047749,-5625.565159
1451.121111,-7624.121203,-995.924147,-2220.617826
1451.121423,-14878.139434,-1532.190996,2516.700203
1451.121734,-18283.086767,-1149.143247,4441.235652
1451.122046,-19615.457463,-1225.752797,5847.626942
1451.122357,-17838.963202,-2451.505594,5403.503377
1451.122669,-13323.706956,-2987.772442,2442.679609
1451.122980,-8142.265362,-2068.457845,296.082377
1451.123292,-4293.194464,536.266849,-1480.411884
1451.123603,-2368.659014,1225.752797,-2294.638420
1451.123915,-2072.576638,919.314598,-2516.700203
1451.124226,-2886.803174,0.000000,-1998.556043
1451.124538,-3330.926739,-229.828649,-1702.473667
1451.124849,-5625.565159,383.047749,-1776.494261
1451.125161,-8364.327145,2451.505594,-296.082377
1451.125473,-12879.583391,1225.752797,1110.308913
1451.125784,-18727.210333,-536.266849,3701.029710
1451.126096,-19245.354492,-995.924147,5699.585753
1451.126407,-16136.489536,76.609550,5403.503377
1451.126719,-10140.821405,383.047749,3478.967927
1451.127030,-4219.173869,-153.219100,518.144159
1451.127342,-222.061783,-383.047749,-2664.741391
1451.127653,1554.432478,919.314598,-3478.967927
1451.127965,-444.123565,2374.896044,-2590.720797
1451.128276,-4811.338623,1685.410096,-1480.411884
1451.128588,-9474.636058,383.047749,-0.000000
1451.128899,-12657.521608,-919.314598,1406.391290
1451.129211,-12879.583391,-2298.286494,1332.370696
1451.129522,-12657.521608,-1455.581446,2146.597232
1451.129834,-12731.542202,-919.314598,1110.308913
1451.130145,-13027.624579,-1455.581446,1776.494261
1451.130457,-13841.851115,-1378.971896,2294.638420
1451.130768,-13545.768739,612.876398,3552.988522
1451.131080,-10881.027347,766.095498,3404.947333
1451.131392,-5403.503377,-536.266849,740.205942
1451.131703,-222.061783,0.000000,-3034.844362
1451.132015,2072.576638,2374.896044,-4145.153275
1451.132326,-740.205942,2068.457845,-3775.050304
1451.132638,-7476.080014,306.438199,-1628.453072
1451.132949,-14582.057057,0.000000,1184.329507
1451.133261,-18505.148550,-306.438199,4589.276840
1451.133572,-18283.086767,-1302.362347,5477.523971
1451.133884,-15914.427753,-2451.505594,3330.926739
1451.134195,-11177.109724,-1915.238745,1036.288319
1451.134507,-6143.709319,-842.705048,-74.020594
1451.134818,-4071.132681,-1302.362347,-1554.432478
1451.135130,-4441.235652,1072.533697,-148.041188
1451.135441,-7254.018232,1225.752797,-888.247130
1451.135753,-8882.471304,1762.019645,444.123565
1451.136064,-7772.162391,2298.286494,814.226536
1451.136376,-5921.647536,1608.800546,-74.020594
1451.136687,-7179.997637,459.657299,-592.164754
1451.136999,-8660.409521,-995.924147,518.144159
1451.137311,-9844.739029,-1991.848295,962.267725
1451.137622,-11547.212695,-383.047749,2072.576638
1451.137934,-12139.377449,-689.485948,3404.947333
1451.138245,-12065.356855,-612.876398,2368.659014
1451.138557,-9400.615463,612.876398,1998.556043
1451.138868,-7105.977043,2145.067394,370.102971
1451.139180,-4663.297435,2374.896044,-1258.350101
1451.139491,-2738.761985,2757.943793,-2442.679609
1451.139803,-2960.823768,2528.115143,-3404.947333
1451.140114,-5107.421000,1378.971896,-2368.659014
1451.140426,-8586.388927,459.657299,-592.164754
1451.140737,-11695.253884,-612.876398,1480.411884
1451.141049,-13397.727550,-1302.362347,2886.803174
1451.141360,-14285.974681,-3370.820191,4367.215058
1451.141672,-13545.768739,-3983.696590,5255.462188
1451.141983,-12879.583391,-2757.943793,4367.215058
1451.142295,-11621.233289,-1302.362347,2738.761985
1451.142606,-7402.059420,0.000000,1554.432478
1451.142918,-3404.947333,153.219100,-1036.288319
1451.143230,-296.082377,1149.143247,-2886.803174
1451.143541,222.061783,1762.019645,-5033.400406
1451.143853,-3034.844362,2451.505594,-4663.297435
1451.144164,-8068.244768,2987.772442,-2368.659014
1451.144476,-14137.933492,919.314598,1110.308913
1451.144787,-19911.539840,-3140.991542,3849.070898
1451.145099,-20577.725188,-2911.162892,6439.791695
1451.145410,-18061.024985,-2834.553343,6439.791695
1451.145722,-12583.501014,-2681.334243,4589.276840
1451.146033,-7254.018232,-2834.553343,2146.597232
1451.146345,-3997.112087,-1685.410096,-222.061783
1451.146656,-1776.494261,1072.533697,-1332.370696
1451.146968,-1702.473667,919.314598,-1110.308913
1451.147279,-3108.864956,1455.581446,-2072.576638
1451.147591,-5033.400406,995.924147,-2516.700203
1451.147902,-6291.750507,1762.019645,-2146.597232
1451.148214,-8660.409521,2145.067394,222.061783
1451.148525,-13471.748144,766.095498,666.185348
1451.148837,-16876.695478,-1072.533697,2886.803174
1451.149149,-18875.251521,-1762.019645,3627.009116
1451.149460,-16210.510130,229.828649,4663.297435
1451.149772,-11103.089130,229.828649,2960.823768
1451.150083,-6439.791695,0.000000,888.247130
1451.150395,-3627.009116,0.000000,-592.164754
1451.150706,-1036.288319,0.000000,-2368.659014
1451.151018,0.000000,1455.581446,-2886.803174
1451.151329,-3034.844362,2451.505594,-2960.823768
1451.151641,-6513.812290,1378.971896,-2886.803174
1451.151952,-10436.903782,0.000000,-1332.370696
1451.152264,-12805.562797,0.000000,1184.329507
1451.152575,-14063.912898,-689.485948,3108.864956
1451.152887,-15692.365970,-1378.971896,3478.967927
1451.153198,-13767.830521,-1685.410096,3478.967927
1451.153510,-10288.862594,-1915.238745,2664.741391
1451.153821,-8068.244768,-1378.971896,1554.432478
1451.154133,-6883.915261,1149.143247,-666.185348
1451.154445,-5329.482782,3217.601092,-2072.576638
1451.154756,-3627.009116,3140.991542,-2886.803174
1451.155068,-4959.379811,1149.143247,-1776.494261
1451.155379,-5773.606348,459.657299,-1406.391290
1451.155691,-7105.977043,-306.438199,-1850.514855
1451.156002,-9178.553681,-153.219100,-148.041188
1451.156314,-11399.171507,-1455.581446,1628.453072
1451.156625,-13915.871710,-2834.553343,3478.967927
1451.156937,-14804.118840,-4519.963438,5477.523971
1451.157248,-15100.201217,-2911.162892,5625.565159
1451.157560,-12805.562797,-1991.848295,4663.297435
1451.157871,-9326.594869,153.219100,2368.659014
1451.158183,-5403.503377,2528.115143,-814.226536
1451.158494,-2886.803174,2451.505594,-3478.967927
1451.158806,-2590.720797,1532.190996,-3849.070898
1451.159117,-2960.823768,1302.362347,-4071.132681
1451.159429,-5995.668130,2145.067394,-2146.597232
1451.159740,-10066.800811,1378.971896,518.144159
1451.160052,-13841.851115,-919.314598,3182.885551
1451.160364,-16580.613101,-2681.334243,5477.523971
1451.160675,-16284.530724,-2911.162892,6587.832884
1451.160987,-13545.768739,-2298.286494,5699.585753
1451.161298,-9918.759623,76.609550,3997.112087
1451.161610,-6069.688724,1762.019645,962.267725
1451.161921,-2146.597232,1378.971896,-1628.453072
1451.162233,-370.102971,842.705048,-3775.050304
1451.162544,-518.144159,2374.896044,-3849.070898
1451.162856,-3182.885551,4443.353888,-3923.091493
1451.163167,-8660.409521,3907.087040,-2590.720797
1451.163479,-12287.418637,1149.143247,-0.000000
1451.163790,-15026.180623,-2068.457845,1184.329507
1451.164102,-15396.283594,-2604.724693,3478.967927
1451.164413,-14211.954086,-1532.190996,5033.400406
1451.164725,-14063.912898,-1378.971896,4737.318029
1451.165036,-11843.295072,-2604.724693,3627.009116
1451.165348,-7402.059420,-2757.943793,1628.453072
1451.165659,-2738.761985,-1225.752797,222.061783
1451.165971,-222.061783,1225.752797,-1998.556043
1451.166283,-1110.308913,2145.067394,-3552.988522
1451.166594,-3256.906145,2374.896044,-4367.215058
1451.166906,-6587.832884,1302.362347,-2664.741391
1451.167217,-10066.800811,306.438199,-592.164754
1451.167529,-13693.809927,-383.047749,1258.350101
1451.167840,-16432.571912,-1838.629195,2590.720797
1451.168152,-17542.880825,-3447.429741,2960.823768
1451.168463,-15322.262999,-3370.820191,2442.679609
1451.168775,-11695.253884,-919.314598,2368.659014
1451.169086,-10362.883188,-383.047749,2590.720797
1451.169398,-6957.935855,-2298.286494,2590.720797
1451.169709,-5773.606348,-1685.410096,222.061783
1451.170021,-3478.967927,612.876398,-1406.391290
1451.170332,-1628.453072,1915.238745,-2812.782580
1451.170644,-2442.679609,1455.581446,-3034.844362
1451.170955,-5551.544565,1225.752797,-3182.885551
1451.171267,-9474.636058,-612.876398,-1554.432478
1451.171578,-11843.295072,0.000000,1332.370696
1451.171890,-15026.180623,-229.828649,3256.906145
1451.172202,-16728.654289,229.828649,3108.864956
1451.172513,-13693.809927,76.609550,3034.844362
1451.172825,-10955.047942,-306.438199,1850.514855
1451.173136,-8142.265362,1532.190996,518.144159
1451.173448,-5477.523971,2911.162892,-2294.638420
1451.173759,-2738.761985,3140.991542,-4071.132681
1451.174071,-1702.473667,2145.067394,-4219.173869
1451.174382,-3330.926739,1455.581446,-3627.009116
1451.174694,-6735.874072,0.000000,-3330.926739
1451.175005,-10288.862594,-536.266849,-1998.556043
1451.175317,-13101.645173,-1072.533697,518.144159
1451.175628,-15100.201217,-1838.629195,2738.761985
1451.175940,-15174.221811,-2528.115143,4737.318029
1451.176251,-14434.015869,-2451.505594,4589.276840
1451.176563,-12509.480420,-2221.676944,3256.906145
1451.176874,-8586.388927,-766.095498,1332.370696
1451.177186,-4589.276840,1532.190996,-1184.329507
1451.177497,-2368.659014,2374.896044,-3849.070898
1451.177809,-2072.576638,1378.971896,-4663.297435
1451.178121,-4515.256246,536.266849,-4663.297435
1451.178432,-7328.038826,1225.752797,-2294.638420
1451.178744,-11251.130318,689.485948,-0.000000
1451.179055,-14211.954086,-459.657299,2664.741391
1451.179367,-16802.674883,-2298.286494,5477.523971
1451.179678,-17246.798449,-3447.429741,7105.977043
1451.179990,-14063.912898,-3907.087040,6809.894666
1451.180301,-8586.388927,-3064.381992,3775.050304
1451.180613,-4071.132681,-459.657299,444.123565
1451.180924,-518.144159,1149.143247,-888.247130
1451.181236,-518.144159,2068.457845,-1258.350101
1451.181547,-3330.926739,76.609550,-2072.576638
1451.181859,-6735.874072,842.705048,-2812.782580
1451.182170,-9104.533087,2298.286494,-1406.391290
1451.182482,-10732.986159,2068.457845,1332.370696
1451.182793,-13619.789333,76.609550,2146.597232
1451.183105,-14878.139434,-1685.410096,3701.029710
1451.183417,-13545.768739,-1608.800546,5107.421000
1451.183728,-11843.295072,-2145.067394,5625.565159
1451.184040,-9474.636058,-1072.533697,4737.318029
1451.184351,-7476.080014,-919.314598,2442.679609
1451.184663,-4367.215058,-612.876398,-0.000000
1451.184974,-1776.494261,1378.971896,-1406.391290
1451.185286,-1406.391290,2911.162892,-4145.153275
1451.185597,-2960.823768,3677.258390,-3849.070898
1451.185909,-5403.503377,2757.943793,-3256.906145
1451.186220,-7994.224174,1149.143247,-1702.473667
1451.186532,-11621.233289,-536.266849,-0.000000
1451.186843,-13693.809927,-459.657299,2368.659014
1451.187155,-14434.015869,-1302.362347,3627.009116
1451.187466,-15248.242405,-2604.724693,3849.070898
1451.187778,-14063.912898,-1378.971896,3330.926739
1451.188089,-11917.315666,-919.314598,2368.659014
1451.188401,-7994.224174,-1225.752797,1258.350101
1451.188712,-4885.359217,-1149.143247,-592.164754
1451.189024,-3478.967927,229.828649,-4589.276840
1451.189336,-1184.329507,1225.752797,-5255.462188
1451.189647,-1924.535449,229.828649,-5625.565159
1451.189959,-5921.647536,-459.657299,-3256.906145
1451.190270,-10288.862594,-383.047749,-962.267725
1451.190582,-14063.912898,-1685.410096,1702.473667
1451.190893,-17987.004391,-1532.190996,3923.091493
1451.191205,-18653.189738,-612.876398,4737.318029
1451.191516,-15396.283594,-1225.752797,3108.864956
1451.191828,-11991.336260,-995.924147,1332.370696
1451.192139,-7920.203579,-459.657299,-1258.350101
1451.192451,-5625.565159,306.438199,-2738.761985
1451.192762,-4367.215058,1608.800546,-3182.885551
1451.193074,-4219.173869,1455.581446,-3404.947333
1451.193385,-5625.565159,-1378.971896,-2886.803174
1451.193697,-5995.668130,-2374.896044,-1850.514855
1451.194008,-7772.162391,-1302.362347,-888.247130
1451.194320,-9474.636058,-919.314598,370.102971
1451.194631,-12657.521608,-1685.410096,2590.720797
1451.194943,-15470.304188,-2681.334243,4219.173869
1451.195255,-15544.324782,-229.828649,5403.503377
1451.195566,-15248.242405,1072.533697,4959.379811
1451.195878,-12139.377449,2834.553343,3627.009116
1451.196189,-6291.750507,2681.334243,592.164754
1451.196501,0.000000,2451.505594,-2812.782580
1451.196812,2886.803174,1915.238745,-6365.771101
1451.197124,1554.432478,2681.334243,-6217.729913
1451.197435,-4293.194464,3907.087040,-3552.988522
1451.197747,-10881.027347,3140.991542,592.164754
1451.198058,-16136.489536,-612.876398,2960.823768
1451.198370,-18283.086767,-2757.943793,5847.626942
1451.198681,-14508.036463,-3677.258390,6587.832884
1451.198993,-9474.636058,-3524.039291,4811.338623
1451.199304,-5773.606348,-2528.115143,2072.576638
1451.199616,-6217.729913,-766.095498,-666.185348
1451.199927,-6587.832884,2068.457845,592.164754
1451.200239,-7105.977043,1072.533697,-0.000000
1451.200550,-8068.244768,1149.143247,518.144159
1451.200862,-7920.203579,306.438199,-1850.514855
1451.201174,-5847.626942,612.876398,-4145.153275
1451.201485,-4441.235652,1991.848295,-3923.091493
1451.201797,-6587.832884,1378.971896,-1998.556043
1451.202108,-13249.686362,-689.485948,2368.659014
1451.202420,-18653.189738,-3677.258390,4885.359217
1451.202731,-19689.478057,-2911.162892,8068.244768
1451.203043,-16728.654289,-2681.334243,7402.059420
1451.203354,-10288.862594,-1072.533697,4959.379811
1451.203666,-3923.091493,-1685.410096,1406.391290
1451.203977,1036.288319,-2681.334243,-2072.576638
1451.204289,1480.411884,-1991.848295,-3330.926739
1451.204600,-1480.411884,842.705048,-2960.823768
1451.204912,-5995.668130,1915.238745,-2368.659014
1451.205223,-10584.944971,0.000000,-222.061783
1451.205535,-13915.871710,-1838.629195,1480.411884
1451.205846,-14952.160028,-1685.410096,2590.720797
1451.206158,-14063.912898,612.876398,3034.844362
1451.206469,-13101.645173,153.219100,2886.803174
1451.206781,-11843.295072,-153.219100,3701.029710
1451.207093,-11029.068536,-842.705048,4219.173869
1451.207404,-9104.533087,-1302.362347,3330.926739
1451.207716,-6217.729913,76.609550,1332.370696
1451.208027,-4367.215058,1991.848295,-1480.411884
1451.208339,-148.041188,3140.991542,-3330.926739
1451.208650,444.123565,1991.848295,-4959.379811
1451.208962,-3330.926739,-153.219100,-3849.070898
1451.209273,-7994.224174,383.047749,-1850.514855
1451.209585,-11251.130318,1378.971896,740.205942
1451.209896,-13989.892304,1532.190996,2738.761985
1451.210207,-16136.489536,0.000000,4145.153275
1451.210519,-14508.036463,-1838.629195,3182.885551
1451.210830,-11917.315666,76.609550,1702.473667
1451.211142,-8216.285956,1455.581446,740.205942
1451.211453,-7105.977043,2221.676944,-1184.329507
1451.211765,-7698.141797,2145.067394,-1998.556043
1451.212076,-7402.059420,1302.362347,-1406.391290
1451.212388,-6439.791695,76.609550,-1554.432478
1451.212699,-4663.297435,-1762.019645,-2072.576638
1451.213010,-3997.112087,-1991.848295,-3404.947333
1451.213322,-4589.276840,-2298.286494,-2812.782580
1451.213633,-8438.347739,-1532.190996,1184.329507
1451.213945,-14952.160028,-2374.896044,4219.173869
1451.214256,-19837.519246,-2068.457845,5699.585753
1451.214568,-19837.519246,-995.924147,6809.894666
1451.214879,-14730.098246,76.609550,4515.256246
1451.215191,-7994.224174,919.314598,-518.144159
1451.215502,-1332.370696,2068.457845,-4071.132681
1451.215813,2664.741391,1762.019645,-7476.080014
1451.216125,1258.350101,229.828649,-7105.977043
1451.216436,-4811.338623,766.095498,-4071.132681
1451.216748,-12583.501014,383.047749,518.144159
1451.217059,-18949.272115,-1685.410096,4071.132681
1451.217371,-20503.704593,-3217.601092,5699.585753
1451.217682,-17024.736666,-1915.238745,5033.400406
1451.217994,-11621.233289,-2068.457845,4219.173869
1451.218305,-7254.018232,-2221.676944,1924.535449
1451.218616,-5329.482782,-1915.238745,444.123565
1451.218928,-4589.276840,0.000000,-962.267725
1451.219239,-4737.318029,1378.971896,-148.041188
1451.219551,-5329.482782,1149.143247,-148.041188
1451.219862,-6069.688724,2374.896044,-1184.329507
1451.220174,-5847.626942,3064.381992,-2368.659014
1451.220485,-5477.523971,3064.381992,-2442.679609
1451.220797,-8142.265362,2528.115143,-1628.453072
1451.221108,-11843.295072,2451.505594,1110.308913
1451.221419,-14804.118840,2145.067394,3404.947333
1451.221731,-15396.283594,306.438199,4663.297435
1451.222042,-14137.933492,-995.924147,4367.215058
1451.222354,-9326.594869,-1149.143247,3256.906145
1451.222665,-5255.462188,-1915.238745,814.226536
1451.222977,-2442.679609,-1072.533697,-296.082377
1451.223288,-2590.720797,-612.876398,-962.267725
1451.223600,-5477.523971,-1072.533697,-1480.411884
1451.223911,-6661.853478,-536.266849,-814.226536
1451.224222,-7031.956449,-1225.752797,-444.123565
1451.224534,-8068.244768,-1225.752797,-222.061783
1451.224845,-9252.574275,-919.314598,518.144159
1451.225157,-10436.903782,536.266849,1406.391290
1451.225468,-13101.645173,0.000000,3108.864956
1451.225780,-15766.386565,76.609550,5107.421000
1451.226091,-16432.571912,459.657299,5329.482782
1451.226403,-15100.201217,-612.876398,4885.359217
1451.226714,-9548.656652,-766.095498,2590.720797
1451.227025,-3478.967927,-229.828649,-2442.679609
1451.227337,1702.473667,1991.848295,-5477.523971
1451.227648,2812.782580,766.095498,-5551.544565
1451.227960,-2960.823768,-995.924147,-4145.153275
1451.228271,-10881.027347,-1072.533697,-74.020594
1451.228583,-16284.530724,229.828649,4145.153275
1451.228894,-19393.395680,689.485948,7254.018232
1451.229206,-18949.272115,-1685.410096,6883.915261
1451.229517,-13693.809927,-3217.601092,4219.173869
1451.229828,-7624.121203,-1838.629195,444.123565
1451.230140,-4219.173869,919.314598,-296.082377
1451.230451,-5403.503377,2987.772442,-296.082377
1451.230763,-9030.512492,1915.238745,370.102971
1451.231074,-9770.718434,0.000000,888.247130
1451.231386,-8142.265362,-1455.581446,1554.432478
1451.231697,-4663.297435,-153.219100,-296.082377
1451.232009,-2220.617826,1762.019645,-2368.659014
1451.232320,-1554.432478,1378.971896,-3701.029710
1451.232631,-3404.947333,-1225.752797,-3034.844362
1451.232943,-9548.656652,-459.657299,1036.288319
1451.233254,-15396.283594,1532.190996,4737.318029
1451.233566,-19319.375086,1302.362347,6439.791695
1451.233877,-17912.983796,383.047749,6365.771101
1451.234189,-10362.883188,153.219100,2516.700203
1451.234500,-3404.947333,1685.410096,-740.205942
1451.234812,1554.432478,612.876398,-4145.153275
1451.235123,1998.556043,229.828649,-5551.544565
1451.235434,-1850.514855,153.219100,-5699.585753
1451.235746,-6291.750507,76.609550,-3330.926739
1451.236057,-12657.521608,0.000000,-444.123565
1451.236369,-15914.427753,-919.314598,2590.720797
1451.236680,-15840.407159,-2374.896044,3108.864956
1451.236992,-14211.954086,-2911.162892,2220.617826
1451.237303,-13471.748144,-2528.115143,1628.453072
1451.237615,-11473.192101,-842.705048,1110.308913
1451.237926,-9474.636058,536.266849,222.061783
1451.238237,-8734.430116,-153.219100,-148.041188
1451.238549,-7920.203579,-1149.143247,-2294.638420
1451.238860,-7031.956449,0.000000,-3775.050304
1451.239172,-3552.988522,2911.162892,-4441.235652
1451.239483,-3108.864956,2068.457845,-4737.318029
1451.239795,-6809.894666,153.219100,-3775.050304
1451.240106,-11843.295072,-1225.752797,-740.205942
1451.240418,-16802.674883,-1378.971896,1776.494261
1451.240729,-18209.066173,-995.924147,3997.112087
1451.241041,-16876.695478,-612.876398,4441.235652
1451.241352,-13027.624579,-2298.286494,2960.823768
1451.241663,-7402.059420,-3830.477490,1184.329507
1451.241975,-4515.256246,-2451.505594,666.185348
1451.242286,-3997.112087,76.609550,-592.164754
1451.242598,-3849.070898,2298.286494,-814.226536
1451.242909,-5847.626942,919.314598,-296.082377
1451.243221,-7179.997637,-995.924147,-0.000000
1451.243532,-5995.668130,229.828649,-296.082377
1451.243844,-5847.626942,1455.581446,-2146.597232
1451.244155,-6069.688724,1685.410096,-1998.556043
1451.244466,-7698.141797,766.095498,-888.247130
1451.244778,-11399.171507,76.609550,592.164754
1451.245089,-14952.160028,612.876398,3997.112087
1451.245401,-17098.757260,536.266849,5995.668130
1451.245712,-17172.777854,0.000000,5995.668130
1451.246024,-11547.212695,76.609550,3849.070898
1451.246335,-5699.585753,0.000000,-370.102971
1451.246647,444.123565,229.828649,-1998.556043
1451.246958,2516.700203,995.924147,-3775.050304
1451.247269,-888.247130,1378.971896,-2886.803174
1451.247581,-4663.297435,306.438199,-888.247130
1451.247892,-9474.636058,-1072.533697,740.205942
1451.248204,-13915.871710,0.000000,4145.153275
1451.248515,-16580.613101,76.609550,5847.626942
1451.248827,-17394.839637,-1455.581446,5847.626942
1451.249138,-14063.912898,-2298.286494,4737.318029
1451.249450,-9844.739029,-1302.362347,2738.761985
1451.249761,-5995.668130,-306.438199,814.226536
1451.250072,-3256.906145,383.047749,370.102971
1451.250384,-2960.823768,0.000000,-888.247130
1451.250695,-3108.864956,-612.876398,-814.226536
1451.251007,-4663.297435,-229.828649,-962.267725
1451.251318,-6809.894666,1378.971896,222.061783
1451.251630,-9030.512492,842.705048,1702.473667
1451.251941,-11843.295072,-766.095498,2368.659014
1451.252253,-13989.892304,-766.095498,2812.782580
1451.252564,-12879.583391,-229.828649,3256.906145
1451.252875,-11103.089130,-459.657299,2220.617826
1451.253187,-9474.636058,-766.095498,666.185348
1451.253498,-7476.080014,-1378.971896,-370.102971
1451.253810,-5255.462188,-995.924147,-1332.370696
1451.254121,-6513.812290,153.219100,-1406.391290
1451.254433,-8734.430116,1685.410096,-592.164754
1451.254744,-8882.471304,1455.581446,-222.061783
1451.255056,-9844.739029,0.000000,-0.000000
1451.255367,-9178.553681,-689.485948,-740.205942
1451.255678,-8734.430116,229.828649,-2072.576638
1451.255990,-7698.141797,1838.629195,-2368.659014
1451.256301,-7550.100608,1378.971896,-2368.659014
1451.256613,-10214.842000,-229.828649,-1036.288319
1451.256924,-13175.665768,-1149.143247,1258.350101
1451.257236,-15026.180623,383.047749,2146.597232
1451.257547,-13915.871710,306.438199,2368.659014
1451.257859,-11029.068536,0.000000,814.226536
1451.258170,-7402.059420,306.438199,-2812.782580
1451.258481,-2886.803174,1149.143247,-4737.318029
1451.258793,-740.205942,1072.533697,-5699.585753
1451.259104,-2960.823768,612.876398,-4811.338623
1451.259416,-7846.182985,383.047749,-1850.514855
1451.259727,-12805.562797,-536.266849,1110.308913
1451.260039,-16654.633695,-2068.457845,3849.070898
1451.260350,-17098.757260,-2757.943793,4959.379811
1451.260662,-15100.201217,-3370.820191,3330.926739
1451.260973,-10288.862594,-3753.867940,1406.391290
1451.261284,-6291.750507,-1991.848295,-1702.473667
1451.261596,-4071.132681,-995.924147,-3182.885551
1451.261907,-3478.967927,1685.410096,-2442.679609
1451.262219,-6291.750507,536.266849,-1702.473667
1451.262530,-7846.182985,-1455.581446,-74.020594
1451.262842,-8956.491898,-1302.362347,-518.144159
1451.263153,-8660.409521,1685.410096,222.061783
1451.263465,-8142.265362,995.924147,148.041188
1451.263776,-10510.924376,-919.314598,814.226536
1451.264087,-13693.809927,-1302.362347,3330.926739
1451.264399,-15914.427753,-612.876398,4367.215058
1451.264710,-15840.407159,0.000000,6365.771101
1451.265022,-13767.830521,612.876398,5847.626942
1451.265333,-8068.244768,-612.876398,3627.009116
1451.265645,0.000000,-1991.848295,222.061783
1451.265956,5329.482782,-1378.971896,-3552.988522
1451.266268,6069.688724,2374.896044,-4071.132681
1451.266579,370.102971,3600.648841,-1480.411884
1451.266890,-8882.471304,1915.238745,370.102971
1451.267202,-15840.407159,689.485948,3701.029710
1451.267513,-19541.436869,689.485948,5625.565159
1451.267825,-18283.086767,1378.971896,5403.503377
1451.268136,-14137.933492,2221.676944,4219.173869
1451.268448,-9918.759623,153.219100,2442.679609
1451.268759,-6587.832884,-1685.410096,1332.370696
1451.269071,-5181.441594,-1915.238745,2294.638420
1451.269382,-6217.729913,-1608.800546,2664.741391
1451.269693,-7402.059420,-842.705048,2146.597232
1451.270005,-7254.018232,-153.219100,666.185348
1451.270316,-4811.338623,0.000000,-1258.350101
1451.270628,-3775.050304,612.876398,-2368.659014
1451.270939,-5181.441594,1532.190996,-1998.556043
1451.271251,-9622.677246,995.924147,-148.041188
1451.271562,-14211.954086,-612.876398,2368.659014
1451.271874,-16654.633695,-1685.410096,3849.070898
1451.272185,-17764.942608,-1455.581446,3552.988522
1451.272497,-13619.789333,0.000000,2368.659014
1451.272808,-8734.430116,536.266849,74.020594
1451.273119,-5773.606348,689.485948,-1924.535449
1451.273431,-4367.215058,383.047749,-3108.864956
1451.273742,-5329.482782,1991.848295,-3182.885551
1451.274054,-5699.585753,2221.676944,-1702.473667
1451.274365,-6661.853478,842.705048,-962.267725
1451.274677,-8142.265362,-1455.581446,-1110.308913
1451.274988,-8068.244768,-1072.533697,-1036.288319
1451.275300,-8216.285956,612.876398,666.185348
1451.275611,-10288.862594,-306.438199,2368.659014
1451.275922,-12435.459826,-2374.896044,2886.803174
1451.276234,-14285.974681,-2604.724693,4367.215058
1451.276545,-13767.830521,-2451.505594,4293.194464
1451.276857,-9844.739029,-306.438199,1628.453072
1451.277168,-5329.482782,995.924147,-1850.514855
1451.277480,888.247130,612.876398,-4589.276840
1451.277791,2812.782580,0.000000,-7031.956449
1451.278103,-444.123565,995.924147,-6365.771101
1451.278414,-7550.100608,3294.210641,-2664.741391
1451.278725,-16284.530724,2068.457845,1332.370696
1451.279037,-21095.869347,-612.876398,4367.215058
1451.279348,-20503.704593,-2451.505594,5625.565159
1451.279660,-15248.242405,-3370.820191,4515.256246
1451.279971,-9252.574275,-2451.505594,1702.473667
1451.280283,-4293.194464,-1072.533697,-370.102971
1451.280594,-2812.782580,-306.438199,-1554.432478
1451.280906,-4959.379811,536.266849,-1036.288319
1451.281217,-8142.265362,383.047749,296.082377
1451.281528,-9770.718434,995.924147,592.164754
1451.281840,-9474.636058,1991.848295,-1110.308913
1451.282151,-7698.141797,2987.772442,-2886.803174
1451.282463,-7031.956449,3677.258390,-4071.132681
1451.282774,-9622.677246,2298.286494,-2294.638420
1451.283086,-13619.789333,0.000000,1924.535449
1451.283397,-16654.633695,-1685.410096,5033.400406
1451.283709,-17246.798449,-3600.648841,5181.441594
1451.284020,-12139.377449,-2834.553343,4219.173869
1451.284331,-6883.915261,-1225.752797,2886.803174
1451.284643,-3478.967927,-1532.190996,1036.288319
1451.284954,-814.226536,-1072.533697,-1036.288319
1451.285266,-4219.173869,-383.047749,-1332.370696
1451.285577,-6365.771101,1302.362347,740.205942
1451.285889,-8364.327145,2145.067394,370.102971
1451.286200,-9326.594869,1378.971896,814.226536
1451.286512,-9844.739029,-689.485948,148.041188
