#time,accel_x,accel_y,accel_z
1123.131240,-8808.450710,0.000000,888.247130
1123.131551,-8882.471304,-153.219100,518.144159
1123.131862,-8882.471304,0.000000,666.185348
1123.132174,-8956.491898,0.000000,296.082377
1123.132485,-8956.491898,153.219100,296.082377
1123.132797,-8956.491898,0.000000,444.123565
1123.133108,-8660.409521,0.000000,370.102971
1123.133420,-8956.491898,0.000000,592.164754
1123.133731,-9030.512492,0.000000,518.144159
1123.134043,-8956.491898,-153.219100,592.164754
1123.134354,-9178.553681,0.000000,592.164754
1123.134666,-8586.388927,76.609550,666.185348
1123.134977,-8956.491898,0.000000,370.102971
1123.135289,-9400.615463,153.219100,-0.000000
1123.135600,-9030.512492,0.000000,444.123565
1123.135912,-8808.450710,-153.219100,518.144159
1123.136223,-8882.471304,-383.047749,666.185348
1123.136535,-8956.491898,-153.219100,740.205942
1123.136846,-9030.512492,-153.219100,814.226536
1123.137158,-9400.615463,-229.828649,296.082377
1123.137469,-8808.450710,229.828649,1036.288319
1123.137781,-8660.409521,306.438199,444.123565
1123.138092,-8734.430116,0.000000,518.144159
1123.138404,-8956.491898,0.000000,666.185348
1123.138715,-8956.491898,0.000000,444.123565
1123.139026,-9030.512492,153.219100,666.185348
1123.139338,-8882.471304,383.047749,444.123565
1123.139649,-8586.388927,76.609550,296.082377
1123.139961,-9104.533087,229.828649,-0.000000
1123.140272,-8882.471304,383.047749,518.144159
1123.140584,-8808.450710,76.609550,296.082377
1123.140895,-8808.450710,0.000000,518.144159
1123.141207,-9030.512492,153.219100,592.164754
1123.141518,-9104.533087,0.000000,296.082377
1123.141830,-9030.512492,-383.047749,296.082377
1123.142141,-8882.471304,-229.828649,296.082377
1123.142453,-9104.533087,-153.219100,-0.000000
1123.142764,-9104.533087,0.000000,370.102971
1123.143076,-9104.533087,0.000000,592.164754
1123.143387,-9104.533087,-306.438199,666.185348
1123.143699,-9178.553681,0.000000,666.185348
1123.144010,-9178.553681,766.095498,592.164754
1123.144322,-8956.491898,0.000000,592.164754
1123.144633,-8586.388927,-306.438199,518.144159
1123.144945,-8438.347739,306.438199,666.185348
1123.145256,-8956.491898,0.000000,148.041188
1123.145567,-8882.471304,0.000000,518.144159
1123.145879,-8882.471304,0.000000,592.164754
1123.146190,-9030.512492,0.000000,740.205942
1123.146502,-8956.491898,-153.219100,518.144159
1123.146813,-8808.450710,76.609550,370.102971
1123.147125,-8364.327145,0.000000,296.082377
1123.147436,-8808.450710,153.219100,370.102971
1123.147748,-8882.471304,76.609550,370.102971
1123.148059,-9104.533087,-153.219100,518.144159
1123.148371,-9030.512492,0.000000,740.205942
1123.148682,-9104.533087,0.000000,518.144159
1123.148994,-9252.574275,536.266849,518.144159
1123.149305,-8956.491898,-459.657299,370.102971
1123.149617,-8586.388927,0.000000,444.123565
1123.149928,-8734.430116,0.000000,148.041188
1123.150240,-8734.430116,76.609550,518.144159
1123.150551,-8808.450710,0.000000,592.164754
1123.150863,-8956.491898,0.000000,592.164754
1123.151174,-8808.450710,-153.219100,592.164754
1123.151486,-8808.450710,0.000000,518.144159
1123.151797,-8660.409521,0.000000,592.164754
1123.152109,-8660.409521,-229.828649,370.102971
1123.152420,-8956.491898,76.609550,888.247130
1123.152731,-8660.409521,0.000000,740.205942
1123.153043,-8956.491898,0.000000,592.164754
1123.153354,-8882.471304,0.000000,518.144159
1123.153666,-8734.430116,153.219100,592.164754
1123.153977,-8734.430116,-383.047749,370.102971
1123.154289,-8512.368333,76.609550,518.144159
1123.154600,-8808.450710,-153.219100,222.061783
1123.154912,-8808.450710,-536.266849,370.102971
1123.155223,-9178.553681,-153.219100,592.164754
1123.155535,-9104.533087,0.000000,666.185348
1123.155846,-8956.491898,0.000000,666.185348
1123.156158,-8956.491898,0.000000,518.144159
1123.156469,-8734.430116,459.657299,444.123565
1123.156781,-8734.430116,612.876398,296.082377
1123.157092,-8956.491898,0.000000,444.123565
1123.157404,-9252.574275,0.000000,-0.000000
1123.157715,-8956.491898,0.000000,592.164754
1123.158027,-9030.512492,0.000000,592.164754
1123.158338,-9104.533087,0.000000,518.144159
1123.158650,-9474.636058,0.000000,296.082377
1123.158961,-8586.388927,76.609550,296.082377
1123.159273,-9178.553681,229.828649,222.061783
1123.159584,-8956.491898,153.219100,592.164754
1123.159895,-9178.553681,-229.828649,296.082377
1123.160207,-9030.512492,0.000000,370.102971
1123.160518,-8956.491898,-229.828649,666.185348
1123.160830,-8882.471304,0.000000,666.185348
1123.161141,-8734.430116,76.609550,296.082377
1123.161453,-8438.347739,-229.828649,444.123565
1123.161764,-8586.388927,-306.438199,592.164754
1123.162076,-8660.409521,153.219100,296.082377
1123.162387,-8956.491898,0.000000,518.144159
1123.162699,-9400.615463,0.000000,666.185348
1123.163010,-11399.171507,766.095498,296.082377
1123.163322,-11029.068536,2757.943793,444.123565
1123.163633,-8882.471304,4826.401637,444.123565
1123.163945,-7550.100608,3447.429741,814.226536
1123.164256,-6291.750507,1378.971896,666.185348
1123.164568,-6587.832884,-1072.533697,-0.000000
1123.164879,-7105.977043,-919.314598,-0.000000
1123.165191,-7920.203579,-383.047749,-296.082377
1123.165502,-12213.398043,-766.095498,-1480.411884
1123.165814,-12435.459826,76.609550,-74.020594
1123.166125,-10066.800811,995.924147,592.164754
1123.166436,-8734.430116,-536.266849,1628.453072
1123.166748,-9326.594869,-995.924147,2664.741391
1123.167059,-11251.130318,1225.752797,1332.370696
1123.167371,-7328.038826,4979.620737,2442.679609
1123.167682,-5107.421000,5132.839837,1924.535449
1123.167994,-8068.244768,2451.505594,888.247130
1123.168305,-8586.388927,1838.629195,-444.123565
1123.168617,-7105.977043,2911.162892,-1850.514855
1123.168928,-7550.100608,2681.334243,-1258.350101
1123.169240,-10362.883188,2374.896044,-1110.308913
1123.169551,-11473.192101,766.095498,-666.185348
1123.169863,-13249.686362,-2604.724693,814.226536
1123.170174,-9770.718434,-2451.505594,3108.864956
1123.170486,-7698.141797,229.828649,2146.597232
1123.170797,-10362.883188,2911.162892,1776.494261
1123.171109,-6291.750507,3830.477490,3034.844362
1123.171420,-4737.318029,1915.238745,1554.432478
1123.171732,-7846.182985,2757.943793,1776.494261
1123.172043,-7179.997637,5286.058936,2072.576638
1123.172355,-11325.150913,3447.429741,-2294.638420
1123.172666,-9178.553681,2834.553343,-0.000000
1123.172978,-9474.636058,3370.820191,-1924.535449
1123.173289,-9696.697840,3600.648841,-1850.514855
1123.173600,-11029.068536,2374.896044,-296.082377
1123.173912,-10881.027347,2911.162892,740.205942
1123.174223,-9030.512492,2528.115143,2442.679609
1123.174535,-9400.615463,3600.648841,2664.741391
1123.174846,-8068.244768,3524.039291,2072.576638
1123.175158,-5625.565159,2757.943793,222.061783
1123.175469,-5255.462188,2374.896044,148.041188
1123.175781,-4441.235652,2681.334243,-444.123565
1123.176092,-6365.771101,842.705048,-2516.700203
1123.176404,-8882.471304,995.924147,-1332.370696
1123.176715,-10362.883188,-2221.676944,-0.000000
1123.177027,-10955.047942,-2145.067394,370.102971
1123.177338,-11991.336260,-3983.696590,2072.576638
1123.177650,-11177.109724,-2834.553343,1850.514855
1123.177961,-9696.697840,-2528.115143,2516.700203
1123.178273,-8660.409521,-459.657299,1998.556043
1123.178584,-7476.080014,536.266849,1628.453072
1123.178896,-7476.080014,1149.143247,962.267725
1123.179207,-7031.956449,1225.752797,-148.041188
1123.179519,-7550.100608,1991.848295,370.102971
1123.179830,-7698.141797,919.314598,-1998.556043
1123.180142,-8364.327145,229.828649,-888.247130
1123.180453,-9030.512492,-2528.115143,-1628.453072
1123.180764,-9474.636058,-2911.162892,1110.308913
1123.181076,-10584.944971,-3217.601092,888.247130
1123.181387,-11695.253884,-2757.943793,1776.494261
1123.181699,-11769.274478,-2298.286494,740.205942
1123.182010,-10214.842000,-1225.752797,1258.350101
1123.182322,-9696.697840,0.000000,148.041188
1123.182633,-7624.121203,-689.485948,-518.144159
1123.182945,-6587.832884,-766.095498,-592.164754
1123.183256,-6587.832884,-612.876398,-1036.288319
1123.183568,-9030.512492,0.000000,-814.226536
1123.183879,-9992.780217,-995.924147,-518.144159
1123.184191,-11473.192101,-2145.067394,296.082377
1123.184502,-11843.295072,-1991.848295,1036.288319
1123.184814,-11695.253884,-2145.067394,1480.411884
1123.185125,-11917.315666,-1915.238745,1332.370696
1123.185437,-10436.903782,-1532.190996,814.226536
1123.185748,-9548.656652,459.657299,370.102971
1123.186060,-8290.306550,1225.752797,-666.185348
1123.186371,-7624.121203,3447.429741,222.061783
1123.186683,-7031.956449,3140.991542,-1702.473667
1123.186994,-6513.812290,2911.162892,-444.123565
1123.187306,-6957.935855,1915.238745,-1332.370696
1123.187617,-7328.038826,2221.676944,296.082377
1123.187928,-8364.327145,-612.876398,444.123565
1123.188240,-9400.615463,-919.314598,2368.659014
1123.188551,-10436.903782,-1225.752797,1998.556043
1123.188863,-11251.130318,-1072.533697,2516.700203
1123.189174,-10807.006753,229.828649,2294.638420
1123.189486,-9252.574275,995.924147,1110.308913
1123.189797,-8290.306550,1838.629195,592.164754
1123.190109,-7105.977043,2374.896044,-592.164754
1123.190420,-6365.771101,4060.306139,-0.000000
1123.190732,-6069.688724,2145.067394,-1036.288319
1123.191043,-6661.853478,2298.286494,370.102971
1123.191355,-7550.100608,689.485948,222.061783
1123.191666,-8142.265362,229.828649,2146.597232
1123.191978,-8956.491898,-919.314598,1850.514855
1123.192289,-8956.491898,-1149.143247,2368.659014
1123.192601,-9992.780217,-1608.800546,2590.720797
1123.192912,-9252.574275,-1225.752797,1850.514855
1123.193224,-8808.450710,-306.438199,2072.576638
1123.193535,-8586.388927,0.000000,-296.082377
1123.193847,-7624.121203,612.876398,1406.391290
1123.194158,-7698.141797,-153.219100,-814.226536
1123.194469,-7476.080014,0.000000,444.123565
1123.194781,-7698.141797,-459.657299,-592.164754
1123.195092,-7920.203579,-536.266849,-0.000000
1123.195404,-9548.656652,-995.924147,370.102971
1123.195715,-9918.759623,-2221.676944,1406.391290
1123.196027,-10584.944971,-1915.238745,2146.597232
1123.196338,-11251.130318,-1991.848295,1406.391290
1123.196650,-10955.047942,-1225.752797,2590.720797
1123.196961,-10658.965565,-1149.143247,222.061783
1123.197273,-9178.553681,229.828649,1406.391290
1123.197584,-8438.347739,-229.828649,-962.267725
1123.197896,-8660.409521,919.314598,-666.185348
1123.198207,-9252.574275,1225.752797,-2368.659014
1123.198519,-8438.347739,2068.457845,-1184.329507
1123.198830,-8808.450710,919.314598,-1258.350101
1123.199142,-9030.512492,612.876398,-296.082377
1123.199453,-9622.677246,76.609550,518.144159
1123.199765,-10436.903782,-612.876398,296.082377
1123.200076,-10510.924376,-612.876398,1554.432478
1123.200388,-10955.047942,-153.219100,592.164754
1123.200699,-10140.821405,536.266849,1110.308913
1123.201011,-9770.718434,-383.047749,-0.000000
1123.201322,-8364.327145,0.000000,148.041188
1123.201633,-8364.327145,-689.485948,-962.267725
1123.201945,-7920.203579,383.047749,-592.164754
1123.202256,-8438.347739,306.438199,-666.185348
1123.202568,-7698.141797,76.609550,-0.000000
1123.202879,-7994.224174,-229.828649,740.205942
1123.203191,-7920.203579,-766.095498,444.123565
1123.203502,-8216.285956,-459.657299,2072.576638
1123.203814,-8734.430116,-383.047749,666.185348
1123.204125,-8216.285956,689.485948,2294.638420
1123.204437,-9104.533087,153.219100,592.164754
1123.204748,-8438.347739,766.095498,1258.350101
1123.205060,-7920.203579,306.438199,-0.000000
1123.205371,-8068.244768,919.314598,-222.061783
1123.205683,-7179.997637,919.314598,-222.061783
1123.205994,-7772.162391,536.266849,-888.247130
1123.206306,-7328.038826,153.219100,740.205942
1123.206617,-8216.285956,-766.095498,-0.000000
1123.206929,-8290.306550,-612.876398,2146.597232
1123.207240,-8882.471304,-1378.971896,1110.308913
1123.207552,-9104.533087,-766.095498,2886.803174
1123.207863,-9992.780217,-2068.457845,1480.411884
1123.208175,-9844.739029,-919.314598,2220.617826
1123.208486,-9992.780217,-1072.533697,962.267725
1123.208797,-9622.677246,-153.219100,888.247130
1123.209109,-9400.615463,-229.828649,222.061783
1123.209421,-8586.388927,76.609550,-518.144159
1123.209732,-8216.285956,76.609550,-0.000000
1123.210044,-8734.430116,-689.485948,-592.164754
1123.210355,-7920.203579,0.000000,1258.350101
1123.210667,-9474.636058,-689.485948,222.061783
1123.210978,-9326.594869,0.000000,2368.659014
1123.211290,-10214.842000,-1225.752797,1110.308913
1123.211601,-9548.656652,-612.876398,1998.556043
1123.211913,-9844.739029,-612.876398,1184.329507
1123.212224,-8956.491898,0.000000,518.144159
1123.212536,-9474.636058,153.219100,444.123565
1123.212847,-9400.615463,153.219100,-814.226536
1123.213159,-8068.244768,689.485948,222.061783
1123.213470,-8734.430116,76.609550,-1628.453072
1123.213782,-7920.203579,689.485948,518.144159
1123.214093,-8808.450710,-306.438199,-962.267725
1123.214405,-8956.491898,459.657299,1036.288319
1123.214716,-9548.656652,-459.657299,222.061783
1123.215028,-10140.821405,459.657299,1036.288319
1123.215339,-9400.615463,0.000000,1554.432478
1123.215651,-9844.739029,153.219100,592.164754
1123.215962,-8882.471304,383.047749,814.226536
1123.216274,-8956.491898,459.657299,-592.164754
1123.216585,-8216.285956,1149.143247,296.082377
1123.216897,-8512.368333,689.485948,-1702.473667
1123.217208,-7624.121203,1225.752797,-0.000000
1123.217520,-7846.182985,229.828649,-1702.473667
1123.217831,-7328.038826,1072.533697,962.267725
1123.218143,-8438.347739,-1149.143247,-74.020594
1123.218454,-8586.388927,0.000000,814.226536
1123.218766,-9104.533087,-459.657299,1036.288319
1123.219077,-9326.594869,-229.828649,962.267725
1123.219389,-9178.553681,-306.438199,1924.535449
1123.219700,-9844.739029,-306.438199,-148.041188
1123.220012,-8660.409521,76.609550,1480.411884
1123.220324,-8956.491898,-306.438199,-222.061783
1123.220635,-8512.368333,459.657299,592.164754
1123.220947,-8660.409521,76.609550,-814.226536
1123.221258,-7550.100608,612.876398,222.061783
1123.221570,-7920.203579,-995.924147,-0.000000
1123.221881,-8364.327145,-919.314598,296.082377
1123.222193,-8438.347739,-1608.800546,1184.329507
1123.222504,-9548.656652,-1149.143247,592.164754
1123.222816,-9770.718434,-995.924147,2072.576638
1123.223127,-10436.903782,-1302.362347,666.185348
1123.223439,-9770.718434,-766.095498,2220.617826
1123.223750,-10288.862594,-995.924147,444.123565
1123.224062,-9548.656652,-306.438199,1480.411884
1123.224373,-9992.780217,-766.095498,-74.020594
1123.224685,-9252.574275,229.828649,1036.288319
1123.224996,-9474.636058,-766.095498,-0.000000
1123.225308,-9104.533087,-229.828649,444.123565
1123.225619,-8808.450710,-612.876398,1110.308913
1123.225931,-9252.574275,-459.657299,370.102971
1123.226242,-9030.512492,-229.828649,1628.453072
1123.226554,-9178.553681,76.609550,148.041188
1123.226865,-8216.285956,536.266849,2146.597232
1123.227177,-9474.636058,612.876398,-74.020594
1123.227488,-8882.471304,536.266849,1850.514855
1123.227800,-9030.512492,0.000000,-148.041188
1123.228111,-8512.368333,995.924147,-0.000000
1123.228423,-7994.224174,459.657299,-0.000000
1123.228734,-7772.162391,306.438199,-222.061783
1123.229046,-7698.141797,0.000000,814.226536
1123.229357,-7846.182985,-306.438199,-0.000000
1123.229669,-7550.100608,0.000000,1702.473667
1123.229980,-8882.471304,-536.266849,-296.082377
1123.230292,-8438.347739,76.609550,1850.514855
1123.230603,-9104.533087,-995.924147,370.102971
1123.230915,-8882.471304,0.000000,1554.432478
1123.231226,-9252.574275,0.000000,444.123565
1123.231538,-8586.388927,766.095498,296.082377
1123.231850,-8586.388927,306.438199,666.185348
1123.232161,-8216.285956,0.000000,-592.164754
1123.232473,-7994.224174,459.657299,518.144159
1123.232784,-8364.327145,153.219100,-962.267725
1123.233096,-8068.244768,995.924147,1110.308913
1123.233407,-8734.430116,0.000000,-740.205942
1123.233719,-8364.327145,842.705048,1258.350101
1123.234030,-8956.491898,306.438199,-0.000000
1123.234342,-9474.636058,995.924147,518.144159
1123.234653,-9992.780217,153.219100,222.061783
1123.234965,-9400.615463,536.266849,370.102971
1123.235276,-9622.677246,306.438199,222.061783
1123.235588,-9400.615463,76.609550,-370.102971
1123.235899,-9030.512492,459.657299,592.164754
1123.236211,-9400.615463,-306.438199,-666.185348
1123.236522,-8586.388927,0.000000,1480.411884
1123.236834,-9104.533087,-766.095498,-518.144159
1123.237145,-8956.491898,-383.047749,1184.329507
1123.237457,-9326.594869,-1149.143247,444.123565
1123.237768,-9104.533087,-383.047749,962.267725
1123.238080,-9844.739029,-459.657299,814.226536
1123.238391,-9474.636058,76.609550,74.020594
1123.238703,-9770.718434,-153.219100,666.185348
1123.239014,-9696.697840,0.000000,-148.041188
1123.239326,-8734.430116,766.095498,1628.453072
1123.239637,-8438.347739,-842.705048,-370.102971
1123.239949,-7772.162391,153.219100,1258.350101
1123.240260,-8142.265362,-306.438199,-0.000000
1123.240572,-7624.121203,0.000000,1184.329507
1123.240883,-8586.388927,-612.876398,518.144159
1123.241195,-8586.388927,-536.266849,1110.308913
1123.241506,-9030.512492,-919.314598,1184.329507
1123.241818,-9252.574275,-689.485948,666.185348
1123.242129,-9104.533087,-766.095498,1554.432478
1123.242441,-9400.615463,-689.485948,-0.000000
1123.242752,-8808.450710,0.000000,1554.432478
1123.243064,-8956.491898,-536.266849,296.082377
1123.243376,-8068.244768,0.000000,1480.411884
1123.243687,-8290.306550,0.000000,222.061783
1123.243999,-7328.038826,612.876398,1036.288319
1123.244310,-8216.285956,-153.219100,296.082377
1123.244622,-8068.244768,383.047749,962.267725
1123.244933,-8364.327145,229.828649,740.205942
1123.245245,-8882.471304,459.657299,370.102971
1123.245556,-8882.471304,76.609550,1110.308913
1123.245868,-9326.594869,-153.219100,-0.000000
1123.246179,-8956.491898,842.705048,1184.329507
1123.246491,-9252.574275,0.000000,-222.061783
1123.246802,-8512.368333,0.000000,1110.308913
1123.247114,-9474.636058,-306.438199,-0.000000
1123.247425,-8808.450710,229.828649,888.247130
1123.247737,-9104.533087,0.000000,222.061783
1123.248048,-8364.327145,536.266849,222.061783
1123.248360,-7846.182985,536.266849,962.267725
1123.248671,-8882.471304,-153.219100,-666.185348
1123.248983,-8586.388927,-842.705048,1110.308913
1123.249294,-9474.636058,-842.705048,-592.164754
1123.249606,-9252.574275,153.219100,1184.329507
1123.249917,-10214.842000,-766.095498,-444.123565
1123.250229,-9474.636058,-229.828649,962.267725
1123.250540,-9770.718434,-919.314598,-74.020594
1123.250852,-9326.594869,-306.438199,296.082377
1123.251163,-9474.636058,-229.828649,222.061783
1123.251475,-8956.491898,-76.609550,-148.041188
1123.251786,-8364.327145,0.000000,888.247130
1123.252098,-8586.388927,-153.219100,-0.000000
1123.252409,-8586.388927,0.000000,888.247130
1123.252721,-9178.553681,0.000000,-296.082377
1123.253032,-8956.491898,1072.533697,1184.329507
1123.253344,-9474.636058,0.000000,-0.000000
1123.253655,-9178.553681,229.828649,592.164754
1123.253967,-9622.677246,0.000000,296.082377
1123.254278,-9178.553681,229.828649,296.082377
1123.254590,-9178.553681,-229.828649,444.123565
1123.254902,-8438.347739,153.219100,-0.000000
1123.255213,-8586.388927,0.000000,592.164754
1123.255525,-8586.388927,76.609550,-222.061783
1123.255836,-7179.997637,0.000000,1184.329507
1123.256148,-8660.409521,-306.438199,-222.061783
1123.256459,-8364.327145,76.609550,1702.473667
1123.256771,-9030.512492,-766.095498,148.041188
1123.257082,-8956.491898,0.000000,1110.308913
1123.257394,-9252.574275,-229.828649,1110.308913
1123.257705,-8660.409521,0.000000,666.185348
1123.258017,-8734.430116,76.609550,1110.308913
1123.258328,-8438.347739,229.828649,296.082377
1123.258640,-7550.100608,612.876398,962.267725
1123.258951,-7994.224174,383.047749,-0.000000
1123.259263,-8290.306550,459.657299,1110.308913
1123.259574,-8956.491898,76.609550,-0.000000
1123.259886,-8660.409521,536.266849,1184.329507
1123.260197,-9474.636058,-76.609550,666.185348
1123.260509,-8808.450710,536.266849,888.247130
1123.260820,-9326.594869,-383.047749,518.144159
1123.261132,-9030.512492,459.657299,222.061783
1123.261443,-8808.450710,0.000000,1480.411884
1123.261755,-9030.512492,0.000000,296.082377
1123.262066,-8290.306550,306.438199,1480.411884
1123.262378,-8734.430116,-383.047749,-0.000000
1123.262689,-8438.347739,229.828649,1406.391290
1123.263001,-8956.491898,0.000000,-0.000000
1123.263312,-8956.491898,76.609550,1036.288319
1123.263624,-9844.739029,-1149.143247,-0.000000
1123.263935,-9474.636058,0.000000,814.226536
1123.264247,-9696.697840,-153.219100,666.185348
1123.264558,-9696.697840,76.609550,370.102971
1123.264870,-9178.553681,0.000000,1406.391290
1123.265181,-9326.594869,-459.657299,148.041188
1123.265493,-8586.388927,229.828649,1850.514855
1123.265804,-8660.409521,-612.876398,-74.020594
1123.266116,-7402.059420,0.000000,1110.308913
1123.266428,-8290.306550,0.000000,-74.020594
1123.266739,-8142.265362,306.438199,444.123565
1123.267051,-8660.409521,-306.438199,-0.000000
1123.267362,-8364.327145,-229.828649,222.061783
1123.267674,-9030.512492,-306.438199,814.226536
1123.267985,-8882.471304,-229.828649,-74.020594
1123.268297,-9474.636058,-383.047749,1110.308913
1123.268608,-9474.636058,-766.095498,-148.041188
1123.268920,-9178.553681,-153.219100,1184.329507
1123.269231,-9770.718434,-306.438199,-148.041188
1123.269543,-8586.388927,0.000000,1110.308913
1123.269854,-9030.512492,-536.266849,-0.000000
1123.270166,-7994.224174,306.438199,740.205942
1123.270477,-8956.491898,0.000000,-0.000000
1123.270789,-9030.512492,459.657299,-148.041188
1123.271100,-8956.491898,0.000000,814.226536
1123.271412,-9400.615463,0.000000,-0.000000
1123.271723,-9252.574275,229.828649,1036.288319
1123.272035,-9548.656652,229.828649,-518.144159
1123.272346,-8882.471304,612.876398,1110.308913
1123.272658,-9400.615463,-229.828649,-0.000000
1123.272969,-8512.368333,689.485948,888.247130
1123.273281,-8734.430116,383.047749,148.041188
1123.273592,-8142.265362,612.876398,370.102971
1123.273904,-8586.388927,76.609550,148.041188
1123.274215,-8364.327145,229.828649,-148.041188
1123.274527,-8956.491898,306.438199,888.247130
1123.274838,-9252.574275,76.609550,-148.041188
1123.275150,-9252.574275,0.000000,888.247130
1123.275461,-9474.636058,229.828649,222.061783
1123.275773,-8364.327145,0.000000,1628.453072
1123.276084,-9178.553681,-995.924147,370.102971
1123.276396,-8290.306550,-383.047749,1036.288319
1123.276707,-8364.327145,153.219100,592.164754
1123.277019,-7994.224174,229.828649,592.164754
1123.277330,-8586.388927,459.657299,1036.288319
1123.277642,-8290.306550,229.828649,-0.000000
1123.277954,-8364.327145,0.000000,962.267725
1123.278265,-8882.471304,0.000000,-0.000000
1123.278577,-8956.491898,-76.609550,1332.370696
1123.278888,-9696.697840,0.000000,-74.020594
1123.279200,-8956.491898,306.438199,1480.411884
1123.279511,-9400.615463,-383.047749,592.164754
1123.279823,-8438.347739,0.000000,1036.288319
1123.280134,-8660.409521,0.000000,740.205942
1123.280446,-8068.244768,-612.876398,740.205942
1123.280757,-8290.306550,-459.657299,888.247130
1123.281069,-8660.409521,-229.828649,222.061783
1123.281380,-8438.347739,0.000000,1332.370696
1123.281692,-9104.533087,-689.485948,-0.000000
1123.282003,-8660.409521,-306.438199,1480.411884
1123.282315,-9326.594869,-536.266849,-74.020594
1123.282626,-9474.636058,76.609550,666.185348
1123.282938,-9400.615463,-689.485948,592.164754
1123.283249,-9030.512492,-383.047749,888.247130
1123.283561,-9474.636058,-306.438199,1110.308913
1123.283872,-8882.471304,0.000000,518.144159
1123.284184,-8734.430116,0.000000,1110.308913
1123.284495,-8364.327145,0.000000,-148.041188
1123.284807,-7846.182985,459.657299,666.185348
1123.285118,-8364.327145,0.000000,-666.185348
1123.285430,-8364.327145,0.000000,592.164754
1123.285741,-9474.636058,-612.876398,-370.102971
1123.286053,-9030.512492,-689.485948,370.102971
1123.286364,-9696.697840,-766.095498,296.082377
1123.286676,-9474.636058,-766.095498,518.144159
1123.286987,-9696.697840,-229.828649,814.226536
1123.287299,-9622.677246,-536.266849,222.061783
1123.287610,-8808.450710,-229.828649,1332.370696
1123.287922,-8882.471304,0.000000,-222.061783
1123.288233,-8660.409521,153.219100,740.205942
1123.288545,-8734.430116,0.000000,-592.164754
1123.288856,-8216.285956,306.438199,592.164754
1123.289168,-9178.553681,306.438199,-518.144159
1123.289480,-8586.388927,1072.533697,370.102971
1123.289791,-9622.677246,0.000000,-444.123565
1123.290103,-8956.491898,995.924147,296.082377
1123.290414,-9104.533087,76.609550,666.185348
1123.290726,-9326.594869,-153.219100,-0.000000
1123.291037,-8956.491898,-536.266849,814.226536
1123.291349,-8956.491898,-536.266849,-0.000000
1123.291660,-8660.409521,-229.828649,814.226536
1123.291972,-9030.512492,-766.095498,-222.061783
1123.292283,-8068.244768,383.047749,592.164754
1123.292595,-9178.553681,-1072.533697,-148.041188
1123.292906,-8438.347739,229.828649,740.205942
1123.293218,-9400.615463,-229.828649,370.102971
1123.293529,-9548.656652,229.828649,-0.000000
1123.293841,-9400.615463,306.438199,1258.350101
1123.294152,-9326.594869,-536.266849,148.041188
1123.294464,-8808.450710,0.000000,1702.473667
1123.294775,-8882.471304,-1072.533697,-0.000000
1123.295087,-8068.244768,76.609550,1184.329507
1123.295398,-8956.491898,-459.657299,148.041188
1123.295710,-8734.430116,0.000000,1036.288319
1123.296021,-8956.491898,-306.438199,518.144159
1123.296333,-8660.409521,0.000000,518.144159
1123.296644,-8808.450710,0.000000,962.267725
1123.296956,-9030.512492,0.000000,148.041188
1123.297267,-9030.512492,-153.219100,1406.391290
1123.297579,-8956.491898,0.000000,592.164754
1123.297890,-8586.388927,-383.047749,1554.432478
1123.298202,-9178.553681,-153.219100,444.123565
1123.298513,-8364.327145,306.438199,1776.494261
1123.298825,-8956.491898,-383.047749,296.082377
1123.299136,-8364.327145,0.000000,1258.350101
1123.299448,-9400.615463,689.485948,-0.000000
1123.299759,-8956.491898,1838.629195,296.082377
1123.300071,-9326.594869,459.657299,592.164754
1123.300382,-9326.594869,229.828649,148.041188
1123.300694,-8882.471304,383.047749,888.247130
1123.301006,-9178.553681,383.047749,-0.000000
1123.301317,-8438.347739,153.219100,1332.370696
1123.301629,-8882.471304,0.000000,444.123565
1123.301940,-8142.265362,-383.047749,1480.411884
1123.302252,-8586.388927,-995.924147,370.102971
1123.302563,-8290.306550,0.000000,666.185348
1123.302875,-8808.450710,-229.828649,444.123565
1123.303186,-8438.347739,0.000000,-0.000000
1123.303498,-8512.368333,-995.924147,518.144159
1123.303809,-8512.368333,-536.266849,-148.041188
1123.304121,-9030.512492,-153.219100,666.185348
1123.304432,-9622.677246,-919.314598,-296.082377
1123.304744,-9104.533087,-689.485948,1036.288319
1123.305055,-9548.656652,-612.876398,-0.000000
1123.305367,-9400.615463,-383.047749,1184.329507
1123.305678,-9622.677246,-612.876398,444.123565
1123.305990,-8956.491898,-383.047749,518.144159
1123.306301,-8956.491898,-459.657299,592.164754
1123.306613,-8808.450710,383.047749,-222.061783
1123.306924,-9326.594869,612.876398,592.164754
1123.307236,-9104.533087,306.438199,-888.247130
1123.307547,-8512.368333,1149.143247,888.247130
1123.307859,-9252.574275,306.438199,-1036.288319
1123.308170,-9030.512492,536.266849,666.185348
1123.308482,-9548.656652,153.219100,-592.164754
1123.308793,-9178.553681,536.266849,962.267725
1123.309104,-9770.718434,-995.924147,296.082377
1123.309415,-8882.471304,-536.266849,666.185348
1123.309727,-9474.636058,-459.657299,370.102971
1123.310038,-9104.533087,-536.266849,-74.020594
1123.310349,-8290.306550,-766.095498,962.267725
1123.310660,-9104.533087,153.219100,-370.102971
1123.310972,-9030.512492,0.000000,1184.329507
1123.311283,-9622.677246,-536.266849,-222.061783
1123.311594,-8734.430116,153.219100,962.267725
1123.311905,-9178.553681,229.828649,222.061783
1123.312217,-7994.224174,0.000000,444.123565
1123.312528,-8586.388927,0.000000,518.144159
1123.312839,-8586.388927,612.876398,370.102971
1123.313150,-8364.327145,612.876398,1184.329507
1123.313462,-8734.430116,306.438199,-0.000000
1123.313773,-8438.347739,459.657299,1110.308913
1123.314084,-8882.471304,612.876398,-0.000000
1123.314395,-8660.409521,383.047749,1184.329507
1123.314707,-8956.491898,229.828649,-0.000000
1123.315018,-8660.409521,536.266849,888.247130
1123.315329,-9104.533087,459.657299,148.041188
1123.315640,-8660.409521,536.266849,1184.329507
1123.315951,-9030.512492,0.000000,888.247130
1123.316263,-8438.347739,0.000000,814.226536
1123.316574,-8734.430116,0.000000,1406.391290
1123.316885,-8142.265362,153.219100,518.144159
1123.317196,-8438.347739,-766.095498,1850.514855
1123.317508,-9030.512492,-536.266849,222.061783
1123.317819,-8512.368333,-306.438199,1628.453072
1123.318130,-9474.636058,-459.657299,148.041188
1123.318441,-8956.491898,536.266849,1702.473667
1123.318753,-9474.636058,-459.657299,-0.000000
1123.319064,-9252.574275,153.219100,592.164754
1123.319375,-8882.471304,-459.657299,1110.308913
1123.319686,-9252.574275,0.000000,148.041188
1123.319998,-9178.553681,153.219100,1702.473667
1123.320309,-9252.574275,0.000000,-0.000000
1123.320620,-8364.327145,0.000000,1554.432478
1123.320931,-8882.471304,0.000000,-222.061783
1123.321243,-7402.059420,229.828649,814.226536
1123.321554,-8808.450710,76.609550,-666.185348
1123.321865,-8512.368333,-229.828649,296.082377
1123.322176,-9400.615463,-229.828649,148.041188
1123.322488,-9326.594869,-153.219100,-0.000000
1123.322799,-9696.697840,-689.485948,1036.288319
1123.323110,-10140.821405,-536.266849,-74.020594
1123.323421,-9326.594869,0.000000,1110.308913
1123.323733,-9622.677246,-612.876398,-518.144159
1123.324044,-8586.388927,0.000000,1184.329507
1123.324355,-9252.574275,-306.438199,-518.144159
1123.324666,-8586.388927,0.000000,1184.329507
1123.324978,-9030.512492,-153.219100,-74.020594
1123.325289,-8586.388927,229.828649,592.164754
1123.325600,-9030.512492,0.000000,-0.000000
1123.325911,-8660.409521,383.047749,-222.061783
1123.326223,-8808.450710,76.609550,296.082377
1123.326534,-9030.512492,-229.828649,-740.205942
1123.326845,-8660.409521,383.047749,1036.288319
1123.327156,-9474.636058,0.000000,-370.102971
1123.327468,-8734.430116,-229.828649,1110.308913
1123.327779,-9104.533087,-383.047749,-148.041188
1123.328090,-8586.388927,0.000000,666.185348
1123.328401,-8882.471304,0.000000,296.082377
1123.328713,-8216.285956,-766.095498,222.061783
1123.329024,-8660.409521,383.047749,370.102971
1123.329335,-8808.450710,76.609550,-74.020594
1123.329646,-9178.553681,-612.876398,592.164754
1123.329958,-9326.594869,0.000000,-0.000000
1123.330269,-9178.553681,0.000000,1110.308913
1123.330580,-9474.636058,-153.219100,-0.000000
1123.330891,-8512.368333,-306.438199,1036.288319
1123.331203,-9030.512492,-306.438199,-296.082377
1123.331514,-7550.100608,229.828649,888.247130
1123.331825,-8586.388927,-612.876398,666.185348
1123.332136,-9030.512492,-383.047749,444.123565
1123.332448,-9252.574275,0.000000,962.267725
1123.332759,-9474.636058,229.828649,296.082377
1123.333070,-9104.533087,0.000000,1332.370696
1123.333381,-9326.594869,76.609550,148.041188
1123.333693,-9252.574275,0.000000,1406.391290
1123.334004,-9400.615463,0.000000,-0.000000
1123.334315,-9252.574275,536.266849,1480.411884
1123.334626,-9548.656652,153.219100,444.123565
1123.334938,-8586.388927,383.047749,1332.370696
1123.335249,-9178.553681,-306.438199,518.144159
1123.335560,-8364.327145,459.657299,962.267725
1123.335871,-8512.368333,0.000000,962.267725
1123.336183,-7698.141797,229.828649,962.267725
1123.336494,-8956.491898,-229.828649,1554.432478
1123.336805,-9326.594869,-306.438199,148.041188
1123.337116,-8734.430116,536.266849,1332.370696
1123.337428,-9030.512492,76.609550,-0.000000
1123.337739,-8364.327145,383.047749,1406.391290
1123.338050,-9030.512492,153.219100,222.061783
1123.338361,-8068.244768,459.657299,962.267725
1123.338673,-8216.285956,-536.266849,888.247130
1123.338984,-8438.347739,-383.047749,592.164754
1123.339295,-8438.347739,0.000000,1258.350101
1123.339606,-8586.388927,0.000000,-0.000000
1123.339918,-8364.327145,0.000000,1258.350101
1123.340229,-8660.409521,-153.219100,-444.123565
1123.340540,-8364.327145,76.609550,592.164754
1123.340851,-9326.594869,-689.485948,-0.000000
1123.341162,-9178.553681,0.000000,666.185348
1123.341474,-9178.553681,-383.047749,370.102971
1123.341785,-8808.450710,-383.047749,444.123565
1123.342096,-9104.533087,-612.876398,888.247130
1123.342407,-8734.430116,-536.266849,-148.041188
1123.342719,-8364.327145,0.000000,740.205942
1123.343030,-8734.430116,153.219100,-518.144159
1123.343341,-9104.533087,229.828649,296.082377
1123.343652,-9622.677246,459.657299,-444.123565
1123.343964,-9178.553681,306.438199,666.185348
1123.344275,-9622.677246,-306.438199,-666.185348
1123.344586,-9252.574275,76.609550,444.123565
1123.344897,-9474.636058,-306.438199,-74.020594
1123.345209,-9400.615463,306.438199,370.102971
1123.345520,-9104.533087,-229.828649,518.144159
1123.345831,-9400.615463,-229.828649,-0.000000
1123.346142,-9104.533087,-459.657299,962.267725
1123.346454,-8808.450710,-229.828649,-0.000000
1123.346765,-8512.368333,-306.438199,740.205942
1123.347076,-9400.615463,-229.828649,-370.102971
1123.347387,-8882.471304,76.609550,888.247130
1123.347699,-9474.636058,-153.219100,-444.123565
1123.348010,-8882.471304,306.438199,666.185348
1123.348321,-9696.697840,0.000000,518.144159
1123.348632,-9104.533087,536.266849,148.041188
1123.348944,-8956.491898,-229.828649,1184.329507
1123.349255,-8734.430116,-612.876398,222.061783
1123.349566,-8290.306550,-383.047749,1628.453072
1123.349877,-8660.409521,-153.219100,-222.061783
1123.350189,-8216.285956,-689.485948,1258.350101
1123.350500,-8956.491898,-459.657299,148.041188
1123.350811,-9178.553681,-153.219100,1110.308913
1123.351122,-9326.594869,-842.705048,814.226536
1123.351434,-9030.512492,-306.438199,666.185348
1123.351745,-9474.636058,0.000000,962.267725
1123.352056,-8808.450710,76.609550,444.123565
1123.352367,-8512.368333,0.000000,1258.350101
1123.352679,-8438.347739,459.657299,-74.020594
1123.352990,-7920.203579,995.924147,1998.556043
1123.353301,-8808.450710,76.609550,-0.000000
1123.353612,-8808.450710,766.095498,1406.391290
1123.353924,-8808.450710,383.047749,-0.000000
1123.354235,-8364.327145,766.095498,1036.288319
1123.354546,-9178.553681,0.000000,222.061783
1123.354857,-8586.388927,383.047749,592.164754
1123.355169,-8956.491898,-536.266849,740.205942
1123.355480,-8438.347739,0.000000,444.123565
1123.355791,-8734.430116,0.000000,1110.308913
1123.356102,-9178.553681,0.000000,148.041188
1123.356414,-8660.409521,-306.438199,1850.514855
1123.356725,-8808.450710,-612.876398,370.102971
1123.357036,-8216.285956,-383.047749,1258.350101
1123.357347,-8956.491898,76.609550,-0.000000
1123.357659,-7920.203579,459.657299,592.164754
1123.357970,-8586.388927,0.000000,296.082377
1123.358281,-8586.388927,-153.219100,-148.041188
1123.358592,-8956.491898,-459.657299,740.205942
1123.358904,-9252.574275,-306.438199,-370.102971
1123.359215,-9178.553681,0.000000,1036.288319
1123.359526,-9474.636058,-153.219100,-444.123565
1123.359837,-9400.615463,0.000000,888.247130
1123.360149,-9622.677246,0.000000,-296.082377
1123.360460,-8882.471304,-383.047749,666.185348
1123.360771,-9104.533087,0.000000,-74.020594
1123.361082,-8586.388927,76.609550,592.164754
1123.361394,-8882.471304,-153.219100,148.041188
1123.361705,-8808.450710,-306.438199,-0.000000
1123.362016,-8808.450710,-229.828649,666.185348
1123.362327,-9252.574275,459.657299,-370.102971
1123.362639,-9178.553681,689.485948,814.226536
1123.362950,-9178.553681,-306.438199,-296.082377
1123.363261,-8956.491898,0.000000,888.247130
1123.363572,-9918.759623,-459.657299,-148.041188
1123.363884,-8956.491898,0.000000,888.247130
1123.364195,-9474.636058,-383.047749,-0.000000
1123.364506,-9104.533087,-306.438199,148.041188
1123.364817,-8290.306550,-766.095498,370.102971
1123.365129,-8438.347739,-689.485948,-296.082377
1123.365440,-8660.409521,-229.828649,740.205942
1123.365751,-9030.512492,-153.219100,-296.082377
1123.366062,-8660.409521,-612.876398,888.247130
1123.366373,-9178.553681,-306.438199,-0.000000
1123.366685,-8586.388927,0.000000,1110.308913
1123.366996,-9326.594869,0.000000,-0.000000
1123.367307,-8734.430116,0.000000,888.247130
1123.367618,-8734.430116,-536.266849,370.102971
1123.367930,-8142.265362,0.000000,444.123565
1123.368241,-8956.491898,-383.047749,1036.288319
1123.368552,-8956.491898,76.609550,296.082377
1123.368863,-8808.450710,0.000000,1110.308913
1123.369175,-9252.574275,0.000000,296.082377
1123.369486,-8364.327145,0.000000,1480.411884
1123.369797,-9400.615463,0.000000,-148.041188
1123.370108,-8882.471304,612.876398,1628.453072
1123.370420,-9178.553681,-459.657299,444.123565
1123.370731,-8660.409521,76.609550,1184.329507
1123.371042,-8808.450710,76.609550,814.226536
1123.371353,-7994.224174,153.219100,1036.288319
1123.371665,-8734.430116,-383.047749,1110.308913
1123.371976,-8808.450710,0.000000,222.061783
1123.372287,-8216.285956,536.266849,1406.391290
1123.372598,-9178.553681,536.266849,-0.000000
1123.372910,-8956.491898,536.266849,1480.411884
1123.373221,-9474.636058,306.438199,-0.000000
1123.373532,-8956.491898,459.657299,1258.350101
1123.373843,-8956.491898,229.828649,518.144159
1123.374155,-8660.409521,536.266849,740.205942
1123.374466,-8734.430116,76.609550,740.205942
1123.374777,-8586.388927,306.438199,-0.000000
1123.375088,-8438.347739,-383.047749,962.267725
1123.375400,-8586.388927,0.000000,-0.000000
1123.375711,-8512.368333,-306.438199,1184.329507
1123.376022,-8808.450710,-536.266849,-148.041188
1123.376333,-7920.203579,-306.438199,888.247130
1123.376645,-8660.409521,-229.828649,-74.020594
1123.376956,-8290.306550,0.000000,592.164754
1123.377267,-9548.656652,-919.314598,-222.061783
1123.377578,-9104.533087,153.219100,296.082377
1123.377890,-9030.512492,0.000000,814.226536
1123.378201,-9400.615463,153.219100,-222.061783
1123.378512,-9252.574275,0.000000,1184.329507
1123.378823,-9178.553681,-689.485948,-370.102971
1123.379135,-8290.306550,-383.047749,814.226536
1123.379446,-9104.533087,-612.876398,-148.041188
1123.379757,-8808.450710,229.828649,666.185348
1123.380068,-9622.677246,-153.219100,-296.082377
1123.380380,-9252.574275,0.000000,296.082377
1123.380691,-9474.636058,0.000000,-0.000000
1123.381002,-9030.512492,459.657299,-0.000000
1123.381313,-9326.594869,229.828649,370.102971
1123.381625,-9400.615463,0.000000,-222.061783
1123.381936,-8512.368333,-612.876398,814.226536
1123.382247,-8586.388927,229.828649,-74.020594
1123.382558,-8512.368333,0.000000,1332.370696
1123.382870,-8956.491898,-842.705048,-444.123565
1123.383181,-8808.450710,-536.266849,666.185348
1123.383492,-9622.677246,-536.266849,-0.000000
1123.383803,-9474.636058,383.047749,962.267725
1123.384115,-10066.800811,153.219100,222.061783
1123.384426,-9178.553681,0.000000,296.082377
1123.384737,-8734.430116,0.000000,1258.350101
1123.385048,-8734.430116,-229.828649,-0.000000
1123.385360,-8364.327145,0.000000,1110.308913
1123.385671,-8734.430116,306.438199,-222.061783
1123.385982,-7994.224174,306.438199,1406.391290
1123.386293,-8882.471304,-459.657299,-74.020594
1123.386605,-8142.265362,153.219100,962.267725
1123.386916,-8882.471304,-153.219100,444.123565
1123.387227,-9252.574275,-153.219100,888.247130
1123.387538,-9548.656652,-383.047749,1184.329507
1123.387850,-9252.574275,153.219100,148.041188
1123.388161,-8956.491898,536.266849,1406.391290
1123.388472,-8956.491898,229.828649,-0.000000
1123.388783,-8068.244768,919.314598,1628.453072
1123.389095,-8734.430116,153.219100,-0.000000
1123.389406,-7550.100608,1149.143247,1702.473667
1123.389717,-8290.306550,-229.828649,-0.000000
1123.390028,-8290.306550,153.219100,1036.288319
1123.390340,-8808.450710,-383.047749,518.144159
1123.390651,-8734.430116,-229.828649,740.205942
1123.390962,-9178.553681,-383.047749,1110.308913
1123.391273,-8882.471304,0.000000,296.082377
1123.391584,-9474.636058,-383.047749,1110.308913
1123.391896,-9030.512492,-306.438199,740.205942
1123.392207,-8734.430116,-612.876398,1480.411884
1123.392518,-9326.594869,0.000000,222.061783
1123.392829,-8068.244768,383.047749,1554.432478
1123.393141,-8660.409521,0.000000,148.041188
1123.393452,-7772.162391,0.000000,888.247130
1123.393763,-8660.409521,153.219100,148.041188
1123.394074,-7994.224174,0.000000,-0.000000
1123.394386,-9104.533087,-306.438199,814.226536
1123.394697,-9400.615463,-306.438199,296.082377
1123.395008,-9178.553681,-229.828649,1184.329507
1123.395319,-9622.677246,-689.485948,-296.082377
1123.395631,-9104.533087,-459.657299,1184.329507
1123.395942,-9770.718434,383.047749,-74.020594
1123.396253,-9104.533087,0.000000,518.144159
1123.396564,-9252.574275,-229.828649,-74.020594
1123.396876,-8586.388927,229.828649,296.082377
1123.397187,-8586.388927,0.000000,370.102971
1123.397498,-8808.450710,-229.828649,-0.000000
1123.397809,-8586.388927,-153.219100,666.185348
1123.398121,-9252.574275,0.000000,-370.102971
1123.398432,-9178.553681,536.266849,1110.308913
1123.398743,-9992.780217,229.828649,-666.185348
1123.399054,-9326.594869,995.924147,592.164754
1123.399366,-9622.677246,76.609550,-518.144159
1123.399677,-8660.409521,689.485948,444.123565
1123.399988,-9326.594869,-229.828649,-222.061783
1123.400299,-8512.368333,76.609550,370.102971
1123.400611,-8438.347739,-383.047749,592.164754
1123.400922,-8734.430116,0.000000,-0.000000
1123.401233,-8142.265362,0.000000,962.267725
1123.401544,-8512.368333,306.438199,-148.041188
1123.401856,-8660.409521,-153.219100,1036.288319
1123.402167,-9400.615463,-306.438199,-0.000000
1123.402478,-9030.512492,-153.219100,888.247130
1123.402789,-9548.656652,153.219100,-0.000000
1123.403101,-8586.388927,383.047749,666.185348
1123.403412,-9252.574275,-306.438199,592.164754
1123.403723,-8734.430116,76.609550,296.082377
1123.404034,-8586.388927,76.609550,1036.288319
1123.404346,-8438.347739,0.000000,-370.102971
1123.404657,-8660.409521,0.000000,1184.329507
1123.404968,-9326.594869,-459.657299,-0.000000
1123.405279,-8808.450710,-459.657299,1406.391290
1123.405591,-9474.636058,0.000000,518.144159
1123.405902,-8660.409521,306.438199,1480.411884
1123.406213,-9400.615463,0.000000,296.082377
1123.406524,-8438.347739,-383.047749,1480.411884
1123.406836,-8586.388927,-306.438199,1184.329507
1123.407147,-8586.388927,0.000000,814.226536
1123.407458,-8438.347739,153.219100,1332.370696
1123.407769,-8364.327145,229.828649,222.061783
1123.408081,-8216.285956,153.219100,1110.308913
1123.408392,-8808.450710,459.657299,-0.000000
1123.408703,-8290.306550,1149.143247,1332.370696
1123.409015,-9474.636058,0.000000,370.102971
1123.409326,-8956.491898,-153.219100,1480.411884
1123.409637,-9474.636058,0.000000,666.185348
1123.409948,-9252.574275,76.609550,740.205942
1123.410260,-8882.471304,0.000000,1258.350101
1123.410571,-8808.450710,76.609550,592.164754
1123.410882,-8512.368333,-229.828649,1258.350101
1123.411194,-8660.409521,-1072.533697,-0.000000
1123.411505,-7920.203579,-612.876398,962.267725
1123.411816,-8808.450710,-383.047749,-148.041188
1123.412127,-8438.347739,0.000000,962.267725
1123.412439,-9178.553681,-459.657299,-74.020594
1123.412750,-8808.450710,-229.828649,444.123565
1123.413061,-9474.636058,-306.438199,222.061783
1123.413373,-9252.574275,-229.828649,222.061783
1123.413684,-9326.594869,-689.485948,814.226536
1123.413995,-9622.677246,-306.438199,-296.082377
1123.414307,-9326.594869,-229.828649,1110.308913
1123.414618,-9474.636058,76.609550,-370.102971
1123.414929,-8586.388927,306.438199,1036.288319
1123.415240,-9104.533087,0.000000,-814.226536
1123.415552,-7920.203579,459.657299,592.164754
1123.415863,-9252.574275,689.485948,-370.102971
1123.416174,-8956.491898,842.705048,-222.061783
1123.416486,-9548.656652,689.485948,-370.102971
1123.416797,-9104.533087,536.266849,-0.000000
1123.417108,-9252.574275,76.609550,592.164754
1123.417420,-9326.594869,76.609550,-222.061783
1123.417731,-8882.471304,153.219100,1184.329507
1123.418042,-9474.636058,0.000000,-74.020594
1123.418353,-8438.347739,306.438199,1406.391290
1123.418665,-9252.574275,-306.438199,-222.061783
1123.418976,-8438.347739,76.609550,740.205942
1123.419287,-8956.491898,-383.047749,-74.020594
1123.419599,-8734.430116,0.000000,-0.000000
1123.419910,-9252.574275,-383.047749,518.144159
1123.420221,-9474.636058,0.000000,-0.000000
1123.420532,-9252.574275,0.000000,1184.329507
1123.420844,-9178.553681,-536.266849,-0.000000
1123.421155,-8660.409521,-306.438199,1480.411884
1123.421466,-9030.512492,-459.657299,-0.000000
1123.421778,-8438.347739,-229.828649,1480.411884
1123.422089,-8364.327145,-153.219100,370.102971
1123.422400,-7476.080014,0.000000,888.247130
1123.422712,-8660.409521,-383.047749,296.082377
1123.423023,-7772.162391,229.828649,666.185348
1123.423334,-9030.512492,-229.828649,518.144159
1123.423645,-9030.512492,0.000000,-0.000000
1123.423957,-9400.615463,-306.438199,1332.370696
1123.424268,-9844.739029,0.000000,-0.000000
1123.424579,-9326.594869,-229.828649,1850.514855
1123.424891,-9474.636058,-766.095498,222.061783
1123.425202,-8142.265362,-306.438199,1998.556043
1123.425513,-8808.450710,-306.438199,444.123565
1123.425825,-8438.347739,459.657299,1480.411884
1123.426136,-8290.306550,-306.438199,740.205942
1123.426447,-8660.409521,0.000000,592.164754
1123.426758,-8438.347739,153.219100,888.247130
1123.427070,-8882.471304,153.219100,148.041188
1123.427381,-9030.512492,0.000000,1184.329507
1123.427692,-9474.636058,383.047749,-444.123565
1123.428004,-9030.512492,0.000000,1258.350101
1123.428315,-9400.615463,0.000000,-0.000000
1123.428626,-9104.533087,0.000000,666.185348
1123.428937,-9622.677246,0.000000,148.041188
1123.429249,-8586.388927,76.609550,962.267725
1123.429560,-8512.368333,-383.047749,518.144159
1123.429871,-8216.285956,76.609550,370.102971
1123.430183,-8216.285956,0.000000,592.164754
1123.430494,-8512.368333,-842.705048,-370.102971
1123.430805,-8290.306550,-153.219100,1110.308913
1123.431117,-8808.450710,-306.438199,-592.164754
1123.431428,-8808.450710,-229.828649,962.267725
1123.431739,-9474.636058,-536.266849,-74.020594
1123.432050,-9252.574275,-306.438199,1036.288319
1123.432362,-9918.759623,-383.047749,296.082377
1123.432673,-9400.615463,-689.485948,518.144159
1123.432984,-9326.594869,0.000000,740.205942
1123.433296,-8808.450710,0.000000,-0.000000
1123.433607,-8660.409521,153.219100,888.247130
1123.433918,-9030.512492,229.828649,-740.205942
1123.434230,-8438.347739,536.266849,666.185348
1123.434541,-8956.491898,229.828649,-592.164754
1123.434852,-8512.368333,842.705048,962.267725
1123.435163,-9474.636058,0.000000,-740.205942
1123.435475,-8956.491898,919.314598,370.102971
1123.435786,-9326.594869,-383.047749,370.102971
1123.436097,-9030.512492,-229.828649,592.164754
1123.436409,-9178.553681,-842.705048,814.226536
1123.436720,-9030.512492,-383.047749,296.082377
1123.437031,-8956.491898,-689.485948,962.267725
1123.437343,-8956.491898,-612.876398,-0.000000
1123.437654,-7920.203579,0.000000,1110.308913
1123.437965,-8660.409521,-383.047749,-370.102971
1123.438276,-8290.306550,0.000000,1036.288319
1123.438588,-9326.594869,-536.266849,-74.020594
1123.438899,-8660.409521,-229.828649,666.185348
1123.439210,-9178.553681,0.000000,666.185348
1123.439522,-8734.430116,0.000000,518.144159
1123.439833,-9030.512492,-536.266849,1406.391290
1123.440144,-9252.574275,-459.657299,-0.000000
1123.440455,-8216.285956,0.000000,1480.411884
1123.440767,-8660.409521,-306.438199,-74.020594
1123.441078,-8586.388927,-153.219100,1406.391290
1123.441389,-8956.491898,-153.219100,-74.020594
1123.441701,-8660.409521,0.000000,888.247130
1123.442012,-9252.574275,0.000000,444.123565
1123.442323,-8512.368333,612.876398,1036.288319
1123.442635,-9178.553681,842.705048,592.164754
1123.442946,-9104.533087,766.095498,962.267725
1123.443257,-9326.594869,-383.047749,1406.391290
1123.443568,-9696.697840,0.000000,296.082377
1123.443880,-8808.450710,229.828649,1850.514855
1123.444191,-9474.636058,-153.219100,-0.000000
1123.444502,-8586.388927,153.219100,1554.432478
1123.444814,-8956.491898,-306.438199,-148.041188
1123.445125,-8068.244768,459.657299,962.267725
1123.445436,-8586.388927,0.000000,-0.000000
1123.445748,-8438.347739,0.000000,814.226536
1123.446059,-8882.471304,0.000000,666.185348
1123.446370,-8882.471304,76.609550,296.082377
1123.446681,-8512.368333,-153.219100,1628.453072
1123.446993,-8882.471304,-229.828649,-0.000000
1123.447304,-8364.327145,-536.266849,1850.514855
1123.447615,-8660.409521,-536.266849,-0.000000
1123.447927,-8142.265362,-459.657299,1480.411884
1123.448238,-8882.471304,-383.047749,666.185348
1123.448549,-8068.244768,-153.219100,814.226536
1123.448860,-8734.430116,-842.705048,444.123565
1123.449172,-8586.388927,-612.876398,222.061783
1123.449483,-8808.450710,-536.266849,444.123565
1123.449794,-8956.491898,0.000000,-444.123565
1123.450106,-8586.388927,-383.047749,1184.329507
1123.450417,-8956.491898,-459.657299,-222.061783
1123.450728,-8956.491898,-153.219100,962.267725
1123.451040,-9548.656652,-229.828649,-148.041188
1123.451351,-8882.471304,76.609550,888.247130
1123.451662,-9474.636058,0.000000,-74.020594
1123.451973,-8956.491898,0.000000,814.226536
1123.452285,-9030.512492,-383.047749,370.102971
1123.452596,-9474.636058,306.438199,-518.144159
1123.452907,-9252.574275,842.705048,370.102971
1123.453219,-9474.636058,689.485948,-444.123565
1123.453530,-9104.533087,536.266849,592.164754
1123.453841,-9474.636058,383.047749,-592.164754
1123.454153,-8734.430116,842.705048,1036.288319
1123.454464,-9918.759623,0.000000,-148.041188
1123.454775,-8438.347739,689.485948,1110.308913
1123.455086,-8882.471304,306.438199,222.061783
1123.455398,-9178.553681,0.000000,592.164754
1123.455709,-8734.430116,-459.657299,814.226536
1123.456020,-9104.533087,0.000000,-74.020594
1123.456332,-8956.491898,153.219100,1184.329507
1123.456643,-9104.533087,-76.609550,-74.020594
1123.456954,-8956.491898,76.609550,1036.288319
1123.457265,-8808.450710,0.000000,222.061783
1123.457577,-8068.244768,0.000000,1110.308913
1123.457888,-8512.368333,-153.219100,222.061783
1123.458199,-7994.224174,0.000000,1110.308913
1123.458511,-8438.347739,-383.047749,962.267725
1123.458822,-8216.285956,-76.609550,814.226536
1123.459133,-8808.450710,-383.047749,1184.329507
1123.459445,-8660.409521,0.000000,444.123565
1123.459756,-8956.491898,-995.924147,1702.473667
1123.460067,-9326.594869,-459.657299,222.061783
1123.460378,-8734.430116,-229.828649,1554.432478
1123.460690,-9326.594869,-306.438199,-148.041188
1123.461001,-8290.306550,153.219100,1406.391290
1123.461312,-8956.491898,0.000000,222.061783
1123.461624,-8216.285956,536.266849,962.267725
1123.461935,-8512.368333,-306.438199,740.205942
1123.462246,-8216.285956,0.000000,518.144159
1123.462558,-8660.409521,-153.219100,1258.350101
1123.462869,-9252.574275,0.000000,-74.020594
1123.463180,-8882.471304,229.828649,1332.370696
1123.463491,-9622.677246,-229.828649,-74.020594
1123.463803,-9104.533087,229.828649,1332.370696
1123.464114,-9326.594869,-459.657299,-0.000000
1123.464425,-8882.471304,0.000000,370.102971
1123.464737,-9104.533087,0.000000,370.102971
1123.465048,-9178.553681,76.609550,148.041188
1123.465359,-9474.636058,229.828649,962.267725
1123.465670,-8956.491898,383.047749,222.061783
1123.465982,-8808.450710,0.000000,1258.350101
1123.466293,-9326.594869,0.000000,-148.041188
1123.466604,-8586.388927,0.000000,1406.391290
1123.466916,-9030.512492,0.000000,-222.061783
1123.467227,-8660.409521,-919.314598,740.205942
1123.467538,-9252.574275,-612.876398,-74.020594
1123.467850,-8882.471304,-383.047749,296.082377
1123.468161,-9622.677246,-612.876398,444.123565
1123.468472,-9252.574275,-306.438199,370.102971
1123.468783,-9252.574275,-383.047749,740.205942
1123.469095,-9104.533087,536.266849,-0.000000
1123.469406,-8586.388927,0.000000,962.267725
1123.469717,-8808.450710,0.000000,-370.102971
1123.470029,-7994.224174,153.219100,1110.308913
1123.470340,-8512.368333,0.000000,-222.061783
1123.470651,-8364.327145,76.609550,1036.288319
1123.470963,-9178.553681,0.000000,-0.000000
1123.471274,-8882.471304,306.438199,444.123565
1123.471585,-9622.677246,-229.828649,222.061783
1123.471896,-8956.491898,229.828649,296.082377
1123.472208,-8734.430116,76.609550,444.123565
1123.472519,-9326.594869,76.609550,-0.000000
1123.472830,-8512.368333,153.219100,1258.350101
1123.473142,-8956.491898,0.000000,-518.144159
1123.473453,-8586.388927,76.609550,1258.350101
1123.473764,-8734.430116,0.000000,-222.061783
1123.474075,-8290.306550,-306.438199,740.205942
1123.474387,-9178.553681,76.609550,296.082377
1123.474698,-8438.347739,0.000000,518.144159
1123.475009,-9178.553681,-612.876398,592.164754
1123.475321,-9474.636058,-383.047749,-0.000000
1123.475632,-9104.533087,76.609550,1480.411884
1123.475943,-9104.533087,229.828649,-148.041188
1123.476255,-9030.512492,229.828649,962.267725
1123.476566,-9030.512492,536.266849,-370.102971
1123.476877,-7772.162391,229.828649,1406.391290
1123.477188,-8808.450710,-383.047749,296.082377
1123.477500,-8882.471304,76.609550,962.267725
1123.477811,-9548.656652,0.000000,666.185348
1123.478122,-9326.594869,0.000000,592.164754
1123.478434,-9178.553681,0.000000,1036.288319
1123.478745,-8956.491898,612.876398,-0.000000
1123.479056,-9252.574275,383.047749,1184.329507
1123.479368,-9252.574275,-383.047749,-370.102971
1123.479679,-8808.450710,0.000000,1480.411884
1123.479990,-9252.574275,0.000000,-0.000000
1123.480301,-8216.285956,536.266849,1480.411884
1123.480613,-8882.471304,-459.657299,-0.000000
1123.480924,-8438.347739,153.219100,592.164754
1123.481235,-8142.265362,229.828649,-0.000000
1123.481547,-8364.327145,919.314598,74.020594
1123.481858,-8808.450710,-306.438199,814.226536
1123.482169,-9030.512492,-153.219100,592.164754
1123.482480,-9178.553681,-459.657299,1110.308913
1123.482792,-9474.636058,-383.047749,-0.000000
1123.483103,-8290.306550,76.609550,1184.329507
1123.483414,-8808.450710,-229.828649,-0.000000
1123.483726,-7994.224174,0.000000,962.267725
1123.484037,-8068.244768,-689.485948,296.082377
1123.484348,-8142.265362,-459.657299,1110.308913
1123.484660,-8734.430116,-383.047749,666.185348
1123.484971,-8660.409521,-306.438199,-0.000000
1123.485282,-8512.368333,-612.876398,666.185348
1123.485593,-8734.430116,-1072.533697,-222.061783
1123.485905,-7920.203579,-612.876398,1332.370696
1123.486216,-9030.512492,-766.095498,-444.123565
1123.486527,-8734.430116,-536.266849,1258.350101
1123.486839,-9548.656652,-383.047749,-74.020594
1123.487150,-9104.533087,76.609550,1036.288319
1123.487461,-9474.636058,0.000000,222.061783
1123.487773,-8956.491898,0.000000,296.082377
1123.488084,-8882.471304,-153.219100,222.061783
1123.488395,-8956.491898,459.657299,-148.041188
1123.488706,-8734.430116,76.609550,740.205942
1123.489018,-9400.615463,306.438199,-740.205942
1123.489329,-9104.533087,229.828649,962.267725
1123.489640,-9770.718434,0.000000,-592.164754
1123.489952,-9326.594869,612.876398,1036.288319
1123.490263,-9696.697840,76.609550,-370.102971
1123.490574,-9326.594869,536.266849,1036.288319
1123.490886,-9400.615463,-612.876398,296.082377
1123.491197,-8216.285956,153.219100,444.123565
1123.491508,-8586.388927,0.000000,740.205942
1123.491819,-8734.430116,76.609550,-222.061783
1123.492131,-8290.306550,0.000000,666.185348
1123.492442,-9178.553681,0.000000,-814.226536
1123.492753,-8586.388927,459.657299,1332.370696
1123.493065,-9474.636058,-459.657299,-518.144159
1123.493376,-9030.512492,229.828649,1332.370696
1123.493687,-9844.739029,0.000000,-0.000000
1123.493998,-8808.450710,-153.219100,814.226536
1123.494310,-8808.450710,-459.657299,888.247130
1123.494621,-8512.368333,0.000000,296.082377
1123.494932,-8290.306550,-306.438199,1480.411884
1123.495244,-8438.347739,-76.609550,-74.020594
1123.495555,-8290.306550,306.438199,1406.391290
1123.495866,-8438.347739,-153.219100,-222.061783
1123.496178,-9030.512492,0.000000,1406.391290
1123.496489,-9252.574275,-229.828649,-0.000000
1123.496800,-8808.450710,76.609550,1184.329507
1123.497111,-9400.615463,0.000000,74.020594
1123.497423,-8808.450710,459.657299,962.267725
1123.497734,-9030.512492,-612.876398,888.247130
1123.498045,-8364.327145,383.047749,592.164754
1123.498357,-8142.265362,229.828649,1702.473667
1123.498668,-8142.265362,-153.219100,-74.020594
1123.498979,-8438.347739,0.000000,1480.411884
1123.499291,-9104.533087,0.000000,-222.061783
1123.499602,-8438.347739,153.219100,1184.329507
1123.499913,-9400.615463,-536.266849,-148.041188
1123.500224,-8364.327145,-153.219100,740.205942
1123.500536,-9326.594869,-536.266849,-0.000000
1123.500847,-9030.512492,0.000000,666.185348
1123.501158,-9030.512492,-536.266849,1258.350101
1123.501470,-9474.636058,-229.828649,296.082377
1123.501781,-9252.574275,0.000000,1850.514855
1123.502092,-9252.574275,0.000000,-0.000000
1123.502403,-7920.203579,306.438199,1628.453072
1123.502715,-8364.327145,153.219100,-444.123565
1123.503026,-7994.224174,153.219100,1036.288319
1123.503337,-8660.409521,-612.876398,-444.123565
1123.503649,-8586.388927,229.828649,-0.000000
1123.503960,-9178.553681,0.000000,148.041188
1123.504271,-9326.594869,-306.438199,-0.000000
1123.504583,-9548.656652,-612.876398,1036.288319
1123.504894,-9696.697840,-459.657299,-0.000000
1123.505205,-9474.636058,-612.876398,888.247130
1123.505516,-9844.739029,-153.219100,-370.102971
1123.505828,-8586.388927,229.828649,1258.350101
1123.506139,-8808.450710,76.609550,-444.123565
1123.506450,-8290.306550,153.219100,888.247130
1123.506762,-8734.430116,76.609550,-74.020594
1123.507073,-8438.347739,612.876398,222.061783
1123.507384,-8586.388927,306.438199,148.041188
1123.507696,-9030.512492,229.828649,-222.061783
1123.508007,-9252.574275,459.657299,1110.308913
1123.508318,-9474.636058,306.438199,-444.123565
1123.508630,-8808.450710,306.438199,1258.350101
1123.508941,-9252.574275,-383.047749,-518.144159
1123.509252,-8512.368333,0.000000,1258.350101
1123.509563,-9030.512492,-459.657299,-222.061783
1123.509875,-8216.285956,0.000000,740.205942
1123.510186,-8216.285956,-536.266849,-0.000000
1123.510497,-8512.368333,0.000000,-0.000000
1123.510809,-8808.450710,0.000000,1036.288319
1123.511120,-8808.450710,-612.876398,-0.000000
1123.511431,-9030.512492,-383.047749,1184.329507
1123.511742,-9252.574275,-229.828649,-296.082377
1123.512054,-8734.430116,153.219100,1628.453072
1123.512365,-9030.512492,-383.047749,-74.020594
1123.512676,-8364.327145,0.000000,1628.453072
1123.512987,-8808.450710,-459.657299,444.123565
1123.513299,-8290.306550,306.438199,962.267725
1123.513610,-8956.491898,-383.047749,888.247130
1123.513921,-8882.471304,0.000000,444.123565
1123.514233,-9178.553681,153.219100,962.267725
1123.514544,-9400.615463,459.657299,-296.082377
1123.514855,-8734.430116,-153.219100,1332.370696
1123.515166,-9326.594869,0.000000,-370.102971
1123.515478,-8956.491898,0.000000,1776.494261
1123.515789,-9474.636058,-153.219100,222.061783
1123.516100,-8734.430116,76.609550,1850.514855
1123.516411,-9104.533087,-153.219100,592.164754
1123.516723,-8290.306550,229.828649,1258.350101
1123.517034,-8808.450710,-536.266849,592.164754
1123.517345,-8882.471304,0.000000,296.082377
1123.517657,-8808.450710,689.485948,1036.288319
1123.517968,-9178.553681,306.438199,-0.000000
1123.518279,-9474.636058,76.609550,1480.411884
1123.518590,-9548.656652,-229.828649,-0.000000
1123.518902,-9030.512492,306.438199,1110.308913
1123.519213,-8956.491898,0.000000,-74.020594
1123.519524,-8290.306550,612.876398,814.226536
1123.519835,-8956.491898,306.438199,592.164754
1123.520147,-7698.141797,612.876398,814.226536
1123.520458,-8068.244768,-689.485948,666.185348
1123.520769,-8438.347739,0.000000,296.082377
1123.521081,-8586.388927,76.609550,1184.329507
1123.521392,-8956.491898,-459.657299,-592.164754
1123.521703,-8290.306550,-536.266849,962.267725
1123.522014,-8660.409521,-919.314598,-370.102971
1123.522326,-8364.327145,-536.266849,1184.329507
1123.522637,-9104.533087,-536.266849,-0.000000
1123.522948,-9178.553681,-536.266849,666.185348
1123.523259,-9326.594869,-536.266849,666.185348
1123.523571,-9104.533087,0.000000,370.102971
1123.523882,-9104.533087,0.000000,962.267725
1123.524193,-8734.430116,-306.438199,-444.123565
1123.524505,-8586.388927,153.219100,962.267725
1123.524816,-8734.430116,229.828649,-814.226536
1123.525127,-9178.553681,383.047749,666.185348
1123.525438,-9770.718434,229.828649,-1184.329507
1123.525750,-9030.512492,612.876398,962.267725
1123.526061,-9326.594869,-153.219100,-518.144159
1123.526372,-8586.388927,229.828649,444.123565
1123.526683,-9030.512492,0.000000,-0.000000
1123.526995,-9178.553681,229.828649,296.082377
1123.527306,-8956.491898,-229.828649,1332.370696
1123.527617,-9474.636058,76.609550,-74.020594
1123.527929,-9178.553681,-459.657299,814.226536
1123.528240,-8956.491898,-306.438199,-370.102971
1123.528551,-8586.388927,-76.609550,962.267725
1123.528862,-9474.636058,-612.876398,-592.164754
1123.529174,-9252.574275,306.438199,666.185348
1123.529485,-9844.739029,-612.876398,-0.000000
1123.529796,-8956.491898,153.219100,518.144159
1123.530107,-9696.697840,-76.609550,592.164754
1123.530419,-8882.471304,0.000000,296.082377
1123.530730,-8734.430116,0.000000,1332.370696
1123.531041,-8364.327145,153.219100,148.041188
1123.531353,-7698.141797,536.266849,1924.535449
1123.531664,-8512.368333,-612.876398,-74.020594
1123.531975,-8142.265362,0.000000,1554.432478
1123.532286,-8956.491898,76.609550,-74.020594
1123.532598,-7772.162391,0.000000,1036.288319
1123.532909,-9178.553681,-153.219100,296.082377
1123.533220,-9104.533087,-383.047749,444.123565
1123.533531,-9474.636058,-229.828649,888.247130
1123.533843,-9474.636058,0.000000,444.123565
1123.534154,-9104.533087,459.657299,1776.494261
1123.534465,-9400.615463,229.828649,-148.041188
1123.534776,-8068.244768,842.705048,2072.576638
1123.535088,-8586.388927,76.609550,-0.000000
1123.535399,-7994.224174,536.266849,1776.494261
1123.535710,-8660.409521,459.657299,-0.000000
1123.536022,-8364.327145,766.095498,1184.329507
1123.536333,-9104.533087,0.000000,666.185348
1123.536644,-8734.430116,0.000000,370.102971
1123.536955,-9326.594869,0.000000,888.247130
1123.537267,-9474.636058,-459.657299,-0.000000
1123.537578,-9104.533087,0.000000,1332.370696
1123.537889,-9252.574275,0.000000,-148.041188
1123.538200,-8660.409521,0.000000,1850.514855
1123.538512,-8734.430116,-459.657299,-0.000000
1123.538823,-7772.162391,0.000000,1332.370696
1123.539134,-8142.265362,0.000000,370.102971
1123.539446,-7846.182985,153.219100,296.082377
1123.539757,-8438.347739,-306.438199,370.102971
1123.540068,-8734.430116,-459.657299,-148.041188
1123.540379,-8660.409521,-459.657299,1110.308913
1123.540691,-9474.636058,-689.485948,-592.164754
1123.541002,-9178.553681,-536.266849,1554.432478
1123.541313,-9622.677246,-612.876398,-296.082377
1123.541624,-9104.533087,-689.485948,1554.432478
1123.541936,-8956.491898,-229.828649,-0.000000
1123.542247,-8660.409521,229.828649,370.102971
1123.542558,-8808.450710,76.609550,-74.020594
1123.542870,-8364.327145,306.438199,370.102971
1123.543181,-8660.409521,0.000000,296.082377
1123.543492,-9104.533087,229.828649,-296.082377
1123.543803,-9030.512492,306.438199,592.164754
1123.544115,-9474.636058,0.000000,-814.226536
1123.544426,-9474.636058,-612.876398,444.123565
1123.544737,-10066.800811,0.000000,-1036.288319
1123.545048,-9326.594869,0.000000,1036.288319
1123.545360,-10066.800811,-766.095498,-222.061783
1123.545671,-9030.512492,-306.438199,1036.288319
1123.545982,-9326.594869,-766.095498,-0.000000
1123.546294,-8882.471304,-536.266849,222.061783
1123.546605,-8438.347739,-842.705048,296.082377
1123.546916,-9030.512492,229.828649,-444.123565
1123.547227,-8438.347739,0.000000,814.226536
1123.547539,-9252.574275,-383.047749,-518.144159
1123.547850,-8882.471304,-306.438199,1332.370696
1123.548161,-9770.718434,-229.828649,-74.020594
1123.548472,-8882.471304,153.219100,1406.391290
1123.548784,-9030.512492,-306.438199,296.082377
1123.549095,-9252.574275,-229.828649,666.185348
1123.549406,-8808.450710,306.438199,296.082377
1123.549718,-8438.347739,383.047749,296.082377
1123.550029,-8660.409521,229.828649,1258.350101
1123.550340,-9104.533087,76.609550,-222.061783
1123.550651,-8586.388927,459.657299,1406.391290
1123.550963,-9030.512492,153.219100,-222.061783
1123.551274,-8068.244768,612.876398,1628.453072
1123.551585,-8882.471304,-689.485948,-0.000000
1123.551896,-8142.265362,0.000000,1628.453072
1123.552208,-8956.491898,-536.266849,518.144159
1123.552519,-8882.471304,0.000000,1332.370696
1123.552830,-9326.594869,0.000000,1258.350101
1123.553142,-8660.409521,153.219100,592.164754
1123.553453,-8586.388927,-459.657299,1332.370696
1123.553764,-8586.388927,0.000000,-148.041188
1123.554075,-8290.306550,1225.752797,1184.329507
1123.554387,-8882.471304,383.047749,-148.041188
1123.554698,-8734.430116,536.266849,1554.432478
1123.555009,-9252.574275,76.609550,-74.020594
1123.555320,-8734.430116,536.266849,1184.329507
1123.555632,-8734.430116,0.000000,592.164754
1123.555943,-8142.265362,229.828649,444.123565
1123.556254,-8438.347739,-153.219100,1110.308913
1123.556566,-8586.388927,-459.657299,444.123565
1123.556877,-8660.409521,-842.705048,1110.308913
1123.557188,-9326.594869,-306.438199,-0.000000
1123.557499,-8364.327145,0.000000,1184.329507
1123.557811,-9030.512492,-459.657299,-444.123565
1123.558122,-8438.347739,0.000000,962.267725
1123.558433,-8956.491898,-383.047749,-222.061783
1123.558744,-8808.450710,-229.828649,222.061783
1123.559056,-9474.636058,0.000000,518.144159
1123.559367,-9474.636058,-229.828649,-0.000000
1123.559678,-9326.594869,-383.047749,814.226536
1123.559990,-9474.636058,-306.438199,-148.041188
1123.560301,-9178.553681,0.000000,1258.350101
1123.560612,-9400.615463,-383.047749,-370.102971
1123.560923,-9326.594869,76.609550,1480.411884
1123.561235,-9474.636058,0.000000,-814.226536
1123.561546,-9030.512492,0.000000,666.185348
1123.561857,-9104.533087,76.609550,-518.144159
1123.562168,-8660.409521,383.047749,148.041188
1123.562480,-8956.491898,-153.219100,-0.000000
1123.562791,-8808.450710,0.000000,-74.020594
1123.563102,-8586.388927,-229.828649,740.205942
1123.563413,-9400.615463,153.219100,-0.000000
1123.563725,-8808.450710,-459.657299,1554.432478
1123.564036,-9252.574275,-766.095498,-370.102971
1123.564347,-8882.471304,0.000000,1258.350101
1123.564659,-8808.450710,-766.095498,-148.041188
1123.564970,-8290.306550,-306.438199,592.164754
1123.565281,-9326.594869,-383.047749,-0.000000
1123.565592,-8734.430116,689.485948,666.185348
1123.565904,-9474.636058,153.219100,222.061783
1123.566215,-8512.368333,-76.609550,148.041188
1123.566526,-8364.327145,383.047749,1184.329507
1123.566837,-8586.388927,0.000000,-370.102971
1123.567149,-8142.265362,229.828649,1184.329507
1123.567460,-8882.471304,229.828649,-444.123565
1123.567771,-8142.265362,612.876398,1480.411884
1123.568083,-9326.594869,-229.828649,-222.061783
1123.568394,-8808.450710,76.609550,1110.308913
1123.568705,-9548.656652,-766.095498,296.082377
1123.569016,-9104.533087,0.000000,444.123565
1123.569328,-9326.594869,-306.438199,1036.288319
1123.569639,-9178.553681,-536.266849,-74.020594
1123.569950,-8808.450710,0.000000,1628.453072
1123.570261,-9400.615463,-306.438199,-74.020594
1123.570573,-9252.574275,0.000000,1554.432478
1123.570884,-8734.430116,-383.047749,-0.000000
1123.571195,-8216.285956,-153.219100,1924.535449
1123.571507,-8734.430116,-689.485948,148.041188
1123.571818,-8364.327145,0.000000,1184.329507
1123.572129,-8956.491898,-306.438199,518.144159
1123.572440,-8808.450710,153.219100,444.123565
1123.572752,-9104.533087,-153.219100,1110.308913
1123.573063,-8956.491898,0.000000,148.041188
1123.573374,-8882.471304,-229.828649,1110.308913
1123.573685,-9474.636058,153.219100,-444.123565
1123.573997,-8290.306550,0.000000,1406.391290
1123.574308,-9178.553681,0.000000,-222.061783
1123.574619,-8290.306550,459.657299,1110.308913
1123.574931,-8734.430116,-383.047749,296.082377
1123.575242,-8364.327145,0.000000,1184.329507
1123.575553,-8364.327145,-229.828649,888.247130
1123.575864,-8364.327145,-459.657299,222.061783
1123.576176,-8364.327145,-689.485948,888.247130
1123.576487,-9400.615463,-612.876398,-222.061783
1123.576798,-8882.471304,-766.095498,962.267725
1123.577109,-9622.677246,-536.266849,-222.061783
1123.577421,-9178.553681,0.000000,1184.329507
1123.577732,-9474.636058,-459.657299,-814.226536
1123.578043,-9030.512492,383.047749,666.185348
1123.578355,-8734.430116,-153.219100,370.102971
1123.578666,-8808.450710,306.438199,222.061783
1123.578977,-8512.368333,306.438199,592.164754
1123.579288,-8882.471304,229.828649,-0.000000
1123.579600,-8956.491898,76.609550,1110.308913
1123.579911,-9326.594869,76.609550,-444.123565
1123.580222,-8882.471304,612.876398,1184.329507
1123.580533,-9104.533087,0.000000,-444.123565
1123.580845,-8660.409521,383.047749,962.267725
1123.581156,-9030.512492,-383.047749,-518.144159
1123.581467,-8882.471304,383.047749,740.205942
1123.581779,-9474.636058,-306.438199,148.041188
1123.582090,-8734.430116,229.828649,370.102971
1123.582401,-8808.450710,-766.095498,592.164754
1123.582712,-8512.368333,-153.219100,-0.000000
1123.583024,-8142.265362,-766.095498,1258.350101
1123.583335,-9400.615463,-153.219100,-592.164754
1123.583646,-8586.388927,76.609550,1554.432478
1123.583957,-9548.656652,-612.876398,-370.102971
1123.584269,-9326.594869,0.000000,1036.288319
1123.584580,-9548.656652,-306.438199,148.041188
1123.584891,-8956.491898,306.438199,592.164754
1123.585203,-8956.491898,-153.219100,296.082377
1123.585514,-8808.450710,536.266849,-148.041188
1123.585825,-8142.265362,-153.219100,1258.350101
1123.586136,-8512.368333,-306.438199,-74.020594
1123.586448,-8586.388927,0.000000,1406.391290
1123.586759,-9400.615463,-459.657299,-296.082377
1123.587070,-8660.409521,-229.828649,1554.432478
1123.587381,-9474.636058,-1072.533697,-74.020594
1123.587693,-8660.409521,-536.266849,1036.288319
1123.588004,-9326.594869,-383.047749,222.061783
1123.588315,-8956.491898,-153.219100,740.205942
1123.588627,-9104.533087,-459.657299,1258.350101
1123.588938,-9400.615463,-306.438199,370.102971
1123.589249,-8660.409521,153.219100,1554.432478
1123.589560,-8734.430116,0.000000,-0.000000
1123.589872,-8290.306550,0.000000,1184.329507
1123.590183,-8660.409521,-153.219100,-592.164754
1123.590494,-7624.121203,842.705048,1110.308913
1123.590805,-9252.574275,-766.095498,-74.020594
1123.591117,-8808.450710,0.000000,1184.329507
1123.591428,-9474.636058,-153.219100,592.164754
1123.591739,-9030.512492,306.438199,740.205942
1123.592051,-8512.368333,229.828649,1332.370696
1123.592362,-8808.450710,0.000000,296.082377
1123.592673,-8290.306550,0.000000,1406.391290
1123.592984,-8438.347739,0.000000,-0.000000
1123.593296,-7920.203579,0.000000,1184.329507
1123.593607,-8734.430116,0.000000,-222.061783
1123.593918,-8660.409521,306.438199,1036.288319
1123.594229,-9326.594869,-229.828649,-148.041188
1123.594541,-8808.450710,612.876398,592.164754
1123.594852,-9030.512492,-153.219100,518.144159
1123.595163,-8956.491898,229.828649,518.144159
1123.595474,-8882.471304,306.438199,1258.350101
1123.595786,-9622.677246,0.000000,-222.061783
1123.596097,-8808.450710,0.000000,1554.432478
1123.596408,-9252.574275,0.000000,-296.082377
1123.596720,-8364.327145,0.000000,1480.411884
1123.597031,-9400.615463,153.219100,-740.205942
1123.597342,-8068.244768,459.657299,666.185348
1123.597653,-8882.471304,383.047749,-0.000000
1123.597965,-8660.409521,459.657299,-0.000000
1123.598276,-9400.615463,0.000000,518.144159
1123.598587,-9400.615463,0.000000,-0.000000
1123.598898,-9326.594869,0.000000,888.247130
1123.599210,-9548.656652,383.047749,-370.102971
1123.599521,-8660.409521,536.266849,1628.453072
1123.599832,-9400.615463,-536.266849,-370.102971
1123.600144,-8660.409521,0.000000,1036.288319
1123.600455,-8808.450710,-383.047749,-148.041188
1123.600766,-8364.327145,229.828649,814.226536
1123.601077,-8438.347739,-306.438199,148.041188
1123.601389,-8364.327145,-229.828649,-0.000000
1123.601700,-8882.471304,-383.047749,518.144159
1123.602011,-8956.491898,76.609550,-222.061783
1123.602322,-9400.615463,-306.438199,1036.288319
1123.602634,-9992.780217,383.047749,-518.144159
1123.602945,-9178.553681,-153.219100,1480.411884
1123.603256,-9326.594869,-536.266849,-0.000000
1123.603568,-8660.409521,-383.047749,1332.370696
1123.603879,-8882.471304,76.609550,148.041188
1123.604190,-8142.265362,995.924147,740.205942
1123.604501,-8734.430116,-689.485948,370.102971
1123.604813,-7846.182985,383.047749,296.082377
1123.605124,-8586.388927,0.000000,1110.308913
1123.605435,-9178.553681,-306.438199,-148.041188
1123.605746,-9178.553681,-153.219100,1332.370696
1123.606058,-9474.636058,-306.438199,-444.123565
1123.606369,-9252.574275,0.000000,1702.473667
1123.606680,-9696.697840,-153.219100,148.041188
1123.606992,-9104.533087,229.828649,1628.453072
1123.607303,-9326.594869,-153.219100,444.123565
1123.607614,-7920.203579,689.485948,1110.308913
1123.607925,-8660.409521,0.000000,518.144159
1123.608237,-8438.347739,0.000000,444.123565
1123.608548,-8438.347739,-229.828649,1036.288319
1123.608859,-8882.471304,306.438199,-0.000000
1123.609170,-8734.430116,689.485948,962.267725
1123.609482,-9252.574275,229.828649,-296.082377
1123.609793,-8956.491898,-229.828649,888.247130
1123.610104,-9474.636058,-459.657299,-74.020594
1123.610416,-8660.409521,229.828649,1036.288319
1123.610727,-9178.553681,229.828649,666.185348
1123.611038,-8586.388927,229.828649,814.226536
1123.611349,-8734.430116,-766.095498,962.267725
1123.611661,-8216.285956,0.000000,222.061783
1123.611972,-7920.203579,536.266849,1258.350101
1123.612283,-8438.347739,0.000000,-222.061783
1123.612594,-8586.388927,76.609550,1110.308913
1123.612906,-9326.594869,-919.314598,-592.164754
1123.613217,-8586.388927,-306.438199,962.267725
1123.613528,-9548.656652,-689.485948,-74.020594
1123.613840,-8956.491898,-459.657299,888.247130
1123.614151,-9474.636058,-766.095498,222.061783
1123.614462,-9252.574275,-919.314598,444.123565
1123.614773,-9326.594869,-612.876398,962.267725
1123.615085,-8956.491898,0.000000,-0.000000
1123.615396,-8808.450710,0.000000,1332.370696
1123.615707,-9104.533087,-612.876398,-592.164754
1123.616018,-8660.409521,153.219100,1258.350101
1123.616330,-9030.512492,536.266849,-0.000000
1123.616641,-8438.347739,995.924147,740.205942
1123.616952,-9326.594869,0.000000,-296.082377
1123.617264,-8734.430116,229.828649,370.102971
1123.617575,-9104.533087,-153.219100,-0.000000
1123.617886,-9178.553681,306.438199,-74.020594
1123.618198,-9326.594869,-229.828649,666.185348
1123.618509,-9030.512492,0.000000,-296.082377
1123.618821,-8512.368333,-229.828649,962.267725
1123.619132,-9178.553681,0.000000,-74.020594
1123.619443,-8660.409521,0.000000,592.164754
1123.619755,-9326.594869,306.438199,-74.020594
1123.620066,-8734.430116,306.438199,814.226536
1123.620377,-9474.636058,-536.266849,148.041188
1123.620689,-8956.491898,-153.219100,444.123565
1123.621000,-8956.491898,0.000000,1110.308913
1123.621311,-8808.450710,0.000000,-0.000000
1123.621623,-8512.368333,-383.047749,1332.370696
1123.621934,-8512.368333,-459.657299,-0.000000
1123.622245,-7994.224174,-76.609550,1776.494261
1123.622557,-8956.491898,-383.047749,222.061783
1123.622868,-8734.430116,0.000000,1406.391290
1123.623180,-9326.594869,0.000000,-0.000000
1123.623491,-8586.388927,153.219100,814.226536
1123.623802,-8586.388927,76.609550,444.123565
1123.624114,-8734.430116,0.000000,-0.000000
1123.624425,-8956.491898,306.438199,740.205942
1123.624736,-8808.450710,0.000000,370.102971
1123.625048,-8586.388927,-229.828649,1776.494261
1123.625359,-9104.533087,-153.219100,-0.000000
1123.625670,-8290.306550,76.609550,1850.514855
1123.625982,-8512.368333,-459.657299,148.041188
1123.626293,-8290.306550,0.000000,1554.432478
1123.626604,-9104.533087,229.828649,-296.082377
1123.626916,-8586.388927,1072.533697,888.247130
1123.627227,-9400.615463,0.000000,370.102971
1123.627538,-9178.553681,0.000000,518.144159
1123.627850,-9104.533087,0.000000,888.247130
1123.628161,-9178.553681,229.828649,-0.000000
1123.628473,-8068.244768,153.219100,1332.370696
1123.628784,-9178.553681,459.657299,-148.041188
1123.629095,-8364.327145,229.828649,1184.329507
1123.629407,-8956.491898,-612.876398,-444.123565
1123.629718,-8438.347739,-306.438199,1258.350101
1123.630029,-9030.512492,-383.047749,-0.000000
1123.630341,-8808.450710,0.000000,148.041188
1123.630652,-9104.533087,-383.047749,444.123565
1123.630963,-9104.533087,-306.438199,-666.185348
1123.631275,-9030.512492,76.609550,740.205942
1123.631586,-9252.574275,-229.828649,-296.082377
1123.631897,-9178.553681,-229.828649,1036.288319
1123.632209,-9326.594869,-383.047749,-74.020594
1123.632520,-8808.450710,229.828649,1406.391290
1123.632832,-9178.553681,-306.438199,-0.000000
1123.633143,-8808.450710,0.000000,962.267725
1123.633454,-9104.533087,0.000000,370.102971
1123.633766,-8956.491898,459.657299,-0.000000
1123.634077,-9104.533087,536.266849,222.061783
1123.634388,-9548.656652,536.266849,-296.082377
1123.634700,-9178.553681,459.657299,740.205942
1123.635011,-9548.656652,0.000000,-740.205942
1123.635322,-8660.409521,229.828649,1036.288319
1123.635634,-9178.553681,689.485948,-370.102971
1123.635945,-8586.388927,229.828649,1036.288319
1123.636256,-8808.450710,-306.438199,518.144159
1123.636568,-8068.244768,-306.438199,1110.308913
1123.636879,-8660.409521,-842.705048,370.102971
1123.637190,-8586.388927,0.000000,222.061783
1123.637502,-8586.388927,-229.828649,814.226536
1123.637813,-8734.430116,0.000000,-222.061783
1123.638125,-8882.471304,0.000000,1406.391290
1123.638436,-9770.718434,-459.657299,-296.082377
1123.638747,-8512.368333,-153.219100,1480.411884
1123.639059,-9400.615463,-229.828649,-0.000000
1123.639370,-8512.368333,76.609550,1406.391290
1123.639681,-8956.491898,-689.485948,222.061783
1123.639993,-8438.347739,-383.047749,518.144159
1123.640304,-8364.327145,0.000000,740.205942
1123.640615,-8068.244768,153.219100,-0.000000
1123.640927,-8512.368333,-229.828649,740.205942
1123.641238,-8734.430116,153.219100,-296.082377
1123.641549,-9030.512492,-306.438199,1184.329507
1123.641861,-9548.656652,-383.047749,-148.041188
1123.642172,-9030.512492,153.219100,1480.411884
1123.642483,-9770.718434,0.000000,-148.041188
1123.642795,-9104.533087,0.000000,1480.411884
1123.643106,-9178.553681,-153.219100,666.185348
1123.643418,-9030.512492,0.000000,444.123565
1123.643729,-9030.512492,229.828649,888.247130
1123.644040,-9030.512492,153.219100,-74.020594
1123.644352,-8882.471304,-306.438199,1110.308913
1123.644663,-9178.553681,0.000000,-74.020594
1123.644974,-8586.388927,383.047749,1332.370696
1123.645286,-9844.739029,-383.047749,-370.102971
1123.645597,-8512.368333,459.657299,1702.473667
1123.645908,-9252.574275,153.219100,-148.041188
1123.646220,-8734.430116,229.828649,888.247130
1123.646531,-9178.553681,-229.828649,592.164754
1123.646842,-8734.430116,229.828649,370.102971
1123.647154,-8882.471304,229.828649,1184.329507
1123.647465,-8438.347739,0.000000,-0.000000
1123.647777,-8438.347739,-153.219100,1036.288319
1123.648088,-8586.388927,536.266849,296.082377
1123.648399,-7772.162391,229.828649,1406.391290
1123.648711,-8586.388927,0.000000,-444.123565
1123.649022,-8586.388927,-612.876398,962.267725
1123.649333,-8956.491898,-536.266849,-74.020594
1123.649645,-9030.512492,0.000000,740.205942
1123.649956,-9178.553681,-383.047749,814.226536
1123.650267,-9400.615463,0.000000,148.041188
1123.650579,-9104.533087,-536.266849,1036.288319
1123.650890,-9474.636058,-383.047749,370.102971
1123.651201,-8512.368333,-306.438199,1332.370696
1123.651513,-8956.491898,-229.828649,-74.020594
1123.651824,-8290.306550,0.000000,1554.432478
1123.652135,-8734.430116,-306.438199,-222.061783
1123.652447,-8438.347739,229.828649,888.247130
1123.652758,-8660.409521,306.438199,-0.000000
1123.653070,-9104.533087,-383.047749,444.123565
1123.653381,-9104.533087,229.828649,-0.000000
1123.653692,-9326.594869,-229.828649,-0.000000
1123.654004,-9104.533087,76.609550,962.267725
1123.654315,-9474.636058,-306.438199,-74.020594
1123.654626,-9326.594869,-76.609550,1258.350101
1123.654938,-9474.636058,-1072.533697,-0.000000
1123.655249,-9104.533087,0.000000,1184.329507
1123.655560,-9104.533087,-612.876398,-0.000000
1123.655872,-8364.327145,0.000000,666.185348
1123.656183,-9104.533087,0.000000,296.082377
1123.656494,-8364.327145,0.000000,370.102971
1123.656806,-9104.533087,-536.266849,518.144159
1123.657117,-9104.533087,153.219100,-0.000000
1123.657429,-8882.471304,383.047749,1258.350101
1123.657740,-9030.512492,0.000000,-222.061783
1123.658051,-9178.553681,306.438199,888.247130
1123.658363,-9178.553681,76.609550,-740.205942
1123.658674,-8364.327145,229.828649,1258.350101
1123.658985,-9030.512492,-459.657299,-0.000000
1123.659297,-8956.491898,0.000000,740.205942
1123.659608,-9104.533087,0.000000,666.185348
1123.659919,-8660.409521,459.657299,-0.000000
1123.660231,-8734.430116,459.657299,666.185348
1123.660542,-8734.430116,153.219100,-222.061783
1123.660853,-8512.368333,76.609550,1332.370696
1123.661165,-9104.533087,-536.266849,-0.000000
1123.661476,-8734.430116,-229.828649,1554.432478
1123.661787,-9400.615463,-306.438199,-0.000000
1123.662099,-8364.327145,229.828649,1776.494261
1123.662410,-8882.471304,-919.314598,-0.000000
1123.662722,-8364.327145,76.609550,962.267725
1123.663033,-9104.533087,-229.828649,-222.061783
1123.663344,-8734.430116,229.828649,296.082377
1123.663656,-9178.553681,-536.266849,1258.350101
1123.663967,-9474.636058,-459.657299,222.061783
1123.664278,-9178.553681,0.000000,1258.350101
1123.664590,-9474.636058,153.219100,-0.000000
1123.664901,-8068.244768,153.219100,1480.411884
1123.665212,-8956.491898,0.000000,-74.020594
1123.665524,-8142.265362,0.000000,1110.308913
1123.665835,-8660.409521,-1149.143247,444.123565
1123.666146,-8586.388927,-306.438199,1184.329507
1123.666458,-8734.430116,-229.828649,1110.308913
1123.666769,-8808.450710,-153.219100,222.061783
1123.667081,-8586.388927,0.000000,888.247130
1123.667392,-8734.430116,-306.438199,-222.061783
1123.667703,-8882.471304,-153.219100,1036.288319
1123.668015,-9252.574275,0.000000,-0.000000
1123.668326,-8956.491898,76.609550,1036.288319
1123.668637,-9474.636058,0.000000,148.041188
1123.668949,-9030.512492,536.266849,962.267725
1123.669260,-9474.636058,153.219100,222.061783
1123.669571,-8660.409521,76.609550,740.205942
1123.669883,-8586.388927,229.828649,518.144159
1123.670194,-9104.533087,1072.533697,-148.041188
1123.670505,-9178.553681,612.876398,888.247130
1123.670817,-9474.636058,0.000000,-592.164754
1123.671128,-8660.409521,383.047749,1036.288319
1123.671439,-9474.636058,-306.438199,-666.185348
1123.671751,-8586.388927,306.438199,814.226536
1123.672062,-8956.491898,153.219100,-370.102971
1123.672374,-8216.285956,306.438199,814.226536
1123.672685,-8956.491898,-995.924147,370.102971
1123.672996,-9030.512492,-383.047749,222.061783
1123.673308,-8956.491898,-229.828649,814.226536
1123.673619,-9030.512492,153.219100,-222.061783
1123.673930,-8364.327145,76.609550,814.226536
1123.674242,-8808.450710,-229.828649,-1110.308913
1123.674553,-8438.347739,153.219100,1184.329507
1123.674864,-9474.636058,-306.438199,-296.082377
1123.675176,-9400.615463,153.219100,592.164754
1123.675487,-9474.636058,229.828649,370.102971
1123.675798,-8512.368333,0.000000,370.102971
1123.676110,-8808.450710,-536.266849,592.164754
1123.676421,-8512.368333,-229.828649,-74.020594
1123.676733,-8216.285956,536.266849,962.267725
1123.677044,-8586.388927,306.438199,-888.247130
1123.677355,-8512.368333,-842.705048,1554.432478
1123.677667,-9030.512492,-1072.533697,-222.061783
1123.677978,-9030.512492,0.000000,1776.494261
1123.678289,-9770.718434,-536.266849,148.041188
1123.678601,-8956.491898,0.000000,1110.308913
1123.678912,-9400.615463,-383.047749,148.041188
1123.679223,-9252.574275,306.438199,444.123565
1123.679535,-9030.512492,76.609550,888.247130
1123.679846,-9178.553681,0.000000,-0.000000
1123.680157,-8660.409521,76.609550,1480.411884
1123.680469,-8808.450710,-153.219100,148.041188
1123.680780,-8364.327145,0.000000,1702.473667
1123.681091,-8734.430116,-153.219100,-74.020594
1123.681403,-8068.244768,306.438199,1258.350101
1123.681714,-8882.471304,-383.047749,-0.000000
1123.682026,-8660.409521,306.438199,888.247130
1123.682337,-9400.615463,0.000000,740.205942
1123.682648,-9252.574275,-229.828649,296.082377
1123.682960,-9326.594869,0.000000,1406.391290
1123.683271,-9326.594869,-229.828649,-0.000000
1123.683582,-8808.450710,0.000000,1850.514855
1123.683894,-9030.512492,0.000000,-74.020594
1123.684205,-7994.224174,0.000000,1258.350101
1123.684516,-8586.388927,0.000000,-370.102971
1123.684828,-7698.141797,229.828649,1406.391290
1123.685139,-8438.347739,-383.047749,370.102971
1123.685450,-8364.327145,-153.219100,592.164754
1123.685762,-8808.450710,-536.266849,666.185348
1123.686073,-9474.636058,-229.828649,-74.020594
1123.686385,-9030.512492,-536.266849,1184.329507
1123.686696,-9400.615463,0.000000,-444.123565
1123.687007,-8956.491898,306.438199,1258.350101
1123.687319,-9400.615463,-306.438199,-296.082377
1123.687630,-8512.368333,383.047749,1480.411884
1123.687941,-8882.471304,153.219100,-74.020594
1123.688253,-8290.306550,536.266849,1036.288319
1123.688564,-8734.430116,0.000000,-0.000000
1123.688875,-8438.347739,0.000000,370.102971
1123.689187,-8956.491898,689.485948,518.144159
1123.689498,-9104.533087,612.876398,-0.000000
1123.689809,-9326.594869,383.047749,666.185348
1123.690121,-9918.759623,0.000000,-740.205942
1123.690432,-9104.533087,0.000000,1036.288319
1123.690743,-9474.636058,-689.485948,-370.102971
1123.691055,-8882.471304,-459.657299,962.267725
1123.691366,-9178.553681,-459.657299,-222.061783
1123.691678,-9252.574275,229.828649,888.247130
1123.691989,-8808.450710,-383.047749,370.102971
1123.692300,-8512.368333,76.609550,-0.000000
1123.692612,-8882.471304,0.000000,666.185348
1123.692923,-8660.409521,153.219100,-296.082377
1123.693234,-9030.512492,0.000000,592.164754
1123.693546,-9474.636058,229.828649,-222.061783
1123.693857,-9104.533087,76.609550,1110.308913
1123.694168,-9548.656652,-153.219100,-296.082377
1123.694480,-8438.347739,-459.657299,1258.350101
1123.694791,-9178.553681,-306.438199,-0.000000
1123.695102,-8290.306550,0.000000,962.267725
1123.695414,-8882.471304,-612.876398,740.205942
1123.695725,-8586.388927,-459.657299,222.061783
1123.696037,-8660.409521,-459.657299,1036.288319
1123.696348,-8512.368333,0.000000,-148.041188
1123.696659,-8734.430116,306.438199,1036.288319
1123.696971,-9030.512492,0.000000,-222.061783
1123.697282,-8882.471304,76.609550,1554.432478
1123.697593,-9474.636058,-229.828649,148.041188
1123.697905,-8882.471304,0.000000,1480.411884
1123.698216,-9252.574275,-229.828649,740.205942
1123.698527,-8512.368333,153.219100,1184.329507
1123.698839,-8586.388927,-766.095498,740.205942
1123.699150,-9030.512492,-459.657299,222.061783
1123.699461,-8068.244768,919.314598,1110.308913
1123.699773,-8882.471304,459.657299,-0.000000
1123.700084,-8734.430116,153.219100,1332.370696
1123.700395,-9178.553681,-383.047749,-0.000000
1123.700707,-8808.450710,229.828649,962.267725
1123.701018,-9030.512492,459.657299,-0.000000
1123.701330,-8142.265362,459.657299,962.267725
1123.701641,-8660.409521,153.219100,370.102971
1123.701952,-8586.388927,-229.828649,814.226536
1123.702264,-8586.388927,-766.095498,1036.288319
1123.702575,-8364.327145,-229.828649,-0.000000
1123.702886,-8660.409521,0.000000,1184.329507
1123.703198,-9030.512492,-459.657299,-444.123565
1123.703509,-8290.306550,-383.047749,1184.329507
1123.703820,-9474.636058,0.000000,-814.226536
1123.704132,-8438.347739,842.705048,1036.288319
1123.704443,-9400.615463,-153.219100,-444.123565
1123.704754,-9252.574275,-229.828649,740.205942
1123.705066,-9104.533087,-383.047749,740.205942
1123.705377,-9252.574275,-306.438199,148.041188
1123.705689,-9104.533087,0.000000,1110.308913
1123.706000,-9326.594869,0.000000,-814.226536
1123.706311,-8734.430116,76.609550,1406.391290
1123.706623,-9104.533087,-689.485948,-74.020594
1123.706934,-8956.491898,229.828649,740.205942
1123.707245,-9548.656652,76.609550,-518.144159
1123.707557,-8660.409521,306.438199,666.185348
1123.707868,-9178.553681,-383.047749,-148.041188
1123.708179,-8882.471304,612.876398,222.061783
1123.708491,-9178.553681,76.609550,148.041188
1123.708802,-9252.574275,229.828649,222.061783
1123.709113,-8882.471304,76.609550,888.247130
1123.709425,-9104.533087,-306.438199,-74.020594
1123.709736,-9030.512492,-536.266849,1184.329507
1123.710047,-9252.574275,-919.314598,-0.000000
1123.710359,-8734.430116,-689.485948,1036.288319
1123.710670,-9474.636058,-536.266849,-0.000000
1123.710982,-8882.471304,0.000000,814.226536
1123.711293,-9178.553681,0.000000,222.061783
1123.711604,-8808.450710,153.219100,148.041188
1123.711916,-8586.388927,153.219100,1036.288319
1123.712227,-8438.347739,0.000000,-0.000000
1123.712538,-8290.306550,0.000000,1110.308913
1123.712850,-8734.430116,-306.438199,-444.123565
1123.713161,-8364.327145,459.657299,1628.453072
1123.713472,-8808.450710,-612.876398,-0.000000
1123.713784,-8512.368333,-153.219100,1184.329507
1123.714095,-9548.656652,76.609550,-296.082377
1123.714406,-9400.615463,229.828649,814.226536
1123.714718,-9622.677246,0.000000,444.123565
1123.715029,-9400.615463,153.219100,296.082377
1123.715340,-9104.533087,0.000000,1036.288319
1123.715652,-8956.491898,536.266849,222.061783
1123.715963,-8512.368333,689.485948,1332.370696
1123.716274,-8438.347739,766.095498,-222.061783
1123.716586,-8216.285956,536.266849,1554.432478
1123.716897,-8956.491898,-383.047749,-0.000000
1123.717208,-8808.450710,153.219100,1184.329507
1123.717519,-9178.553681,0.000000,296.082377
1123.717831,-9178.553681,229.828649,888.247130
1123.718142,-9474.636058,-919.314598,592.164754
1123.718453,-9104.533087,-766.095498,444.123565
1123.718765,-8956.491898,0.000000,888.247130
1123.719076,-8734.430116,76.609550,-0.000000
1123.719387,-8512.368333,0.000000,1480.411884
1123.719699,-9030.512492,0.000000,-0.000000
1123.720010,-8290.306550,76.609550,1628.453072
1123.720321,-8734.430116,0.000000,-74.020594
1123.720633,-7846.182985,0.000000,1110.308913
1123.720944,-8216.285956,-383.047749,370.102971
1123.721255,-8068.244768,0.000000,740.205942
1123.721567,-8734.430116,-1072.533697,962.267725
1123.721878,-8956.491898,-919.314598,148.041188
1123.722189,-8660.409521,-766.095498,1406.391290
1123.722501,-9474.636058,-536.266849,-444.123565
1123.722812,-9104.533087,-459.657299,1480.411884
1123.723123,-9252.574275,76.609550,-148.041188
1123.723435,-8956.491898,76.609550,1110.308913
1123.723746,-8882.471304,-306.438199,-0.000000
1123.724057,-8586.388927,306.438199,740.205942
1123.724369,-9030.512492,76.609550,148.041188
1123.724680,-8808.450710,153.219100,222.061783
1123.724991,-9030.512492,-229.828649,740.205942
1123.725303,-9252.574275,0.000000,-74.020594
1123.725614,-9326.594869,0.000000,814.226536
1123.725925,-9696.697840,76.609550,-814.226536
1123.726236,-9474.636058,0.000000,1036.288319
1123.726548,-9844.739029,0.000000,-518.144159
1123.726859,-9030.512492,229.828649,1184.329507
1123.727170,-9622.677246,-536.266849,-0.000000
1123.727482,-8734.430116,229.828649,740.205942
1123.727793,-8808.450710,153.219100,222.061783
1123.728104,-9030.512492,229.828649,-0.000000
1123.728416,-8364.327145,306.438199,888.247130
1123.728727,-8956.491898,383.047749,-296.082377
1123.729038,-8808.450710,153.219100,1258.350101
1123.729350,-9178.553681,153.219100,-296.082377
1123.729661,-9178.553681,0.000000,1036.288319
1123.729972,-9474.636058,306.438199,-222.061783
1123.730284,-8364.327145,689.485948,888.247130
1123.730595,-8586.388927,0.000000,-0.000000
1123.730906,-8438.347739,-306.438199,518.144159
1123.731218,-8512.368333,0.000000,518.144159
1123.731529,-8068.244768,0.000000,-0.000000
1123.731840,-8290.306550,-229.828649,1406.391290
1123.732152,-8882.471304,-459.657299,-0.000000
1123.732463,-8882.471304,-383.047749,1184.329507
1123.732774,-9252.574275,0.000000,518.144159
1123.733086,-8586.388927,0.000000,1628.453072
1123.733397,-9474.636058,153.219100,-0.000000
1123.733708,-9326.594869,0.000000,1332.370696
1123.734019,-9326.594869,-229.828649,740.205942
1123.734331,-9252.574275,0.000000,740.205942
1123.734642,-8660.409521,306.438199,1258.350101
1123.734953,-8290.306550,229.828649,148.041188
1123.735265,-8290.306550,-383.047749,1184.329507
1123.735576,-8438.347739,76.609550,-222.061783
1123.735887,-7772.162391,919.314598,1406.391290
1123.736199,-9030.512492,-306.438199,-148.041188
1123.736510,-8956.491898,-76.609550,1480.411884
1123.736821,-9548.656652,-842.705048,296.082377
1123.737133,-9252.574275,-153.219100,962.267725
1123.737444,-9326.594869,153.219100,740.205942
1123.737755,-8586.388927,0.000000,296.082377
1123.738067,-9104.533087,-612.876398,1258.350101
1123.738378,-8586.388927,-153.219100,222.061783
1123.738689,-8586.388927,-459.657299,1332.370696
1123.739001,-8882.471304,0.000000,-148.041188
1123.739312,-8586.388927,153.219100,1258.350101
1123.739623,-9030.512492,-153.219100,-444.123565
1123.739935,-8290.306550,0.000000,518.144159
1123.740246,-9030.512492,-153.219100,-0.000000
1123.740557,-8956.491898,0.000000,370.102971
1123.740869,-9992.780217,-306.438199,444.123565
1123.741180,-9622.677246,-153.219100,296.082377
1123.741491,-9178.553681,229.828649,1258.350101
1123.741802,-9474.636058,0.000000,-370.102971
1123.742114,-8364.327145,306.438199,1332.370696
1123.742425,-9030.512492,0.000000,-814.226536
1123.742736,-8216.285956,1149.143247,1184.329507
1123.743048,-8956.491898,153.219100,-740.205942
1123.743359,-8660.409521,536.266849,518.144159
1123.743670,-9474.636058,0.000000,-0.000000
1123.743982,-9104.533087,306.438199,444.123565
1123.744293,-9326.594869,0.000000,444.123565
1123.744604,-9030.512492,0.000000,-0.000000
1123.744916,-8734.430116,0.000000,962.267725
1123.745227,-9104.533087,-995.924147,-74.020594
1123.745538,-8586.388927,-383.047749,1628.453072
1123.745850,-8956.491898,-536.266849,-74.020594
1123.746161,-8734.430116,-306.438199,1110.308913
1123.746472,-8512.368333,-612.876398,-0.000000
1123.746784,-7846.182985,0.000000,370.102971
1123.747095,-8660.409521,153.219100,148.041188
1123.747406,-8734.430116,-306.438199,-0.000000
1123.747718,-9474.636058,-153.219100,370.102971
1123.748029,-9326.594869,76.609550,-0.000000
1123.748340,-9030.512492,459.657299,1702.473667
1123.748652,-9252.574275,-306.438199,-222.061783
1123.748963,-8660.409521,0.000000,1258.350101
1123.749274,-8956.491898,0.000000,-222.061783
1123.749585,-7772.162391,306.438199,740.205942
1123.749897,-8956.491898,-153.219100,-296.082377
1123.750208,-8808.450710,-383.047749,888.247130
1123.750519,-8956.491898,-689.485948,740.205942
1123.750831,-9474.636058,-153.219100,148.041188
1123.751142,-9400.615463,0.000000,1110.308913
1123.751453,-9622.677246,-383.047749,-222.061783
1123.751765,-9252.574275,-229.828649,1850.514855
1123.752076,-9400.615463,0.000000,-0.000000
1123.752387,-8438.347739,229.828649,1628.453072
1123.752699,-9104.533087,-306.438199,-0.000000
1123.753010,-8438.347739,536.266849,1406.391290
1123.753321,-8956.491898,-459.657299,148.041188
1123.753633,-8364.327145,229.828649,518.144159
1123.753944,-8438.347739,612.876398,592.164754
1123.754255,-8586.388927,459.657299,-0.000000
1123.754567,-9104.533087,306.438199,1184.329507
1123.754878,-8882.471304,0.000000,-0.000000
1123.755189,-9030.512492,153.219100,1110.308913
1123.755501,-9326.594869,0.000000,222.061783
1123.755812,-8734.430116,0.000000,1480.411884
1123.756123,-9400.615463,-459.657299,592.164754
1123.756435,-8290.306550,0.000000,1332.370696
1123.756746,-8438.347739,-459.657299,666.185348
1123.757057,-7920.203579,383.047749,740.205942
1123.757369,-7624.121203,153.219100,888.247130
1123.757680,-7402.059420,0.000000,-222.061783
1123.757991,-7772.162391,-153.219100,888.247130
1123.758302,-8734.430116,-459.657299,-370.102971
1123.758614,-8808.450710,0.000000,1332.370696
1123.758925,-9844.739029,-842.705048,-74.020594
1123.759236,-8956.491898,-1149.143247,1702.473667
1123.759548,-9622.677246,-536.266849,-148.041188
1123.759859,-9326.594869,153.219100,740.205942
1123.760170,-9030.512492,-536.266849,814.226536
1123.760482,-8808.450710,0.000000,148.041188
1123.760793,-8068.244768,0.000000,1110.308913
1123.761104,-8808.450710,-383.047749,-370.102971
1123.761416,-8660.409521,-153.219100,1110.308913
1123.761727,-9326.594869,-153.219100,-592.164754
1123.762038,-9178.553681,459.657299,962.267725
1123.762350,-9918.759623,-306.438199,-518.144159
1123.762661,-9326.594869,229.828649,888.247130
1123.762972,-9918.759623,-306.438199,-222.061783
1123.763284,-9400.615463,-229.828649,370.102971
1123.763595,-9622.677246,-842.705048,444.123565
1123.763906,-9548.656652,0.000000,-0.000000
1123.764218,-8660.409521,-306.438199,1184.329507
1123.764529,-10214.842000,-459.657299,-296.082377
1123.764840,-8586.388927,-153.219100,592.164754
1123.765152,-9326.594869,76.609550,-888.247130
1123.765463,-8512.368333,536.266849,1036.288319
1123.765774,-9252.574275,0.000000,-592.164754
1123.766085,-8956.491898,689.485948,592.164754
1123.766397,-9326.594869,153.219100,444.123565
1123.766708,-8586.388927,153.219100,518.144159
1123.767019,-8808.450710,153.219100,1480.411884
1123.767331,-8734.430116,0.000000,-0.000000
1123.767642,-8216.285956,0.000000,1554.432478
1123.767953,-8512.368333,0.000000,-0.000000
1123.768265,-8438.347739,0.000000,1480.411884
1123.768576,-9252.574275,-306.438199,-74.020594
1123.768887,-8956.491898,306.438199,962.267725
1123.769199,-9030.512492,0.000000,-148.041188
1123.769510,-8364.327145,153.219100,518.144159
1123.769821,-8956.491898,0.000000,296.082377
1123.770133,-8956.491898,153.219100,740.205942
1123.770444,-8734.430116,0.000000,1406.391290
1123.770755,-8512.368333,-306.438199,296.082377
1123.771067,-8364.327145,153.219100,2368.659014
1123.771378,-8438.347739,-229.828649,-0.000000
1123.771689,-8586.388927,-306.438199,1554.432478
1123.772001,-8882.471304,-306.438199,-0.000000
1123.772312,-7772.162391,1072.533697,1480.411884
1123.772623,-9104.533087,0.000000,-0.000000
1123.772935,-9030.512492,153.219100,1110.308913
1123.773246,-9474.636058,-153.219100,666.185348
1123.773557,-9104.533087,766.095498,740.205942
1123.773868,-8734.430116,919.314598,1184.329507
1123.774180,-8956.491898,0.000000,-74.020594
1123.774491,-8290.306550,76.609550,2072.576638
1123.774802,-8586.388927,-383.047749,148.041188
1123.775114,-8364.327145,-153.219100,1628.453072
1123.775425,-9104.533087,0.000000,-0.000000
1123.775736,-8882.471304,0.000000,814.226536
1123.776048,-9104.533087,-842.705048,-0.000000
1123.776359,-8882.471304,0.000000,370.102971
1123.776670,-9104.533087,-766.095498,740.205942
1123.776982,-9400.615463,-153.219100,-148.041188
1123.777293,-9622.677246,-383.047749,1036.288319
1123.777604,-9622.677246,-306.438199,-74.020594
1123.777916,-9326.594869,0.000000,1406.391290
1123.778227,-9844.739029,-229.828649,-222.061783
1123.778538,-8586.388927,0.000000,1332.370696
1123.778850,-8808.450710,-383.047749,-370.102971
1123.779161,-8660.409521,229.828649,444.123565
1123.779472,-9326.594869,76.609550,-296.082377
1123.779784,-9030.512492,459.657299,-0.000000
1123.780095,-9104.533087,153.219100,444.123565
1123.780406,-9326.594869,76.609550,-592.164754
1123.780718,-9178.553681,153.219100,518.144159
1123.781029,-9030.512492,229.828649,-888.247130
1123.781340,-8586.388927,306.438199,1258.350101
1123.781652,-9252.574275,-306.438199,-74.020594
1123.781963,-8142.265362,-229.828649,1406.391290
1123.782274,-8808.450710,-459.657299,148.041188
1123.782585,-8586.388927,0.000000,740.205942
1123.782897,-8364.327145,-383.047749,740.205942
1123.783208,-8512.368333,0.000000,-222.061783
1123.783519,-9178.553681,76.609550,592.164754
1123.783831,-9548.656652,0.000000,-518.144159
1123.784142,-9178.553681,153.219100,1184.329507
1123.784453,-9474.636058,0.000000,-296.082377
1123.784765,-8438.347739,229.828649,1776.494261
1123.785076,-9030.512492,-689.485948,-296.082377
1123.785387,-8438.347739,-153.219100,1036.288319
1123.785699,-8142.265362,0.000000,296.082377
1123.786010,-7994.224174,306.438199,666.185348
1123.786321,-9178.553681,-536.266849,740.205942
1123.786633,-8660.409521,-383.047749,-0.000000
1123.786944,-8882.471304,-383.047749,962.267725
1123.787255,-9548.656652,0.000000,-0.000000
1123.787567,-9252.574275,153.219100,1480.411884
1123.787878,-9844.739029,-229.828649,-148.041188
1123.788189,-9104.533087,0.000000,1776.494261
1123.788501,-9844.739029,-842.705048,-74.020594
1123.788812,-8660.409521,0.000000,1702.473667
1123.789123,-8660.409521,229.828649,222.061783
1123.789435,-7994.224174,459.657299,1036.288319
1123.789746,-8586.388927,-229.828649,1184.329507
1123.790057,-8586.388927,0.000000,518.144159
1123.790368,-8290.306550,153.219100,1184.329507
1123.790680,-9252.574275,306.438199,-222.061783
1123.790991,-8882.471304,153.219100,1480.411884
1123.791302,-9178.553681,-229.828649,-148.041188
1123.791614,-8660.409521,229.828649,1332.370696
1123.791925,-9104.533087,-536.266849,518.144159
1123.792236,-8882.471304,0.000000,962.267725
1123.792548,-9104.533087,0.000000,962.267725
1123.792859,-8364.327145,153.219100,740.205942
1123.793170,-8142.265362,76.609550,1258.350101
1123.793482,-8142.265362,-153.219100,-0.000000
1123.793793,-7772.162391,306.438199,1184.329507
1123.794104,-8586.388927,-612.876398,-444.123565
1123.794416,-8438.347739,0.000000,814.226536
1123.794727,-9030.512492,-153.219100,-222.061783
1123.795038,-9030.512492,-229.828649,740.205942
1123.795350,-9844.739029,-229.828649,-0.000000
1123.795661,-8956.491898,-766.095498,962.267725
1123.795972,-9326.594869,0.000000,814.226536
1123.796284,-9104.533087,229.828649,296.082377
1123.796595,-8734.430116,153.219100,1184.329507
1123.796906,-8512.368333,76.609550,-148.041188
1123.797218,-7994.224174,383.047749,1406.391290
1123.797529,-8808.450710,0.000000,-666.185348
1123.797840,-8290.306550,689.485948,888.247130
1123.798151,-9252.574275,536.266849,-1036.288319
1123.798463,-8734.430116,536.266849,444.123565
1123.798774,-9400.615463,-153.219100,-444.123565
1123.799085,-9548.656652,-153.219100,148.041188
1123.799397,-9474.636058,-306.438199,444.123565
1123.799708,-9474.636058,0.000000,222.061783
1123.800019,-9104.533087,-383.047749,1036.288319
1123.800331,-9178.553681,-153.219100,-666.185348
1123.800642,-8438.347739,0.000000,962.267725
1123.800953,-8956.491898,-229.828649,-370.102971
1123.801265,-8364.327145,536.266849,740.205942
1123.801576,-9474.636058,0.000000,-296.082377
1123.801887,-8808.450710,0.000000,518.144159
1123.802199,-9400.615463,-536.266849,-296.082377
1123.802510,-9252.574275,-229.828649,148.041188
1123.802821,-9178.553681,306.438199,1036.288319
1123.803133,-9104.533087,919.314598,-74.020594
1123.803444,-9178.553681,-689.485948,1406.391290
1123.803755,-9104.533087,-459.657299,-0.000000
1123.804067,-8290.306550,-306.438199,1628.453072
1123.804378,-8808.450710,-229.828649,296.082377
1123.804689,-8734.430116,-229.828649,1184.329507
1123.805001,-9178.553681,-306.438199,222.061783
1123.805312,-8734.430116,153.219100,444.123565
1123.805623,-9030.512492,229.828649,666.185348
1123.805935,-8734.430116,-536.266849,296.082377
1123.806246,-8734.430116,-536.266849,1110.308913
1123.806557,-8956.491898,-612.876398,148.041188
1123.806868,-8808.450710,0.000000,1850.514855
1123.807180,-9474.636058,0.000000,444.123565
1123.807491,-7920.203579,153.219100,2294.638420
1123.807802,-8660.409521,-612.876398,-0.000000
1123.808114,-8216.285956,-536.266849,1184.329507
1123.808425,-8956.491898,0.000000,370.102971
1123.808736,-8512.368333,842.705048,740.205942
1123.809048,-9326.594869,76.609550,592.164754
1123.809359,-8882.471304,153.219100,518.144159
1123.809670,-8882.471304,0.000000,1036.288319
1123.809982,-8882.471304,612.876398,-148.041188
1123.810293,-8586.388927,229.828649,888.247130
1123.810604,-9400.615463,459.657299,-222.061783
1123.810916,-8364.327145,153.219100,1776.494261
1123.811227,-9104.533087,-306.438199,222.061783
1123.811538,-8142.265362,0.000000,1110.308913
1123.811850,-8660.409521,0.000000,370.102971
1123.812161,-8290.306550,306.438199,-0.000000
1123.812472,-8734.430116,153.219100,-0.000000
1123.812784,-9178.553681,76.609550,-0.000000
1123.813095,-8882.471304,0.000000,814.226536
1123.813406,-9770.718434,-383.047749,-296.082377
1123.813718,-9178.553681,-612.876398,1554.432478
1123.814029,-9548.656652,-536.266849,-0.000000
1123.814340,-9104.533087,0.000000,1110.308913
1123.814651,-9474.636058,229.828649,-0.000000
1123.814963,-8586.388927,-229.828649,518.144159
1123.815274,-8808.450710,229.828649,370.102971
1123.815585,-8808.450710,459.657299,-0.000000
1123.815897,-9104.533087,229.828649,-0.000000
1123.816208,-9326.594869,689.485948,-666.185348
1123.816519,-8956.491898,459.657299,888.247130
1123.816831,-9474.636058,153.219100,-814.226536
1123.817142,-9030.512492,0.000000,740.205942
1123.817453,-9104.533087,0.000000,-444.123565
1123.817765,-8956.491898,229.828649,1036.288319
1123.818076,-9474.636058,-459.657299,-74.020594
1123.818387,-8586.388927,-153.219100,888.247130
1123.818699,-9104.533087,-689.485948,666.185348
1123.819010,-9252.574275,-153.219100,222.061783
1123.819321,-8512.368333,-306.438199,592.164754
1123.819633,-9178.553681,0.000000,-1332.370696
1123.819944,-8882.471304,459.657299,1184.329507
1123.820255,-9474.636058,0.000000,-666.185348
1123.820567,-8586.388927,-459.657299,1702.473667
1123.820878,-9622.677246,-459.657299,-0.000000
1123.821189,-8438.347739,0.000000,1332.370696
1123.821500,-9030.512492,-689.485948,592.164754
1123.821812,-8956.491898,-229.828649,740.205942
1123.822123,-8142.265362,229.828649,740.205942
1123.822434,-8438.347739,-383.047749,-222.061783
1123.822746,-8438.347739,-306.438199,1628.453072
1123.823057,-9474.636058,229.828649,-666.185348
1123.823368,-9104.533087,0.000000,1480.411884
1123.823680,-9992.780217,-229.828649,-222.061783
1123.823991,-9030.512492,153.219100,1554.432478
1123.824302,-9622.677246,-306.438199,-0.000000
1123.824614,-9030.512492,76.609550,1184.329507
1123.824925,-8956.491898,-153.219100,518.144159
1123.825236,-8734.430116,306.438199,592.164754
1123.825548,-8364.327145,0.000000,1184.329507
1123.825859,-8586.388927,-153.219100,296.082377
1123.826170,-8512.368333,-612.876398,1554.432478
1123.826482,-9030.512492,-229.828649,-74.020594
1123.826793,-8586.388927,766.095498,1480.411884
1123.827104,-9474.636058,-306.438199,-370.102971
1123.827416,-9030.512492,-383.047749,1258.350101
1123.827727,-9178.553681,383.047749,444.123565
1123.828038,-8660.409521,0.000000,962.267725
1123.828349,-8956.491898,0.000000,962.267725
1123.828661,-8808.450710,0.000000,592.164754
1123.828972,-8882.471304,76.609550,1480.411884
1123.829283,-8956.491898,0.000000,-0.000000
1123.829595,-8068.244768,229.828649,1184.329507
1123.829906,-8068.244768,306.438199,-222.061783
1123.830217,-7550.100608,383.047749,1258.350101
1123.830529,-8438.347739,-229.828649,-370.102971
1123.830840,-8438.347739,-689.485948,666.185348
1123.831151,-8956.491898,-383.047749,-0.000000
1123.831463,-9030.512492,-229.828649,518.144159
1123.831774,-9474.636058,-766.095498,1258.350101
1123.832085,-9252.574275,-612.876398,222.061783
1123.832397,-8956.491898,0.000000,1036.288319
1123.832708,-9252.574275,0.000000,-370.102971
1123.833019,-8808.450710,0.000000,1332.370696
1123.833331,-9178.553681,76.609550,-444.123565
1123.833642,-8290.306550,306.438199,1406.391290
1123.833953,-9104.533087,-383.047749,-370.102971
1123.834265,-8660.409521,229.828649,740.205942
1123.834576,-9400.615463,76.609550,-296.082377
1123.834887,-9696.697840,153.219100,-148.041188
1123.835199,-9474.636058,0.000000,-0.000000
1123.835510,-9548.656652,153.219100,-296.082377
1123.835821,-9104.533087,229.828649,1184.329507
1123.836132,-9548.656652,-383.047749,-296.082377
1123.836444,-9030.512492,0.000000,1184.329507
1123.836755,-9030.512492,-306.438199,-444.123565
1123.837066,-8734.430116,0.000000,666.185348
1123.837378,-8956.491898,-995.924147,-0.000000
1123.837689,-8290.306550,0.000000,370.102971
1123.838000,-9178.553681,0.000000,222.061783
1123.838312,-8586.388927,76.609550,148.041188
1123.838623,-9104.533087,-612.876398,592.164754
1123.838934,-9178.553681,-383.047749,-0.000000
1123.839246,-9104.533087,229.828649,1184.329507
1123.839557,-9252.574275,153.219100,148.041188
1123.839868,-8438.347739,-153.219100,1554.432478
1123.840180,-8660.409521,-383.047749,-0.000000
1123.840491,-7920.203579,-306.438199,1184.329507
1123.840802,-8808.450710,-689.485948,444.123565
1123.841114,-8808.450710,-229.828649,666.185348
1123.841425,-8734.430116,0.000000,888.247130
1123.841736,-9178.553681,-229.828649,-222.061783
1123.842048,-8808.450710,459.657299,1332.370696
1123.842359,-9030.512492,153.219100,-296.082377
1123.842670,-8882.471304,153.219100,1332.370696
1123.842981,-9030.512492,-306.438199,-148.041188
1123.843293,-8734.430116,0.000000,1702.473667
1123.843604,-9252.574275,0.000000,222.061783
1123.843915,-8512.368333,229.828649,1554.432478
1123.844227,-8216.285956,-1072.533697,740.205942
1123.844538,-8438.347739,76.609550,444.123565
1123.844849,-8364.327145,76.609550,740.205942
1123.845161,-8808.450710,153.219100,148.041188
1123.845472,-9104.533087,-306.438199,1406.391290
1123.845783,-9770.718434,-306.438199,148.041188
1123.846095,-9252.574275,76.609550,1184.329507
1123.846406,-9326.594869,0.000000,-0.000000
1123.846717,-8068.244768,0.000000,1258.350101
1123.847029,-8956.491898,-306.438199,222.061783
1123.847340,-8290.306550,0.000000,1110.308913
1123.847651,-8660.409521,-459.657299,814.226536
1123.847963,-8660.409521,0.000000,592.164754
1123.848274,-8660.409521,0.000000,1110.308913
1123.848585,-9030.512492,-153.219100,-0.000000
1123.848897,-8438.347739,-306.438199,888.247130
1123.849208,-8734.430116,76.609550,-0.000000
1123.849519,-8586.388927,153.219100,814.226536
1123.849830,-9548.656652,-153.219100,-222.061783
1123.850142,-9252.574275,0.000000,1110.308913
1123.850453,-9326.594869,-229.828649,370.102971
1123.850764,-9030.512492,0.000000,592.164754
1123.851076,-8142.265362,0.000000,962.267725
1123.851387,-8438.347739,-383.047749,-0.000000
1123.851698,-7920.203579,76.609550,666.185348
1123.852010,-8364.327145,229.828649,-518.144159
1123.852321,-8660.409521,229.828649,888.247130
1123.852632,-9474.636058,-153.219100,-740.205942
1123.852944,-8808.450710,842.705048,962.267725
1123.853255,-9548.656652,0.000000,-740.205942
1123.853566,-8660.409521,153.219100,1036.288319
1123.853878,-8956.491898,383.047749,-592.164754
1123.854189,-9326.594869,153.219100,444.123565
1123.854500,-8882.471304,-229.828649,888.247130
1123.854812,-8364.327145,0.000000,518.144159
1123.855123,-8882.471304,0.000000,1036.288319
1123.855434,-8882.471304,0.000000,-296.082377
1123.855746,-7846.182985,0.000000,888.247130
1123.856057,-9104.533087,-153.219100,-592.164754
1123.856368,-8660.409521,383.047749,1110.308913
1123.856679,-9696.697840,-153.219100,-518.144159
1123.856991,-9178.553681,-153.219100,666.185348
1123.857302,-9252.574275,0.000000,666.185348
1123.857613,-9030.512492,229.828649,370.102971
1123.857925,-8956.491898,0.000000,1036.288319
1123.858236,-9178.553681,-229.828649,-296.082377
1123.858547,-7846.182985,306.438199,1554.432478
1123.858859,-8512.368333,689.485948,-148.041188
1123.859170,-8142.265362,0.000000,1628.453072
1123.859481,-8882.471304,-766.095498,-74.020594
1123.859793,-8808.450710,0.000000,1332.370696
1123.860104,-9252.574275,-306.438199,370.102971
1123.860415,-9400.615463,0.000000,592.164754
1123.860727,-9400.615463,76.609550,370.102971
1123.861038,-8882.471304,76.609550,518.144159
1123.861349,-8734.430116,-153.219100,1184.329507
1123.861661,-9030.512492,76.609550,-74.020594
1123.861972,-8512.368333,229.828649,1850.514855
1123.862283,-8956.491898,-153.219100,-0.000000
1123.862595,-8438.347739,0.000000,1850.514855
1123.862906,-8882.471304,-229.828649,-0.000000
1123.863217,-8216.285956,459.657299,962.267725
1123.863528,-8882.471304,0.000000,296.082377
1123.863840,-8364.327145,306.438199,962.267725
1123.864151,-8660.409521,-766.095498,740.205942
1123.864462,-9030.512492,0.000000,148.041188
1123.864774,-8956.491898,-383.047749,1332.370696
1123.865085,-9326.594869,-306.438199,-148.041188
1123.865396,-8512.368333,153.219100,2072.576638
1123.865708,-9030.512492,0.000000,-296.082377
1123.866019,-8808.450710,-306.438199,1184.329507
1123.866330,-8216.285956,-229.828649,296.082377
1123.866642,-7772.162391,229.828649,814.226536
1123.866953,-8438.347739,0.000000,222.061783
1123.867264,-8734.430116,0.000000,222.061783
1123.867576,-9104.533087,-306.438199,740.205942
1123.867887,-9474.636058,0.000000,-296.082377
1123.868198,-8882.471304,-612.876398,1406.391290
1123.868510,-9474.636058,-919.314598,-370.102971
1123.868821,-9104.533087,-306.438199,962.267725
1123.869132,-9622.677246,-383.047749,-222.061783
1123.869444,-9030.512492,0.000000,1110.308913
1123.869755,-9252.574275,0.000000,-0.000000
1123.870066,-8882.471304,0.000000,666.185348
1123.870377,-9030.512492,-459.657299,296.082377
1123.870689,-8586.388927,459.657299,148.041188
1123.871000,-8438.347739,459.657299,444.123565
1123.871311,-8956.491898,689.485948,-592.164754
1123.871623,-9104.533087,229.828649,888.247130
1123.871934,-9770.718434,0.000000,-592.164754
1123.872245,-8882.471304,536.266849,1258.350101
1123.872557,-9696.697840,-153.219100,-592.164754
1123.872868,-8586.388927,842.705048,814.226536
1123.873179,-9400.615463,-306.438199,-444.123565
1123.873491,-8882.471304,459.657299,370.102971
1123.873802,-8586.388927,-76.609550,370.102971
1123.874113,-9252.574275,153.219100,-0.000000
1123.874425,-9326.594869,229.828649,888.247130
1123.874736,-8956.491898,0.000000,-148.041188
1123.875047,-8808.450710,-229.828649,1036.288319
1123.875359,-8882.471304,-306.438199,-370.102971
1123.875670,-8734.430116,-766.095498,1258.350101
1123.875981,-8734.430116,0.000000,296.082377
1123.876293,-8216.285956,-306.438199,1258.350101
1123.876604,-8882.471304,-229.828649,592.164754
1123.876915,-7994.224174,-76.609550,814.226536
1123.877227,-8660.409521,-536.266849,740.205942
1123.877538,-8586.388927,0.000000,-0.000000
1123.877849,-8438.347739,383.047749,962.267725
1123.878160,-9474.636058,842.705048,-222.061783
1123.878472,-9178.553681,0.000000,1776.494261
1123.878783,-9474.636058,-153.219100,-0.000000
1123.879094,-8956.491898,0.000000,1776.494261
1123.879406,-9178.553681,-459.657299,296.082377
1123.879717,-8660.409521,0.000000,1258.350101
1123.880028,-8660.409521,-306.438199,592.164754
1123.880340,-8142.265362,-229.828649,592.164754
1123.880651,-8586.388927,-229.828649,1184.329507
1123.880962,-8882.471304,-153.219100,296.082377
1123.881274,-8586.388927,383.047749,1406.391290
1123.881585,-9326.594869,229.828649,-148.041188
1123.881896,-9178.553681,76.609550,1480.411884
1123.882208,-9696.697840,0.000000,-222.061783
1123.882519,-9178.553681,-153.219100,1184.329507
1123.882830,-9548.656652,383.047749,-296.082377
1123.883142,-8734.430116,459.657299,444.123565
1123.883453,-9326.594869,0.000000,370.102971
1123.883764,-9030.512492,-459.657299,592.164754
1123.884076,-8586.388927,-306.438199,1258.350101
1123.884387,-8438.347739,0.000000,-0.000000
1123.884698,-8364.327145,76.609550,1332.370696
1123.885009,-8882.471304,-689.485948,-814.226536
1123.885321,-8364.327145,0.000000,888.247130
1123.885632,-9104.533087,76.609550,-370.102971
1123.885943,-8586.388927,153.219100,814.226536
1123.886255,-9696.697840,-612.876398,148.041188
1123.886566,-9400.615463,-383.047749,444.123565
1123.886877,-8956.491898,0.000000,962.267725
1123.887189,-9030.512492,-229.828649,-0.000000
1123.887500,-8808.450710,383.047749,1406.391290
1123.887811,-9104.533087,-383.047749,-518.144159
1123.888123,-8364.327145,-306.438199,1406.391290
1123.888434,-9252.574275,0.000000,-666.185348
1123.888745,-8808.450710,383.047749,1036.288319
1123.889057,-9400.615463,0.000000,-518.144159
1123.889368,-8808.450710,229.828649,666.185348
1123.889679,-9030.512492,0.000000,148.041188
1123.889991,-9474.636058,0.000000,-0.000000
1123.890302,-8808.450710,76.609550,888.247130
1123.890613,-8512.368333,153.219100,296.082377
1123.890925,-8364.327145,-459.657299,1702.473667
1123.891236,-8438.347739,-689.485948,-0.000000
1123.891547,-8438.347739,-153.219100,1480.411884
1123.891858,-9030.512492,-383.047749,-444.123565
1123.892170,-7846.182985,306.438199,1036.288319
1123.892481,-9326.594869,-459.657299,-666.185348
1123.892792,-8956.491898,995.924147,518.144159
1123.893104,-9474.636058,0.000000,-0.000000
1123.893415,-9326.594869,0.000000,222.061783
1123.893726,-9326.594869,0.000000,1258.350101
1123.894038,-9326.594869,-229.828649,-0.000000
1123.894349,-8808.450710,-153.219100,1332.370696
1123.894660,-8882.471304,383.047749,-74.020594
1123.894972,-7624.121203,689.485948,1554.432478
1123.895283,-8660.409521,76.609550,-444.123565
1123.895594,-8068.244768,76.609550,1184.329507
1123.895906,-9104.533087,-306.438199,-0.000000
1123.896217,-9326.594869,76.609550,666.185348
1123.896528,-9474.636058,76.609550,740.205942
1123.896840,-9844.739029,0.000000,-222.061783
1123.897151,-9326.594869,306.438199,1110.308913
1123.897462,-9474.636058,689.485948,-0.000000
1123.897774,-9030.512492,383.047749,1628.453072
1123.898085,-9178.553681,0.000000,-0.000000
1123.898396,-8068.244768,612.876398,2146.597232
1123.898707,-8734.430116,0.000000,-0.000000
1123.899019,-8438.347739,153.219100,1554.432478
1123.899330,-8734.430116,229.828649,74.020594
1123.899641,-8290.306550,0.000000,740.205942
1123.899953,-8808.450710,0.000000,592.164754
1123.900264,-8734.430116,383.047749,148.041188
1123.900575,-9030.512492,0.000000,1258.350101
1123.900887,-9474.636058,-536.266849,-74.020594
1123.901198,-8438.347739,-306.438199,1702.473667
1123.901509,-9178.553681,-612.876398,-0.000000
1123.901821,-7772.162391,0.000000,1702.473667
1123.902132,-8586.388927,-536.266849,-74.020594
1123.902443,-8438.347739,153.219100,814.226536
1123.902755,-8882.471304,-612.876398,370.102971
1123.903066,-8586.388927,153.219100,222.061783
1123.903377,-8586.388927,-459.657299,1110.308913
1123.903689,-8882.471304,-842.705048,-296.082377
1123.904000,-8734.430116,-383.047749,1258.350101
1123.904311,-9252.574275,-1455.581446,-296.082377
1123.904623,-8882.471304,-306.438199,1110.308913
1123.904934,-9400.615463,-766.095498,-444.123565
1123.905245,-9326.594869,-383.047749,666.185348
1123.905556,-9548.656652,-919.314598,148.041188
1123.905868,-9252.574275,-306.438199,666.185348
1123.906179,-9104.533087,0.000000,740.205942
1123.906490,-8882.471304,-229.828649,222.061783
1123.906802,-9252.574275,0.000000,814.226536
1123.907113,-9474.636058,153.219100,-814.226536
1123.907424,-8956.491898,612.876398,1110.308913
1123.907736,-9474.636058,76.609550,-814.226536
1123.908047,-9104.533087,612.876398,962.267725
1123.908358,-9696.697840,-153.219100,-1036.288319
1123.908670,-8956.491898,383.047749,888.247130
1123.908981,-9326.594869,-383.047749,518.144159
1123.909292,-8660.409521,0.000000,370.102971
1123.909604,-9030.512492,0.000000,444.123565
1123.909915,-9030.512492,0.000000,-0.000000
1123.910226,-8734.430116,0.000000,1258.350101
1123.910538,-9400.615463,0.000000,-370.102971
1123.910849,-8660.409521,459.657299,1776.494261
1123.911160,-9104.533087,-153.219100,-518.144159
1123.911472,-8660.409521,306.438199,888.247130
1123.911783,-8438.347739,0.000000,222.061783
1123.912094,-7994.224174,0.000000,1110.308913
1123.912406,-8808.450710,-153.219100,518.144159
1123.912717,-8512.368333,-229.828649,740.205942
1123.913028,-8512.368333,-76.609550,1480.411884
1123.913339,-8586.388927,0.000000,148.041188
1123.913651,-8438.347739,229.828649,1480.411884
1123.913962,-9030.512492,-76.609550,-370.102971
1123.914273,-8364.327145,689.485948,1628.453072
1123.914585,-9400.615463,0.000000,-148.041188
1123.914896,-8808.450710,306.438199,1554.432478
1123.915207,-8956.491898,-306.438199,148.041188
1123.915519,-8586.388927,76.609550,1258.350101
1123.915830,-8512.368333,-153.219100,1036.288319
1123.916142,-8660.409521,0.000000,370.102971
1123.916453,-7846.182985,459.657299,1850.514855
1123.916764,-9030.512492,-383.047749,-0.000000
1123.917076,-8216.285956,0.000000,1702.473667
1123.917387,-9104.533087,-153.219100,-370.102971
1123.917699,-8512.368333,459.657299,1702.473667
1123.918010,-9474.636058,-536.266849,-148.041188
1123.918322,-9030.512492,0.000000,1332.370696
1123.918633,-9474.636058,0.000000,370.102971
1123.918944,-8734.430116,0.000000,814.226536
1123.919256,-8956.491898,0.000000,1036.288319
1123.919567,-8956.491898,-306.438199,444.123565
1123.919879,-9030.512492,-153.219100,1554.432478
1123.920190,-9030.512492,-612.876398,-0.000000
1123.920502,-8364.327145,0.000000,1702.473667
1123.920813,-9030.512492,0.000000,-296.082377
1123.921124,-8364.327145,76.609550,1258.350101
1123.921436,-9326.594869,-383.047749,-518.144159
