#time,accel_x,accel_y,accel_z
1465.985580,-8438.347739,-153.219100,296.082377
1465.985892,-9178.553681,0.000000,-0.000000
1465.986203,-9030.512492,459.657299,888.247130
1465.986514,-8882.471304,-229.828649,592.164754
1465.986825,-9030.512492,0.000000,518.144159
1465.987137,-8882.471304,0.000000,370.102971
1465.987448,-8956.491898,-153.219100,592.164754
1465.987759,-8808.450710,-229.828649,444.123565
1465.988070,-8956.491898,-76.609550,148.041188
1465.988382,-8808.450710,0.000000,370.102971
1465.988693,-9178.553681,0.000000,592.164754
1465.989004,-8882.471304,0.000000,592.164754
1465.989315,-8808.450710,0.000000,518.144159
1465.989627,-8808.450710,-229.828649,592.164754
1465.989938,-9252.574275,-153.219100,370.102971
1465.990249,-8808.450710,536.266849,666.185348
1465.990560,-8734.430116,153.219100,592.164754
1465.990872,-8142.265362,153.219100,740.205942
1465.991183,-8808.450710,76.609550,740.205942
1465.991494,-8956.491898,0.000000,592.164754
1465.991805,-8956.491898,-153.219100,740.205942
1465.992117,-9104.533087,0.000000,592.164754
1465.992428,-8586.388927,-229.828649,666.185348
1465.992739,-8882.471304,-153.219100,296.082377
1465.993050,-8808.450710,76.609550,518.144159
1465.993362,-8660.409521,0.000000,518.144159
1465.993673,-8808.450710,-153.219100,666.185348
1465.993984,-8956.491898,-153.219100,444.123565
1465.994295,-9030.512492,0.000000,444.123565
1465.994606,-8956.491898,0.000000,370.102971
1465.994918,-8808.450710,-229.828649,296.082377
1465.995229,-8734.430116,-229.828649,148.041188
1465.995540,-8956.491898,-459.657299,444.123565
1465.995851,-8956.491898,0.000000,740.205942
1465.996163,-8882.471304,-153.219100,592.164754
1465.996474,-8956.491898,-76.609550,592.164754
1465.996785,-9030.512492,-153.219100,666.185348
1465.997096,-8882.471304,-153.219100,666.185348
1465.997408,-8734.430116,76.609550,518.144159
1465.997719,-9252.574275,153.219100,148.041188
1465.998030,-8956.491898,0.000000,592.164754
1465.998341,-9178.553681,-229.828649,370.102971
1465.998653,-8808.450710,0.000000,444.123565
1465.998964,-9104.533087,0.000000,296.082377
1465.999275,-9104.533087,-153.219100,518.144159
1465.999586,-9030.512492,153.219100,518.144159
1465.999898,-8956.491898,0.000000,518.144159
1466.000209,-8734.430116,76.609550,592.164754
1466.000520,-9030.512492,153.219100,518.144159
1466.000831,-8512.368333,-153.219100,592.164754
1466.001143,-8882.471304,-229.828649,518.144159
1466.001454,-8882.471304,0.000000,666.185348
1466.001765,-8956.491898,0.000000,666.185348
1466.002076,-8956.491898,-536.266849,444.123565
1466.002388,-8660.409521,229.828649,518.144159
1466.002699,-8956.491898,-536.266849,370.102971
1466.003010,-8660.409521,689.485948,592.164754
1466.003321,-8882.471304,0.000000,444.123565
1466.003633,-8956.491898,0.000000,518.144159
1466.003944,-9030.512492,0.000000,444.123565
1466.004255,-9178.553681,-306.438199,444.123565
1466.004566,-8956.491898,459.657299,592.164754
1466.004878,-8882.471304,-612.876398,370.102971
1466.005189,-8438.347739,0.000000,444.123565
1466.005500,-8512.368333,0.000000,370.102971
1466.005811,-8808.450710,0.000000,592.164754
1466.006123,-8808.450710,0.000000,444.123565
1466.006434,-8808.450710,0.000000,592.164754
1466.006745,-8956.491898,0.000000,666.185348
1466.007056,-8734.430116,0.000000,518.144159
1466.007368,-8882.471304,0.000000,222.061783
1466.007679,-8734.430116,76.609550,444.123565
1466.007990,-8660.409521,0.000000,518.144159
1466.008301,-8882.471304,0.000000,370.102971
1466.008613,-8956.491898,0.000000,518.144159
1466.008924,-8956.491898,0.000000,444.123565
1466.009235,-9030.512492,0.000000,518.144159
1466.009546,-8734.430116,153.219100,444.123565
1466.009857,-8882.471304,-766.095498,518.144159
1466.010169,-8364.327145,76.609550,814.226536
1466.010480,-8660.409521,0.000000,444.123565
1466.010791,-8956.491898,0.000000,518.144159
1466.011102,-8808.450710,153.219100,518.144159
1466.011414,-8956.491898,0.000000,518.144159
1466.011725,-8734.430116,0.000000,666.185348
1466.012036,-9030.512492,-153.219100,666.185348
1466.012347,-8882.471304,459.657299,592.164754
1466.012659,-8882.471304,0.000000,592.164754
1466.012970,-8882.471304,0.000000,888.247130
1466.013281,-9104.533087,0.000000,592.164754
1466.013592,-9030.512492,0.000000,518.144159
1466.013904,-9030.512492,0.000000,444.123565
1466.014215,-8882.471304,-612.876398,518.144159
1466.014526,-8364.327145,0.000000,444.123565
1466.014837,-8956.491898,0.000000,518.144159
1466.015149,-9770.718434,0.000000,296.082377
1466.015460,-11695.253884,1838.629195,296.082377
1466.015771,-9622.677246,4290.134789,814.226536
1466.016082,-8290.306550,4519.963438,740.205942
1466.016394,-7105.977043,2298.286494,1332.370696
1466.016705,-6365.771101,-229.828649,370.102971
1466.017016,-7105.977043,-2068.457845,-370.102971
1466.017327,-6587.832884,-995.924147,-0.000000
1466.017639,-9992.780217,-689.485948,-1258.350101
1466.017950,-13101.645173,-919.314598,-1258.350101
1466.018261,-11103.089130,995.924147,444.123565
1466.018572,-9622.677246,306.438199,814.226536
1466.018884,-8660.409521,-383.047749,2886.803174
1466.019195,-11029.068536,-153.219100,1776.494261
1466.019506,-10288.862594,3064.381992,2368.659014
1466.019817,-5255.462188,5056.230287,2442.679609
1466.020129,-6217.729913,3753.867940,1480.411884
1466.020440,-7846.182985,2528.115143,-0.000000
1466.020751,-6957.935855,3140.991542,-1628.453072
1466.021062,-8660.409521,3600.648841,-2072.576638
1466.021374,-8882.471304,3983.696590,-296.082377
1466.021685,-10584.944971,2987.772442,-1184.329507
1466.021996,-15174.221811,0.000000,-518.144159
1466.022307,-9770.718434,-1608.800546,3108.864956
1466.022619,-9104.533087,-153.219100,1110.308913
1466.022930,-9770.718434,3217.601092,2146.597232
1466.023241,-7772.162391,5592.497135,2146.597232
1466.023552,-7846.182985,2834.553343,1628.453072
1466.023863,-6217.729913,3524.039291,2664.741391
1466.024175,-7179.997637,5898.935335,1480.411884
1466.024486,-8290.306550,7201.297681,-444.123565
1466.024797,-8660.409521,6511.811733,-1406.391290
1466.025108,-9326.594869,4749.792088,-814.226536
1466.025420,-9992.780217,5362.668486,-1258.350101
1466.025731,-11621.233289,5669.106685,-0.000000
1466.026042,-11843.295072,5209.449386,740.205942
1466.026353,-10436.903782,4060.306139,1850.514855
1466.026665,-9474.636058,5592.497135,1850.514855
1466.026976,-8142.265362,5745.716235,2072.576638
1466.027287,-5773.606348,6205.373534,-0.000000
1466.027598,-5995.668130,5669.106685,666.185348
1466.027910,-5329.482782,5592.497135,296.082377
1466.028221,-6217.729913,5056.230287,-740.205942
1466.028532,-7328.038826,4519.963438,-666.185348
1466.028843,-8216.285956,3830.477490,-1110.308913
1466.029155,-9474.636058,2604.724693,148.041188
1466.029466,-10362.883188,1302.362347,296.082377
1466.029777,-11029.068536,536.266849,1776.494261
1466.030088,-11695.253884,306.438199,1406.391290
1466.030400,-10658.965565,2221.676944,2294.638420
1466.030711,-9178.553681,3140.991542,1998.556043
1466.031022,-7179.997637,3753.867940,592.164754
1466.031333,-6069.688724,3370.820191,-74.020594
1466.031645,-6587.832884,4136.915689,-1110.308913
1466.031956,-6587.832884,3064.381992,-814.226536
1466.032267,-7105.977043,2911.162892,-1258.350101
1466.032578,-8512.368333,459.657299,-518.144159
1466.032890,-10140.821405,-1991.848295,-296.082377
1466.033201,-11695.253884,-2145.067394,1184.329507
1466.033512,-12731.542202,-2145.067394,1628.453072
1466.033823,-13249.686362,-1149.143247,1628.453072
1466.034135,-12065.356855,766.095498,1332.370696
1466.034446,-11325.150913,2451.505594,-0.000000
1466.034757,-9178.553681,3830.477490,-222.061783
1466.035068,-7179.997637,3983.696590,-888.247130
1466.035380,-6513.812290,4290.134789,-222.061783
1466.035691,-5847.626942,4596.572988,814.226536
1466.036002,-7105.977043,3907.087040,740.205942
1466.036313,-9252.574275,1225.752797,888.247130
1466.036625,-10807.006753,0.000000,888.247130
1466.036936,-12509.480420,-459.657299,148.041188
1466.037247,-13545.768739,-153.219100,-0.000000
1466.037558,-13989.892304,842.705048,-222.061783
1466.037870,-12953.603985,2145.067394,-74.020594
1466.038181,-10732.986159,2911.162892,814.226536
1466.038492,-8216.285956,3447.429741,1110.308913
1466.038803,-5995.668130,4673.182538,2072.576638
1466.039114,-3923.091493,5592.497135,1184.329507
1466.039426,-1998.556043,5822.325785,592.164754
1466.039737,-1850.514855,4903.011187,-740.205942
1466.040048,-5255.462188,3830.477490,-1628.453072
1466.040359,-8512.368333,2911.162892,-1110.308913
1466.040671,-12139.377449,3217.601092,-666.185348
1466.040982,-15322.262999,3600.648841,1332.370696
1466.041293,-15544.324782,3600.648841,2960.823768
1466.041604,-13989.892304,2681.334243,3330.926739
1466.041916,-9474.636058,3294.210641,3775.050304
1466.042227,-5107.421000,3600.648841,2368.659014
1466.042538,-2590.720797,4673.182538,666.185348
1466.042849,-1850.514855,6741.640382,-888.247130
1466.043161,-2590.720797,8427.050478,-2368.659014
1466.043472,-5329.482782,7124.688131,-2590.720797
1466.043783,-8290.306550,3983.696590,-1628.453072
1466.044094,-9326.594869,2987.772442,370.102971
1466.044406,-10510.924376,-306.438199,666.185348
1466.044717,-11325.150913,-2681.334243,2146.597232
1466.045028,-12065.356855,-3217.601092,2146.597232
1466.045339,-11991.336260,-1532.190996,2072.576638
1466.045651,-12139.377449,1072.533697,1924.535449
1466.045962,-11029.068536,3524.039291,1554.432478
1466.046273,-9992.780217,5439.278036,1998.556043
1466.046584,-7550.100608,6588.421283,1332.370696
1466.046896,-5995.668130,5362.668486,518.144159
1466.047207,-6143.709319,3217.601092,-222.061783
1466.047518,-6587.832884,2298.286494,-1184.329507
1466.047829,-7994.224174,2681.334243,-2368.659014
1466.048141,-10066.800811,3600.648841,-2368.659014
1466.048452,-11843.295072,3140.991542,-1924.535449
1466.048763,-12509.480420,2374.896044,-666.185348
1466.049074,-12139.377449,1072.533697,1332.370696
1466.049386,-12287.418637,536.266849,2220.617826
1466.049697,-12509.480420,2221.676944,2368.659014
1466.050008,-11547.212695,4366.744339,2294.638420
1466.050319,-9474.636058,6665.030833,666.185348
1466.050631,-7105.977043,6511.811733,-0.000000
1466.050942,-5995.668130,4366.744339,-1332.370696
1466.051253,-5847.626942,2834.553343,-1036.288319
1466.051564,-7254.018232,2374.896044,-1480.411884
1466.051876,-9030.512492,2451.505594,-296.082377
1466.052187,-9400.615463,1685.410096,-0.000000
1466.052498,-8882.471304,-459.657299,888.247130
1466.052809,-8068.244768,-2834.553343,1554.432478
1466.053120,-7772.162391,-2374.896044,1702.473667
1466.053432,-8512.368333,2068.457845,888.247130
1466.053743,-9844.739029,6128.763984,370.102971
1466.054054,-11399.171507,8273.831378,222.061783
1466.054365,-11251.130318,8503.660028,1554.432478
1466.054677,-10214.842000,5975.544884,1332.370696
1466.054988,-9178.553681,3983.696590,1110.308913
1466.055299,-7624.121203,3753.867940,296.082377
1466.055610,-6883.915261,5286.058936,-740.205942
1466.055922,-5107.421000,4366.744339,-74.020594
1466.056233,-3997.112087,1532.190996,444.123565
1466.056544,-4959.379811,-995.924147,-0.000000
1466.056855,-7402.059420,-306.438199,444.123565
1466.057167,-9252.574275,2987.772442,-74.020594
1466.057478,-11547.212695,6281.983084,-666.185348
1466.057789,-13249.686362,7354.516781,444.123565
1466.058100,-13545.768739,5056.230287,2146.597232
1466.058412,-13915.871710,2145.067394,3182.885551
1466.058723,-10955.047942,1991.848295,3552.988522
1466.059034,-7476.080014,3447.429741,2664.741391
1466.059345,-5107.421000,1838.629195,1850.514855
1466.059657,-3404.947333,-2298.286494,962.267725
1466.059968,-4441.235652,-5592.497135,-370.102971
1466.060279,-5477.523971,-3753.867940,-1110.308913
1466.060590,-6143.709319,2145.067394,-1110.308913
1466.060902,-8956.491898,5439.278036,-1184.329507
1466.061213,-13545.768739,4673.182538,-222.061783
1466.061524,-16728.654289,2757.943793,1998.556043
1466.061835,-17024.736666,3447.429741,3034.844362
1466.062147,-13767.830521,6665.030833,3034.844362
1466.062458,-10066.800811,7201.297681,1998.556043
1466.062769,-5921.647536,3370.820191,962.267725
1466.063080,-2368.659014,-995.924147,-148.041188
1466.063392,0.000000,-1302.362347,-1332.370696
1466.063703,-148.041188,1225.752797,-1258.350101
1466.064014,-5921.647536,3064.381992,-962.267725
1466.064325,-12213.398043,1915.238745,-296.082377
1466.064637,-15988.448347,1532.190996,666.185348
1466.064948,-16654.633695,3294.210641,962.267725
1466.065259,-14508.036463,5286.058936,444.123565
1466.065570,-12509.480420,4596.572988,-888.247130
1466.065882,-10955.047942,1532.190996,-1850.514855
1466.066193,-7105.977043,1838.629195,-2072.576638
1466.066504,-4959.379811,3140.991542,-1036.288319
1466.066815,-5255.462188,3294.210641,1184.329507
1466.067127,-6883.915261,995.924147,2886.803174
1466.067438,-9030.512492,-2221.676944,3627.009116
1466.067749,-9178.553681,-919.314598,3627.009116
1466.068060,-10214.842000,4060.306139,1184.329507
1466.068372,-10510.924376,8656.879127,-1924.535449
1466.068683,-9770.718434,9499.584175,-3997.112087
1466.068994,-7920.203579,7048.078582,-4663.297435
1466.069305,-6365.771101,7048.078582,-3775.050304
1466.069617,-10066.800811,7660.954980,-1702.473667
1466.069928,-13101.645173,6894.859482,1258.350101
1466.070239,-13175.665768,3370.820191,3775.050304
1466.070550,-10584.944971,-536.266849,5033.400406
1466.070862,-7698.141797,-1455.581446,3552.988522
1466.071173,-5699.585753,536.266849,1332.370696
1466.071484,-3182.885551,2298.286494,-740.205942
1466.071795,-1480.411884,2681.334243,-2072.576638
1466.072107,-5033.400406,4826.401637,-592.164754
1466.072418,-11399.171507,4903.011187,-296.082377
1466.072729,-15174.221811,5745.716235,2294.638420
1466.073040,-14804.118840,5132.839837,4663.297435
1466.073352,-10955.047942,2987.772442,3330.926739
1466.073663,-8734.430116,2298.286494,814.226536
1466.073974,-4589.276840,1762.019645,-1258.350101
1466.074285,-3256.906145,-229.828649,-1480.411884
1466.074597,-5033.400406,-2987.772442,1184.329507
1466.074908,-7846.182985,-2221.676944,2072.576638
1466.075219,-9030.512492,-1991.848295,3627.009116
1466.075530,-10732.986159,-4673.182538,3182.885551
1466.075841,-9696.697840,-3907.087040,3552.988522
1466.076153,-6513.812290,-1532.190996,222.061783
1466.076464,-5107.421000,1302.362347,-2368.659014
1466.076775,-7402.059420,1685.410096,-962.267725
1466.077086,-10658.965565,1302.362347,-888.247130
1466.077398,-13249.686362,1532.190996,666.185348
1466.077709,-13249.686362,0.000000,3478.967927
1466.078020,-12435.459826,-2834.553343,2886.803174
1466.078331,-10288.862594,-536.266849,1850.514855
1466.078643,-7772.162391,2834.553343,-0.000000
1466.078954,-5625.565159,2145.067394,-1702.473667
1466.079265,-6217.729913,383.047749,-1480.411884
1466.079576,-9252.574275,2451.505594,-1184.329507
1466.079888,-10881.027347,5056.230287,-1406.391290
1466.080199,-11843.295072,2604.724693,-1776.494261
1466.080510,-11547.212695,1072.533697,-1924.535449
1466.080821,-10214.842000,2374.896044,-2220.617826
1466.081133,-10510.924376,1302.362347,-1628.453072
1466.081444,-11103.089130,-1225.752797,296.082377
1466.081755,-10955.047942,-3064.381992,1628.453072
1466.082066,-11621.233289,-2987.772442,3849.070898
1466.082378,-11769.274478,-3524.039291,4219.173869
1466.082689,-9178.553681,-3064.381992,1924.535449
1466.083000,-6365.771101,229.828649,-0.000000
1466.083311,-3108.864956,3294.210641,-1776.494261
1466.083623,-4811.338623,3447.429741,-2960.823768
1466.083934,-7476.080014,2757.943793,-2886.803174
1466.084245,-9474.636058,3447.429741,-666.185348
1466.084556,-10955.047942,919.314598,888.247130
1466.084868,-11843.295072,-1455.581446,1924.535449
1466.085179,-11251.130318,-2451.505594,962.267725
1466.085490,-7328.038826,-1685.410096,888.247130
1466.085801,-5921.647536,-2374.896044,1554.432478
1466.086113,-7179.997637,-2528.115143,1850.514855
1466.086424,-8216.285956,-306.438199,2590.720797
1466.086735,-8068.244768,536.266849,3034.844362
1466.087046,-6365.771101,766.095498,2516.700203
1466.087358,-3849.070898,1072.533697,-222.061783
1466.087669,-2146.597232,3677.258390,-2738.761985
1466.087980,-1776.494261,3370.820191,-2960.823768
1466.088291,-6217.729913,1685.410096,-1924.535449
1466.088603,-10584.944971,1302.362347,740.205942
1466.088914,-14804.118840,-459.657299,3256.906145
1466.089225,-17542.880825,-4213.525239,4293.194464
1466.089536,-15396.283594,-5592.497135,3997.112087
1466.089848,-10955.047942,-3753.867940,2368.659014
1466.090159,-8512.368333,-3294.210641,518.144159
1466.090470,-7105.977043,-2221.676944,-592.164754
1466.090781,-7328.038826,-1378.971896,-1110.308913
1466.091093,-8290.306550,1072.533697,518.144159
1466.091404,-7994.224174,2528.115143,1110.308913
1466.091715,-7105.977043,1915.238745,-740.205942
1466.092026,-5773.606348,2145.067394,-1406.391290
1466.092338,-7105.977043,2911.162892,-666.185348
1466.092649,-9548.656652,1378.971896,-814.226536
1466.092960,-13545.768739,0.000000,666.185348
1466.093271,-16580.613101,-1149.143247,2368.659014
1466.093583,-17098.757260,-2911.162892,3849.070898
1466.093894,-14804.118840,-3294.210641,2442.679609
1466.094205,-10807.006753,-1302.362347,666.185348
1466.094516,-6587.832884,76.609550,-1480.411884
1466.094828,-5477.523971,1455.581446,-3182.885551
1466.095139,-5403.503377,3907.087040,-2072.576638
1466.095450,-6661.853478,4519.963438,-1332.370696
1466.095761,-7476.080014,4673.182538,1332.370696
1466.096073,-7550.100608,2221.676944,962.267725
1466.096384,-6069.688724,1762.019645,1110.308913
1466.096695,-5995.668130,1685.410096,1258.350101
1466.097006,-7031.956449,-612.876398,1850.514855
1466.097318,-7994.224174,-1685.410096,1702.473667
1466.097629,-10214.842000,-2068.457845,1554.432478
1466.097940,-11029.068536,-2911.162892,1628.453072
1466.098251,-9770.718434,-3524.039291,-0.000000
1466.098563,-7402.059420,-2068.457845,-1702.473667
1466.098874,-6069.688724,0.000000,-2886.803174
1466.099185,-6587.832884,1225.752797,-2368.659014
1466.099496,-6291.750507,766.095498,-518.144159
1466.099807,-7105.977043,-229.828649,1702.473667
1466.100119,-8216.285956,-1991.848295,4071.132681
1466.100430,-9474.636058,-3677.258390,3701.029710
1466.100741,-8364.327145,-2221.676944,2664.741391
1466.101052,-7698.141797,0.000000,1702.473667
1466.101364,-9622.677246,153.219100,296.082377
1466.101675,-10658.965565,-459.657299,-592.164754
1466.101986,-11769.274478,-153.219100,-592.164754
1466.102297,-12065.356855,-306.438199,-0.000000
1466.102609,-11399.171507,-1378.971896,-1184.329507
1466.102920,-9474.636058,689.485948,-3034.844362
1466.103231,-8882.471304,2987.772442,-3923.091493
1466.103542,-8364.327145,3753.867940,-2738.761985
1466.103854,-9400.615463,3907.087040,-1924.535449
1466.104165,-10066.800811,3753.867940,1036.288319
1466.104476,-11103.089130,1838.629195,4515.256246
1466.104787,-12435.459826,-1608.800546,5107.421000
1466.105099,-11399.171507,-1838.629195,4515.256246
1466.105410,-8364.327145,-766.095498,2146.597232
1466.105721,-6217.729913,-1225.752797,-0.000000
1466.106032,-6661.853478,-1455.581446,-1776.494261
1466.106344,-8364.327145,-766.095498,-2294.638420
1466.106655,-10510.924376,-153.219100,-2368.659014
1466.106966,-13693.809927,-1302.362347,-1776.494261
1466.107277,-13323.706956,-1072.533697,-444.123565
1466.107589,-11399.171507,-612.876398,592.164754
1466.107900,-8512.368333,-1225.752797,2368.659014
1466.108211,-7624.121203,-2834.553343,3330.926739
1466.108522,-7105.977043,-3140.991542,4663.297435
1466.108834,-4737.318029,-2068.457845,4811.338623
1466.109145,-6217.729913,-1762.019645,4959.379811
1466.109456,-6883.915261,-1915.238745,3627.009116
1466.109767,-3182.885551,-612.876398,-222.061783
1466.110079,-3108.864956,995.924147,-2072.576638
1466.110390,-3478.967927,0.000000,-2886.803174
1466.110701,-5847.626942,-229.828649,-3182.885551
1466.111012,-10066.800811,306.438199,-1480.411884
1466.111324,-12657.521608,0.000000,296.082377
1466.111635,-14582.057057,-306.438199,296.082377
1466.111946,-14063.912898,842.705048,962.267725
1466.112257,-11547.212695,3217.601092,1184.329507
1466.112569,-7994.224174,2451.505594,2368.659014
1466.112880,-5921.647536,1455.581446,3478.967927
1466.113191,-5329.482782,689.485948,4515.256246
1466.113502,-4663.297435,-306.438199,3552.988522
1466.113814,-5403.503377,-1072.533697,-296.082377
1466.114125,-4737.318029,1915.238745,-3330.926739
1466.114436,-6069.688724,3447.429741,-6809.894666
1466.114747,-10288.862594,3294.210641,-7179.997637
1466.115059,-13175.665768,2528.115143,-5255.462188
1466.115370,-16802.674883,1455.581446,-1702.473667
1466.115681,-19171.333898,-612.876398,2516.700203
1466.115992,-19245.354492,-2681.334243,4811.338623
1466.116304,-14434.015869,-2298.286494,5625.565159
1466.116615,-8956.491898,-1991.848295,4515.256246
1466.116926,-4515.256246,-1838.629195,3997.112087
1466.117237,-3404.947333,-842.705048,814.226536
1466.117549,-4441.235652,919.314598,-666.185348
1466.117860,-6809.894666,1378.971896,-814.226536
1466.118171,-8808.450710,-459.657299,-1924.535449
1466.118482,-8216.285956,-306.438199,-2368.659014
1466.118794,-7476.080014,-1455.581446,-2220.617826
1466.119105,-7328.038826,-2681.334243,-74.020594
1466.119416,-9770.718434,-3600.648841,-0.000000
1466.119727,-13027.624579,-612.876398,1480.411884
1466.120039,-13767.830521,1915.238745,2960.823768
1466.120350,-13989.892304,1991.848295,3775.050304
1466.120661,-9918.759623,1915.238745,3849.070898
1466.120972,-5329.482782,842.705048,2812.782580
1466.121284,-1554.432478,-612.876398,1702.473667
1466.121595,592.164754,-1915.238745,222.061783
1466.121906,-888.247130,-1225.752797,-518.144159
1466.122217,-4219.173869,-1302.362347,-1110.308913
1466.122529,-8438.347739,-2451.505594,-1332.370696
1466.122840,-10140.821405,-1762.019645,-1480.411884
1466.123151,-11843.295072,76.609550,-1406.391290
1466.123462,-13471.748144,536.266849,-444.123565
1466.123773,-14434.015869,153.219100,296.082377
1466.124085,-14285.974681,689.485948,2812.782580
1466.124396,-12583.501014,1225.752797,4959.379811
1466.124707,-11029.068536,-995.924147,5329.482782
1466.125018,-7476.080014,-1378.971896,2368.659014
1466.125330,-4293.194464,459.657299,-518.144159
1466.125641,-3256.906145,2068.457845,-3404.947333
1466.125952,-4145.153275,2528.115143,-4663.297435
1466.126263,-8290.306550,1991.848295,-4589.276840
1466.126575,-12139.377449,0.000000,-1702.473667
1466.126886,-15026.180623,-1685.410096,592.164754
1466.127197,-14730.098246,-1302.362347,1776.494261
1466.127508,-12213.398043,919.314598,2960.823768
1466.127820,-9474.636058,536.266849,2368.659014
1466.128131,-8734.430116,229.828649,1850.514855
1466.128442,-8882.471304,2528.115143,1554.432478
1466.128753,-8512.368333,4443.353888,666.185348
1466.129065,-8586.388927,3217.601092,-370.102971
1466.129376,-7550.100608,-229.828649,-1184.329507
1466.129687,-5403.503377,-1225.752797,-1924.535449
1466.129998,-4441.235652,-1991.848295,-2368.659014
1466.130310,-6661.853478,-2604.724693,-888.247130
1466.130621,-10436.903782,-2374.896044,222.061783
1466.130932,-12583.501014,0.000000,1702.473667
1466.131243,-14508.036463,306.438199,2590.720797
1466.131555,-13175.665768,842.705048,2294.638420
1466.131866,-8216.285956,1915.238745,1480.411884
1466.132177,-4737.318029,1762.019645,-0.000000
1466.132488,-1628.453072,459.657299,1702.473667
1466.132800,-1850.514855,-1991.848295,444.123565
1466.133111,-4367.215058,-2298.286494,592.164754
1466.133422,-6291.750507,-2451.505594,1702.473667
1466.133733,-9178.553681,-4290.134789,296.082377
1466.134045,-9918.759623,-3370.820191,-222.061783
1466.134356,-11843.295072,-2221.676944,-814.226536
1466.134667,-13101.645173,-689.485948,-444.123565
1466.134978,-12361.439231,766.095498,1110.308913
1466.135290,-14137.933492,1225.752797,2664.741391
1466.135601,-11843.295072,1302.362347,5477.523971
1466.135912,-9474.636058,-689.485948,3256.906145
1466.136223,-7624.121203,229.828649,2220.617826
1466.136535,-3849.070898,1838.629195,-0.000000
1466.136846,-2812.782580,3140.991542,-2368.659014
1466.137157,-5107.421000,1532.190996,-2738.761985
1466.137468,-9030.512492,766.095498,-1850.514855
1466.137780,-12139.377449,0.000000,-1258.350101
1466.138091,-14137.933492,-612.876398,518.144159
1466.138402,-15100.201217,-995.924147,296.082377
1466.138713,-12879.583391,-536.266849,814.226536
1466.139025,-12139.377449,842.705048,1924.535449
1466.139336,-11695.253884,2068.457845,2072.576638
1466.139647,-10436.903782,3447.429741,1850.514855
1466.139958,-8586.388927,4596.572988,2368.659014
1466.140270,-5921.647536,3064.381992,1850.514855
1466.140581,-2812.782580,842.705048,-222.061783
1466.140892,-2294.638420,-1302.362347,-1406.391290
1466.141203,-1850.514855,-1991.848295,-1480.411884
1466.141515,-3256.906145,-3600.648841,-2442.679609
1466.141826,-8364.327145,-4903.011187,-814.226536
1466.142137,-13249.686362,-5439.278036,888.247130
1466.142448,-16210.510130,-5592.497135,2442.679609
1466.142760,-14359.995275,-3830.477490,2516.700203
1466.143071,-13397.727550,-1915.238745,1480.411884
1466.143382,-11103.089130,-919.314598,1628.453072
1466.143693,-7846.182985,1608.800546,-592.164754
1466.144005,-5477.523971,3677.258390,592.164754
1466.144316,-2590.720797,3140.991542,666.185348
1466.144627,-3775.050304,919.314598,1406.391290
1466.144938,-4441.235652,-689.485948,888.247130
1466.145250,-2960.823768,383.047749,-1554.432478
1466.145561,-3034.844362,1072.533697,-1554.432478
1466.145872,-7105.977043,153.219100,-2738.761985
1466.146183,-12805.562797,-306.438199,-2368.659014
1466.146495,-15692.365970,-536.266849,-888.247130
1466.146806,-18061.024985,0.000000,1258.350101
1466.147117,-18801.230927,1225.752797,1480.411884
1466.147428,-15766.386565,3217.601092,-148.041188
1466.147739,-12361.439231,3447.429741,-296.082377
1466.148051,-6661.853478,2604.724693,1110.308913
1466.148362,-2812.782580,1378.971896,2072.576638
1466.148673,-2590.720797,1072.533697,2294.638420
1466.148984,-3997.112087,153.219100,3330.926739
1466.149296,-7698.141797,-2374.896044,1554.432478
1466.149607,-6809.894666,-2374.896044,222.061783
1466.149918,-8068.244768,1302.362347,-1332.370696
1466.150229,-10510.924376,1455.581446,-1184.329507
1466.150541,-11843.295072,689.485948,-444.123565
1466.150852,-15840.407159,-536.266849,296.082377
1466.151163,-14952.160028,-306.438199,3108.864956
1466.151474,-13841.851115,-995.924147,3404.947333
1466.151786,-8586.388927,-306.438199,2812.782580
1466.152097,-4515.256246,459.657299,1406.391290
1466.152408,-1702.473667,0.000000,1702.473667
1466.152719,-296.082377,-1072.533697,1184.329507
1466.153031,-3034.844362,-2374.896044,2960.823768
1466.153342,-3552.988522,-1455.581446,2812.782580
1466.153653,-7772.162391,-3370.820191,1924.535449
1466.153964,-8956.491898,-2911.162892,1998.556043
1466.154276,-7328.038826,-1378.971896,222.061783
1466.154587,-8660.409521,-612.876398,-222.061783
1466.154898,-9178.553681,-612.876398,-1406.391290
1466.155209,-12583.501014,2068.457845,-1998.556043
1466.155521,-13915.871710,2528.115143,222.061783
1466.155832,-12583.501014,0.000000,740.205942
1466.156143,-10955.047942,-919.314598,-0.000000
1466.156454,-7550.100608,0.000000,-148.041188
1466.156766,-5773.606348,229.828649,-222.061783
1466.157077,-5329.482782,-1532.190996,-444.123565
1466.157388,-5255.462188,459.657299,1480.411884
1466.157699,-8956.491898,1838.629195,1110.308913
1466.158011,-12657.521608,0.000000,-0.000000
1466.158322,-12139.377449,-459.657299,-888.247130
1466.158633,-12139.377449,1532.190996,-2886.803174
1466.158944,-11621.233289,2145.067394,-3256.906145
1466.159256,-11621.233289,1455.581446,-2886.803174
1466.159567,-12879.583391,0.000000,-1332.370696
1466.159878,-13471.748144,0.000000,518.144159
1466.160190,-13471.748144,-1685.410096,2072.576638
1466.160501,-10807.006753,-4060.306139,1998.556043
1466.160813,-7031.956449,-2911.162892,1406.391290
1466.161124,-4737.318029,-1302.362347,740.205942
1466.161435,-5107.421000,0.000000,-1406.391290
1466.161747,-7476.080014,1225.752797,888.247130
1466.162058,-10066.800811,1762.019645,888.247130
1466.162370,-9252.574275,1608.800546,3182.885551
1466.162681,-9918.759623,306.438199,1554.432478
1466.162992,-8364.327145,306.438199,592.164754
1466.163304,-4811.338623,1378.971896,-518.144159
1466.163615,-4293.194464,1072.533697,-1332.370696
1466.163927,-5847.626942,459.657299,-1110.308913
1466.164238,-7920.203579,-229.828649,-0.000000
1466.164550,-9104.533087,-766.095498,1998.556043
1466.164861,-9030.512492,-3524.039291,2664.741391
1466.165172,-7328.038826,-3524.039291,2960.823768
1466.165484,-6291.750507,-3677.258390,3034.844362
1466.165795,-6661.853478,-2757.943793,2886.803174
1466.166107,-7920.203579,-2987.772442,2072.576638
1466.166418,-8364.327145,-766.095498,1554.432478
1466.166729,-9474.636058,1685.410096,1406.391290
1466.167041,-10881.027347,995.924147,-0.000000
1466.167352,-9326.594869,1149.143247,-814.226536
1466.167664,-8290.306550,2221.676944,-1776.494261
1466.167975,-7254.018232,2298.286494,222.061783
1466.168286,-8438.347739,76.609550,592.164754
1466.168598,-11029.068536,-1225.752797,1184.329507
1466.168909,-11695.253884,-536.266849,2590.720797
1466.169221,-11843.295072,-1532.190996,1406.391290
1466.169532,-10140.821405,-1608.800546,444.123565
1466.169844,-10881.027347,-536.266849,-2146.597232
1466.170155,-9844.739029,1685.410096,-1702.473667
1466.170466,-10658.965565,2451.505594,-1628.453072
1466.170778,-12731.542202,2374.896044,296.082377
1466.171089,-12361.439231,2451.505594,2368.659014
1466.171401,-12879.583391,919.314598,1480.411884
1466.171712,-8882.471304,1149.143247,1850.514855
1466.172023,-4589.276840,2374.896044,-148.041188
1466.172335,-5625.565159,2068.457845,-1628.453072
1466.172646,-5255.462188,2834.553343,-1184.329507
1466.172958,-6809.894666,536.266849,-666.185348
1466.173269,-9992.780217,-842.705048,1184.329507
1466.173581,-11103.089130,-1762.019645,1850.514855
1466.173892,-10881.027347,-2834.553343,592.164754
1466.174203,-7550.100608,-2221.676944,370.102971
1466.174515,-7550.100608,-1608.800546,-74.020594
1466.174826,-7254.018232,-766.095498,-1184.329507
1466.175138,-7994.224174,1608.800546,-740.205942
1466.175449,-10584.944971,995.924147,2220.617826
1466.175760,-8882.471304,-766.095498,3849.070898
1466.176072,-6513.812290,-1149.143247,3034.844362
1466.176383,-3108.864956,-995.924147,2146.597232
1466.176695,-888.247130,-2145.067394,1184.329507
1466.177006,-3627.009116,-3217.601092,-518.144159
1466.177318,-5107.421000,-1532.190996,-1184.329507
1466.177629,-8956.491898,-1762.019645,-740.205942
1466.177940,-12953.603985,-3447.429741,962.267725
1466.178252,-15396.283594,-3370.820191,370.102971
1466.178563,-14656.077652,-1225.752797,-444.123565
1466.178875,-12953.603985,0.000000,-814.226536
1466.179186,-12435.459826,1225.752797,-148.041188
1466.179497,-11399.171507,3370.820191,666.185348
1466.179809,-11029.068536,3447.429741,1628.453072
1466.180120,-7402.059420,1608.800546,3775.050304
1466.180432,-5773.606348,-1072.533697,2146.597232
1466.180743,-4367.215058,383.047749,296.082377
1466.181054,-3108.864956,2604.724693,-2294.638420
1466.181366,-6291.750507,3217.601092,-3701.029710
1466.181677,-10955.047942,1378.971896,-3701.029710
1466.181989,-15026.180623,1838.629195,-2146.597232
1466.182300,-17764.942608,842.705048,-740.205942
1466.182612,-18283.086767,-919.314598,814.226536
1466.182923,-14878.139434,-612.876398,1184.329507
1466.183234,-10955.047942,-229.828649,518.144159
1466.183546,-7772.162391,153.219100,2146.597232
1466.183857,-4219.173869,-153.219100,2960.823768
1466.184169,-3182.885551,-229.828649,3997.112087
1466.184480,-6069.688724,-766.095498,4367.215058
1466.184791,-5477.523971,-3064.381992,2960.823768
1466.185103,-2590.720797,-1532.190996,-148.041188
1466.185414,-2664.741391,-1915.238745,-2294.638420
1466.185726,-6069.688724,-1991.848295,-2072.576638
1466.186037,-8364.327145,-2221.676944,-1184.329507
1466.186349,-11547.212695,-842.705048,-814.226536
1466.186660,-14730.098246,-2221.676944,2886.803174
1466.186971,-14285.974681,-2757.943793,3552.988522
1466.187283,-11843.295072,-1225.752797,2072.576638
1466.187594,-7254.018232,1378.971896,1850.514855
1466.187906,-3701.029710,1072.533697,1850.514855
1466.188217,-2664.741391,-229.828649,740.205942
1466.188528,-2664.741391,536.266849,666.185348
1466.188840,-3404.947333,-689.485948,2516.700203
1466.189151,-5403.503377,-1225.752797,1998.556043
1466.189463,-9030.512492,0.000000,-740.205942
1466.189774,-10066.800811,2451.505594,-1850.514855
1466.190086,-10510.924376,2221.676944,-2220.617826
1466.190397,-12731.542202,1915.238745,-2368.659014
1466.190708,-14211.954086,3217.601092,-444.123565
1466.191020,-16358.551318,1608.800546,370.102971
1466.191331,-15544.324782,-689.485948,1850.514855
1466.191643,-12879.583391,-306.438199,2294.638420
1466.191954,-8364.327145,612.876398,814.226536
1466.192265,-4293.194464,1302.362347,296.082377
1466.192577,-5255.462188,306.438199,-518.144159
1466.192888,-7105.977043,-459.657299,-666.185348
1466.193200,-10807.006753,0.000000,-592.164754
1466.193511,-13175.665768,1915.238745,296.082377
1466.193822,-13693.809927,2987.772442,-444.123565
1466.194134,-11769.274478,1532.190996,-1480.411884
1466.194445,-8882.471304,153.219100,-370.102971
1466.194757,-8142.265362,0.000000,-296.082377
1466.195068,-9030.512492,1762.019645,592.164754
1466.195380,-9252.574275,2374.896044,2368.659014
1466.195691,-10732.986159,-229.828649,2812.782580
1466.196002,-9992.780217,-1838.629195,1850.514855
1466.196314,-5773.606348,-459.657299,888.247130
1466.196625,-2072.576638,919.314598,-962.267725
1466.196937,-1406.391290,-612.876398,-888.247130
1466.197248,-3330.926739,-2604.724693,-74.020594
1466.197559,-6957.935855,-4519.963438,1776.494261
1466.197871,-10214.842000,-4366.744339,4663.297435
1466.198182,-12361.439231,-3677.258390,4811.338623
1466.198494,-10140.821405,-1838.629195,2442.679609
1466.198805,-7550.100608,-536.266849,518.144159
1466.199117,-6809.894666,919.314598,-1110.308913
1466.199428,-5847.626942,2221.676944,-962.267725
1466.199739,-7920.203579,2528.115143,-1406.391290
1466.200051,-8660.409521,1838.629195,2072.576638
1466.200362,-9252.574275,-1685.410096,2072.576638
1466.200674,-8142.265362,-2757.943793,814.226536
1466.200985,-6365.771101,-1455.581446,444.123565
1466.201296,-6143.709319,-689.485948,-666.185348
1466.201608,-8438.347739,-1302.362347,-1258.350101
1466.201919,-12213.398043,-612.876398,-444.123565
1466.202231,-14508.036463,689.485948,814.226536
1466.202542,-15692.365970,1072.533697,592.164754
1466.202853,-13027.624579,766.095498,1480.411884
1466.203165,-10066.800811,1225.752797,-296.082377
1466.203476,-8808.450710,1455.581446,-0.000000
1466.203788,-8290.306550,1762.019645,-0.000000
1466.204099,-10288.862594,995.924147,-1184.329507
1466.204411,-11621.233289,2451.505594,444.123565
1466.204722,-11695.253884,995.924147,444.123565
1466.205033,-10436.903782,-995.924147,-148.041188
1466.205345,-8290.306550,-1378.971896,-1036.288319
1466.205656,-8068.244768,-459.657299,-0.000000
1466.205968,-7920.203579,-153.219100,592.164754
1466.206279,-9622.677246,-842.705048,1998.556043
1466.206590,-10288.862594,-612.876398,2738.761985
1466.206902,-11103.089130,-229.828649,3627.009116
1466.207213,-10214.842000,1685.410096,1998.556043
1466.207525,-4737.318029,3447.429741,-1036.288319
1466.207836,-2146.597232,4903.011187,-3627.009116
1466.208148,-2368.659014,1915.238745,-2812.782580
1466.208459,-3034.844362,-536.266849,-1036.288319
1466.208770,-7624.121203,-1838.629195,666.185348
1466.209082,-10214.842000,-3447.429741,3775.050304
1466.209393,-9770.718434,-5286.058936,3775.050304
1466.209705,-10658.965565,-5592.497135,2664.741391
1466.210016,-9474.636058,-4366.744339,2146.597232
1466.210327,-8882.471304,-3370.820191,-148.041188
1466.210639,-9252.574275,-1072.533697,-222.061783
1466.210950,-8808.450710,1685.410096,814.226536
1466.211262,-8512.368333,1149.143247,1554.432478
1466.211573,-8216.285956,-1302.362347,1850.514855
1466.211885,-5107.421000,459.657299,1332.370696
1466.212196,-3034.844362,2298.286494,-74.020594
1466.212507,-5329.482782,2145.067394,-962.267725
1466.212819,-7402.059420,919.314598,-740.205942
1466.213130,-11843.295072,689.485948,-1776.494261
1466.213442,-15766.386565,1302.362347,-888.247130
1466.213753,-15914.427753,1915.238745,-222.061783
1466.214064,-13767.830521,1532.190996,-814.226536
1466.214376,-12435.459826,766.095498,-592.164754
1466.214687,-10881.027347,306.438199,148.041188
1466.214999,-10807.006753,306.438199,-0.000000
1466.215310,-10066.800811,2834.553343,1184.329507
1466.215621,-9548.656652,2604.724693,2368.659014
1466.215933,-8882.471304,306.438199,740.205942
1466.216244,-6439.791695,-153.219100,-0.000000
1466.216556,-4885.359217,689.485948,-1406.391290
1466.216867,-4441.235652,1608.800546,-1998.556043
1466.217179,-7772.162391,612.876398,-1924.535449
1466.217490,-12361.439231,-1072.533697,-148.041188
1466.217801,-14878.139434,-1302.362347,2220.617826
1466.218113,-14952.160028,-1378.971896,2590.720797
1466.218424,-11991.336260,-995.924147,1924.535449
1466.218736,-8142.265362,-995.924147,-0.000000
1466.219047,-4589.276840,-766.095498,666.185348
1466.219358,-4589.276840,-842.705048,814.226536
1466.219670,-3108.864956,0.000000,1480.411884
1466.219981,-3627.009116,153.219100,3256.906145
1466.220293,-5625.565159,-3524.039291,4145.153275
1466.220604,-4367.215058,-4979.620737,2960.823768
1466.220916,-4515.256246,-3370.820191,-148.041188
1466.221227,-5181.441594,-766.095498,-740.205942
1466.221538,-6735.874072,306.438199,-1480.411884
1466.221850,-10807.006753,-1149.143247,-1258.350101
1466.222161,-14508.036463,-1225.752797,518.144159
1466.222473,-15396.283594,-689.485948,1554.432478
1466.222784,-14508.036463,766.095498,1184.329507
1466.223095,-11325.150913,1608.800546,1406.391290
1466.223407,-7698.141797,1378.971896,740.205942
1466.223718,-6143.709319,76.609550,-222.061783
1466.224030,-4589.276840,536.266849,1480.411884
1466.224341,-5033.400406,1455.581446,1998.556043
1466.224653,-7920.203579,-459.657299,1258.350101
1466.224964,-9474.636058,-612.876398,-1184.329507
1466.225275,-9400.615463,842.705048,-2812.782580
1466.225587,-10066.800811,2145.067394,-3034.844362
1466.225898,-12213.398043,2604.724693,-3182.885551
1466.226210,-13989.892304,1838.629195,-1184.329507
1466.226521,-16136.489536,919.314598,296.082377
1466.226832,-15544.324782,383.047749,2812.782580
1466.227144,-13693.809927,-536.266849,2368.659014
1466.227455,-9030.512492,0.000000,1924.535449
1466.227767,-4737.318029,612.876398,1998.556043
1466.228078,-2442.679609,-229.828649,740.205942
1466.228389,-5403.503377,-612.876398,222.061783
1466.228701,-8438.347739,0.000000,666.185348
1466.229012,-9400.615463,536.266849,1036.288319
1466.229324,-10140.821405,-459.657299,148.041188
1466.229635,-8142.265362,-1532.190996,-148.041188
1466.229947,-7254.018232,-1149.143247,-518.144159
1466.230258,-7031.956449,-2681.334243,-666.185348
1466.230569,-6883.915261,0.000000,-148.041188
1466.230881,-8512.368333,1608.800546,1406.391290
1466.231192,-10658.965565,2068.457845,2146.597232
1466.231504,-11399.171507,536.266849,2368.659014
1466.231815,-7550.100608,-459.657299,2146.597232
1466.232126,-3701.029710,-536.266849,1110.308913
1466.232438,-2220.617826,-1991.848295,1332.370696
1466.232749,-3034.844362,-3140.991542,-0.000000
1466.233061,-7179.997637,-2911.162892,296.082377
1466.233372,-11621.233289,-2374.896044,1480.411884
1466.233684,-12213.398043,-1455.581446,1184.329507
1466.233995,-12065.356855,-153.219100,592.164754
1466.234306,-10288.862594,536.266849,-1258.350101
1466.234618,-8956.491898,995.924147,-1480.411884
1466.234929,-8512.368333,919.314598,-148.041188
1466.235241,-9030.512492,1225.752797,666.185348
1466.235552,-9918.759623,1915.238745,2590.720797
1466.235863,-11621.233289,153.219100,2072.576638
1466.236175,-9622.677246,-153.219100,1110.308913
1466.236486,-6291.750507,1149.143247,-1258.350101
1466.236798,-5847.626942,1915.238745,-2590.720797
1466.237109,-8364.327145,1302.362347,-3478.967927
1466.237421,-11325.150913,995.924147,-1702.473667
1466.237732,-14285.974681,383.047749,740.205942
1466.238043,-16062.468941,-612.876398,2220.617826
1466.238355,-14063.912898,-842.705048,1924.535449
1466.238666,-9770.718434,0.000000,1110.308913
1466.238978,-6661.853478,383.047749,888.247130
1466.239289,-5625.565159,0.000000,-74.020594
1466.239600,-7550.100608,229.828649,222.061783
1466.239912,-9474.636058,919.314598,1036.288319
1466.240223,-10214.842000,612.876398,1998.556043
1466.240535,-9252.574275,-612.876398,1850.514855
1466.240846,-6217.729913,-1762.019645,370.102971
1466.241157,-5551.544565,-2451.505594,666.185348
1466.241469,-6513.812290,-3140.991542,962.267725
1466.241780,-7920.203579,-1762.019645,518.144159
1466.242092,-9474.636058,459.657299,1554.432478
1466.242403,-9844.739029,689.485948,1850.514855
1466.242715,-10362.883188,-995.924147,1406.391290
1466.243026,-7179.997637,-383.047749,740.205942
1466.243337,-3775.050304,995.924147,222.061783
1466.243649,-2368.659014,-459.657299,444.123565
1466.243960,-4219.173869,-1762.019645,888.247130
1466.244272,-7254.018232,-1838.629195,814.226536
1466.244583,-8068.244768,-2374.896044,2072.576638
1466.244894,-9770.718434,-4290.134789,1036.288319
1466.245206,-9622.677246,-2911.162892,-148.041188
1466.245517,-11029.068536,-306.438199,-1332.370696
1466.245829,-12509.480420,153.219100,-1036.288319
1466.246140,-12583.501014,612.876398,1036.288319
1466.246452,-13693.809927,612.876398,2146.597232
1466.246763,-12879.583391,1915.238745,3404.947333
1466.247074,-10658.965565,1149.143247,1110.308913
1466.247386,-6217.729913,1455.581446,-444.123565
1466.247697,-2590.720797,2834.553343,-1406.391290
1466.248009,-3923.091493,2298.286494,-2886.803174
1466.248320,-6883.915261,1915.238745,-3182.885551
1466.248631,-10881.027347,1302.362347,-2146.597232
1466.248943,-14063.912898,536.266849,666.185348
1466.249254,-16728.654289,-689.485948,-74.020594
1466.249566,-15100.201217,0.000000,-370.102971
1466.249877,-11325.150913,919.314598,-222.061783
1466.250189,-9696.697840,1225.752797,296.082377
1466.250500,-9474.636058,1608.800546,1480.411884
1466.250811,-8808.450710,1838.629195,2294.638420
1466.251123,-7772.162391,1455.581446,3404.947333
1466.251434,-8290.306550,-306.438199,3404.947333
1466.251746,-5551.544565,-536.266849,1184.329507
1466.252057,-1998.556043,1302.362347,-1998.556043
1466.252368,-2368.659014,-306.438199,-1924.535449
1466.252680,-4441.235652,-2221.676944,-1924.535449
1466.252991,-8364.327145,-2528.115143,-1110.308913
1466.253303,-12509.480420,-2987.772442,1554.432478
1466.253614,-13915.871710,-4366.744339,3330.926739
1466.253925,-13101.645173,-4060.306139,2738.761985
1466.254237,-11621.233289,0.000000,962.267725
1466.254548,-10066.800811,919.314598,370.102971
1466.254860,-7105.977043,1608.800546,740.205942
1466.255171,-4515.256246,2834.553343,2294.638420
1466.255483,-3701.029710,3140.991542,3108.864956
1466.255794,-3849.070898,153.219100,2072.576638
1466.256105,-4219.173869,-1378.971896,1110.308913
1466.256417,-2886.803174,-995.924147,-1110.308913
1466.256728,-3256.906145,536.266849,-2368.659014
1466.257040,-8956.491898,842.705048,-3627.009116
1466.257351,-13767.830521,536.266849,-3478.967927
1466.257662,-16654.633695,0.000000,-148.041188
1466.257974,-19319.375086,-1915.238745,2738.761985
1466.258285,-18209.066173,-1225.752797,3330.926739
1466.258597,-14285.974681,842.705048,888.247130
1466.258908,-9252.574275,1608.800546,1332.370696
1466.259220,-4959.379811,76.609550,814.226536
1466.259531,-2146.597232,1149.143247,1110.308913
1466.259842,-2442.679609,2068.457845,1406.391290
1466.260154,-7402.059420,-459.657299,1110.308913
1466.260465,-10658.965565,-1838.629195,666.185348
1466.260777,-9474.636058,842.705048,-1628.453072
1466.261088,-9770.718434,2451.505594,-1702.473667
1466.261399,-10140.821405,-153.219100,-1332.370696
1466.261711,-11991.336260,-3064.381992,-370.102971
1466.262022,-13619.789333,-1915.238745,962.267725
1466.262334,-13619.789333,-1149.143247,2664.741391
1466.262645,-13841.851115,-1225.752797,2442.679609
1466.262956,-10807.006753,689.485948,1258.350101
1466.263268,-6587.832884,2145.067394,1258.350101
1466.263579,-1702.473667,306.438199,-296.082377
1466.263891,370.102971,0.000000,1036.288319
1466.264202,-2146.597232,153.219100,1702.473667
1466.264513,-5995.668130,-2604.724693,3404.947333
1466.264825,-8290.306550,-3677.258390,2220.617826
1466.265136,-9548.656652,-2221.676944,1110.308913
1466.265448,-8068.244768,0.000000,296.082377
1466.265759,-8956.491898,-1072.533697,-1110.308913
1466.266071,-9622.677246,-919.314598,-1110.308913
1466.266382,-11251.130318,612.876398,-1480.411884
1466.266693,-11991.336260,383.047749,1184.329507
1466.267005,-12657.521608,-306.438199,1258.350101
1466.267316,-10881.027347,919.314598,740.205942
1466.267628,-5921.647536,1991.848295,-74.020594
1466.267939,-2442.679609,1072.533697,518.144159
1466.268250,-2812.782580,-153.219100,296.082377
1466.268562,-6513.812290,306.438199,-0.000000
1466.268873,-9622.677246,1302.362347,1480.411884
1466.269185,-13249.686362,-459.657299,740.205942
1466.269496,-14582.057057,1149.143247,-0.000000
1466.269807,-13619.789333,2834.553343,-2072.576638
1466.270119,-10732.986159,2298.286494,-2516.700203
1466.270430,-10066.800811,766.095498,-1776.494261
1466.270742,-9918.759623,-229.828649,-444.123565
1466.271053,-10955.047942,153.219100,740.205942
1466.271364,-12583.501014,153.219100,1850.514855
1466.271676,-9918.759623,-383.047749,2294.638420
1466.271987,-7105.977043,536.266849,-0.000000
1466.272299,-5625.565159,1302.362347,592.164754
1466.272610,-7254.018232,842.705048,444.123565
1466.272922,-9030.512492,-383.047749,1332.370696
1466.273233,-10807.006753,0.000000,2442.679609
1466.273544,-11917.315666,919.314598,2220.617826
1466.273856,-10214.842000,459.657299,1924.535449
1466.274167,-7328.038826,-459.657299,-296.082377
1466.274479,-3701.029710,-459.657299,-740.205942
1466.274790,-3108.864956,0.000000,-2294.638420
1466.275101,-5773.606348,383.047749,-1554.432478
1466.275413,-7698.141797,766.095498,1480.411884
1466.275724,-10140.821405,-2528.115143,3330.926739
1466.276036,-10658.965565,-4903.011187,3478.967927
1466.276347,-7328.038826,-4060.306139,2960.823768
1466.276658,-5329.482782,-2221.676944,1702.473667
1466.276970,-7179.997637,-2451.505594,888.247130
1466.277281,-8068.244768,-2451.505594,1480.411884
1466.277593,-9770.718434,-689.485948,370.102971
1466.277904,-11621.233289,153.219100,2220.617826
1466.278215,-11029.068536,0.000000,444.123565
1466.278527,-9474.636058,459.657299,-1036.288319
1466.278838,-7698.141797,1532.190996,-1332.370696
1466.279150,-6587.832884,306.438199,-1776.494261
1466.279461,-7105.977043,459.657299,-222.061783
1466.279772,-8882.471304,1685.410096,592.164754
1466.280084,-11769.274478,689.485948,1924.535449
1466.280395,-11769.274478,-2068.457845,1110.308913
1466.280707,-10658.965565,-1608.800546,-888.247130
1466.281018,-9326.594869,1072.533697,-444.123565
1466.281330,-9696.697840,1991.848295,-1480.411884
1466.281641,-12435.459826,995.924147,-814.226536
1466.281952,-13619.789333,1838.629195,444.123565
1466.282264,-13101.645173,2604.724693,2368.659014
1466.282575,-11399.171507,1838.629195,1110.308913
1466.282887,-7550.100608,1762.019645,370.102971
1466.283198,-5033.400406,2604.724693,-1110.308913
1466.283509,-3108.864956,1991.848295,-1258.350101
1466.283821,-6143.709319,536.266849,-2072.576638
1466.284132,-8882.471304,1532.190996,-370.102971
1466.284444,-10436.903782,459.657299,2146.597232
1466.284755,-13249.686362,-3140.991542,2886.803174
1466.285066,-10658.965565,-4060.306139,2812.782580
1466.285378,-8142.265362,-2145.067394,222.061783
1466.285689,-6513.812290,-612.876398,-0.000000
1466.286001,-6587.832884,612.876398,-0.000000
1466.286312,-8142.265362,229.828649,-0.000000
1466.286623,-9326.594869,1608.800546,1924.535449
1466.286935,-8734.430116,842.705048,3034.844362
1466.287246,-5625.565159,0.000000,1924.535449
1466.287558,-4589.276840,76.609550,370.102971
1466.287869,-2960.823768,-612.876398,1036.288319
1466.288181,-2368.659014,-2451.505594,-222.061783
1466.288492,-5773.606348,-3447.429741,444.123565
1466.288803,-9770.718434,-3370.820191,2072.576638
1466.289115,-13545.768739,-4213.525239,1924.535449
1466.289426,-14508.036463,-3600.648841,962.267725
1466.289738,-13471.748144,-1225.752797,-148.041188
1466.290049,-11991.336260,1532.190996,-962.267725
1466.290360,-11103.089130,3064.381992,-1924.535449
1466.290672,-11769.274478,3294.210641,-1332.370696
1466.290983,-9696.697840,2451.505594,2442.679609
1466.291295,-8586.388927,1149.143247,3552.988522
1466.291606,-5921.647536,153.219100,2738.761985
1466.291917,-2812.782580,689.485948,-370.102971
1466.292229,-3330.926739,383.047749,-1850.514855
1466.292540,-6661.853478,766.095498,-2516.700203
1466.292852,-10066.800811,1608.800546,-2368.659014
1466.293163,-15618.345376,1149.143247,-1628.453072
1466.293474,-18949.272115,-1149.143247,1110.308913
1466.293786,-18283.086767,-2145.067394,1258.350101
1466.294097,-14804.118840,-612.876398,-74.020594
1466.294409,-10658.965565,1225.752797,148.041188
1466.294720,-6661.853478,1302.362347,-0.000000
1466.295032,-4959.379811,1455.581446,1406.391290
1466.295343,-3849.070898,2221.676944,3404.947333
1466.295654,-3404.947333,536.266849,3701.029710
1466.295966,-6291.750507,-1991.848295,1480.411884
1466.296277,-5403.503377,-995.924147,370.102971
1466.296589,-4589.276840,1225.752797,-2294.638420
1466.296900,-5403.503377,1072.533697,-2516.700203
1466.297211,-9178.553681,-842.705048,-1628.453072
1466.297523,-11325.150913,-2298.286494,-370.102971
1466.297834,-12805.562797,-2068.457845,1924.535449
1466.298146,-14952.160028,-2068.457845,2516.700203
1466.298457,-11695.253884,-1302.362347,1110.308913
1466.298768,-8216.285956,1378.971896,-370.102971
1466.299080,-4293.194464,1991.848295,-0.000000
1466.299391,-2146.597232,766.095498,-0.000000
1466.299703,-3849.070898,-842.705048,1850.514855
1466.300014,-4663.297435,-1532.190996,4367.215058
1466.300325,-6735.874072,-2911.162892,3849.070898
1466.300637,-7772.162391,-3524.039291,1480.411884
1466.300948,-9178.553681,-919.314598,-444.123565
1466.301260,-10288.862594,1378.971896,-2368.659014
1466.301571,-11991.336260,1455.581446,-2516.700203
1466.301882,-14508.036463,459.657299,-1554.432478
1466.302194,-15988.448347,842.705048,222.061783
1466.302505,-16802.674883,-383.047749,962.267725
1466.302817,-13249.686362,-1225.752797,888.247130
1466.303128,-9104.533087,-459.657299,-74.020594
1466.303440,-6143.709319,995.924147,740.205942
1466.303751,-3478.967927,229.828649,-0.000000
1466.304062,-4737.318029,-306.438199,-0.000000
1466.304374,-7920.203579,76.609550,1924.535449
1466.304685,-11399.171507,-612.876398,2368.659014
1466.304997,-11103.089130,-1225.752797,296.082377
1466.305308,-11621.233289,229.828649,-1628.453072
1466.305619,-10584.944971,1991.848295,-370.102971
1466.305931,-10436.903782,1762.019645,-2220.617826
1466.306242,-11769.274478,2298.286494,-1110.308913
1466.306554,-12361.439231,2068.457845,148.041188
1466.306865,-11547.212695,0.000000,1924.535449
1466.307176,-9178.553681,-536.266849,1036.288319
1466.307488,-5255.462188,229.828649,222.061783
1466.307799,-2368.659014,0.000000,-74.020594
1466.308111,-2516.700203,-2528.115143,-148.041188
1466.308422,-4959.379811,-3140.991542,1554.432478
1466.308733,-6217.729913,-2145.067394,2738.761985
1466.309045,-9474.636058,-3217.601092,4441.235652
1466.309356,-11473.192101,-3294.210641,3849.070898
1466.309668,-9252.574275,-1838.629195,1184.329507
1466.309979,-5921.647536,459.657299,-814.226536
1466.310291,-5255.462188,1762.019645,-1850.514855
1466.310602,-5995.668130,2221.676944,-1480.411884
1466.310913,-8734.430116,1302.362347,-666.185348
1466.311225,-11473.192101,-383.047749,2220.617826
1466.311536,-10881.027347,-995.924147,2368.659014
1466.311848,-8882.471304,-383.047749,1332.370696
1466.312159,-6809.894666,-536.266849,1406.391290
1466.312470,-6883.915261,-1225.752797,222.061783
1466.312782,-7624.121203,-1532.190996,-0.000000
1466.313093,-10362.883188,383.047749,-444.123565
1466.313405,-12065.356855,1455.581446,1332.370696
1466.313716,-13027.624579,689.485948,-0.000000
1466.314027,-11843.295072,1532.190996,-592.164754
1466.314339,-8364.327145,2451.505594,-1036.288319
1466.314650,-7994.224174,1991.848295,-1110.308913
1466.314962,-8956.491898,689.485948,-370.102971
1466.315273,-10510.924376,1532.190996,444.123565
1466.315584,-12953.603985,306.438199,1776.494261
1466.315896,-13175.665768,-1532.190996,1110.308913
1466.316207,-11399.171507,-1225.752797,592.164754
1466.316519,-8364.327145,-153.219100,-592.164754
1466.316830,-7254.018232,-229.828649,-1110.308913
1466.317142,-9104.533087,-842.705048,-518.144159
1466.317453,-10510.924376,383.047749,518.144159
1466.317764,-11991.336260,536.266849,1776.494261
1466.318076,-11917.315666,842.705048,2294.638420
1466.318387,-7402.059420,1532.190996,1332.370696
1466.318699,-4811.338623,1149.143247,-296.082377
1466.319010,-1332.370696,1072.533697,-0.000000
1466.319321,-1480.411884,153.219100,-1480.411884
1466.319633,-5625.565159,-383.047749,-222.061783
1466.319944,-8142.265362,612.876398,1924.535449
1466.320256,-11695.253884,-1762.019645,2590.720797
1466.320567,-10955.047942,-2834.553343,2738.761985
1466.320878,-8660.409521,-2757.943793,1184.329507
1466.321190,-6957.935855,-2911.162892,-0.000000
1466.321501,-6661.853478,-2145.067394,-1110.308913
1466.321813,-7698.141797,76.609550,-518.144159
1466.322124,-10436.903782,689.485948,-222.061783
1466.322435,-11029.068536,1378.971896,888.247130
1466.322747,-10288.862594,612.876398,814.226536
1466.323058,-7476.080014,1302.362347,444.123565
1466.323370,-4589.276840,2145.067394,-222.061783
1466.323681,-4737.318029,995.924147,296.082377
1466.323993,-6069.688724,-153.219100,888.247130
1466.324304,-9918.759623,229.828649,1036.288319
1466.324615,-12287.418637,0.000000,592.164754
1466.324927,-12953.603985,-1149.143247,-0.000000
1466.325238,-12065.356855,-919.314598,-296.082377
1466.325550,-11991.336260,76.609550,-1850.514855
1466.325861,-12657.521608,1225.752797,-2368.659014
1466.326172,-11991.336260,1455.581446,-1036.288319
1466.326484,-12805.562797,1302.362347,1332.370696
1466.326795,-11473.192101,-229.828649,3775.050304
1466.327107,-9474.636058,-2681.334243,2368.659014
1466.327418,-5995.668130,-1838.629195,1702.473667
1466.327729,-4515.256246,-383.047749,592.164754
1466.328041,-5921.647536,-153.219100,-592.164754
1466.328352,-8512.368333,-919.314598,-1258.350101
1466.328664,-12065.356855,-612.876398,-222.061783
1466.328975,-13693.809927,-306.438199,1554.432478
1466.329286,-13397.727550,153.219100,1480.411884
1466.329598,-11917.315666,306.438199,-74.020594
1466.329909,-8364.327145,1455.581446,-666.185348
1466.330221,-5477.523971,1225.752797,-1036.288319
1466.330532,-5255.462188,1378.971896,-666.185348
1466.330843,-6143.709319,2757.943793,444.123565
1466.331155,-7254.018232,1225.752797,2812.782580
1466.331466,-5921.647536,-919.314598,4367.215058
1466.331778,-3108.864956,-2451.505594,3478.967927
1466.332089,-2220.617826,-2068.457845,1702.473667
1466.332401,-2590.720797,-2451.505594,592.164754
1466.332712,-5625.565159,-3140.991542,148.041188
1466.333023,-8586.388927,-2451.505594,-148.041188
1466.333335,-12435.459826,-612.876398,222.061783
1466.333646,-16062.468941,0.000000,222.061783
1466.333958,-14582.057057,919.314598,444.123565
1466.334269,-11843.295072,2145.067394,148.041188
1466.334580,-8808.450710,1302.362347,888.247130
1466.334892,-5995.668130,536.266849,1480.411884
1466.335203,-4589.276840,383.047749,3182.885551
1466.335515,-4441.235652,383.047749,3997.112087
1466.335826,-6143.709319,-306.438199,888.247130
1466.336137,-6957.935855,229.828649,-888.247130
1466.336449,-7624.121203,2528.115143,-3552.988522
1466.336760,-9252.574275,3524.039291,-3923.091493
1466.337072,-11991.336260,2451.505594,-3627.009116
1466.337383,-15692.365970,612.876398,-1924.535449
1466.337694,-16950.716072,-153.219100,1480.411884
1466.338006,-17468.860231,-1378.971896,2368.659014
1466.338317,-15618.345376,-383.047749,2146.597232
1466.338629,-10288.862594,1532.190996,962.267725
1466.338940,-5773.606348,1838.629195,222.061783
1466.339252,-3775.050304,1149.143247,148.041188
1466.339563,-4293.194464,0.000000,-148.041188
1466.339874,-7105.977043,689.485948,666.185348
1466.340186,-10214.842000,-995.924147,2368.659014
1466.340497,-10288.862594,-2604.724693,1332.370696
1466.340809,-8364.327145,-1838.629195,-0.000000
1466.341120,-7698.141797,-1072.533697,-814.226536
1466.341431,-7031.956449,-1302.362347,-740.205942
1466.341743,-8364.327145,-2451.505594,-666.185348
1466.342054,-11621.233289,-1302.362347,-0.000000
1466.342366,-11843.295072,383.047749,2368.659014
1466.342677,-11251.130318,-459.657299,2220.617826
1466.342988,-7698.141797,-306.438199,2220.617826
1466.343300,-4071.132681,229.828649,962.267725
1466.343611,-2294.638420,-1455.581446,518.144159
1466.343923,-2294.638420,-1838.629195,1258.350101
1466.344234,-4737.318029,-1838.629195,592.164754
1466.344545,-7105.977043,-2374.896044,1776.494261
1466.344857,-10288.862594,-2911.162892,1184.329507
1466.345168,-10732.986159,-1991.848295,518.144159
1466.345480,-10140.821405,0.000000,-740.205942
1466.345791,-11399.171507,689.485948,-814.226536
1466.346103,-11103.089130,2145.067394,-0.000000
1466.346414,-12435.459826,1991.848295,296.082377
1466.346725,-12657.521608,459.657299,3034.844362
1466.347037,-11103.089130,-306.438199,2738.761985
1466.347348,-7698.141797,0.000000,1036.288319
1466.347660,-3923.091493,1072.533697,-962.267725
1466.347971,-3330.926739,919.314598,-1628.453072
1466.348282,-6291.750507,-842.705048,-2294.638420
1466.348594,-8216.285956,-383.047749,-444.123565
1466.348905,-12805.562797,-1455.581446,814.226536
1466.349217,-15692.365970,-2757.943793,1332.370696
1466.349528,-14211.954086,-1608.800546,1110.308913
1466.349839,-11029.068536,-1072.533697,222.061783
1466.350151,-7846.182985,-1685.410096,-222.061783
1466.350462,-7476.080014,-2834.553343,-222.061783
1466.350774,-7772.162391,-1762.019645,-370.102971
1466.351085,-8586.388927,612.876398,1406.391290
1466.351396,-9400.615463,-1378.971896,2072.576638
1466.351708,-9326.594869,-5439.278036,1702.473667
1466.352019,-7105.977043,-5132.839837,666.185348
1466.352331,-4071.132681,-4213.525239,666.185348
1466.352642,-6069.688724,-4749.792088,222.061783
1466.352953,-8734.430116,-5362.668486,1258.350101
1466.353265,-11769.274478,-4366.744339,1554.432478
1466.353576,-12583.501014,-4060.306139,2146.597232
1466.353888,-10510.924376,-2834.553343,1184.329507
1466.354199,-9770.718434,-612.876398,-1406.391290
1466.354511,-7772.162391,-153.219100,-814.226536
1466.354822,-5255.462188,-1685.410096,-296.082377
1466.355133,-4959.379811,-2221.676944,-370.102971
1466.355445,-7105.977043,-766.095498,1480.411884
1466.355756,-7550.100608,-612.876398,2146.597232
1466.356068,-7550.100608,-3370.820191,1628.453072
1466.356379,-7254.018232,-5132.839837,370.102971
1466.356690,-5699.585753,-2757.943793,-962.267725
1466.357002,-5403.503377,-1455.581446,-2368.659014
1466.357313,-9770.718434,-2757.943793,-740.205942
1466.357625,-13693.809927,-4826.401637,1702.473667
1466.357936,-15544.324782,-5056.230287,2442.679609
1466.358247,-15470.304188,-4749.792088,3775.050304
1466.358559,-12583.501014,-4596.572988,2516.700203
1466.358870,-8660.409521,-4749.792088,-222.061783
1466.359186,-4811.338623,-2834.553343,-2146.597232
1466.359497,-1110.308913,-1762.019645,-1924.535449
1466.359809,-4293.194464,-3217.601092,-888.247130
1466.360120,-9770.718434,-3217.601092,888.247130
1466.360432,-13323.706956,-1149.143247,1998.556043
1466.360743,-14137.933492,-1838.629195,2886.803174
1466.361055,-12879.583391,-2987.772442,2590.720797
1466.361366,-10510.924376,-3217.601092,666.185348
1466.361677,-7994.224174,-2298.286494,-2590.720797
1466.361989,-5329.482782,-1149.143247,-3552.988522
1466.362300,-5107.421000,-1072.533697,-2368.659014
1466.362612,-9104.533087,-842.705048,-444.123565
1466.362923,-12583.501014,-2068.457845,1332.370696
1466.363235,-12213.398043,-2451.505594,3552.988522
1466.363546,-9474.636058,-2451.505594,3552.988522
1466.363858,-5921.647536,-536.266849,2664.741391
1466.364169,-4811.338623,-2068.457845,296.082377
1466.364480,-4367.215058,-3907.087040,-1184.329507
1466.364792,-3108.864956,-4213.525239,-1110.308913
1466.365103,-3775.050304,-2451.505594,-444.123565
1466.365415,-8364.327145,-3140.991542,1184.329507
1466.365726,-14804.118840,-7048.078582,2442.679609
1466.366038,-14434.015869,-7507.735880,4219.173869
1466.366349,-12065.356855,-6435.202183,3478.967927
1466.366661,-8438.347739,-5209.449386,2738.761985
1466.366972,-6291.750507,-6741.640382,592.164754
1466.367283,-5477.523971,-8427.050478,-1480.411884
1466.367595,-3701.029710,-7124.688131,-1480.411884
1466.367906,-3701.029710,-3907.087040,-1184.329507
1466.368218,-5699.585753,-689.485948,-592.164754
1466.368529,-10584.944971,-1838.629195,1850.514855
1466.368841,-12731.542202,-5362.668486,3997.112087
1466.369152,-12435.459826,-5286.058936,3923.091493
1466.369463,-11917.315666,-1149.143247,2368.659014
1466.369775,-11029.068536,842.705048,148.041188
1466.370086,-9474.636058,-842.705048,-2516.700203
1466.370398,-7179.997637,-1072.533697,-4367.215058
1466.370709,-7105.977043,-306.438199,-4885.359217
1466.371021,-8882.471304,919.314598,-3923.091493
1466.371332,-11843.295072,1532.190996,-1406.391290
1466.371644,-14137.933492,919.314598,1258.350101
1466.371955,-14137.933492,-1532.190996,2960.823768
1466.372266,-13175.665768,-3753.867940,2664.741391
1466.372578,-10066.800811,-2221.676944,2220.617826
1466.372889,-6809.894666,153.219100,1036.288319
1466.373201,-5403.503377,-229.828649,-1554.432478
1466.373512,-4663.297435,-3294.210641,-1480.411884
1466.373824,-5699.585753,-4979.620737,-2220.617826
1466.374135,-7698.141797,-4443.353888,-222.061783
1466.374447,-9030.512492,-3524.039291,222.061783
1466.374758,-11843.295072,-2451.505594,814.226536
1466.375069,-13323.706956,-2451.505594,1924.535449
1466.375381,-12139.377449,-3294.210641,1850.514855
1466.375692,-9622.677246,-2681.334243,2738.761985
1466.376004,-8142.265362,-2528.115143,2442.679609
1466.376315,-7254.018232,-2298.286494,2368.659014
1466.376627,-6735.874072,-2374.896044,1554.432478
1466.376938,-4367.215058,-1608.800546,666.185348
1466.377250,-1332.370696,-1762.019645,962.267725
1466.377561,-962.267725,-5515.887586,-296.082377
1466.377872,-2146.597232,-6435.202183,370.102971
1466.378184,-6291.750507,-5822.325785,-1258.350101
1466.378495,-11103.089130,-3753.867940,-0.000000
1466.378807,-14137.933492,-1685.410096,1184.329507
1466.379118,-15322.262999,-1608.800546,1998.556043
1466.379430,-14656.077652,-2298.286494,2886.803174
1466.379741,-12805.562797,-4136.915689,3478.967927
1466.380053,-9622.677246,-3370.820191,2442.679609
1466.380364,-5995.668130,-2604.724693,1554.432478
1466.380675,-3478.967927,-2987.772442,-74.020594
1466.380987,-2368.659014,-4443.353888,-1184.329507
1466.381298,-2886.803174,-5362.668486,-1480.411884
1466.381610,-4589.276840,-5439.278036,-1924.535449
1466.381921,-6513.812290,-5362.668486,-1702.473667
1466.382233,-9844.739029,-5745.716235,-888.247130
1466.382544,-14804.118840,-5056.230287,222.061783
1466.382855,-17172.777854,-5975.544884,1332.370696
1466.383167,-18135.045579,-3983.696590,2516.700203
1466.383478,-16876.695478,-4596.572988,4145.153275
1466.383790,-13915.871710,-4519.963438,2960.823768
1466.384101,-10436.903782,-4366.744339,1776.494261
1466.384413,-6661.853478,-4979.620737,740.205942
1466.384724,-2960.823768,-5515.887586,-444.123565
1466.385036,-1924.535449,-5822.325785,-1110.308913
1466.385347,-4663.297435,-4213.525239,-2368.659014
1466.385658,-7105.977043,-3524.039291,-1850.514855
1466.385970,-9844.739029,-2374.896044,-1998.556043
1466.386281,-12953.603985,0.000000,-740.205942
1466.386593,-14878.139434,-153.219100,-0.000000
1466.386904,-14952.160028,0.000000,1036.288319
1466.387216,-13027.624579,-229.828649,1258.350101
1466.387527,-9992.780217,-766.095498,1184.329507
1466.387839,-6735.874072,-383.047749,-296.082377
1466.388150,-5255.462188,-842.705048,-444.123565
1466.388461,-5403.503377,-842.705048,-0.000000
1466.388773,-3478.967927,-1991.848295,-296.082377
1466.389084,-3923.091493,-995.924147,-222.061783
1466.389396,-5329.482782,-2145.067394,518.144159
1466.389707,-5995.668130,-3140.991542,-370.102971
1466.390019,-7179.997637,-3370.820191,666.185348
1466.390330,-7698.141797,-2681.334243,592.164754
1466.390642,-10066.800811,-3370.820191,1258.350101
1466.390953,-11843.295072,-3907.087040,1554.432478
1466.391264,-11917.315666,-2757.943793,2738.761985
1466.391576,-10881.027347,-2451.505594,2664.741391
1466.391887,-9178.553681,-3140.991542,2146.597232
1466.392199,-7031.956449,-2757.943793,1924.535449
1466.392510,-5773.606348,-2298.286494,666.185348
1466.392822,-4737.318029,-2298.286494,-74.020594
1466.393133,-4589.276840,-1378.971896,-370.102971
1466.393445,-5625.565159,-1685.410096,-888.247130
1466.393756,-6809.894666,-2834.553343,-296.082377
1466.394067,-8660.409521,-3753.867940,148.041188
1466.394379,-10066.800811,-3983.696590,592.164754
1466.394690,-11695.253884,-5286.058936,2072.576638
1466.395002,-12287.418637,-6358.592633,2516.700203
1466.395313,-13027.624579,-6511.811733,3034.844362
1466.395625,-12953.603985,-5209.449386,2368.659014
1466.395936,-12139.377449,-3524.039291,1480.411884
1466.396247,-10510.924376,-1762.019645,740.205942
1466.396559,-8808.450710,919.314598,-0.000000
1466.396870,-7328.038826,459.657299,-0.000000
1466.397182,-6069.688724,536.266849,-666.185348
1466.397493,-6883.915261,229.828649,-296.082377
1466.397805,-7031.956449,-536.266849,-0.000000
1466.398116,-8068.244768,-2757.943793,592.164754
1466.398428,-10140.821405,-4060.306139,592.164754
1466.398739,-11843.295072,-4749.792088,1184.329507
1466.399050,-12509.480420,-4979.620737,740.205942
1466.399362,-11843.295072,-5132.839837,1110.308913
1466.399673,-12213.398043,-6894.859482,740.205942
1466.399985,-10436.903782,-6511.811733,1258.350101
1466.400296,-7994.224174,-5669.106685,814.226536
1466.400608,-6069.688724,-4903.011187,814.226536
1466.400919,-5033.400406,-3447.429741,592.164754
1466.401231,-5477.523971,-3217.601092,666.185348
1466.401542,-4811.338623,-1762.019645,814.226536
1466.401853,-5773.606348,-1302.362347,518.144159
1466.402165,-6587.832884,-1302.362347,814.226536
1466.402476,-7846.182985,-1991.848295,518.144159
1466.402788,-10584.944971,-2528.115143,-0.000000
1466.403099,-10510.924376,-2987.772442,-0.000000
1466.403411,-11325.150913,-2298.286494,-370.102971
1466.403722,-8956.491898,-1149.143247,-222.061783
1466.404034,-8734.430116,-2145.067394,-1110.308913
1466.404345,-7846.182985,-3294.210641,-74.020594
1466.404656,-5847.626942,-1838.629195,-0.000000
1466.404968,-6513.812290,-2221.676944,222.061783
1466.405279,-7698.141797,-3600.648841,1776.494261
1466.405591,-10288.862594,-4213.525239,1406.391290
1466.405902,-10510.924376,-2298.286494,1702.473667
1466.406214,-10436.903782,-995.924147,1258.350101
1466.406525,-10436.903782,-2451.505594,1332.370696
1466.406836,-10732.986159,-2451.505594,592.164754
1466.407148,-10140.821405,-2911.162892,148.041188
1466.407459,-9918.759623,-2298.286494,592.164754
1466.407771,-10510.924376,-842.705048,1036.288319
1466.408082,-12361.439231,229.828649,962.267725
1466.408394,-11177.109724,842.705048,1924.535449
1466.408705,-9696.697840,-459.657299,1702.473667
1466.409017,-7698.141797,-842.705048,2368.659014
1466.409328,-6069.688724,0.000000,2590.720797
1466.409639,-7698.141797,-2604.724693,2368.659014
1466.409951,-7476.080014,-3983.696590,4515.256246
1466.410262,-9548.656652,-3907.087040,4071.132681
1466.410574,-9474.636058,-1762.019645,5625.565159
1466.410885,-11769.274478,-1532.190996,4737.318029
1466.411197,-11991.336260,-1991.848295,5477.523971
1466.411508,-8290.306550,-459.657299,3997.112087
1466.411820,-6217.729913,2068.457845,3701.029710
1466.412131,-5551.544565,1991.848295,3108.864956
1466.412442,-5699.585753,1072.533697,2886.803174
1466.412754,-8068.244768,-229.828649,2738.761985
1466.413065,-5921.647536,995.924147,5403.503377
1466.413377,-8216.285956,0.000000,4071.132681
1466.413688,-10658.965565,-459.657299,5477.523971
1466.414000,-10436.903782,0.000000,5847.626942
1466.414311,-9030.512492,-1532.190996,4811.338623
1466.414623,-7624.121203,-1838.629195,5477.523971
1466.414934,-8142.265362,-766.095498,4145.153275
1466.415245,-7254.018232,229.828649,4811.338623
1466.415557,-6809.894666,766.095498,3552.988522
1466.415868,-6735.874072,1302.362347,4219.173869
1466.416180,-7476.080014,2298.286494,4293.194464
1466.416491,-9030.512492,2145.067394,4293.194464
1466.416803,-8882.471304,1149.143247,4589.276840
1466.417114,-7550.100608,306.438199,4219.173869
1466.417426,-7550.100608,0.000000,4219.173869
1466.417737,-8142.265362,-919.314598,4145.153275
1466.418048,-8660.409521,-2221.676944,4441.235652
1466.418360,-8438.347739,-1302.362347,4441.235652
1466.418671,-8586.388927,459.657299,4885.359217
1466.418983,-9770.718434,1149.143247,3849.070898
1466.419294,-11769.274478,1072.533697,4145.153275
1466.419606,-10362.883188,2451.505594,3923.091493
1466.419917,-8290.306550,2374.896044,3701.029710
1466.420228,-7920.203579,995.924147,3108.864956
1466.420540,-7031.956449,-766.095498,2812.782580
1466.420851,-7476.080014,-766.095498,2146.597232
1466.421163,-6587.832884,-842.705048,2590.720797
1466.421474,-6809.894666,-1532.190996,2738.761985
1466.421786,-9104.533087,-1915.238745,3478.967927
1466.422097,-10807.006753,-1915.238745,4219.173869
1466.422409,-11991.336260,-1608.800546,4737.318029
1466.422720,-11843.295072,-689.485948,4737.318029
1466.423031,-11843.295072,612.876398,4441.235652
1466.423343,-10732.986159,153.219100,2960.823768
1466.423654,-8882.471304,842.705048,1998.556043
1466.423966,-7328.038826,1685.410096,888.247130
1466.424277,-7105.977043,1838.629195,1554.432478
1466.424589,-8586.388927,0.000000,2368.659014
1466.424900,-8660.409521,-1072.533697,3256.906145
1466.425212,-8956.491898,-1991.848295,3997.112087
1466.425523,-8882.471304,-1685.410096,4589.276840
1466.425834,-8438.347739,-1915.238745,4441.235652
1466.426146,-8364.327145,-1685.410096,3330.926739
1466.426457,-7254.018232,0.000000,2590.720797
1466.426769,-6439.791695,612.876398,740.205942
1466.427080,-7254.018232,1378.971896,-0.000000
1466.427392,-8586.388927,1762.019645,666.185348
1466.427703,-10436.903782,1915.238745,1258.350101
1466.428015,-12065.356855,1608.800546,2738.761985
1466.428326,-13027.624579,919.314598,3108.864956
1466.428637,-12065.356855,76.609550,3923.091493
1466.428949,-10214.842000,-1225.752797,3997.112087
1466.429260,-6809.894666,-1149.143247,3182.885551
1466.429572,-4293.194464,-1915.238745,1776.494261
1466.429883,-3923.091493,-1455.581446,1406.391290
1466.430195,-6513.812290,-1225.752797,1702.473667
1466.430506,-9252.574275,-383.047749,2738.761985
1466.430817,-11325.150913,1378.971896,4145.153275
1466.431129,-13989.892304,1762.019645,5107.421000
1466.431440,-14211.954086,1072.533697,5847.626942
1466.431752,-12435.459826,0.000000,5403.503377
1466.432063,-8956.491898,0.000000,4441.235652
1466.432375,-5625.565159,-229.828649,2886.803174
1466.432686,-4293.194464,-842.705048,1480.411884
1466.432998,-3775.050304,0.000000,1258.350101
1466.433309,-4145.153275,0.000000,1628.453072
1466.433620,-6957.935855,-229.828649,2812.782580
1466.433932,-10881.027347,-229.828649,4293.194464
1466.434243,-13915.871710,459.657299,5625.565159
1466.434555,-13323.706956,612.876398,5921.647536
1466.434866,-10362.883188,229.828649,5255.462188
1466.435178,-8290.306550,-612.876398,4219.173869
1466.435489,-6217.729913,-689.485948,2960.823768
1466.435801,-4885.359217,306.438199,2738.761985
1466.436112,-5403.503377,153.219100,4071.132681
1466.436423,-7624.121203,612.876398,5477.523971
1466.436735,-10436.903782,306.438199,6957.935855
1466.437046,-11547.212695,0.000000,7624.121203
1466.437358,-11029.068536,306.438199,6439.791695
1466.437669,-8364.327145,1915.238745,4293.194464
1466.437981,-5551.544565,3907.087040,1554.432478
1466.438292,-4589.276840,3524.039291,-0.000000
1466.438604,-5033.400406,2604.724693,-444.123565
1466.438915,-7402.059420,2145.067394,962.267725
1466.439226,-10584.944971,1149.143247,3923.091493
1466.439538,-13545.768739,-1072.533697,6439.791695
1466.439849,-14952.160028,-3140.991542,8660.409521
1466.440161,-14063.912898,-3524.039291,9622.677246
1466.440472,-10658.965565,-3294.210641,9474.636058
1466.440784,-7402.059420,-2451.505594,7254.018232
1466.441095,-4737.318029,-2068.457845,4293.194464
1466.441407,-3701.029710,-536.266849,2072.576638
1466.441718,-2960.823768,1149.143247,370.102971
1466.442029,-3849.070898,2604.724693,296.082377
1466.442341,-7105.977043,3064.381992,1184.329507
1466.442652,-10214.842000,2681.334243,2738.761985
1466.442964,-12361.439231,842.705048,4293.194464
1466.443275,-13693.809927,-1149.143247,5625.565159
1466.443587,-13767.830521,-995.924147,6069.688724
1466.443898,-12953.603985,-995.924147,5995.668130
1466.444209,-10881.027347,-689.485948,5551.544565
1466.444521,-9400.615463,-995.924147,4885.359217
1466.444832,-7920.203579,-383.047749,4737.318029
1466.445144,-5921.647536,-536.266849,4737.318029
1466.445455,-4441.235652,-612.876398,3701.029710
1466.445767,-1628.453072,0.000000,3256.906145
1466.446078,-2146.597232,-689.485948,962.267725
1466.446390,-3108.864956,0.000000,-0.000000
1466.446701,-4737.318029,0.000000,-74.020594
1466.447012,-9400.615463,-995.924147,814.226536
1466.447324,-14359.995275,-919.314598,3034.844362
1466.447635,-18431.127956,-612.876398,5255.462188
1466.447947,-20429.683999,-536.266849,6883.915261
1466.448258,-17468.860231,689.485948,7624.121203
1466.448570,-13101.645173,612.876398,6809.894666
1466.448881,-7402.059420,76.609550,5255.462188
1466.449193,-2146.597232,153.219100,2960.823768
1466.449504,1480.411884,689.485948,-296.082377
1466.449815,4219.173869,1302.362347,-3256.906145
1466.450127,3108.864956,383.047749,-4885.359217
1466.450438,-1776.494261,0.000000,-3997.112087
1466.450750,-9178.553681,842.705048,-0.000000
1466.451061,-19245.354492,-459.657299,5699.585753
1466.451373,-26499.372724,-1915.238745,10288.862594
1466.451684,-27387.619854,-2528.115143,11843.295072
1466.451996,-21317.931130,-2834.553343,11029.068536
1466.452307,-10955.047942,-1915.238745,7550.100608
1466.452618,-666.185348,-1149.143247,592.164754
1466.452930,6143.709319,0.000000,-4885.359217
1466.453241,8512.368333,1608.800546,-7402.059420
1466.453553,3849.070898,2987.772442,-4885.359217
1466.453864,-5921.647536,2834.553343,-1554.432478
1466.454176,-16876.695478,1685.410096,3182.885551
1466.454487,-23464.528361,1225.752797,7476.080014
1466.454798,-23686.590144,612.876398,9030.512492
1466.455110,-17764.942608,-153.219100,7698.141797
1466.455421,-9844.739029,-1608.800546,4737.318029
1466.455733,-3701.029710,-2298.286494,1184.329507
1466.456044,1332.370696,-1149.143247,-296.082377
1466.456356,1850.514855,919.314598,-518.144159
1466.456667,-2664.741391,1225.752797,1184.329507
1466.456979,-8956.491898,995.924147,3404.947333
1466.457290,-13027.624579,76.609550,4663.297435
1466.457601,-12435.459826,766.095498,4737.318029
1466.457913,-10881.027347,2374.896044,3701.029710
1466.458224,-8142.265362,459.657299,1110.308913
1466.458536,-7254.018232,-1838.629195,592.164754
1466.458847,-7402.059420,-2681.334243,1554.432478
1466.459159,-9474.636058,-1838.629195,4367.215058
1466.459470,-12953.603985,-536.266849,6957.935855
1466.459782,-14508.036463,-153.219100,8438.347739
1466.460093,-13841.851115,-459.657299,10658.965565
1466.460404,-11621.233289,-1302.362347,9548.656652
1466.460716,-6513.812290,-1378.971896,7254.018232
1466.461027,-1998.556043,0.000000,1628.453072
1466.461339,666.185348,2145.067394,-2442.679609
1466.461650,814.226536,3294.210641,-3182.885551
1466.461962,-3108.864956,2145.067394,-1924.535449
1466.462273,-9992.780217,1532.190996,3034.844362
1466.462585,-15840.407159,-612.876398,8290.306550
1466.462896,-18209.066173,-2681.334243,11917.315666
1466.463208,-16580.613101,-3677.258390,12657.521608
1466.463520,-12657.521608,-3600.648841,9992.780217
1466.463831,-8364.327145,-2604.724693,7031.956449
1466.464143,-3256.906145,76.609550,2220.617826
1466.464454,-518.144159,3753.867940,-740.205942
1466.464766,74.020594,4519.963438,-3034.844362
1466.465077,-2072.576638,5056.230287,-2590.720797
1466.465389,-5773.606348,3830.477490,-1628.453072
1466.465700,-8216.285956,1685.410096,2516.700203
1466.466012,-10140.821405,-1225.752797,3108.864956
1466.466324,-12287.418637,-1991.848295,5329.482782
1466.466635,-13693.809927,-1532.190996,6069.688724
1466.466947,-16062.468941,-1685.410096,5699.585753
1466.467258,-14508.036463,1072.533697,6291.750507
1466.467570,-12361.439231,1149.143247,4885.359217
1466.467881,-7179.997637,-459.657299,2072.576638
1466.468193,-1776.494261,-2911.162892,-1702.473667
1466.468504,2072.576638,-766.095498,-4737.318029
1466.468816,2072.576638,1838.629195,-4293.194464
1466.469127,-2664.741391,1455.581446,-3182.885551
1466.469439,-11325.150913,-306.438199,-1406.391290
1466.469751,-17616.901420,-1302.362347,1110.308913
1466.470062,-18357.107362,-842.705048,4367.215058
1466.470374,-16210.510130,-766.095498,2664.741391
1466.470685,-12583.501014,-1302.362347,518.144159
1466.470997,-8586.388927,-1455.581446,-2442.679609
1466.471308,-6957.935855,-2145.067394,-1998.556043
1466.471620,-7846.182985,-1225.752797,-1480.411884
1466.471931,-10066.800811,766.095498,-1480.411884
1466.472243,-11547.212695,1608.800546,-740.205942
1466.472555,-10510.924376,383.047749,-1850.514855
1466.472866,-7846.182985,-536.266849,-4219.173869
1466.473178,-4737.318029,229.828649,-5329.482782
1466.473489,-3997.112087,1149.143247,-6069.688724
1466.473801,-7179.997637,153.219100,-5181.441594
1466.474112,-10510.924376,-306.438199,-1554.432478
1466.474424,-14508.036463,-1915.238745,592.164754
1466.474735,-15766.386565,-1532.190996,3404.947333
1466.475047,-14137.933492,-919.314598,3182.885551
1466.475359,-11251.130318,-383.047749,888.247130
1466.475670,-8068.244768,0.000000,-1776.494261
1466.475982,-6957.935855,229.828649,-4811.338623
1466.476293,-6439.791695,1991.848295,-5033.400406
1466.476605,-6587.832884,2298.286494,-4293.194464
1466.476916,-7550.100608,995.924147,-3404.947333
1466.477228,-9104.533087,-1762.019645,-74.020594
1466.477539,-10288.862594,-3217.601092,666.185348
1466.477851,-9104.533087,-1608.800546,2886.803174
1466.478163,-8660.409521,-153.219100,3108.864956
1466.478474,-9326.594869,536.266849,3775.050304
1466.478786,-11843.295072,229.828649,3552.988522
1466.479097,-10955.047942,-1532.190996,4071.132681
1466.479409,-7328.038826,383.047749,1258.350101
1466.479720,-4737.318029,3217.601092,-1554.432478
1466.480032,-3627.009116,3524.039291,-2368.659014
1466.480343,-5921.647536,1991.848295,-2516.700203
1466.480655,-9770.718434,306.438199,-296.082377
1466.480966,-12583.501014,-842.705048,2368.659014
1466.481278,-13175.665768,-1991.848295,3034.844362
1466.481590,-11547.212695,-2528.115143,4145.153275
1466.481901,-8734.430116,-2298.286494,3034.844362
1466.482213,-5773.606348,-766.095498,2590.720797
1466.482524,-5699.585753,766.095498,1406.391290
1466.482836,-7179.997637,2528.115143,4071.132681
1466.483147,-9474.636058,1685.410096,5995.668130
1466.483459,-11103.089130,-995.924147,5773.606348
1466.483770,-10288.862594,-1072.533697,3627.009116
1466.484082,-7105.977043,689.485948,666.185348
1466.484394,-4293.194464,689.485948,-1850.514855
1466.484705,-4071.132681,1532.190996,-3256.906145
1466.485017,-7105.977043,1685.410096,-2220.617826
1466.485328,-11029.068536,689.485948,2664.741391
1466.485640,-14063.912898,-2451.505594,6069.688724
1466.485951,-13101.645173,-4749.792088,6365.771101
1466.486263,-8438.347739,-2604.724693,5107.421000
1466.486574,-4959.379811,842.705048,5033.400406
1466.486886,-6217.729913,842.705048,3182.885551
1466.487198,-8364.327145,1302.362347,1036.288319
1466.487509,-9104.533087,1608.800546,-0.000000
1466.487821,-7328.038826,1685.410096,-518.144159
1466.488132,-5847.626942,689.485948,-2368.659014
1466.488444,-5181.441594,459.657299,-3775.050304
1466.488755,-5551.544565,-1378.971896,-4145.153275
1466.489067,-8364.327145,-2451.505594,-1702.473667
1466.489378,-9770.718434,-1072.533697,1776.494261
1466.489690,-15026.180623,0.000000,3775.050304
1466.490002,-17098.757260,76.609550,6217.729913
1466.490313,-16136.489536,-1838.629195,3627.009116
1466.490625,-11621.233289,-229.828649,370.102971
1466.490936,-5107.421000,2681.334243,-2664.741391
1466.491248,-1554.432478,3217.601092,-5921.647536
1466.491559,-1628.453072,2298.286494,-5847.626942
1466.491871,-2960.823768,229.828649,-4959.379811
1466.492182,-7624.121203,-1225.752797,-3330.926739
1466.492494,-11621.233289,-1378.971896,-518.144159
1466.492806,-13471.748144,-842.705048,740.205942
1466.493117,-12953.603985,-842.705048,518.144159
1466.493429,-11917.315666,-1762.019645,-740.205942
1466.493740,-10584.944971,459.657299,-1036.288319
1466.494052,-10214.842000,2604.724693,-1184.329507
1466.494363,-11251.130318,3447.429741,-518.144159
1466.494675,-10881.027347,689.485948,444.123565
1466.494986,-9252.574275,-2221.676944,-888.247130
1466.495298,-6069.688724,-1378.971896,-2886.803174
1466.495609,-4219.173869,153.219100,-2294.638420
1466.495921,-4737.318029,-1302.362347,-2812.782580
1466.496233,-7254.018232,-2681.334243,-2368.659014
1466.496544,-10066.800811,-3753.867940,-666.185348
1466.496856,-11917.315666,-3907.087040,370.102971
1466.497167,-11843.295072,-1532.190996,1702.473667
1466.497479,-10955.047942,-536.266849,592.164754
1466.497790,-9918.759623,536.266849,-0.000000
1466.498102,-10658.965565,459.657299,518.144159
1466.498413,-13397.727550,1072.533697,814.226536
1466.498725,-12657.521608,1991.848295,2812.782580
1466.499037,-10066.800811,306.438199,2664.741391
1466.499348,-8512.368333,-2528.115143,814.226536
1466.499660,-5477.523971,-2604.724693,-666.185348
1466.499971,-2664.741391,-1838.629195,-1924.535449
1466.500283,-1924.535449,-1072.533697,-2072.576638
1466.500594,-5625.565159,0.000000,-148.041188
1466.500906,-9696.697840,-306.438199,2146.597232
1466.501217,-13175.665768,536.266849,3478.967927
1466.501529,-15544.324782,2298.286494,4145.153275
1466.501841,-13767.830521,4596.572988,3404.947333
1466.502152,-13249.686362,4979.620737,2738.761985
1466.502464,-10881.027347,4519.963438,2368.659014
1466.502775,-7846.182985,2145.067394,1110.308913
1466.503087,-3552.988522,0.000000,-370.102971
1466.503398,-1036.288319,-995.924147,-1258.350101
1466.503710,-1850.514855,-1455.581446,-0.000000
1466.504021,-5255.462188,-2987.772442,814.226536
1466.504333,-9622.677246,-3983.696590,1924.535449
1466.504645,-12213.398043,-2451.505594,3701.029710
1466.504956,-12583.501014,-766.095498,4367.215058
1466.505268,-12509.480420,995.924147,4737.318029
1466.505579,-11843.295072,842.705048,3775.050304
1466.505891,-8364.327145,-383.047749,1998.556043
1466.506202,-4737.318029,612.876398,592.164754
1466.506514,-3849.070898,1378.971896,-296.082377
1466.506825,-5551.544565,1685.410096,-148.041188
1466.507137,-7550.100608,612.876398,666.185348
1466.507449,-8808.450710,0.000000,1850.514855
1466.507760,-9474.636058,-995.924147,1776.494261
1466.508072,-9326.594869,-1991.848295,1110.308913
1466.508383,-7772.162391,-1455.581446,148.041188
1466.508695,-5847.626942,-1225.752797,-296.082377
1466.509006,-6143.709319,-383.047749,-740.205942
1466.509318,-7254.018232,995.924147,-666.185348
1466.509629,-9696.697840,2145.067394,1184.329507
1466.509941,-10658.965565,919.314598,3108.864956
1466.510252,-9918.759623,-1685.410096,1998.556043
1466.510564,-10436.903782,-842.705048,444.123565
1466.510876,-9696.697840,1915.238745,666.185348
1466.511187,-9696.697840,1608.800546,-222.061783
1466.511499,-10214.842000,0.000000,-1998.556043
1466.511810,-9992.780217,689.485948,-1998.556043
1466.512122,-9918.759623,0.000000,-1998.556043
1466.512433,-8882.471304,-1149.143247,-1998.556043
1466.512745,-9474.636058,0.000000,-2590.720797
1466.513056,-8512.368333,459.657299,-740.205942
1466.513368,-10066.800811,-153.219100,-148.041188
1466.513680,-13027.624579,-766.095498,444.123565
1466.513991,-12953.603985,1072.533697,3108.864956
1466.514303,-12065.356855,0.000000,2886.803174
1466.514614,-9400.615463,-1378.971896,2220.617826
1466.514926,-6587.832884,-1225.752797,-740.205942
1466.515237,-3552.988522,-383.047749,-2664.741391
1466.515549,-2886.803174,-229.828649,-3478.967927
1466.515860,-4959.379811,-459.657299,-2886.803174
1466.516172,-8734.430116,-689.485948,-2442.679609
1466.516484,-13841.851115,612.876398,-296.082377
1466.516795,-17098.757260,842.705048,2664.741391
1466.517107,-16580.613101,689.485948,3182.885551
1466.517418,-11991.336260,459.657299,2368.659014
1466.517730,-7772.162391,-612.876398,962.267725
1466.518041,-5329.482782,0.000000,-296.082377
1466.518353,-4441.235652,0.000000,592.164754
1466.518664,-3330.926739,0.000000,-0.000000
1466.518976,-5033.400406,-1072.533697,1036.288319
1466.519288,-8068.244768,-1838.629195,666.185348
1466.519599,-8586.388927,-2145.067394,888.247130
1466.519911,-8734.430116,-919.314598,-518.144159
1466.520222,-9326.594869,-306.438199,-1036.288319
1466.520534,-10658.965565,306.438199,-740.205942
1466.520845,-11325.150913,766.095498,148.041188
1466.521157,-13249.686362,842.705048,2812.782580
1466.521468,-13767.830521,-1302.362347,3404.947333
1466.521780,-10584.944971,-2068.457845,3552.988522
1466.522091,-7328.038826,-383.047749,2442.679609
1466.522403,-4959.379811,229.828649,1110.308913
1466.522715,-3701.029710,459.657299,296.082377
1466.523026,-3923.091493,-383.047749,-74.020594
1466.523338,-7550.100608,-536.266849,444.123565
1466.523649,-9696.697840,-612.876398,814.226536
1466.523961,-9696.697840,-153.219100,-74.020594
1466.524272,-7772.162391,842.705048,-962.267725
1466.524584,-7179.997637,1532.190996,-666.185348
1466.524895,-10214.842000,2068.457845,740.205942
1466.525207,-12509.480420,1378.971896,3256.906145
1466.525519,-13323.706956,1455.581446,4663.297435
1466.525830,-11029.068536,-229.828649,3552.988522
1466.526142,-7476.080014,-766.095498,2812.782580
1466.526453,-4515.256246,-76.609550,814.226536
1466.526765,-3478.967927,306.438199,-1332.370696
1466.527076,-3923.091493,612.876398,-2590.720797
1466.527388,-4811.338623,842.705048,-1998.556043
1466.527699,-7105.977043,-612.876398,-296.082377
1466.528011,-10510.924376,-842.705048,-666.185348
1466.528323,-12509.480420,-383.047749,740.205942
1466.528634,-14508.036463,-383.047749,1554.432478
1466.528946,-13693.809927,689.485948,2886.803174
1466.529257,-12435.459826,1072.533697,2368.659014
1466.529569,-12139.377449,766.095498,2368.659014
1466.529880,-9918.759623,536.266849,2738.761985
1466.530192,-7476.080014,-1149.143247,2146.597232
1466.530503,-5551.544565,-2145.067394,1332.370696
1466.530815,-4293.194464,-2451.505594,-74.020594
1466.531127,-4071.132681,-2145.067394,-1184.329507
1466.531438,-5699.585753,-1225.752797,-1480.411884
1466.531750,-7994.224174,-536.266849,-814.226536
1466.532061,-10881.027347,-306.438199,740.205942
1466.532373,-14211.954086,-229.828649,1702.473667
1466.532684,-14359.995275,76.609550,3034.844362
1466.532996,-11843.295072,1225.752797,2442.679609
1466.533307,-9918.759623,766.095498,2220.617826
1466.533619,-8512.368333,1608.800546,1702.473667
1466.533931,-7476.080014,2451.505594,888.247130
1466.534242,-5847.626942,2604.724693,666.185348
1466.534554,-6217.729913,1455.581446,1332.370696
1466.534865,-7179.997637,0.000000,-1036.288319
1466.535177,-6069.688724,-766.095498,-1184.329507
1466.535488,-6587.832884,-1149.143247,-2812.782580
1466.535800,-6957.935855,-1149.143247,-2590.720797
1466.536111,-8068.244768,612.876398,-1554.432478
1466.536423,-9474.636058,229.828649,222.061783
1466.536734,-11399.171507,-1762.019645,2220.617826
1466.537046,-11917.315666,-3140.991542,2738.761985
1466.537358,-11177.109724,-1149.143247,2146.597232
1466.537669,-8068.244768,1378.971896,1184.329507
1466.537981,-6735.874072,2145.067394,-962.267725
1466.538292,-7105.977043,1685.410096,-2294.638420
1466.538604,-8364.327145,1838.629195,-2368.659014
1466.538915,-9178.553681,1455.581446,-592.164754
1466.539227,-10362.883188,-842.705048,-1110.308913
1466.539538,-10288.862594,-1838.629195,-740.205942
1466.539850,-8512.368333,-2298.286494,-888.247130
1466.540162,-7328.038826,-2757.943793,-1628.453072
1466.540473,-7031.956449,-1455.581446,-962.267725
1466.540785,-8882.471304,-766.095498,-0.000000
1466.541096,-11399.171507,153.219100,2368.659014
1466.541408,-13619.789333,-842.705048,3701.029710
1466.541719,-14508.036463,-612.876398,4441.235652
1466.542031,-10510.924376,-1072.533697,2146.597232
1466.542342,-5699.585753,153.219100,-1332.370696
1466.542654,-2812.782580,1455.581446,-2738.761985
1466.542966,-4441.235652,995.924147,-2960.823768
1466.543277,-8734.430116,0.000000,-1628.453072
1466.543589,-12435.459826,-612.876398,-74.020594
1466.543900,-14804.118840,-1608.800546,2738.761985
1466.544212,-13249.686362,-1608.800546,4071.132681
1466.544523,-11103.089130,-1685.410096,3478.967927
1466.544835,-7105.977043,-689.485948,1554.432478
1466.545146,-4293.194464,-153.219100,-370.102971
1466.545458,-3923.091493,995.924147,518.144159
1466.545770,-5995.668130,229.828649,2072.576638
1466.546081,-9548.656652,-842.705048,2072.576638
1466.546393,-10510.924376,-306.438199,1184.329507
1466.546704,-9918.759623,2221.676944,-370.102971
1466.547016,-8142.265362,2528.115143,-1110.308913
1466.547327,-7476.080014,2221.676944,-1184.329507
1466.547639,-7550.100608,306.438199,-814.226536
1466.547950,-9104.533087,0.000000,-0.000000
1466.548262,-11325.150913,612.876398,2146.597232
1466.548574,-11029.068536,689.485948,2442.679609
1466.548885,-8808.450710,536.266849,2960.823768
1466.549197,-7105.977043,1072.533697,518.144159
1466.549508,-5477.523971,2451.505594,444.123565
1466.549820,-5255.462188,1225.752797,518.144159
1466.550131,-7476.080014,-842.705048,814.226536
1466.550443,-8882.471304,-1455.581446,666.185348
1466.550754,-9104.533087,-1532.190996,-296.082377
1466.551066,-10066.800811,-842.705048,148.041188
1466.551377,-10732.986159,-919.314598,222.061783
1466.551689,-11399.171507,-919.314598,518.144159
1466.552001,-11399.171507,-459.657299,1332.370696
1466.552312,-10436.903782,689.485948,3182.885551
1466.552624,-10140.821405,-1149.143247,3108.864956
1466.552935,-9326.594869,-2221.676944,2442.679609
1466.553247,-7476.080014,-459.657299,1998.556043
1466.553558,-6217.729913,0.000000,-74.020594
1466.553870,-5921.647536,995.924147,-666.185348
1466.554181,-6291.750507,1762.019645,-740.205942
1466.554493,-7624.121203,-229.828649,-740.205942
1466.554805,-8142.265362,-3140.991542,-592.164754
1466.555116,-8660.409521,-2757.943793,814.226536
1466.555428,-10288.862594,-1225.752797,962.267725
1466.555739,-10732.986159,-612.876398,1184.329507
1466.556051,-11029.068536,0.000000,666.185348
1466.556362,-11547.212695,919.314598,-74.020594
1466.556674,-11325.150913,3064.381992,1850.514855
1466.556985,-11843.295072,2834.553343,148.041188
1466.557297,-10807.006753,2374.896044,-888.247130
1466.557609,-7476.080014,2298.286494,-962.267725
1466.557920,-3923.091493,459.657299,-2220.617826
1466.558232,-1702.473667,76.609550,-4441.235652
1466.558543,-2294.638420,76.609550,-4515.256246
1466.558855,-6069.688724,0.000000,-740.205942
1466.559166,-11251.130318,-2374.896044,518.144159
1466.559478,-15026.180623,-2221.676944,2146.597232
1466.559789,-16136.489536,-2298.286494,2146.597232
1466.560101,-12657.521608,-766.095498,1776.494261
1466.560413,-8734.430116,536.266849,-592.164754
1466.560724,-6365.771101,1302.362347,-2516.700203
1466.561036,-5847.626942,2145.067394,-3034.844362
1466.561347,-6735.874072,536.266849,-2368.659014
1466.561659,-7476.080014,383.047749,-518.144159
1466.561970,-9326.594869,-383.047749,-518.144159
1466.562282,-11325.150913,-1608.800546,-222.061783
1466.562593,-10658.965565,-995.924147,-296.082377
1466.562905,-9622.677246,0.000000,-666.185348
1466.563216,-9992.780217,-1072.533697,296.082377
1466.563528,-11399.171507,-3064.381992,888.247130
1466.563840,-11843.295072,-3217.601092,1554.432478
1466.564151,-10362.883188,-1608.800546,1554.432478
1466.564463,-10288.862594,-383.047749,444.123565
1466.564774,-8734.430116,-459.657299,370.102971
1466.565086,-9030.512492,1455.581446,666.185348
1466.565397,-9030.512492,1915.238745,1406.391290
1466.565709,-8734.430116,306.438199,2368.659014
1466.566020,-9918.759623,-1149.143247,1998.556043
1466.566332,-8882.471304,153.219100,1850.514855
1466.566643,-7402.059420,153.219100,-0.000000
1466.566955,-5847.626942,459.657299,-148.041188
1466.567266,-6661.853478,919.314598,-444.123565
1466.567578,-7698.141797,536.266849,-0.000000
1466.567890,-9104.533087,-306.438199,1554.432478
1466.568201,-10436.903782,-229.828649,2368.659014
1466.568513,-10436.903782,0.000000,1776.494261
1466.568824,-9326.594869,2221.676944,1924.535449
1466.569136,-8734.430116,1302.362347,1554.432478
1466.569447,-8068.244768,1378.971896,1406.391290
1466.569759,-6217.729913,766.095498,2146.597232
1466.570070,-5329.482782,153.219100,2442.679609
1466.570382,-6587.832884,-766.095498,1554.432478
1466.570693,-7402.059420,-1608.800546,1628.453072
1466.571005,-5921.647536,-1532.190996,962.267725
1466.571317,-5699.585753,842.705048,296.082377
1466.571628,-6883.915261,1072.533697,444.123565
1466.571940,-10214.842000,842.705048,1332.370696
1466.572251,-13693.809927,0.000000,2812.782580
1466.572563,-13175.665768,-995.924147,2812.782580
1466.572874,-10214.842000,536.266849,1480.411884
1466.573186,-7846.182985,2374.896044,888.247130
1466.573497,-6513.812290,1302.362347,1036.288319
1466.573809,-6513.812290,-1225.752797,-962.267725
1466.574120,-8216.285956,-1149.143247,-296.082377
1466.574432,-9178.553681,383.047749,2664.741391
1466.574743,-11473.192101,-766.095498,3552.988522
1466.575055,-12509.480420,-3064.381992,4441.235652
1466.575367,-9844.739029,-3983.696590,2146.597232
1466.575678,-7476.080014,-2298.286494,222.061783
1466.575990,-5107.421000,536.266849,-814.226536
1466.576301,-4811.338623,2374.896044,-1628.453072
1466.576613,-6439.791695,76.609550,-888.247130
1466.576924,-8586.388927,-1608.800546,-962.267725
1466.577236,-11029.068536,-766.095498,444.123565
1466.577547,-12065.356855,1685.410096,518.144159
1466.577859,-13471.748144,2604.724693,962.267725
1466.578170,-12435.459826,1302.362347,-0.000000
1466.578482,-10658.965565,229.828649,-1850.514855
1466.578794,-9104.533087,1608.800546,-1554.432478
1466.579105,-8068.244768,1302.362347,-1110.308913
1466.579417,-8660.409521,-459.657299,-1036.288319
1466.579728,-6957.935855,-1378.971896,-1554.432478
1466.580040,-6661.853478,-383.047749,-1554.432478
1466.580351,-7772.162391,1149.143247,-962.267725
1466.580663,-8290.306550,536.266849,148.041188
1466.580974,-8142.265362,-229.828649,740.205942
1466.581286,-9030.512492,-1991.848295,-1184.329507
1466.581597,-9178.553681,-1225.752797,-1258.350101
1466.581909,-9178.553681,612.876398,-1036.288319
1466.582220,-10066.800811,612.876398,-1036.288319
1466.582532,-10584.944971,0.000000,-518.144159
1466.582844,-11621.233289,-842.705048,-148.041188
1466.583155,-12583.501014,689.485948,222.061783
1466.583467,-11473.192101,1378.971896,1332.370696
1466.583778,-8808.450710,229.828649,666.185348
1466.584090,-5995.668130,-1378.971896,-444.123565
1466.584401,-5107.421000,-1455.581446,-1184.329507
1466.584713,-5181.441594,-229.828649,-1036.288319
1466.585024,-6661.853478,919.314598,-74.020594
1466.585336,-8808.450710,306.438199,1184.329507
1466.585647,-10732.986159,-2298.286494,3330.926739
1466.585959,-11399.171507,-4596.572988,3627.009116
1466.586271,-9918.759623,-3830.477490,3034.844362
1466.586582,-8142.265362,-1685.410096,962.267725
1466.586894,-7402.059420,-689.485948,-370.102971
1466.587205,-9844.739029,306.438199,370.102971
1466.587517,-12213.398043,383.047749,814.226536
1466.587828,-11917.315666,612.876398,2146.597232
1466.588140,-10362.883188,1685.410096,2368.659014
1466.588451,-9030.512492,1838.629195,1850.514855
1466.588763,-7328.038826,2834.553343,1776.494261
1466.589074,-6365.771101,1685.410096,1332.370696
1466.589386,-5403.503377,1149.143247,1480.411884
1466.589697,-4959.379811,306.438199,1332.370696
1466.590009,-5995.668130,0.000000,2368.659014
1466.590321,-8734.430116,76.609550,2368.659014
1466.590632,-10658.965565,-306.438199,2368.659014
1466.590944,-10807.006753,0.000000,1924.535449
1466.591255,-9992.780217,-229.828649,1776.494261
1466.591567,-8660.409521,-153.219100,888.247130
1466.591878,-8956.491898,536.266849,666.185348
1466.592190,-8068.244768,766.095498,1036.288319
1466.592501,-6957.935855,76.609550,-74.020594
1466.592813,-7031.956449,-842.705048,-296.082377
1466.593124,-6883.915261,229.828649,-0.000000
1466.593436,-7402.059420,1991.848295,-0.000000
1466.593748,-9474.636058,1685.410096,222.061783
1466.594059,-10881.027347,1072.533697,1480.411884
1466.594371,-11991.336260,612.876398,2146.597232
1466.594682,-11325.150913,-153.219100,2368.659014
1466.594994,-8438.347739,-612.876398,666.185348
1466.595305,-7031.956449,-1149.143247,-814.226536
1466.595617,-6809.894666,-919.314598,-1110.308913
1466.595928,-8216.285956,-995.924147,-1554.432478
1466.596240,-9474.636058,-689.485948,-518.144159
1466.596551,-9918.759623,0.000000,814.226536
1466.596863,-11399.171507,-1225.752797,1776.494261
1466.597174,-10732.986159,-3140.991542,2516.700203
1466.597486,-9992.780217,-3447.429741,1628.453072
1466.597798,-8512.368333,-1378.971896,1850.514855
1466.598109,-7179.997637,229.828649,444.123565
1466.598421,-7698.141797,842.705048,-0.000000
1466.598732,-7994.224174,459.657299,-0.000000
1466.599044,-8956.491898,-766.095498,-296.082377
1466.599355,-8068.244768,0.000000,-666.185348
1466.599667,-8438.347739,1762.019645,-1184.329507
1466.599978,-10066.800811,1455.581446,-518.144159
1466.600290,-10362.883188,-383.047749,-592.164754
1466.600601,-11251.130318,153.219100,-888.247130
1466.600913,-10362.883188,1532.190996,296.082377
1466.601225,-9030.512492,306.438199,1998.556043
1466.601536,-8586.388927,-1991.848295,-74.020594
1466.601848,-6365.771101,-1302.362347,-1184.329507
1466.602159,-5699.585753,1225.752797,-1258.350101
1466.602471,-8364.327145,842.705048,-592.164754
1466.602782,-11399.171507,2451.505594,592.164754
1466.603094,-11695.253884,842.705048,296.082377
1466.603405,-10732.986159,0.000000,370.102971
1466.603717,-8216.285956,-842.705048,-592.164754
1466.604028,-6217.729913,0.000000,-3182.885551
1466.604340,-6661.853478,1378.971896,-3034.844362
1466.604651,-8734.430116,1378.971896,-1258.350101
1466.604963,-11843.295072,76.609550,296.082377
1466.605275,-13101.645173,-306.438199,2442.679609
1466.605586,-11769.274478,-612.876398,2368.659014
1466.605898,-9918.759623,-1685.410096,2294.638420
1466.606209,-7772.162391,-1225.752797,2738.761985
1466.606521,-6217.729913,-1762.019645,1036.288319
1466.606832,-6143.709319,-2221.676944,-444.123565
1466.607144,-7031.956449,-1532.190996,518.144159
1466.607455,-7328.038826,-383.047749,-0.000000
1466.607767,-6291.750507,-459.657299,-0.000000
1466.608078,-7179.997637,-2068.457845,-74.020594
1466.608390,-8808.450710,-1838.629195,-370.102971
1466.608702,-9770.718434,0.000000,740.205942
1466.609013,-11695.253884,919.314598,2664.741391
1466.609325,-14137.933492,766.095498,2960.823768
1466.609636,-15692.365970,-229.828649,3849.070898
1466.609948,-13027.624579,459.657299,3849.070898
1466.610259,-8290.306550,995.924147,148.041188
1466.610571,-4811.338623,229.828649,-444.123565
1466.610882,-2590.720797,-306.438199,-1184.329507
1466.611194,-2294.638420,-766.095498,-2072.576638
1466.611505,-3997.112087,-919.314598,-1332.370696
1466.611817,-8586.388927,153.219100,-296.082377
1466.612128,-11325.150913,2298.286494,2664.741391
1466.612440,-11547.212695,1302.362347,3108.864956
1466.612752,-10362.883188,612.876398,2220.617826
1466.613063,-9770.718434,383.047749,-0.000000
1466.613375,-9252.574275,2451.505594,592.164754
1466.613686,-7920.203579,3830.477490,1036.288319
1466.613998,-9622.677246,2528.115143,518.144159
1466.614309,-11843.295072,612.876398,1332.370696
1466.614621,-9992.780217,-919.314598,1554.432478
1466.614932,-6883.915261,-1225.752797,444.123565
1466.615244,-3404.947333,-919.314598,-666.185348
1466.615555,-3330.926739,-1072.533697,-1924.535449
1466.615867,-5847.626942,-995.924147,-2294.638420
1466.616179,-7920.203579,306.438199,444.123565
1466.616490,-10288.862594,76.609550,2072.576638
1466.616802,-12213.398043,229.828649,3330.926739
1466.617113,-12213.398043,0.000000,2664.741391
1466.617425,-10881.027347,-76.609550,1480.411884
1466.617736,-9696.697840,-383.047749,1628.453072
1466.618048,-8068.244768,76.609550,296.082377
1466.618359,-8660.409521,383.047749,-962.267725
1466.618671,-10362.883188,-153.219100,-444.123565
1466.618982,-9918.759623,-2451.505594,888.247130
1466.619294,-9400.615463,-3907.087040,-666.185348
1466.619605,-7328.038826,-2911.162892,-222.061783
1466.619917,-6217.729913,-1608.800546,666.185348
1466.620229,-7920.203579,-2145.067394,518.144159
1466.620540,-9992.780217,-1072.533697,1554.432478
1466.620852,-10732.986159,-153.219100,1110.308913
1466.621163,-10807.006753,689.485948,2220.617826
1466.621475,-10658.965565,1455.581446,2368.659014
1466.621786,-10288.862594,1762.019645,222.061783
1466.622098,-10510.924376,229.828649,-666.185348
1466.622409,-8660.409521,383.047749,-148.041188
1466.622721,-7402.059420,1072.533697,-1702.473667
1466.623032,-7328.038826,1685.410096,-1998.556043
1466.623344,-7402.059420,383.047749,-1480.411884
1466.623656,-8364.327145,-1915.238745,-2960.823768
1466.623967,-7698.141797,-766.095498,-1702.473667
1466.624279,-7031.956449,459.657299,-148.041188
1466.624590,-8586.388927,153.219100,-0.000000
1466.624902,-10066.800811,1608.800546,1036.288319
1466.625213,-10510.924376,1991.848295,1258.350101
1466.625525,-9770.718434,919.314598,2368.659014
1466.625836,-8734.430116,-536.266849,1776.494261
1466.626148,-8660.409521,-919.314598,222.061783
1466.626459,-6809.894666,229.828649,-2368.659014
1466.626771,-5181.441594,459.657299,-2960.823768
1466.627083,-6883.915261,842.705048,-3627.009116
1466.627394,-8438.347739,383.047749,-2368.659014
1466.627706,-10584.944971,-153.219100,-888.247130
1466.628017,-11843.295072,-1608.800546,-0.000000
1466.628329,-12583.501014,-919.314598,1776.494261
1466.628640,-11843.295072,1225.752797,3034.844362
1466.628952,-10658.965565,0.000000,2590.720797
1466.629263,-9770.718434,-2145.067394,2146.597232
1466.629575,-8290.306550,-1225.752797,1332.370696
1466.629886,-7328.038826,-306.438199,2442.679609
1466.630198,-6957.935855,-1302.362347,1036.288319
1466.630509,-7624.121203,-2681.334243,-74.020594
1466.630821,-7624.121203,-3140.991542,-0.000000
1466.631133,-8808.450710,-2451.505594,148.041188
1466.631444,-9548.656652,-383.047749,-592.164754
1466.631756,-11029.068536,1378.971896,-74.020594
1466.632067,-12805.562797,1608.800546,1110.308913
1466.632379,-11547.212695,76.609550,2738.761985
1466.632690,-11917.315666,-459.657299,3330.926739
1466.633002,-10881.027347,1149.143247,3923.091493
1466.633313,-8660.409521,1838.629195,3552.988522
1466.633625,-6735.874072,842.705048,2294.638420
1466.633936,-4441.235652,229.828649,296.082377
1466.634248,-4219.173869,76.609550,370.102971
1466.634560,-4293.194464,0.000000,148.041188
1466.634871,-6069.688724,1532.190996,-888.247130
1466.635183,-8438.347739,2911.162892,-518.144159
1466.635494,-9770.718434,1072.533697,-0.000000
1466.635806,-9770.718434,-995.924147,296.082377
1466.636117,-8512.368333,306.438199,-0.000000
1466.636429,-8512.368333,4060.306139,1554.432478
1466.636740,-10732.986159,3140.991542,2960.823768
1466.637052,-12361.439231,-995.924147,3478.967927
1466.637363,-10807.006753,-3140.991542,2960.823768
1466.637675,-7550.100608,-1991.848295,2146.597232
1466.637986,-4737.318029,-919.314598,222.061783
1466.638298,-2590.720797,-1225.752797,-2516.700203
1466.638610,-2368.659014,-995.924147,-4071.132681
1466.638921,-4293.194464,-2451.505594,-4515.256246
1466.639233,-6735.874072,-1455.581446,-2146.597232
1466.639544,-11695.253884,612.876398,-0.000000
1466.639856,-17320.819043,1762.019645,2368.659014
1466.640167,-19245.354492,842.705048,3775.050304
1466.640479,-16950.716072,0.000000,3256.906145
1466.640790,-12583.501014,1302.362347,1998.556043
1466.641102,-7846.182985,1149.143247,666.185348
1466.641413,-4959.379811,153.219100,-1628.453072
1466.641725,-2960.823768,-2451.505594,-2812.782580
1466.642037,-2738.761985,-3217.601092,-2664.741391
1466.642348,-5403.503377,-2911.162892,-1850.514855
1466.642660,-9400.615463,-1915.238745,148.041188
1466.642971,-11917.315666,-612.876398,444.123565
1466.643283,-13101.645173,-689.485948,1332.370696
1466.643594,-13841.851115,-1302.362347,666.185348
1466.643906,-11917.315666,842.705048,370.102971
1466.644217,-9770.718434,2374.896044,-518.144159
1466.644529,-9178.553681,2068.457845,-592.164754
1466.644840,-7624.121203,842.705048,-370.102971
1466.645152,-9474.636058,689.485948,-1406.391290
1466.645463,-10140.821405,2451.505594,814.226536
1466.645775,-11103.089130,1532.190996,1924.535449
1466.646087,-11029.068536,-612.876398,1554.432478
1466.646398,-9474.636058,-1225.752797,370.102971
1466.646710,-7624.121203,-229.828649,-1924.535449
1466.647021,-4071.132681,229.828649,-2664.741391
1466.647333,-2590.720797,1915.238745,-3256.906145
1466.647644,-5181.441594,1149.143247,-1998.556043
1466.647956,-10214.842000,306.438199,740.205942
1466.648267,-13027.624579,0.000000,3182.885551
1466.648579,-13619.789333,536.266849,3923.091493
1466.648890,-12361.439231,842.705048,5329.482782
1466.649202,-11029.068536,-459.657299,4145.153275
1466.649514,-9400.615463,-689.485948,1036.288319
1466.649825,-6365.771101,459.657299,-592.164754
1466.650137,-3256.906145,766.095498,-666.185348
1466.650448,-3627.009116,229.828649,-444.123565
1466.650760,-6513.812290,-2298.286494,814.226536
1466.651071,-8808.450710,-4213.525239,2368.659014
1466.651383,-9400.615463,-3600.648841,1702.473667
1466.651694,-7994.224174,-842.705048,3330.926739
1466.652006,-8438.347739,1378.971896,3923.091493
1466.652317,-9992.780217,-2451.505594,4219.173869
1466.652629,-11695.253884,-3983.696590,4737.318029
1466.652940,-11177.109724,-2834.553343,3034.844362
1466.653252,-8364.327145,612.876398,1776.494261
1466.653564,-5921.647536,1685.410096,740.205942
1466.653875,-5773.606348,612.876398,-1406.391290
1466.654187,-6513.812290,0.000000,-1406.391290
1466.654498,-6661.853478,306.438199,-1850.514855
1466.654810,-8660.409521,1608.800546,-962.267725
1466.655121,-11473.192101,1838.629195,-0.000000
1466.655433,-12657.521608,1378.971896,1480.411884
1466.655744,-12805.562797,383.047749,740.205942
1466.656056,-10140.821405,306.438199,148.041188
1466.656367,-8068.244768,2451.505594,518.144159
1466.656679,-6735.874072,2068.457845,666.185348
1466.656991,-6365.771101,229.828649,-0.000000
1466.657302,-7105.977043,-919.314598,-666.185348
1466.657614,-8808.450710,-153.219100,-0.000000
1466.657925,-9548.656652,1608.800546,-0.000000
1466.658237,-9844.739029,2834.553343,-1480.411884
1466.658548,-10288.862594,2451.505594,-2812.782580
1466.658860,-10436.903782,1072.533697,-1480.411884
1466.659171,-10214.842000,76.609550,-0.000000
1466.659483,-9770.718434,-153.219100,-592.164754
1466.659794,-8882.471304,459.657299,370.102971
1466.660106,-8956.491898,-612.876398,1258.350101
1466.660417,-8512.368333,-1532.190996,1554.432478
1466.660729,-7920.203579,-459.657299,1332.370696
1466.661041,-8290.306550,-383.047749,1924.535449
1466.661352,-8660.409521,-2145.067394,2368.659014
1466.661663,-9400.615463,-3064.381992,1184.329507
1466.661975,-8364.327145,-1762.019645,-0.000000
1466.662286,-8438.347739,-1608.800546,-1332.370696
1466.662598,-8068.244768,-689.485948,-962.267725
1466.662909,-8216.285956,-995.924147,-1258.350101
1466.663221,-10732.986159,-229.828649,-444.123565
1466.663532,-10362.883188,-1225.752797,2516.700203
1466.663844,-11769.274478,-2374.896044,2738.761985
1466.664155,-10881.027347,-1532.190996,3701.029710
1466.664466,-9400.615463,-459.657299,2738.761985
1466.664778,-7920.203579,-842.705048,1924.535449
1466.665089,-6513.812290,0.000000,370.102971
1466.665401,-5551.544565,2145.067394,-814.226536
1466.665712,-5181.441594,995.924147,-1924.535449
1466.666024,-6661.853478,153.219100,-1850.514855
1466.666335,-8068.244768,919.314598,-1184.329507
1466.666647,-10807.006753,2298.286494,148.041188
1466.666958,-12287.418637,842.705048,2516.700203
1466.667269,-11843.295072,-1149.143247,1480.411884
1466.667581,-8882.471304,-536.266849,444.123565
1466.667892,-4959.379811,1378.971896,-74.020594
1466.668204,-7254.018232,2221.676944,-0.000000
1466.668515,-11991.336260,995.924147,1406.391290
1466.668827,-14804.118840,-689.485948,1702.473667
1466.669138,-13175.665768,-766.095498,1776.494261
1466.669450,-8512.368333,306.438199,-0.000000
1466.669761,-4885.359217,766.095498,-1850.514855
1466.670072,-3701.029710,0.000000,-4515.256246
1466.670384,-3478.967927,-1225.752797,-4367.215058
1466.670695,-6291.750507,-306.438199,-3108.864956
1466.671007,-11473.192101,612.876398,740.205942
1466.671318,-17246.798449,536.266849,3849.070898
1466.671630,-18579.169144,-383.047749,4441.235652
1466.671941,-16358.551318,0.000000,4293.194464
1466.672253,-10066.800811,1225.752797,2738.761985
1466.672564,-4515.256246,1225.752797,370.102971
1466.672876,-1184.329507,-306.438199,-296.082377
1466.673187,74.020594,-1838.629195,-1036.288319
1466.673498,-3256.906145,-842.705048,-1258.350101
1466.673810,-7105.977043,383.047749,370.102971
1466.674121,-10288.862594,459.657299,1998.556043
1466.674433,-11177.109724,-306.438199,2442.679609
1466.674744,-10140.821405,-2068.457845,2220.617826
1466.675056,-8512.368333,-2451.505594,1258.350101
1466.675367,-8660.409521,-1608.800546,666.185348
1466.675679,-9474.636058,-536.266849,740.205942
1466.675990,-10436.903782,153.219100,2146.597232
1466.676301,-12213.398043,-383.047749,2886.803174
1466.676613,-12361.439231,-306.438199,3478.967927
1466.676924,-10510.924376,536.266849,2960.823768
1466.677236,-6883.915261,536.266849,1924.535449
1466.677547,-3701.029710,0.000000,740.205942
1466.677859,-2812.782580,-1149.143247,-814.226536
1466.678170,-4663.297435,0.000000,-1776.494261
1466.678482,-7031.956449,919.314598,-962.267725
1466.678793,-9548.656652,995.924147,-370.102971
1466.679104,-11621.233289,0.000000,-0.000000
1466.679416,-12213.398043,-229.828649,666.185348
1466.679727,-11843.295072,919.314598,666.185348
1466.680039,-12139.377449,612.876398,1332.370696
1466.680350,-11917.315666,1302.362347,2146.597232
1466.680662,-11917.315666,383.047749,888.247130
1466.680973,-11621.233289,1685.410096,518.144159
1466.681285,-9104.533087,1838.629195,518.144159
1466.681596,-5995.668130,689.485948,-1184.329507
1466.681907,-4515.256246,153.219100,-2442.679609
1466.682219,-4441.235652,842.705048,-2294.638420
1466.682530,-6883.915261,306.438199,-1258.350101
1466.682842,-8808.450710,229.828649,370.102971
1466.683153,-9252.574275,-1838.629195,222.061783
1466.683465,-8660.409521,-3907.087040,-1036.288319
1466.683776,-8586.388927,-1915.238745,-444.123565
1466.684088,-10807.006753,919.314598,-444.123565
1466.684399,-14137.933492,919.314598,-0.000000
1466.684710,-15174.221811,-842.705048,814.226536
1466.685022,-12731.542202,-1762.019645,666.185348
1466.685333,-7920.203579,0.000000,-888.247130
1466.685645,-3997.112087,-153.219100,-2220.617826
1466.685956,-3627.009116,-1608.800546,-3997.112087
1466.686268,-4589.276840,-2834.553343,-3849.070898
1466.686579,-6365.771101,-2298.286494,-1184.329507
1466.686891,-11177.109724,-1455.581446,814.226536
1466.687202,-14285.974681,-229.828649,3108.864956
1466.687513,-14730.098246,-919.314598,3997.112087
1466.687825,-10955.047942,-1378.971896,2590.720797
1466.688136,-6513.812290,-1302.362347,-0.000000
1466.688448,-4589.276840,536.266849,-1480.411884
1466.688759,-2738.761985,2374.896044,-1406.391290
1466.689071,-5107.421000,1838.629195,-1036.288319
1466.689382,-9622.677246,919.314598,-0.000000
1466.689694,-13323.706956,1685.410096,1036.288319
1466.690005,-14137.933492,4290.134789,2664.741391
1466.690316,-10807.006753,3294.210641,1924.535449
1466.690628,-8364.327145,766.095498,-296.082377
1466.690939,-7105.977043,-536.266849,-148.041188
1466.691251,-6513.812290,76.609550,-0.000000
1466.691562,-6291.750507,995.924147,148.041188
1466.691874,-8290.306550,1149.143247,1702.473667
1466.692185,-11177.109724,-689.485948,3701.029710
1466.692497,-12435.459826,-2451.505594,4145.153275
1466.692808,-11399.171507,-2221.676944,2368.659014
1466.693119,-8512.368333,153.219100,1702.473667
1466.693431,-7179.997637,689.485948,814.226536
1466.693742,-7624.121203,-919.314598,296.082377
1466.694054,-9030.512492,-1225.752797,-0.000000
1466.694365,-10140.821405,-1072.533697,-0.000000
1466.694677,-9696.697840,76.609550,2442.679609
1466.694988,-10510.924376,-766.095498,2368.659014
1466.695300,-9178.553681,-919.314598,1924.535449
1466.695611,-7846.182985,-229.828649,1776.494261
1466.695922,-6809.894666,766.095498,1480.411884
1466.696234,-6439.791695,2298.286494,1702.473667
1466.696545,-7846.182985,1302.362347,1036.288319
1466.696857,-8734.430116,0.000000,1036.288319
1466.697168,-8364.327145,689.485948,1554.432478
1466.697480,-7550.100608,1762.019645,2516.700203
1466.697791,-7031.956449,-383.047749,1480.411884
1466.698103,-5699.585753,-3370.820191,-0.000000
1466.698414,-5181.441594,-3983.696590,-74.020594
1466.698726,-6439.791695,-1608.800546,1184.329507
1466.699037,-8216.285956,-459.657299,962.267725
1466.699348,-12435.459826,-995.924147,148.041188
1466.699660,-14656.077652,-612.876398,2072.576638
1466.699971,-13027.624579,-459.657299,2294.638420
1466.700283,-10288.862594,766.095498,740.205942
1466.700594,-7105.977043,2451.505594,-1332.370696
1466.700906,-4811.338623,2068.457845,-3404.947333
1466.701217,-2960.823768,1225.752797,-4145.153275
1466.701529,-3108.864956,1072.533697,-3330.926739
1466.701840,-8142.265362,1685.410096,-2294.638420
1466.702151,-14804.118840,0.000000,-0.000000
1466.702463,-17172.777854,-1225.752797,2294.638420
1466.702774,-15100.201217,-995.924147,370.102971
1466.703086,-12879.583391,612.876398,222.061783
1466.703397,-9178.553681,-306.438199,-222.061783
1466.703709,-6069.688724,-1991.848295,-1998.556043
1466.704020,-4219.173869,-1532.190996,-2886.803174
1466.704332,-6069.688724,0.000000,-2368.659014
1466.704643,-8512.368333,766.095498,666.185348
1466.704954,-11177.109724,1608.800546,1184.329507
1466.705266,-12213.398043,2145.067394,1480.411884
1466.705577,-12287.418637,689.485948,1702.473667
1466.705889,-11769.274478,76.609550,1554.432478
1466.706200,-8734.430116,229.828649,-296.082377
1466.706512,-7105.977043,153.219100,-2368.659014
1466.706823,-8068.244768,-1072.533697,-1850.514855
1466.707135,-9326.594869,-1838.629195,-740.205942
1466.707446,-10214.842000,-612.876398,148.041188
1466.707757,-10436.903782,0.000000,2812.782580
1466.708069,-11843.295072,-1838.629195,5181.441594
1466.708380,-10066.800811,-4060.306139,4737.318029
1466.708692,-7254.018232,-2221.676944,4811.338623
1466.709003,-6513.812290,-919.314598,2368.659014
1466.709315,-3701.029710,-612.876398,2664.741391
1466.709626,-3849.070898,-383.047749,740.205942
1466.709938,-4737.318029,-306.438199,-740.205942
1466.710249,-5921.647536,153.219100,888.247130
1466.710560,-7105.977043,0.000000,1110.308913
1466.710872,-9548.656652,153.219100,1480.411884
1466.711183,-12213.398043,536.266849,1702.473667
1466.711495,-12805.562797,919.314598,1258.350101
1466.711806,-13619.789333,3830.477490,2368.659014
1466.712118,-12657.521608,4903.011187,3256.906145
1466.712429,-9918.759623,2911.162892,1998.556043
1466.712741,-6809.894666,-1762.019645,1110.308913
1466.713052,-1850.514855,-1532.190996,-296.082377
1466.713363,-296.082377,153.219100,-1554.432478
1466.713675,-3108.864956,1072.533697,-518.144159
1466.713986,-6587.832884,-766.095498,-1036.288319
1466.714298,-10584.944971,-1378.971896,-1258.350101
1466.714609,-13027.624579,0.000000,740.205942
1466.714921,-15248.242405,766.095498,1776.494261
1466.715232,-15248.242405,1378.971896,740.205942
1466.715544,-14063.912898,766.095498,-592.164754
1466.715855,-9474.636058,229.828649,-1628.453072
1466.716166,-6587.832884,306.438199,-3034.844362
1466.716478,-5995.668130,3294.210641,-1628.453072
1466.716789,-8882.471304,1149.143247,-1110.308913
1466.717101,-12065.356855,-3217.601092,-296.082377
1466.717412,-13027.624579,-3370.820191,1332.370696
1466.717724,-11547.212695,-766.095498,1850.514855
1466.718035,-8734.430116,-1302.362347,1480.411884
1466.718347,-6661.853478,-3370.820191,296.082377
1466.718658,-5033.400406,-3064.381992,-1406.391290
1466.718969,-4663.297435,-2298.286494,-1406.391290
1466.719281,-5033.400406,-1149.143247,-518.144159
1466.719592,-6735.874072,-459.657299,592.164754
1466.719904,-10807.006753,0.000000,666.185348
1466.720215,-12139.377449,459.657299,2294.638420
1466.720527,-13545.768739,1149.143247,1850.514855
1466.720838,-14508.036463,3217.601092,2220.617826
1466.721150,-11325.150913,3447.429741,3034.844362
1466.721461,-9844.739029,153.219100,1110.308913
1466.721773,-6217.729913,-2451.505594,-444.123565
1466.722084,-2368.659014,-1915.238745,-1184.329507
1466.722395,-1776.494261,0.000000,-2664.741391
1466.722707,-3108.864956,1378.971896,-1258.350101
1466.723018,-6291.750507,383.047749,962.267725
1466.723330,-11325.150913,-1225.752797,2368.659014
1466.723641,-14508.036463,-383.047749,4589.276840
1466.723953,-14137.933492,1532.190996,4737.318029
1466.724264,-12731.542202,1762.019645,2664.741391
1466.724576,-9474.636058,1149.143247,2146.597232
1466.724887,-6587.832884,383.047749,-222.061783
1466.725198,-5107.421000,-306.438199,-740.205942
1466.725510,-4515.256246,-612.876398,-0.000000
1466.725821,-6069.688724,-1915.238745,296.082377
1466.726133,-9474.636058,-2221.676944,222.061783
1466.726444,-10658.965565,-1838.629195,1110.308913
1466.726756,-10732.986159,-919.314598,-0.000000
1466.727067,-10955.047942,1072.533697,666.185348
1466.727379,-10362.883188,3370.820191,740.205942
1466.727690,-10436.903782,3140.991542,1332.370696
1466.728001,-9104.533087,1685.410096,2368.659014
1466.728313,-6957.935855,-536.266849,-0.000000
1466.728624,-5699.585753,-229.828649,148.041188
1466.728936,-4737.318029,766.095498,1258.350101
1466.729247,-7105.977043,-383.047749,-0.000000
1466.729559,-9992.780217,-1225.752797,-1480.411884
1466.729870,-13027.624579,-612.876398,-740.205942
1466.730182,-13397.727550,-1302.362347,1036.288319
1466.730493,-12657.521608,-3370.820191,296.082377
1466.730804,-11029.068536,-3600.648841,-444.123565
1466.731116,-8068.244768,-2757.943793,-1924.535449
1466.731427,-5255.462188,-1532.190996,-2442.679609
1466.731739,-4959.379811,459.657299,-888.247130
1466.732050,-7994.224174,1532.190996,1258.350101
1466.732362,-11325.150913,-306.438199,3182.885551
1466.732673,-13693.809927,-1149.143247,3404.947333
1466.732985,-12213.398043,306.438199,2220.617826
1466.733296,-8586.388927,1225.752797,-74.020594
1466.733607,-5625.565159,1762.019645,-2220.617826
1466.733919,-4885.359217,2451.505594,-3627.009116
1466.734230,-6661.853478,919.314598,-3330.926739
1466.734542,-9030.512492,-153.219100,-1850.514855
1466.734853,-10732.986159,-229.828649,-0.000000
1466.735165,-10362.883188,919.314598,1036.288319
1466.735476,-9178.553681,1302.362347,740.205942
1466.735788,-8142.265362,229.828649,1110.308913
1466.736099,-9400.615463,612.876398,518.144159
1466.736410,-8068.244768,2681.334243,2368.659014
1466.736722,-8068.244768,2068.457845,2146.597232
1466.737033,-9696.697840,612.876398,2294.638420
1466.737345,-8882.471304,-1149.143247,1480.411884
1466.737656,-7402.059420,-919.314598,-0.000000
1466.737968,-5477.523971,459.657299,-1332.370696
1466.738279,-6217.729913,1378.971896,-2442.679609
1466.738591,-9844.739029,995.924147,-1258.350101
1466.738902,-11843.295072,229.828649,148.041188
1466.739213,-13323.706956,-612.876398,1924.535449
1466.739525,-11473.192101,-1685.410096,2072.576638
1466.739836,-8512.368333,-1685.410096,1036.288319
1466.740148,-4959.379811,-842.705048,1036.288319
1466.740459,-2960.823768,-842.705048,-592.164754
1466.740771,-5033.400406,-766.095498,222.061783
1466.741082,-7179.997637,-1225.752797,1036.288319
1466.741394,-9770.718434,-2987.772442,1702.473667
1466.741705,-11103.089130,-2681.334243,444.123565
1466.742016,-10066.800811,-919.314598,-2072.576638
1466.742328,-8364.327145,1302.362347,-3478.967927
1466.742639,-7105.977043,995.924147,-3997.112087
1466.742951,-6883.915261,0.000000,-4737.318029
1466.743262,-7402.059420,383.047749,-3849.070898
1466.743574,-9252.574275,1378.971896,-2146.597232
1466.743885,-11547.212695,1915.238745,-592.164754
1466.744197,-12731.542202,1149.143247,592.164754
1466.744508,-11473.192101,-1225.752797,-666.185348
1466.744819,-9474.636058,-2374.896044,-2590.720797
1466.745131,-7476.080014,-1608.800546,-3627.009116
1466.745442,-6883.915261,306.438199,-5477.523971
1466.745754,-8586.388927,2221.676944,-5995.668130
1466.746065,-11251.130318,229.828649,-5033.400406
