#time,accel_x,accel_y,accel_z
1468.498415,-9030.512492,306.438199,444.123565
1468.498726,-8956.491898,0.000000,444.123565
1468.499037,-8882.471304,76.609550,518.144159
1468.499349,-8882.471304,0.000000,666.185348
1468.499660,-8808.450710,0.000000,592.164754
1468.499972,-8956.491898,76.609550,444.123565
1468.500283,-9178.553681,153.219100,222.061783
1468.500594,-8660.409521,0.000000,518.144159
1468.500906,-8882.471304,689.485948,518.144159
1468.501217,-8734.430116,-306.438199,222.061783
1468.501529,-8956.491898,0.000000,518.144159
1468.501840,-8808.450710,-153.219100,518.144159
1468.502151,-9030.512492,0.000000,592.164754
1468.502463,-8956.491898,0.000000,666.185348
1468.502774,-9104.533087,0.000000,518.144159
1468.503086,-8808.450710,229.828649,222.061783
1468.503397,-8882.471304,-229.828649,444.123565
1468.503709,-8882.471304,153.219100,592.164754
1468.504020,-8956.491898,0.000000,518.144159
1468.504331,-8808.450710,0.000000,666.185348
1468.504643,-8956.491898,0.000000,518.144159
1468.504954,-9326.594869,153.219100,888.247130
1468.505266,-8808.450710,0.000000,370.102971
1468.505577,-8586.388927,229.828649,666.185348
1468.505888,-9030.512492,383.047749,518.144159
1468.506200,-8734.430116,0.000000,740.205942
1468.506511,-8956.491898,-153.219100,444.123565
1468.506823,-8956.491898,76.609550,518.144159
1468.507134,-8882.471304,0.000000,518.144159
1468.507446,-9030.512492,153.219100,666.185348
1468.507757,-8956.491898,-229.828649,370.102971
1468.508068,-8734.430116,-153.219100,518.144159
1468.508380,-8808.450710,-459.657299,370.102971
1468.508691,-9030.512492,0.000000,444.123565
1468.509003,-8956.491898,0.000000,518.144159
1468.509314,-8734.430116,0.000000,444.123565
1468.509625,-8882.471304,0.000000,518.144159
1468.509937,-8734.430116,76.609550,222.061783
1468.510248,-8882.471304,459.657299,222.061783
1468.510560,-8808.450710,0.000000,592.164754
1468.510871,-8808.450710,0.000000,370.102971
1468.511183,-8882.471304,-153.219100,444.123565
1468.511494,-8956.491898,0.000000,592.164754
1468.511805,-8956.491898,76.609550,518.144159
1468.512117,-8956.491898,0.000000,518.144159
1468.512428,-8808.450710,229.828649,592.164754
1468.512740,-8808.450710,229.828649,1036.288319
1468.513051,-8808.450710,612.876398,222.061783
1468.513362,-8882.471304,0.000000,370.102971
1468.513674,-8808.450710,0.000000,518.144159
1468.513985,-9030.512492,-229.828649,444.123565
1468.514297,-8956.491898,0.000000,592.164754
1468.514608,-8882.471304,-229.828649,666.185348
1468.514919,-8660.409521,0.000000,296.082377
1468.515231,-8956.491898,689.485948,444.123565
1468.515542,-9178.553681,-229.828649,592.164754
1468.515854,-9030.512492,-153.219100,592.164754
1468.516165,-8956.491898,0.000000,370.102971
1468.516477,-8956.491898,0.000000,518.144159
1468.516788,-8882.471304,0.000000,444.123565
1468.517099,-8586.388927,-306.438199,518.144159
1468.517411,-8956.491898,306.438199,148.041188
1468.517722,-8956.491898,689.485948,222.061783
1468.518034,-8734.430116,76.609550,296.082377
1468.518345,-9030.512492,-306.438199,740.205942
1468.518656,-8956.491898,0.000000,666.185348
1468.518968,-8956.491898,-153.219100,592.164754
1468.519279,-9104.533087,76.609550,518.144159
1468.519591,-8956.491898,383.047749,-0.000000
1468.519902,-8956.491898,459.657299,740.205942
1468.520214,-8586.388927,0.000000,814.226536
1468.520525,-8660.409521,0.000000,518.144159
1468.520836,-8808.450710,-153.219100,444.123565
1468.521148,-8882.471304,-229.828649,592.164754
1468.521459,-9030.512492,0.000000,518.144159
1468.521771,-9030.512492,-76.609550,592.164754
1468.522082,-8734.430116,-76.609550,814.226536
1468.522393,-8734.430116,-459.657299,444.123565
1468.522705,-9030.512492,0.000000,444.123565
1468.523016,-8882.471304,-153.219100,444.123565
1468.523328,-8956.491898,0.000000,518.144159
1468.523639,-8882.471304,-306.438199,370.102971
1468.523950,-9030.512492,0.000000,444.123565
1468.524262,-8882.471304,0.000000,518.144159
1468.524573,-9030.512492,229.828649,444.123565
1468.524885,-8660.409521,612.876398,370.102971
1468.525196,-8660.409521,-229.828649,444.123565
1468.525508,-8882.471304,-229.828649,518.144159
1468.525819,-8808.450710,-229.828649,518.144159
1468.526130,-8956.491898,-153.219100,592.164754
1468.526442,-8882.471304,-153.219100,518.144159
1468.526753,-9104.533087,-153.219100,370.102971
1468.527065,-8512.368333,229.828649,518.144159
1468.527376,-8734.430116,-153.219100,222.061783
1468.527687,-8956.491898,-229.828649,-0.000000
1468.527999,-8956.491898,0.000000,518.144159
1468.528310,-9030.512492,0.000000,444.123565
1468.528622,-8956.491898,0.000000,518.144159
1468.528933,-8882.471304,-153.219100,740.205942
1468.529245,-8808.450710,-459.657299,518.144159
1468.529556,-9030.512492,0.000000,370.102971
1468.529867,-9030.512492,-229.828649,-0.000000
1468.530179,-9918.759623,306.438199,222.061783
1468.530490,-11917.315666,1608.800546,-0.000000
1468.530802,-9844.739029,4213.525239,740.205942
1468.531113,-8290.306550,4903.011187,666.185348
1468.531424,-7328.038826,2451.505594,1480.411884
1468.531736,-6439.791695,-306.438199,814.226536
1468.532047,-7328.038826,-1685.410096,-296.082377
1468.532359,-6661.853478,-459.657299,-0.000000
1468.532670,-9326.594869,-306.438199,-888.247130
1468.532981,-13175.665768,-919.314598,-1110.308913
1468.533293,-11547.212695,842.705048,-0.000000
1468.533604,-9696.697840,766.095498,666.185348
1468.533916,-8734.430116,0.000000,2738.761985
1468.534227,-10658.965565,-536.266849,2220.617826
1468.534539,-11325.150913,2451.505594,1406.391290
1468.534850,-5699.585753,5362.668486,2146.597232
1468.535161,-6143.709319,4443.353888,1554.432478
1468.535473,-7920.203579,2528.115143,-0.000000
1468.535784,-6883.915261,2911.162892,-1258.350101
1468.536096,-8364.327145,2987.772442,-2220.617826
1468.536407,-9252.574275,4213.525239,-740.205942
1468.536718,-9844.739029,3830.477490,-740.205942
1468.537030,-15248.242405,153.219100,-444.123565
1468.537341,-10732.986159,-612.876398,2590.720797
1468.537653,-8660.409521,-612.876398,1332.370696
1468.537964,-9770.718434,2987.772442,1628.453072
1468.538276,-7550.100608,6052.154434,1998.556043
1468.538587,-8216.285956,3524.039291,1184.329507
1468.538898,-6587.832884,3064.381992,2664.741391
1468.539210,-7031.956449,5669.106685,1332.370696
1468.539521,-8290.306550,7201.297681,-444.123565
1468.539833,-7846.182985,5132.839837,-1258.350101
1468.540144,-9178.553681,4519.963438,-1036.288319
1468.540455,-9622.677246,5286.058936,-1554.432478
1468.540767,-11399.171507,5515.887586,-74.020594
1468.541078,-12213.398043,5439.278036,592.164754
1468.541390,-10584.944971,4136.915689,1628.453072
1468.541701,-9696.697840,4903.011187,1998.556043
1468.542013,-8216.285956,5515.887586,2368.659014
1468.542324,-6365.771101,5669.106685,-148.041188
1468.542635,-5551.544565,5975.544884,518.144159
1468.542947,-4885.359217,5439.278036,370.102971
1468.543258,-6069.688724,4903.011187,-814.226536
1468.543570,-7624.121203,4903.011187,-666.185348
1468.543881,-8290.306550,3677.258390,-1110.308913
1468.544192,-9548.656652,2451.505594,-0.000000
1468.544504,-10510.924376,995.924147,296.082377
1468.544815,-10658.965565,306.438199,2072.576638
1468.545127,-11251.130318,-153.219100,1554.432478
1468.545438,-10510.924376,1991.848295,2294.638420
1468.545749,-8660.409521,3064.381992,2294.638420
1468.546061,-7328.038826,3753.867940,296.082377
1468.546372,-5773.606348,2911.162892,222.061783
1468.546684,-6291.750507,2987.772442,-888.247130
1468.546995,-6587.832884,3677.258390,-1036.288319
1468.547307,-6735.874072,3524.039291,-1110.308913
1468.547618,-8586.388927,536.266849,-888.247130
1468.547929,-10140.821405,-1915.238745,-74.020594
1468.548241,-11769.274478,-2374.896044,1036.288319
1468.548552,-12953.603985,-2298.286494,1628.453072
1468.548864,-13693.809927,-1149.143247,1628.453072
1468.549175,-12731.542202,689.485948,1480.411884
1468.549486,-12139.377449,2374.896044,-296.082377
1468.549798,-9400.615463,3983.696590,-222.061783
1468.550109,-6883.915261,4136.915689,-592.164754
1468.550421,-5995.668130,4596.572988,-0.000000
1468.550732,-6069.688724,4826.401637,1036.288319
1468.551044,-7031.956449,3370.820191,962.267725
1468.551355,-8734.430116,1378.971896,370.102971
1468.551666,-11103.089130,383.047749,444.123565
1468.551978,-12435.459826,306.438199,-0.000000
1468.552289,-13471.748144,383.047749,-296.082377
1468.552601,-13989.892304,612.876398,-0.000000
1468.552912,-12805.562797,1915.238745,370.102971
1468.553223,-11103.089130,2145.067394,1184.329507
1468.553535,-8660.409521,3524.039291,2368.659014
1468.553846,-5921.647536,4519.963438,2220.617826
1468.554158,-3404.947333,5209.449386,1036.288319
1468.554469,-2072.576638,6128.763984,-74.020594
1468.554780,-1850.514855,5362.668486,-1554.432478
1468.555092,-4663.297435,3370.820191,-1406.391290
1468.555403,-8882.471304,2451.505594,-1332.370696
1468.555715,-12213.398043,3370.820191,-148.041188
1468.556026,-14508.036463,3217.601092,1184.329507
1468.556338,-15618.345376,3140.991542,2812.782580
1468.556649,-13323.706956,3447.429741,3997.112087
1468.556960,-9400.615463,3370.820191,3108.864956
1468.557272,-5403.503377,4366.744339,2220.617826
1468.557583,-1998.556043,5515.887586,518.144159
1468.557895,-1850.514855,7201.297681,-1332.370696
1468.558206,-2294.638420,7354.516781,-2294.638420
1468.558517,-5107.421000,5975.544884,-2516.700203
1468.558829,-7476.080014,3677.258390,-1406.391290
1468.559140,-9844.739029,2145.067394,518.144159
1468.559452,-11399.171507,-842.705048,962.267725
1468.559763,-12213.398043,-3524.039291,2146.597232
1468.560075,-12953.603985,-3830.477490,1850.514855
1468.560386,-12805.562797,-1455.581446,1850.514855
1468.560697,-12361.439231,1302.362347,1406.391290
1468.561009,-11251.130318,3447.429741,1554.432478
1468.561320,-10510.924376,5362.668486,2220.617826
1468.561632,-7550.100608,6281.983084,1628.453072
1468.561943,-6291.750507,5439.278036,1184.329507
1468.562254,-6143.709319,3524.039291,-222.061783
1468.562566,-6809.894666,3064.381992,-1924.535449
1468.562877,-7846.182985,3677.258390,-2738.761985
1468.563189,-9844.739029,3983.696590,-3034.844362
1468.563500,-11325.150913,3677.258390,-2072.576638
1468.563812,-12509.480420,2298.286494,-666.185348
1468.564123,-12361.439231,995.924147,1332.370696
1468.564434,-12583.501014,536.266849,3108.864956
1468.564746,-12509.480420,2221.676944,2590.720797
1468.565057,-10955.047942,4366.744339,2664.741391
1468.565369,-8586.388927,6588.421283,740.205942
1468.565680,-6069.688724,6358.592633,-0.000000
1468.565991,-5403.503377,4596.572988,-1332.370696
1468.566303,-5995.668130,3294.210641,-1406.391290
1468.566614,-8068.244768,1915.238745,-1332.370696
1468.566926,-9178.553681,2374.896044,-0.000000
1468.567237,-9474.636058,1838.629195,370.102971
1468.567548,-8808.450710,-689.485948,1480.411884
1468.567860,-7031.956449,-2834.553343,2294.638420
1468.568171,-7624.121203,-2451.505594,1332.370696
1468.568483,-8068.244768,1838.629195,592.164754
1468.568794,-9030.512492,6128.763984,-296.082377
1468.569106,-10066.800811,9269.755526,-222.061783
1468.569417,-10140.821405,9806.022374,1110.308913
1468.569728,-10436.903782,6281.983084,888.247130
1468.570040,-9030.512492,4290.134789,1480.411884
1468.570351,-8068.244768,4519.963438,666.185348
1468.570663,-7476.080014,5209.449386,148.041188
1468.570974,-6069.688724,3830.477490,-0.000000
1468.571285,-5181.441594,536.266849,-0.000000
1468.571597,-5255.462188,-1455.581446,-0.000000
1468.571908,-6735.874072,-1072.533697,-0.000000
1468.572220,-9474.636058,2068.457845,-444.123565
1468.572531,-12583.501014,5669.106685,-370.102971
1468.572843,-13693.809927,7354.516781,740.205942
1468.573154,-14434.015869,5898.935335,2442.679609
1468.573465,-14878.139434,2834.553343,3182.885551
1468.573777,-11843.295072,2528.115143,3256.906145
1468.574088,-7846.182985,3600.648841,1924.535449
1468.574400,-4737.318029,2604.724693,1332.370696
1468.574711,-3034.844362,-995.924147,666.185348
1468.575022,-3849.070898,-4519.963438,-1110.308913
1468.575334,-5255.462188,-4519.963438,-962.267725
1468.575645,-5921.647536,689.485948,-592.164754
1468.575957,-9178.553681,4903.011187,-1184.329507
1468.576268,-13841.851115,4443.353888,-0.000000
1468.576580,-16580.613101,2298.286494,1702.473667
1468.576891,-17394.839637,2757.943793,2738.761985
1468.577203,-14434.015869,6205.373534,2960.823768
1468.577514,-10362.883188,7967.393179,2072.576638
1468.577826,-5403.503377,3753.867940,518.144159
1468.578137,-2738.761985,-612.876398,-444.123565
1468.578449,-222.061783,-1762.019645,-1406.391290
1468.578760,-296.082377,919.314598,-1332.370696
1468.579072,-5033.400406,3600.648841,-814.226536
1468.579383,-11695.253884,2528.115143,-74.020594
1468.579695,-15396.283594,1991.848295,296.082377
1468.580006,-16580.613101,2987.772442,148.041188
1468.580318,-13915.871710,5669.106685,148.041188
1468.580629,-11547.212695,4290.134789,-666.185348
1468.580941,-11399.171507,2145.067394,-1924.535449
1468.581252,-8068.244768,1532.190996,-1628.453072
1468.581564,-4885.359217,2911.162892,-962.267725
1468.581875,-5403.503377,3217.601092,888.247130
1468.582187,-7105.977043,1532.190996,3108.864956
1468.582499,-9178.553681,-2374.896044,3182.885551
1468.582810,-9844.739029,-689.485948,3552.988522
1468.583122,-9474.636058,4673.182538,1702.473667
1468.583433,-9622.677246,8963.317327,-2072.576638
1468.583745,-9844.739029,8886.707777,-4293.194464
1468.584056,-8364.327145,6665.030833,-5033.400406
1468.584368,-7031.956449,7048.078582,-4071.132681
1468.584679,-10066.800811,8044.002729,-1776.494261
1468.584991,-13693.809927,7354.516781,740.205942
1468.585302,-14434.015869,2757.943793,3627.009116
1468.585614,-10807.006753,-919.314598,5403.503377
1468.585925,-7846.182985,-2298.286494,4663.297435
1468.586237,-5107.421000,0.000000,1924.535449
1468.586548,-3108.864956,1762.019645,-962.267725
1468.586860,-1776.494261,2681.334243,-1702.473667
1468.587171,-4737.318029,4903.011187,-962.267725
1468.587483,-11103.089130,5669.106685,-592.164754
1468.587794,-15470.304188,7431.126331,1924.535449
1468.588106,-15840.407159,5515.887586,4589.276840
1468.588417,-11991.336260,3064.381992,4441.235652
1468.588729,-8512.368333,2298.286494,1036.288319
1468.589040,-4219.173869,995.924147,-814.226536
1468.589352,-2146.597232,-919.314598,-2072.576638
1468.589663,-3775.050304,-3370.820191,-74.020594
1468.589975,-7179.997637,-2298.286494,666.185348
1468.590286,-9622.677246,-2068.457845,3182.885551
1468.590598,-11399.171507,-4519.963438,4737.318029
1468.590909,-11917.315666,-4749.792088,4367.215058
1468.591221,-8364.327145,-1149.143247,1924.535449
1468.591532,-5625.565159,2145.067394,-1554.432478
1468.591844,-5625.565159,2374.896044,-888.247130
1468.592155,-8216.285956,1455.581446,-1258.350101
1468.592467,-10362.883188,2145.067394,-0.000000
1468.592778,-11103.089130,919.314598,1702.473667
1468.593090,-11917.315666,-1915.238745,2960.823768
1468.593401,-11621.233289,-1072.533697,2072.576638
1468.593713,-9622.677246,1302.362347,-0.000000
1468.594024,-7846.182985,689.485948,-1702.473667
1468.594336,-8068.244768,76.609550,-1924.535449
1468.594647,-9844.739029,3217.601092,-1702.473667
1468.594959,-11695.253884,5822.325785,-2368.659014
1468.595270,-12805.562797,4903.011187,-1480.411884
1468.595582,-10955.047942,3370.820191,-148.041188
1468.595893,-9030.512492,4060.306139,-592.164754
1468.596205,-8438.347739,2528.115143,-444.123565
1468.596516,-8882.471304,-919.314598,296.082377
1468.596828,-9030.512492,-2681.334243,814.226536
1468.597139,-10214.842000,-1991.848295,1924.535449
1468.597451,-10510.924376,-2681.334243,2664.741391
1468.597762,-9696.697840,-3830.477490,-0.000000
1468.598074,-8364.327145,-2068.457845,-1924.535449
1468.598385,-5181.441594,1378.971896,-2294.638420
1468.598697,-7254.018232,2221.676944,-2590.720797
1468.599008,-9474.636058,2451.505594,-1406.391290
1468.599320,-10584.944971,3600.648841,222.061783
1468.599631,-11399.171507,995.924147,2664.741391
1468.599943,-9992.780217,-1532.190996,3478.967927
1468.600254,-7402.059420,-1455.581446,2072.576638
1468.600566,-4589.276840,-1225.752797,888.247130
1468.600877,-3404.947333,-2451.505594,1184.329507
1468.601189,-5847.626942,-3217.601092,370.102971
1468.601500,-7994.224174,-1532.190996,1258.350101
1468.601812,-9918.759623,-306.438199,1776.494261
1468.602123,-9326.594869,-383.047749,2368.659014
1468.602435,-7328.038826,612.876398,-0.000000
1468.602746,-7402.059420,2911.162892,-1998.556043
1468.603058,-5773.606348,3677.258390,-1628.453072
1468.603369,-5403.503377,2451.505594,-1924.535449
1468.603681,-8142.265362,1991.848295,888.247130
1468.603992,-11325.150913,0.000000,3034.844362
1468.604304,-12805.562797,-2757.943793,3108.864956
1468.604615,-11103.089130,-3600.648841,4071.132681
1468.604927,-10066.800811,-2911.162892,2738.761985
1468.605238,-9326.594869,-3140.991542,1776.494261
1468.605550,-10140.821405,-3064.381992,-962.267725
1468.605861,-9918.759623,-1225.752797,-0.000000
1468.606173,-10955.047942,0.000000,-222.061783
1468.606484,-11769.274478,842.705048,-1406.391290
1468.606796,-7846.182985,2528.115143,-1184.329507
1468.607107,-6883.915261,1455.581446,-1776.494261
1468.607419,-7402.059420,919.314598,814.226536
1468.607730,-7402.059420,2374.896044,1258.350101
1468.608042,-11325.150913,689.485948,1110.308913
1468.608353,-13545.768739,-1302.362347,3997.112087
1468.608665,-13619.789333,-3140.991542,3923.091493
1468.608976,-12509.480420,-1532.190996,2146.597232
1468.609288,-8586.388927,153.219100,-148.041188
1468.609599,-7105.977043,-153.219100,-1628.453072
1468.609911,-7994.224174,-306.438199,-2886.803174
1468.610222,-8068.244768,3370.820191,-2220.617826
1468.610534,-8734.430116,5362.668486,-1480.411884
1468.610845,-9178.553681,4290.134789,370.102971
1468.611157,-7179.997637,2987.772442,148.041188
1468.611468,-4515.256246,2298.286494,962.267725
1468.611780,-3108.864956,536.266849,1702.473667
1468.612091,-4737.318029,-1608.800546,2294.638420
1468.612403,-7031.956449,-1455.581446,2072.576638
1468.612714,-10658.965565,-1608.800546,2146.597232
1468.613026,-12435.459826,-3447.429741,2442.679609
1468.613337,-10510.924376,-4060.306139,814.226536
1468.613649,-8956.491898,-2681.334243,-1480.411884
1468.613960,-7698.141797,-306.438199,-1776.494261
1468.614272,-6735.874072,-383.047749,-2738.761985
1468.614583,-8438.347739,76.609550,-2220.617826
1468.614895,-9326.594869,1302.362347,222.061783
1468.615206,-8734.430116,612.876398,2294.638420
1468.615518,-6587.832884,-229.828649,1998.556043
1468.615829,-5847.626942,-766.095498,2442.679609
1468.616141,-6661.853478,-1455.581446,1184.329507
1468.616452,-7476.080014,-1608.800546,444.123565
1468.616764,-9918.759623,-306.438199,666.185348
1468.617075,-13175.665768,-306.438199,888.247130
1468.617387,-14878.139434,-1762.019645,-444.123565
1468.617698,-13841.851115,-1532.190996,-888.247130
1468.618010,-11251.130318,383.047749,-2072.576638
1468.618321,-9400.615463,2374.896044,-2664.741391
1468.618633,-9252.574275,2834.553343,-2738.761985
1468.618944,-8808.450710,3447.429741,-962.267725
1468.619256,-9252.574275,1991.848295,1480.411884
1468.619567,-9844.739029,76.609550,3182.885551
1468.619879,-9918.759623,-229.828649,2886.803174
1468.620190,-8068.244768,459.657299,2590.720797
1468.620502,-7179.997637,-459.657299,1554.432478
1468.620813,-7550.100608,-1455.581446,666.185348
1468.621125,-8956.491898,-1149.143247,-296.082377
1468.621436,-11843.295072,-306.438199,-1110.308913
1468.621748,-12583.501014,0.000000,-0.000000
1468.622059,-12139.377449,-1762.019645,-962.267725
1468.622371,-10510.924376,-1608.800546,-666.185348
1468.622682,-8660.409521,-1149.143247,370.102971
1468.622994,-7550.100608,-995.924147,962.267725
1468.623305,-6661.853478,-842.705048,2294.638420
1468.623617,-6513.812290,-1532.190996,3701.029710
1468.623928,-6217.729913,-2145.067394,4145.153275
1468.624240,-5477.523971,-2987.772442,3404.947333
1468.624551,-3849.070898,-1991.848295,2812.782580
1468.624863,-3923.091493,-2221.676944,1184.329507
1468.625174,-5107.421000,-2221.676944,148.041188
1468.625486,-6883.915261,-2068.457845,-814.226536
1468.625797,-9918.759623,-1225.752797,-888.247130
1468.626109,-11621.233289,0.000000,-592.164754
1468.626420,-12287.418637,1378.971896,-1332.370696
1468.626732,-12361.439231,1838.629195,-962.267725
1468.627044,-10066.800811,2757.943793,518.144159
1468.627355,-9474.636058,2374.896044,740.205942
1468.627667,-7920.203579,2681.334243,1628.453072
1468.627978,-5551.544565,2911.162892,3552.988522
1468.628290,-5773.606348,995.924147,3923.091493
1468.628601,-5329.482782,-1225.752797,1258.350101
1468.628913,-5107.421000,459.657299,-1554.432478
1468.629224,-6439.791695,2451.505594,-3775.050304
1468.629536,-9474.636058,3294.210641,-4293.194464
1468.629847,-13249.686362,2911.162892,-4219.173869
1468.630159,-15988.448347,1608.800546,-2146.597232
1468.630470,-17838.963202,-612.876398,-148.041188
1468.630782,-15988.448347,-919.314598,1184.329507
1468.631093,-12953.603985,76.609550,2516.700203
1468.631405,-9622.677246,-306.438199,2812.782580
1468.631716,-6809.894666,-1608.800546,3034.844362
1468.632028,-6291.750507,-2145.067394,2738.761985
1468.632339,-5921.647536,-995.924147,3256.906145
1468.632651,-7179.997637,-995.924147,2368.659014
1468.632962,-8216.285956,-2068.457845,-0.000000
1468.633274,-7105.977043,-995.924147,-2294.638420
1468.633585,-7031.956449,-536.266849,-2368.659014
1468.633897,-6809.894666,536.266849,-1480.411884
1468.634208,-8216.285956,-842.705048,-592.164754
1468.634520,-11325.150913,-1838.629195,1184.329507
1468.634831,-12361.439231,-1532.190996,3478.967927
1468.635143,-11917.315666,-689.485948,3404.947333
1468.635454,-9474.636058,689.485948,2738.761985
1468.635766,-6217.729913,842.705048,1628.453072
1468.636077,-3627.009116,766.095498,1628.453072
1468.636389,-2590.720797,-383.047749,888.247130
1468.636700,-2960.823768,0.000000,1258.350101
1468.637012,-5625.565159,-1225.752797,1332.370696
1468.637323,-7550.100608,-2068.457845,-0.000000
1468.637635,-8068.244768,-1302.362347,-962.267725
1468.637946,-9326.594869,-153.219100,-1554.432478
1468.638258,-10658.965565,1072.533697,-2220.617826
1468.638569,-12287.418637,1302.362347,-1702.473667
1468.638881,-12657.521608,1762.019645,592.164754
1468.639192,-13841.851115,-306.438199,3330.926739
1468.639504,-13027.624579,-1838.629195,3923.091493
1468.639815,-9918.759623,-1302.362347,2664.741391
1468.640127,-7105.977043,-229.828649,1110.308913
1468.640438,-5033.400406,153.219100,-0.000000
1468.640750,-5329.482782,1072.533697,-3182.885551
1468.641061,-8734.430116,2604.724693,-3775.050304
1468.641373,-10732.986159,2451.505594,-962.267725
1468.641684,-12805.562797,612.876398,-666.185348
1468.641996,-12435.459826,229.828649,370.102971
1468.642307,-11325.150913,229.828649,592.164754
1468.642619,-9844.739029,0.000000,962.267725
1468.642930,-8512.368333,0.000000,592.164754
1468.643242,-8808.450710,459.657299,1184.329507
1468.643553,-9326.594869,1225.752797,1776.494261
1468.643865,-9104.533087,153.219100,740.205942
1468.644176,-8364.327145,76.609550,-0.000000
1468.644488,-6587.832884,1225.752797,-1036.288319
1468.644799,-5033.400406,1072.533697,-888.247130
1468.645111,-6809.894666,-1149.143247,-1184.329507
1468.645422,-8364.327145,-1378.971896,-222.061783
1468.645734,-10288.862594,-459.657299,1702.473667
1468.646045,-11473.192101,-2221.676944,1776.494261
1468.646357,-10288.862594,-1608.800546,1702.473667
1468.646668,-8438.347739,0.000000,962.267725
1468.646980,-6661.853478,995.924147,888.247130
1468.647291,-5551.544565,536.266849,-0.000000
1468.647603,-5847.626942,459.657299,296.082377
1468.647914,-5995.668130,-459.657299,1332.370696
1468.648226,-7920.203579,-2451.505594,1258.350101
1468.648537,-7994.224174,-2298.286494,1258.350101
1468.648849,-9474.636058,-1225.752797,-444.123565
1468.649160,-11251.130318,0.000000,592.164754
1468.649472,-10066.800811,0.000000,370.102971
1468.649783,-12065.356855,-842.705048,370.102971
1468.650095,-11843.295072,0.000000,1702.473667
1468.650406,-10214.842000,-612.876398,1554.432478
1468.650718,-8068.244768,76.609550,1258.350101
1468.651029,-5847.626942,919.314598,1332.370696
1468.651341,-7031.956449,-459.657299,222.061783
1468.651652,-6513.812290,0.000000,740.205942
1468.651964,-8808.450710,1072.533697,740.205942
1468.652275,-11547.212695,1532.190996,814.226536
1468.652587,-12805.562797,689.485948,444.123565
1468.652898,-12139.377449,766.095498,-740.205942
1468.653210,-10584.944971,1149.143247,-740.205942
1468.653521,-9622.677246,1378.971896,518.144159
1468.653833,-10140.821405,1991.848295,740.205942
1468.654144,-10288.862594,2298.286494,2294.638420
1468.654456,-10584.944971,1455.581446,2812.782580
1468.654767,-9400.615463,842.705048,2516.700203
1468.655079,-6587.832884,1072.533697,-0.000000
1468.655390,-3627.009116,383.047749,-444.123565
1468.655702,-2664.741391,-842.705048,-370.102971
1468.656013,-4737.318029,-2681.334243,-1332.370696
1468.656325,-7105.977043,-2757.943793,-1184.329507
1468.656636,-9770.718434,-2604.724693,-0.000000
1468.656948,-12139.377449,-4060.306139,2072.576638
1468.657259,-12361.439231,-4749.792088,2146.597232
1468.657571,-12139.377449,-4060.306139,1702.473667
1468.657882,-10881.027347,-2451.505594,1332.370696
1468.658194,-9030.512492,-536.266849,-222.061783
1468.658505,-7402.059420,1915.238745,1036.288319
1468.658817,-7105.977043,1762.019645,1332.370696
1468.659128,-6809.894666,229.828649,666.185348
1468.659440,-5477.523971,0.000000,370.102971
1468.659751,-3775.050304,919.314598,-814.226536
1468.660063,-3997.112087,1762.019645,-1776.494261
1468.660374,-7031.956449,383.047749,-2812.782580
1468.660686,-10066.800811,0.000000,-2368.659014
1468.660997,-13175.665768,459.657299,-296.082377
1468.661309,-15100.201217,1455.581446,444.123565
1468.661620,-14508.036463,2451.505594,-0.000000
1468.661932,-13175.665768,2221.676944,-222.061783
1468.662243,-10658.965565,1685.410096,1110.308913
1468.662555,-7550.100608,1762.019645,1110.308913
1468.662866,-7031.956449,2604.724693,1554.432478
1468.663178,-7402.059420,2681.334243,2516.700203
1468.663489,-7402.059420,0.000000,1924.535449
1468.663801,-8216.285956,-919.314598,-0.000000
1468.664112,-7624.121203,995.924147,-148.041188
1468.664424,-6661.853478,995.924147,-1258.350101
1468.664735,-8142.265362,-536.266849,-592.164754
1468.665047,-11473.192101,-1991.848295,148.041188
1468.665358,-13027.624579,-2068.457845,1480.411884
1468.665670,-13027.624579,-1455.581446,3478.967927
1468.665981,-12953.603985,-1378.971896,3182.885551
1468.666293,-9326.594869,-842.705048,3108.864956
1468.666604,-5847.626942,-383.047749,1406.391290
1468.666916,-2812.782580,-612.876398,2812.782580
1468.667227,-2072.576638,-766.095498,2442.679609
1468.667539,-4885.359217,-1991.848295,2294.638420
1468.667850,-6291.750507,-1149.143247,2220.617826
1468.668162,-7254.018232,-1915.238745,592.164754
1468.668473,-5699.585753,-995.924147,222.061783
1468.668785,-6365.771101,229.828649,-740.205942
1468.669096,-8290.306550,-153.219100,-962.267725
1468.669408,-8512.368333,-995.924147,-0.000000
1468.669719,-11917.315666,-995.924147,814.226536
1468.670031,-13175.665768,0.000000,2072.576638
1468.670342,-13101.645173,-306.438199,518.144159
1468.670654,-11399.171507,0.000000,-814.226536
1468.670965,-8586.388927,1149.143247,-592.164754
1468.671277,-6883.915261,1838.629195,-74.020594
1468.671589,-6217.729913,1302.362347,592.164754
1468.671900,-9178.553681,0.000000,962.267725
1468.672212,-10288.862594,-612.876398,962.267725
1468.672523,-9918.759623,-1302.362347,-222.061783
1468.672835,-9844.739029,0.000000,-2146.597232
1468.673146,-9770.718434,2374.896044,-2812.782580
1468.673458,-10066.800811,2451.505594,-3701.029710
1468.673769,-12065.356855,1225.752797,-2886.803174
1468.674081,-13545.768739,229.828649,-0.000000
1468.674392,-14211.954086,-383.047749,1924.535449
1468.674704,-13841.851115,-2451.505594,1776.494261
1468.675015,-9548.656652,-1378.971896,1332.370696
1468.675326,-6809.894666,-459.657299,-148.041188
1468.675638,-5551.544565,0.000000,222.061783
1468.675949,-5033.400406,-153.219100,518.144159
1468.676261,-7105.977043,-383.047749,1184.329507
1468.676572,-9474.636058,0.000000,2664.741391
1468.676884,-9696.697840,-306.438199,2146.597232
1468.677195,-8216.285956,459.657299,666.185348
1468.677507,-5995.668130,76.609550,-0.000000
1468.677818,-4663.297435,383.047749,-1110.308913
1468.678129,-4737.318029,0.000000,-1332.370696
1468.678441,-6809.894666,0.000000,-296.082377
1468.678752,-9992.780217,-1378.971896,2220.617826
1468.679064,-11177.109724,-2528.115143,2294.638420
1468.679375,-9844.739029,-1608.800546,1924.535449
1468.679687,-7920.203579,-842.705048,1258.350101
1468.679998,-4811.338623,-1149.143247,2146.597232
1468.680310,-6291.750507,-2298.286494,1332.370696
1468.680621,-7254.018232,-2068.457845,2072.576638
1468.680932,-8142.265362,-536.266849,2516.700203
1468.681244,-10658.965565,-612.876398,2072.576638
1468.681555,-8956.491898,1225.752797,740.205942
1468.681867,-8512.368333,1762.019645,-1702.473667
1468.682178,-8734.430116,1608.800546,-1110.308913
1468.682490,-8438.347739,2145.067394,-1184.329507
1468.682801,-10288.862594,1532.190996,-518.144159
1468.683113,-12361.439231,153.219100,1850.514855
1468.683424,-13027.624579,-2145.067394,2590.720797
1468.683735,-12435.459826,-2451.505594,962.267725
1468.684047,-10881.027347,-459.657299,-74.020594
1468.684358,-8216.285956,2221.676944,-296.082377
1468.684670,-8586.388927,842.705048,-962.267725
1468.684981,-10436.903782,919.314598,-0.000000
1468.685293,-11029.068536,919.314598,1184.329507
1468.685604,-11843.295072,612.876398,666.185348
1468.685916,-9992.780217,1685.410096,1110.308913
1468.686227,-7402.059420,2374.896044,296.082377
1468.686539,-7550.100608,1149.143247,-1480.411884
1468.686850,-5921.647536,766.095498,-1036.288319
1468.687161,-7105.977043,1302.362347,-518.144159
1468.687473,-9992.780217,766.095498,1184.329507
1468.687784,-10066.800811,-766.095498,2664.741391
1468.688096,-9918.759623,-2298.286494,444.123565
1468.688407,-8068.244768,-1685.410096,222.061783
1468.688719,-6883.915261,76.609550,666.185348
1468.689030,-6439.791695,0.000000,-0.000000
1468.689342,-7624.121203,689.485948,-0.000000
1468.689653,-9326.594869,-689.485948,2220.617826
1468.689964,-8438.347739,-1608.800546,3108.864956
1468.690276,-6957.935855,-1149.143247,1332.370696
1468.690587,-4811.338623,-229.828649,1110.308913
1468.690899,-4219.173869,-2145.067394,370.102971
1468.691210,-4737.318029,-2604.724693,-666.185348
1468.691522,-6883.915261,-1302.362347,-666.185348
1468.691833,-9178.553681,-1072.533697,444.123565
1468.692145,-11621.233289,-3370.820191,1924.535449
1468.692456,-12065.356855,-2604.724693,1332.370696
1468.692767,-11473.192101,-842.705048,-370.102971
1468.693079,-11251.130318,306.438199,-666.185348
1468.693390,-11029.068536,995.924147,-740.205942
1468.693702,-10955.047942,2604.724693,-0.000000
1468.694013,-10066.800811,2221.676944,1184.329507
1468.694325,-10732.986159,76.609550,2146.597232
1468.694636,-10362.883188,-1685.410096,888.247130
1468.694948,-6883.915261,2068.457845,-148.041188
1468.695259,-6735.874072,3294.210641,-1332.370696
1468.695570,-8660.409521,2298.286494,-2368.659014
1468.695882,-10584.944971,1225.752797,-2368.659014
1468.696193,-12583.501014,459.657299,-1184.329507
1468.696505,-13619.789333,153.219100,296.082377
1468.696816,-13397.727550,-229.828649,-0.000000
1468.697128,-11695.253884,689.485948,-296.082377
1468.697439,-9696.697840,766.095498,296.082377
1468.697751,-7624.121203,-383.047749,1850.514855
1468.698062,-6587.832884,-766.095498,2738.761985
1468.698373,-5773.606348,-995.924147,4367.215058
1468.698685,-8068.244768,-1762.019645,3478.967927
1468.698996,-6661.853478,-2298.286494,2442.679609
1468.699308,-3997.112087,-919.314598,-222.061783
1468.699619,-4515.256246,153.219100,-592.164754
1468.699931,-4071.132681,-1455.581446,-888.247130
1468.700242,-7698.141797,-2604.724693,-296.082377
1468.700554,-11473.192101,-2911.162892,1554.432478
1468.700865,-11843.295072,-2374.896044,2886.803174
1468.701176,-11991.336260,-2145.067394,2368.659014
1468.701488,-9400.615463,-689.485948,740.205942
1468.701799,-7920.203579,1455.581446,1332.370696
1468.702111,-6439.791695,76.609550,518.144159
1468.702422,-4515.256246,1072.533697,666.185348
1468.702734,-4515.256246,1378.971896,2368.659014
1468.703045,-4515.256246,-459.657299,2368.659014
1468.703357,-7105.977043,-1915.238745,1258.350101
1468.703668,-7846.182985,-689.485948,-0.000000
1468.703980,-8142.265362,1072.533697,-1184.329507
1468.704291,-11103.089130,2068.457845,-1998.556043
1468.704602,-12287.418637,2145.067394,-2146.597232
1468.704914,-15248.242405,1838.629195,-1628.453072
1468.705225,-15766.386565,0.000000,148.041188
1468.705537,-14137.933492,-383.047749,148.041188
1468.705848,-11325.150913,1455.581446,888.247130
1468.706160,-7402.059420,1838.629195,1332.370696
1468.706471,-7402.059420,612.876398,1258.350101
1468.706783,-7476.080014,-153.219100,1184.329507
1468.707094,-7846.182985,1991.848295,1702.473667
1468.707405,-9844.739029,2221.676944,814.226536
1468.707717,-10732.986159,2221.676944,-1258.350101
1468.708028,-9918.759623,1838.629195,-2368.659014
1468.708340,-8660.409521,1532.190996,-2146.597232
1468.708651,-7698.141797,766.095498,-1850.514855
1468.708963,-10140.821405,612.876398,-1036.288319
1468.709274,-11399.171507,1149.143247,888.247130
1468.709586,-11843.295072,459.657299,2886.803174
1468.709897,-11325.150913,-1302.362347,2886.803174
1468.710208,-6587.832884,-842.705048,1998.556043
1468.710520,-3849.070898,-689.485948,1036.288319
1468.710831,-3256.906145,-2681.334243,444.123565
1468.711143,-3256.906145,-3677.258390,444.123565
1468.711454,-5699.585753,-2681.334243,1184.329507
1468.711766,-8808.450710,-1455.581446,2664.741391
1468.712077,-11325.150913,-3064.381992,3256.906145
1468.712389,-10214.842000,-3140.991542,2368.659014
1468.712700,-8290.306550,-1225.752797,666.185348
1468.713011,-6217.729913,0.000000,-74.020594
1468.713323,-6661.853478,842.705048,-888.247130
1468.713634,-8956.491898,1455.581446,-444.123565
1468.713946,-9030.512492,919.314598,1332.370696
1468.714257,-9844.739029,-919.314598,1258.350101
1468.714569,-8660.409521,0.000000,1480.411884
1468.714880,-7328.038826,1455.581446,-0.000000
1468.715192,-6809.894666,689.485948,-0.000000
1468.715503,-7328.038826,-536.266849,296.082377
1468.715814,-9696.697840,-1072.533697,666.185348
1468.716126,-11843.295072,459.657299,-0.000000
1468.716437,-12583.501014,766.095498,-0.000000
1468.716749,-11177.109724,1225.752797,-814.226536
1468.717060,-9918.759623,995.924147,-1554.432478
1468.717372,-9770.718434,1378.971896,-518.144159
1468.717683,-10436.903782,1378.971896,-0.000000
1468.717995,-12213.398043,1302.362347,962.267725
1468.718306,-12953.603985,153.219100,1702.473667
1468.718618,-12509.480420,-1838.629195,1924.535449
1468.718929,-9548.656652,-1455.581446,296.082377
1468.719240,-7031.956449,-153.219100,-962.267725
1468.719552,-7105.977043,0.000000,-1628.453072
1468.719863,-7550.100608,0.000000,-74.020594
1468.720175,-9104.533087,-153.219100,1702.473667
1468.720486,-10066.800811,-459.657299,3701.029710
1468.720798,-10732.986159,-612.876398,2072.576638
1468.721109,-8586.388927,306.438199,666.185348
1468.721421,-5329.482782,842.705048,-518.144159
1468.721732,-4293.194464,1455.581446,-1776.494261
1468.722043,-3849.070898,1762.019645,-1998.556043
1468.722355,-6587.832884,612.876398,-1258.350101
1468.722666,-9474.636058,-919.314598,1924.535449
1468.722978,-9474.636058,-3370.820191,3256.906145
1468.723289,-9622.677246,-4749.792088,2738.761985
1468.723601,-8586.388927,-3830.477490,2664.741391
1468.723912,-7254.018232,-2987.772442,1332.370696
1468.724224,-7476.080014,-1532.190996,-0.000000
1468.724535,-7920.203579,153.219100,-0.000000
1468.724846,-8586.388927,995.924147,814.226536
1468.725158,-9770.718434,306.438199,1776.494261
1468.725469,-8290.306550,229.828649,1258.350101
1468.725781,-6661.853478,1991.848295,666.185348
1468.726092,-5995.668130,1302.362347,222.061783
1468.726404,-7550.100608,1302.362347,-444.123565
1468.726715,-9400.615463,1378.971896,-962.267725
1468.727027,-11103.089130,1532.190996,-296.082377
1468.727338,-12805.562797,229.828649,370.102971
1468.727649,-12657.521608,-766.095498,-518.144159
1468.727961,-11695.253884,153.219100,-740.205942
1468.728272,-10955.047942,1302.362347,-370.102971
1468.728584,-9992.780217,1608.800546,-74.020594
1468.728895,-11325.150913,919.314598,518.144159
1468.729207,-10807.006753,1608.800546,2664.741391
1468.729518,-10732.986159,1532.190996,1406.391290
1468.729830,-9030.512492,1302.362347,222.061783
1468.730141,-5551.544565,1608.800546,-444.123565
1468.730452,-5477.523971,383.047749,-1332.370696
1468.730764,-6661.853478,383.047749,-1850.514855
1468.731075,-9474.636058,-612.876398,-370.102971
1468.731387,-12583.501014,-612.876398,592.164754
1468.731698,-13175.665768,-459.657299,2590.720797
1468.732010,-11769.274478,-1225.752797,2220.617826
1468.732321,-9178.553681,-1762.019645,1258.350101
1468.732633,-7476.080014,-1455.581446,-0.000000
1468.732944,-4811.338623,459.657299,518.144159
1468.733255,-4367.215058,1149.143247,962.267725
1468.733567,-5699.585753,-766.095498,1924.535449
1468.733878,-4663.297435,-1608.800546,3330.926739
1468.734190,-5699.585753,-3447.429741,1554.432478
1468.734501,-4589.276840,-2604.724693,2146.597232
1468.734813,-4367.215058,-2298.286494,1110.308913
1468.735124,-7402.059420,-2681.334243,-814.226536
1468.735436,-9030.512492,-1915.238745,-148.041188
1468.735747,-11325.150913,-1762.019645,296.082377
1468.736059,-13989.892304,-995.924147,592.164754
1468.736370,-13989.892304,-766.095498,814.226536
1468.736681,-12065.356855,229.828649,222.061783
1468.736993,-10066.800811,842.705048,1258.350101
1468.737304,-8512.368333,842.705048,814.226536
1468.737616,-6661.853478,1149.143247,2146.597232
1468.737927,-6217.729913,919.314598,1776.494261
1468.738239,-7105.977043,-153.219100,1110.308913
1468.738550,-7624.121203,-995.924147,-1036.288319
1468.738862,-7624.121203,612.876398,-2516.700203
1468.739173,-8956.491898,2298.286494,-2664.741391
1468.739484,-10881.027347,1915.238745,-2368.659014
1468.739796,-13545.768739,689.485948,-962.267725
1468.740107,-15988.448347,0.000000,962.267725
1468.740419,-15174.221811,-306.438199,2664.741391
1468.740730,-13545.768739,-153.219100,2220.617826
1468.741042,-9474.636058,689.485948,1110.308913
1468.741353,-6217.729913,2298.286494,1110.308913
1468.741665,-4737.318029,1072.533697,-370.102971
1468.741976,-5181.441594,1149.143247,-0.000000
1468.742287,-8142.265362,842.705048,666.185348
1468.742599,-9622.677246,-383.047749,2146.597232
1468.742910,-9474.636058,-1685.410096,222.061783
1468.743222,-7254.018232,-1685.410096,518.144159
1468.743533,-6883.915261,-1762.019645,-518.144159
1468.743845,-6513.812290,-1378.971896,-148.041188
1468.744156,-8068.244768,-153.219100,-814.226536
1468.744468,-10658.965565,0.000000,-0.000000
1468.744779,-10955.047942,0.000000,2294.638420
1468.745090,-10510.924376,-689.485948,2368.659014
1468.745402,-7328.038826,-153.219100,1776.494261
1468.745713,-4959.379811,306.438199,1998.556043
1468.746025,-4589.276840,-2068.457845,1480.411884
1468.746336,-4515.256246,-2374.896044,1258.350101
1468.746648,-5847.626942,-2145.067394,1554.432478
1468.746959,-8808.450710,-2068.457845,1332.370696
1468.747271,-11325.150913,-1455.581446,370.102971
1468.747582,-10510.924376,0.000000,-370.102971
1468.747893,-9622.677246,1072.533697,-1110.308913
1468.748205,-8882.471304,1455.581446,-1110.308913
1468.748516,-9474.636058,1072.533697,-0.000000
1468.748828,-10436.903782,689.485948,666.185348
1468.749139,-11325.150913,229.828649,2072.576638
1468.749451,-11103.089130,612.876398,1258.350101
1468.749762,-9030.512492,1915.238745,-0.000000
1468.750074,-7624.121203,2911.162892,-1554.432478
1468.750385,-7179.997637,1455.581446,-1628.453072
1468.750697,-8660.409521,995.924147,-1406.391290
1468.751008,-11177.109724,689.485948,-0.000000
1468.751319,-13619.789333,306.438199,1850.514855
1468.751631,-14582.057057,-536.266849,1110.308913
1468.751942,-11769.274478,0.000000,666.185348
1468.752254,-7994.224174,536.266849,-148.041188
1468.752565,-5329.482782,-153.219100,-518.144159
1468.752877,-6365.771101,-306.438199,-888.247130
1468.753188,-8216.285956,612.876398,444.123565
1468.753500,-10881.027347,459.657299,1332.370696
1468.753811,-12657.521608,-689.485948,1924.535449
1468.754122,-10066.800811,-995.924147,1998.556043
1468.754434,-7550.100608,-1225.752797,1036.288319
1468.754745,-5995.668130,-2145.067394,1628.453072
1468.755057,-6883.915261,-2451.505594,592.164754
1468.755368,-8216.285956,-2451.505594,518.144159
1468.755680,-7994.224174,-383.047749,2442.679609
1468.755991,-9252.574275,-1302.362347,1850.514855
1468.756303,-7179.997637,-995.924147,1628.453072
1468.756614,-5329.482782,-383.047749,-0.000000
1468.756925,-5921.647536,306.438199,-1036.288319
1468.757237,-3256.906145,383.047749,222.061783
1468.757548,-6809.894666,-153.219100,-888.247130
1468.757860,-9474.636058,-1225.752797,1998.556043
1468.758171,-10584.944971,-2757.943793,2072.576638
1468.758483,-11399.171507,-2757.943793,1110.308913
1468.758794,-10140.821405,76.609550,-0.000000
1468.759106,-9326.594869,1149.143247,-222.061783
1468.759417,-9104.533087,459.657299,-148.041188
1468.759728,-9548.656652,0.000000,888.247130
1468.760040,-10288.862594,229.828649,1850.514855
1468.760351,-11103.089130,76.609550,-0.000000
1468.760663,-9400.615463,1838.629195,-740.205942
1468.760974,-7179.997637,2451.505594,-1406.391290
1468.761286,-7328.038826,1455.581446,-1702.473667
1468.761597,-8438.347739,1149.143247,-2072.576638
1468.761909,-11029.068536,995.924147,-1258.350101
1468.762220,-12805.562797,0.000000,1036.288319
1468.762531,-13915.871710,-919.314598,1702.473667
1468.762843,-12953.603985,-306.438199,592.164754
1468.763154,-10658.965565,842.705048,-222.061783
1468.763466,-8586.388927,1149.143247,-222.061783
1468.763777,-7994.224174,1225.752797,-74.020594
1468.764089,-8956.491898,2298.286494,518.144159
1468.764400,-9770.718434,2451.505594,1554.432478
1468.764712,-8290.306550,689.485948,1998.556043
1468.765023,-7105.977043,-612.876398,888.247130
1468.765334,-5033.400406,-536.266849,-888.247130
1468.765646,-3923.091493,-153.219100,-1258.350101
1468.765957,-5773.606348,-1302.362347,-1850.514855
1468.766269,-7328.038826,-995.924147,370.102971
1468.766580,-9104.533087,-1838.629195,2072.576638
1468.766892,-11769.274478,-4136.915689,3108.864956
1468.767203,-10881.027347,-4290.134789,3330.926739
1468.767515,-9696.697840,-1685.410096,1258.350101
1468.767826,-8882.471304,842.705048,370.102971
1468.768138,-7105.977043,1915.238745,-148.041188
1468.768449,-6291.750507,1838.629195,296.082377
1468.768760,-6735.874072,1225.752797,1702.473667
1468.769072,-7254.018232,689.485948,1850.514855
1468.769383,-6217.729913,689.485948,740.205942
1468.769695,-4811.338623,306.438199,-74.020594
1468.770006,-5477.523971,-612.876398,-0.000000
1468.770318,-8068.244768,-1378.971896,-1998.556043
1468.770629,-9844.739029,-153.219100,-1554.432478
1468.770941,-12879.583391,766.095498,-74.020594
1468.771252,-15322.262999,-306.438199,666.185348
1468.771563,-14878.139434,0.000000,222.061783
1468.771875,-12509.480420,76.609550,-74.020594
1468.772186,-9326.594869,383.047749,1480.411884
1468.772498,-7105.977043,153.219100,1776.494261
1468.772809,-7846.182985,306.438199,962.267725
1468.773121,-8438.347739,1072.533697,2590.720797
1468.773432,-9104.533087,-229.828649,1628.453072
1468.773744,-9992.780217,-1225.752797,740.205942
1468.774055,-7920.203579,919.314598,-592.164754
1468.774366,-7105.977043,1455.581446,-1628.453072
1468.774678,-8216.285956,-995.924147,-1184.329507
1468.774989,-10362.883188,-1378.971896,-1480.411884
1468.775301,-12361.439231,-612.876398,444.123565
1468.775612,-13027.624579,0.000000,1998.556043
1468.775924,-12805.562797,-153.219100,2368.659014
1468.776235,-10732.986159,459.657299,1554.432478
1468.776546,-7698.141797,536.266849,1332.370696
1468.776858,-3701.029710,1455.581446,814.226536
1468.777169,-2812.782580,1149.143247,518.144159
1468.777481,-5107.421000,-153.219100,1776.494261
1468.777792,-6439.791695,-2681.334243,2738.761985
1468.778103,-6439.791695,-3370.820191,370.102971
1468.778415,-6069.688724,-1915.238745,-518.144159
1468.778726,-7105.977043,306.438199,-592.164754
1468.779038,-7624.121203,-842.705048,-2220.617826
1468.779349,-10066.800811,-842.705048,-1628.453072
1468.779661,-13323.706956,-919.314598,370.102971
1468.779972,-13249.686362,-1378.971896,1776.494261
1468.780283,-13841.851115,-459.657299,1776.494261
1468.780595,-9622.677246,995.924147,1776.494261
1468.780906,-5625.565159,536.266849,1924.535449
1468.781218,-5699.585753,-919.314598,814.226536
1468.781529,-5107.421000,229.828649,444.123565
1468.781841,-5995.668130,2145.067394,-74.020594
1468.782152,-9844.739029,1685.410096,-0.000000
1468.782463,-11251.130318,1608.800546,-814.226536
1468.782775,-10807.006753,2298.286494,-2886.803174
1468.783086,-10584.944971,2221.676944,-2368.659014
1468.783398,-9770.718434,1762.019645,-1110.308913
1468.783709,-10066.800811,1302.362347,-0.000000
1468.784020,-12657.521608,612.876398,592.164754
1468.784332,-13397.727550,612.876398,2294.638420
1468.784643,-11251.130318,-229.828649,1776.494261
1468.784955,-8512.368333,459.657299,1184.329507
1468.785266,-6587.832884,1149.143247,-0.000000
1468.785578,-6735.874072,-383.047749,-0.000000
1468.785889,-7772.162391,-459.657299,740.205942
1468.786200,-8586.388927,306.438199,1628.453072
1468.786512,-10140.821405,76.609550,2442.679609
1468.786823,-10362.883188,-1072.533697,1702.473667
1468.787135,-9548.656652,-1302.362347,962.267725
1468.787446,-6735.874072,-1149.143247,222.061783
1468.787757,-5107.421000,0.000000,-1628.453072
1468.788069,-6069.688724,1455.581446,-814.226536
1468.788380,-7179.997637,842.705048,518.144159
1468.788692,-9918.759623,-2298.286494,2812.782580
1468.789003,-10214.842000,-3447.429741,2368.659014
1468.789315,-7624.121203,-2834.553343,2146.597232
1468.789626,-5847.626942,-1378.971896,1702.473667
1468.789937,-6069.688724,-2145.067394,1258.350101
1468.790249,-7402.059420,-2834.553343,222.061783
1468.790560,-8216.285956,-1455.581446,-0.000000
1468.790872,-9400.615463,383.047749,1850.514855
1468.791183,-10436.903782,76.609550,592.164754
1468.791494,-10881.027347,766.095498,-518.144159
1468.791806,-10066.800811,1302.362347,-0.000000
1468.792117,-8956.491898,306.438199,-0.000000
1468.792429,-7698.141797,1991.848295,814.226536
1468.792740,-8586.388927,2145.067394,-0.000000
1468.793052,-10214.842000,842.705048,1036.288319
1468.793363,-9696.697840,-1225.752797,-0.000000
1468.793674,-8660.409521,-1072.533697,-1036.288319
1468.793986,-8364.327145,1225.752797,-1036.288319
1468.794297,-9844.739029,1532.190996,-1184.329507
1468.794609,-12361.439231,1455.581446,-814.226536
1468.794920,-12805.562797,1838.629195,444.123565
1468.795232,-12435.459826,1685.410096,2368.659014
1468.795543,-11029.068536,689.485948,1184.329507
1468.795854,-8586.388927,1302.362347,-222.061783
1468.796166,-7920.203579,1608.800546,-888.247130
1468.796477,-5107.421000,1762.019645,-592.164754
1468.796789,-5107.421000,2145.067394,-1480.411884
1468.797100,-8438.347739,1072.533697,-0.000000
1468.797411,-9918.759623,-1838.629195,2368.659014
1468.797723,-11251.130318,-4213.525239,2664.741391
1468.798034,-9696.697840,-2451.505594,1258.350101
1468.798346,-7476.080014,-383.047749,1036.288319
1468.798657,-7105.977043,-1225.752797,-0.000000
1468.798969,-8216.285956,-995.924147,-666.185348
1468.799280,-8364.327145,229.828649,740.205942
1468.799591,-9030.512492,536.266849,1998.556043
1468.799903,-8956.491898,459.657299,3034.844362
1468.800214,-7624.121203,-306.438199,2368.659014
1468.800526,-6513.812290,-766.095498,1036.288319
1468.800837,-3478.967927,-612.876398,-0.000000
1468.801148,-3627.009116,459.657299,-370.102971
1468.801460,-5699.585753,-995.924147,-148.041188
1468.801771,-8216.285956,-2221.676944,444.123565
1468.802083,-11325.150913,-3600.648841,814.226536
1468.802394,-12435.459826,-3524.039291,370.102971
1468.802706,-11843.295072,-689.485948,-0.000000
1468.803017,-11991.336260,1685.410096,-888.247130
1468.803328,-12657.521608,2068.457845,-1036.288319
1468.803640,-11547.212695,1608.800546,-0.000000
1468.803951,-10732.986159,1608.800546,1850.514855
1468.804263,-9400.615463,995.924147,2516.700203
1468.804574,-6883.915261,1149.143247,1480.411884
1468.804886,-5033.400406,306.438199,-74.020594
1468.805197,-4663.297435,459.657299,-592.164754
1468.805508,-6957.935855,306.438199,-1998.556043
1468.805820,-10732.986159,842.705048,-2072.576638
1468.806131,-13693.809927,919.314598,-74.020594
1468.806443,-15840.407159,-1455.581446,-0.000000
1468.806754,-15248.242405,-1455.581446,-0.000000
1468.807065,-11695.253884,0.000000,-148.041188
1468.807377,-9474.636058,766.095498,592.164754
1468.807688,-7624.121203,0.000000,1258.350101
1468.808000,-7846.182985,306.438199,814.226536
1468.808311,-5699.585753,2528.115143,3330.926739
1468.808623,-5625.565159,2374.896044,3330.926739
1468.808934,-6217.729913,-153.219100,2072.576638
1468.809245,-4737.318029,-229.828649,-444.123565
1468.809557,-4737.318029,536.266849,-1184.329507
1468.809868,-5847.626942,153.219100,-1628.453072
1468.810180,-6883.915261,153.219100,-1036.288319
1468.810491,-9326.594869,-1149.143247,296.082377
1468.810802,-12805.562797,-3677.258390,1850.514855
1468.811114,-12509.480420,-4290.134789,1998.556043
1468.811425,-11029.068536,-919.314598,296.082377
1468.811737,-9474.636058,2528.115143,-74.020594
1468.812048,-7254.018232,2451.505594,-0.000000
1468.812360,-6513.812290,76.609550,666.185348
1468.812671,-5921.647536,-766.095498,2368.659014
1468.812982,-4885.359217,-1378.971896,3034.844362
1468.813294,-5107.421000,-2451.505594,2368.659014
1468.813605,-4737.318029,-1378.971896,518.144159
1468.813917,-7105.977043,-153.219100,-592.164754
1468.814228,-9474.636058,383.047749,-2294.638420
1468.814540,-12287.418637,1378.971896,-1332.370696
1468.814851,-15692.365970,1685.410096,-148.041188
1468.815162,-16728.654289,76.609550,1702.473667
1468.815474,-16876.695478,-2451.505594,148.041188
1468.815785,-11695.253884,-612.876398,222.061783
1468.816097,-9696.697840,1378.971896,-518.144159
1468.816408,-8068.244768,459.657299,-592.164754
1468.816719,-5551.544565,306.438199,-0.000000
1468.817031,-6069.688724,0.000000,1110.308913
1468.817342,-6735.874072,-842.705048,2738.761985
1468.817654,-8882.471304,-766.095498,1628.453072
1468.817965,-8438.347739,536.266849,518.144159
1468.818277,-9474.636058,1915.238745,-1258.350101
1468.818588,-11251.130318,1838.629195,-1998.556043
1468.818899,-10955.047942,2911.162892,-1850.514855
1468.819211,-12879.583391,2298.286494,-1036.288319
1468.819522,-12583.501014,459.657299,1036.288319
1468.819834,-10584.944971,-1532.190996,370.102971
1468.820145,-7476.080014,-536.266849,-296.082377
1468.820456,-5181.441594,153.219100,814.226536
1468.820768,-4515.256246,-1838.629195,592.164754
1468.821079,-3627.009116,-3753.867940,1184.329507
1468.821391,-3552.988522,-2298.286494,2738.761985
1468.821702,-5995.668130,-3677.258390,4071.132681
1468.822014,-8956.491898,-4826.401637,3108.864956
1468.822325,-9252.574275,-2911.162892,2072.576638
1468.822636,-9252.574275,229.828649,296.082377
1468.822948,-7846.182985,1225.752797,-222.061783
1468.823259,-8142.265362,919.314598,-1036.288319
1468.823571,-10584.944971,842.705048,-370.102971
1468.823882,-10807.006753,459.657299,1184.329507
1468.824194,-10140.821405,-306.438199,1480.411884
1468.824505,-9104.533087,842.705048,444.123565
1468.824816,-7105.977043,1608.800546,-0.000000
1468.825128,-7105.977043,-383.047749,-0.000000
1468.825439,-7254.018232,-1608.800546,-0.000000
1468.825751,-8142.265362,153.219100,-222.061783
1468.826062,-9918.759623,1455.581446,814.226536
1468.826373,-11177.109724,383.047749,370.102971
1468.826685,-10807.006753,-459.657299,444.123565
1468.826996,-9696.697840,-153.219100,444.123565
1468.827308,-9474.636058,536.266849,-370.102971
1468.827619,-9474.636058,2757.943793,-370.102971
1468.827931,-11621.233289,1762.019645,-740.205942
1468.828242,-13767.830521,766.095498,1110.308913
1468.828553,-12953.603985,-459.657299,444.123565
1468.828865,-10955.047942,383.047749,-666.185348
1468.829176,-9548.656652,1149.143247,-148.041188
1468.829488,-8660.409521,0.000000,-148.041188
1468.829799,-7328.038826,-842.705048,-518.144159
1468.830110,-9104.533087,-919.314598,-74.020594
1468.830422,-10584.944971,612.876398,2886.803174
1468.830733,-10140.821405,383.047749,2590.720797
1468.831045,-7920.203579,1072.533697,1184.329507
1468.831356,-5255.462188,1225.752797,888.247130
1468.831668,-2960.823768,995.924147,-0.000000
1468.831979,-4737.318029,0.000000,-592.164754
1468.832290,-6217.729913,842.705048,-740.205942
1468.832602,-7254.018232,0.000000,1184.329507
1468.832913,-9622.677246,-2681.334243,814.226536
1468.833225,-9104.533087,-2528.115143,1480.411884
1468.833536,-8438.347739,-2221.676944,-0.000000
1468.833848,-7994.224174,-2911.162892,296.082377
1468.834159,-8068.244768,-1762.019645,370.102971
1468.834470,-8660.409521,76.609550,-0.000000
1468.834782,-10214.842000,383.047749,1332.370696
1468.835093,-11177.109724,-995.924147,1850.514855
1468.835405,-9474.636058,-689.485948,1480.411884
1468.835716,-6513.812290,1532.190996,148.041188
1468.836027,-5477.523971,2374.896044,-74.020594
1468.836339,-5403.503377,1302.362347,-74.020594
1468.836650,-8068.244768,1225.752797,-222.061783
1468.836962,-9622.677246,306.438199,888.247130
1468.837273,-10881.027347,-1149.143247,370.102971
1468.837585,-11695.253884,-1225.752797,-0.000000
1468.837896,-11473.192101,-383.047749,-962.267725
1468.838207,-11621.233289,306.438199,-1480.411884
1468.838519,-11843.295072,0.000000,-1850.514855
1468.838830,-11843.295072,919.314598,-296.082377
1468.839142,-12805.562797,1225.752797,888.247130
1468.839453,-12435.459826,0.000000,1554.432478
1468.839764,-9474.636058,-612.876398,1554.432478
1468.840076,-5995.668130,-919.314598,814.226536
1468.840387,-5403.503377,-536.266849,962.267725
1468.840699,-6735.874072,-1302.362347,222.061783
1468.841010,-10881.027347,-1532.190996,-1036.288319
1468.841322,-12731.542202,766.095498,962.267725
1468.841633,-12657.521608,1455.581446,1110.308913
1468.841944,-11843.295072,1072.533697,-0.000000
1468.842256,-9326.594869,229.828649,-592.164754
1468.842567,-6883.915261,-612.876398,-74.020594
1468.842879,-6069.688724,-536.266849,-444.123565
1468.843190,-7179.997637,1532.190996,148.041188
1468.843502,-8290.306550,2068.457845,1850.514855
1468.843813,-8068.244768,229.828649,2220.617826
1468.844124,-5477.523971,-1225.752797,2738.761985
1468.844436,-2294.638420,-1915.238745,2886.803174
1468.844747,-2368.659014,-2757.943793,1776.494261
1468.845059,-4589.276840,-3217.601092,1332.370696
1468.845370,-6513.812290,-3140.991542,740.205942
1468.845681,-9104.533087,-2298.286494,1628.453072
1468.845993,-12583.501014,-1225.752797,1036.288319
1468.846304,-13841.851115,229.828649,-0.000000
1468.846616,-12805.562797,2374.896044,-1332.370696
1468.846927,-10955.047942,2298.286494,222.061783
1468.847239,-7846.182985,2451.505594,296.082377
1468.847550,-7550.100608,1762.019645,1036.288319
1468.847861,-6439.791695,536.266849,3775.050304
1468.848173,-5551.544565,-1072.533697,2664.741391
1468.848484,-4885.359217,-383.047749,888.247130
1468.848796,-4515.256246,995.924147,-1480.411884
1468.849107,-7328.038826,2068.457845,-2812.782580
1468.849418,-10288.862594,2221.676944,-3849.070898
1468.849730,-14285.974681,1991.848295,-2294.638420
1468.850041,-17246.798449,1762.019645,-296.082377
1468.850353,-17987.004391,536.266849,1184.329507
1468.850664,-16062.468941,-383.047749,1924.535449
1468.850976,-11473.192101,0.000000,888.247130
1468.851287,-7476.080014,383.047749,1184.329507
1468.851598,-5921.647536,-229.828649,296.082377
1468.851910,-5033.400406,689.485948,-0.000000
1468.852221,-6291.750507,1685.410096,1406.391290
1468.852533,-9474.636058,-229.828649,1628.453072
1468.852844,-8808.450710,-2757.943793,518.144159
1468.853155,-7254.018232,-1608.800546,-148.041188
1468.853467,-7328.038826,-1378.971896,518.144159
1468.853778,-7994.224174,-1608.800546,-0.000000
1468.854090,-10214.842000,-1762.019645,-0.000000
1468.854401,-11695.253884,-842.705048,518.144159
1468.854713,-10955.047942,0.000000,2368.659014
1468.855024,-10140.821405,76.609550,1332.370696
1468.855335,-7179.997637,1072.533697,666.185348
1468.855647,-4293.194464,612.876398,814.226536
1468.855958,-4811.338623,-1915.238745,296.082377
1468.856270,-4071.132681,-919.314598,1554.432478
1468.856581,-5995.668130,0.000000,1184.329507
1468.856893,-8364.327145,-2145.067394,2516.700203
1468.857204,-8882.471304,-3294.210641,1628.453072
1468.857515,-8216.285956,-1608.800546,-814.226536
1468.857827,-8068.244768,383.047749,-296.082377
1468.858138,-8364.327145,229.828649,-666.185348
1468.858450,-10732.986159,612.876398,-518.144159
1468.858761,-12509.480420,689.485948,888.247130
1468.859072,-12583.501014,0.000000,2664.741391
1468.859384,-11769.274478,-1455.581446,1998.556043
1468.859695,-9696.697840,-689.485948,962.267725
1468.860007,-7402.059420,153.219100,-444.123565
1468.860318,-5773.606348,-536.266849,-666.185348
1468.860630,-6291.750507,-1302.362347,-444.123565
1468.860941,-9178.553681,-2451.505594,-444.123565
1468.861252,-10658.965565,-3753.867940,1406.391290
1468.861564,-11621.233289,-3753.867940,222.061783
1468.861875,-10955.047942,-1915.238745,592.164754
1468.862187,-9326.594869,-766.095498,666.185348
1468.862498,-9104.533087,-2221.676944,-0.000000
1468.862809,-9178.553681,-2298.286494,-518.144159
1468.863121,-8216.285956,-383.047749,1036.288319
1468.863432,-10362.883188,-1455.581446,1628.453072
1468.863744,-10732.986159,-2834.553343,888.247130
1468.864055,-8734.430116,-3370.820191,-370.102971
1468.864367,-6365.771101,-2987.772442,-666.185348
1468.864678,-5625.565159,-3983.696590,296.082377
1468.864989,-7920.203579,-5362.668486,814.226536
1468.865301,-10955.047942,-5592.497135,814.226536
1468.865612,-11399.171507,-4749.792088,2368.659014
1468.865924,-12065.356855,-3983.696590,1628.453072
1468.866235,-10584.944971,-1532.190996,518.144159
1468.866547,-8734.430116,-229.828649,-1406.391290
1468.866858,-4663.297435,-1225.752797,-1184.329507
1468.867169,-3627.009116,-1915.238745,-592.164754
1468.867481,-5995.668130,-1072.533697,296.082377
1468.867792,-7402.059420,-153.219100,1850.514855
1468.868104,-8364.327145,-3447.429741,2812.782580
1468.868415,-8364.327145,-6894.859482,2738.761985
1468.868726,-7105.977043,-7124.688131,962.267725
1468.869038,-5551.544565,-3294.210641,-1924.535449
1468.869349,-7179.997637,-2451.505594,-2368.659014
1468.869661,-11029.068536,-4060.306139,296.082377
1468.869972,-14804.118840,-4596.572988,1480.411884
1468.870284,-15026.180623,-3677.258390,2442.679609
1468.870595,-13323.706956,-3370.820191,3478.967927
1468.870906,-9770.718434,-3907.087040,2146.597232
1468.871218,-6439.791695,-2451.505594,-74.020594
1468.871529,-2368.659014,-1532.190996,-1554.432478
1468.871841,-2294.638420,-3217.601092,-740.205942
1468.872152,-7550.100608,-3447.429741,1110.308913
1468.872463,-12953.603985,-1762.019645,1258.350101
1468.872775,-15100.201217,-1149.143247,2146.597232
1468.873086,-13175.665768,-2374.896044,1702.473667
1468.873398,-10732.986159,-2987.772442,518.144159
1468.873709,-8364.327145,-2757.943793,-2368.659014
1468.874021,-6661.853478,-1838.629195,-4219.173869
1468.874332,-5995.668130,-306.438199,-2442.679609
1468.874643,-8586.388927,0.000000,-592.164754
1468.874955,-12805.562797,229.828649,1998.556043
1468.875266,-13027.624579,-1149.143247,3108.864956
1468.875578,-10955.047942,-2987.772442,4071.132681
1468.875889,-6883.915261,-3064.381992,4663.297435
1468.876201,-4071.132681,-3064.381992,1406.391290
1468.876512,-3330.926739,-3830.477490,-518.144159
1468.876823,-2738.761985,-4903.011187,-1258.350101
1468.877135,-3775.050304,-4749.792088,-296.082377
1468.877446,-6587.832884,-3983.696590,148.041188
1468.877758,-12731.542202,-5439.278036,1184.329507
1468.878069,-14878.139434,-6665.030833,2960.823768
1468.878380,-12509.480420,-6588.421283,2812.782580
1468.878692,-9844.739029,-5132.839837,2664.741391
1468.879003,-7105.977043,-5056.230287,1406.391290
1468.879315,-6587.832884,-8273.831378,-74.020594
1468.879626,-4589.276840,-8273.831378,-370.102971
1468.879937,-2664.741391,-4519.963438,-518.144159
1468.880249,-3923.091493,-1838.629195,-444.123565
1468.880560,-7550.100608,-2681.334243,1628.453072
1468.880871,-11399.171507,-4903.011187,2368.659014
1468.881183,-12139.377449,-7124.688131,3552.988522
1468.881494,-11991.336260,-3370.820191,2146.597232
1468.881806,-12805.562797,1455.581446,-0.000000
1468.882117,-11547.212695,1532.190996,-2294.638420
1468.882428,-9770.718434,-995.924147,-3627.009116
1468.882740,-8438.347739,-1302.362347,-3627.009116
1468.883051,-8364.327145,612.876398,-4071.132681
1468.883363,-10584.944971,1838.629195,-2516.700203
1468.883674,-12509.480420,2145.067394,-0.000000
1468.883985,-12879.583391,-842.705048,2220.617826
1468.884297,-12139.377449,-4060.306139,3034.844362
1468.884608,-10288.862594,-3907.087040,3182.885551
1468.884920,-7698.141797,-1838.629195,1554.432478
1468.885231,-6809.894666,-306.438199,-666.185348
1468.885542,-5773.606348,-919.314598,-1184.329507
1468.885854,-5995.668130,-3140.991542,-3627.009116
1468.886165,-7920.203579,-2604.724693,-1776.494261
1468.886477,-8216.285956,-2451.505594,-740.205942
1468.886788,-9400.615463,-1532.190996,222.061783
1468.887099,-12065.356855,-2834.553343,2146.597232
1468.887411,-12435.459826,-4749.792088,2886.803174
1468.887722,-10881.027347,-4903.011187,3330.926739
1468.888033,-8586.388927,-4060.306139,3552.988522
1468.888345,-8364.327145,-3907.087040,2516.700203
1468.888656,-7846.182985,-2681.334243,1406.391290
1468.888968,-5995.668130,-1532.190996,370.102971
1468.889279,-2664.741391,-1608.800546,-0.000000
1468.889590,-1110.308913,-3294.210641,-0.000000
1468.889902,-1998.556043,-5056.230287,-444.123565
1468.890213,-4811.338623,-5056.230287,-444.123565
1468.890525,-8068.244768,-3983.696590,-296.082377
1468.890836,-11769.274478,-2068.457845,962.267725
1468.891147,-13249.686362,-919.314598,1850.514855
1468.891459,-13989.892304,-2145.067394,2886.803174
1468.891770,-12879.583391,-4596.572988,3923.091493
1468.892082,-11325.150913,-5439.278036,3034.844362
1468.892393,-8586.388927,-3600.648841,1998.556043
1468.892704,-5699.585753,-2451.505594,-0.000000
1468.893016,-3923.091493,-3370.820191,-1258.350101
1468.893327,-2960.823768,-3064.381992,-1258.350101
1468.893639,-4219.173869,-4136.915689,-2146.597232
1468.893950,-5773.606348,-4519.963438,-1184.329507
1468.894261,-8956.491898,-4366.744339,-666.185348
1468.894573,-11991.336260,-3983.696590,-0.000000
1468.894884,-14582.057057,-4596.572988,1258.350101
1468.895196,-15618.345376,-5439.278036,2220.617826
1468.895507,-15396.283594,-5975.544884,3108.864956
1468.895818,-14656.077652,-6128.763984,2738.761985
1468.896130,-12657.521608,-5592.497135,2368.659014
1468.896441,-9548.656652,-5362.668486,1110.308913
1468.896752,-7105.977043,-6128.763984,444.123565
1468.897064,-4885.359217,-6741.640382,-1184.329507
1468.897375,-4737.318029,-5362.668486,-1480.411884
1468.897687,-5773.606348,-3064.381992,-2738.761985
1468.897998,-6883.915261,-1762.019645,-2368.659014
1468.898309,-9844.739029,-153.219100,-1258.350101
1468.898621,-12657.521608,-383.047749,-0.000000
1468.898932,-14063.912898,-153.219100,1332.370696
1468.899244,-13545.768739,-689.485948,1480.411884
1468.899555,-11917.315666,-842.705048,1480.411884
1468.899866,-9474.636058,-1532.190996,296.082377
1468.900178,-5699.585753,-1072.533697,-740.205942
1468.900489,-5625.565159,-1225.752797,-1036.288319
1468.900801,-5477.523971,-1378.971896,-74.020594
1468.901112,-4515.256246,-919.314598,-814.226536
1468.901423,-5403.503377,-612.876398,-370.102971
1468.901735,-5847.626942,-1532.190996,-518.144159
1468.902046,-6439.791695,-2451.505594,-444.123565
1468.902358,-6291.750507,-2451.505594,740.205942
1468.902669,-7179.997637,-2757.943793,518.144159
1468.902980,-9252.574275,-4903.011187,1776.494261
1468.903292,-10955.047942,-5209.449386,2368.659014
1468.903603,-12361.439231,-3524.039291,2738.761985
1468.903914,-11695.253884,-3140.991542,2516.700203
1468.904226,-10140.821405,-3064.381992,1998.556043
1468.904537,-7624.121203,-2528.115143,1554.432478
1468.904849,-5995.668130,-2145.067394,-0.000000
1468.905160,-5181.441594,-2221.676944,-444.123565
1468.905471,-5181.441594,-1225.752797,-666.185348
1468.905783,-5107.421000,-842.705048,-740.205942
1468.906094,-6291.750507,-1915.238745,-0.000000
1468.906406,-8142.265362,-3524.039291,148.041188
1468.906717,-10881.027347,-4443.353888,1110.308913
1468.907028,-12287.418637,-5209.449386,2960.823768
1468.907340,-12361.439231,-6052.154434,3701.029710
1468.907651,-12583.501014,-6358.592633,2960.823768
1468.907963,-12805.562797,-5132.839837,2146.597232
1468.908274,-11991.336260,-3217.601092,888.247130
1468.908585,-9696.697840,-1225.752797,-0.000000
1468.908897,-8142.265362,1072.533697,-888.247130
1468.909208,-7179.997637,1915.238745,-1184.329507
1468.909520,-7031.956449,1072.533697,-666.185348
1468.909831,-7105.977043,-1225.752797,-0.000000
1468.910142,-7402.059420,-2221.676944,888.247130
1468.910454,-8586.388927,-3217.601092,962.267725
1468.910765,-10510.924376,-4136.915689,962.267725
1468.911077,-11917.315666,-5132.839837,888.247130
1468.911388,-12361.439231,-5209.449386,740.205942
1468.911699,-12139.377449,-5439.278036,1184.329507
1468.912011,-11991.336260,-6435.202183,1110.308913
1468.912322,-9622.677246,-6588.421283,1924.535449
1468.912633,-7476.080014,-5286.058936,962.267725
1468.912945,-5921.647536,-4290.134789,370.102971
1468.913256,-5033.400406,-2681.334243,-518.144159
1468.913568,-4811.338623,-2451.505594,-370.102971
1468.913879,-5033.400406,-1608.800546,-74.020594
1468.914190,-6069.688724,-153.219100,518.144159
1468.914502,-7550.100608,-1685.410096,962.267725
1468.914813,-9474.636058,-3064.381992,1406.391290
1468.915125,-9992.780217,-4290.134789,1702.473667
1468.915436,-10584.944971,-3600.648841,740.205942
1468.915747,-9918.759623,-2528.115143,222.061783
1468.916059,-8290.306550,-1378.971896,-296.082377
1468.916370,-9548.656652,-2451.505594,-1480.411884
1468.916682,-7328.038826,-1225.752797,-444.123565
1468.916993,-6365.771101,-1149.143247,-1554.432478
1468.917304,-6513.812290,-2068.457845,444.123565
1468.917616,-9474.636058,-3064.381992,148.041188
1468.917927,-10436.903782,-2681.334243,1406.391290
1468.918239,-10214.842000,-1225.752797,1332.370696
1468.918550,-9992.780217,-1532.190996,2368.659014
1468.918861,-10510.924376,-3217.601092,1850.514855
1468.919173,-10362.883188,-3294.210641,888.247130
1468.919484,-9918.759623,-2834.553343,1332.370696
1468.919795,-10066.800811,-2145.067394,1184.329507
1468.920107,-12139.377449,-229.828649,888.247130
1468.920418,-12657.521608,459.657299,962.267725
1468.920730,-10436.903782,0.000000,1628.453072
1468.921041,-9252.574275,-995.924147,962.267725
1468.921352,-6439.791695,-306.438199,2368.659014
1468.921664,-7105.977043,-1072.533697,1850.514855
1468.921975,-6957.935855,-3983.696590,3701.029710
1468.922287,-8808.450710,-4673.182538,4367.215058
1468.922598,-9326.594869,-3217.601092,5181.441594
1468.922909,-10955.047942,-1608.800546,5995.668130
1468.923221,-12805.562797,-2298.286494,5847.626942
1468.923532,-10510.924376,-1685.410096,5773.606348
1468.923844,-7328.038826,766.095498,3627.009116
1468.924155,-5847.626942,1915.238745,3182.885551
1468.924466,-4737.318029,2145.067394,2220.617826
1468.924778,-6661.853478,383.047749,1406.391290
1468.925089,-6439.791695,1225.752797,3552.988522
1468.925401,-5699.585753,1072.533697,4589.276840
1468.925712,-10288.862594,-612.876398,4145.153275
1468.926023,-10807.006753,-459.657299,7179.997637
1468.926335,-10436.903782,-1608.800546,6217.729913
1468.926646,-8068.244768,-2145.067394,6809.894666
1468.926958,-7994.224174,-1455.581446,5255.462188
1468.927269,-8660.409521,-1302.362347,4737.318029
1468.927580,-7031.956449,229.828649,4441.235652
1468.927892,-6291.750507,689.485948,3627.009116
1468.928203,-6439.791695,1762.019645,3997.112087
1468.928514,-8438.347739,2374.896044,3627.009116
1468.928826,-9400.615463,1915.238745,4219.173869
1468.929137,-8142.265362,1072.533697,4663.297435
1468.929449,-7031.956449,-306.438199,4811.338623
1468.929760,-7920.203579,-689.485948,4293.194464
1468.930071,-8512.368333,-1608.800546,4737.318029
1468.930383,-8512.368333,-2221.676944,4367.215058
1468.930694,-8290.306550,0.000000,5107.421000
1468.931006,-9474.636058,919.314598,4219.173869
1468.931317,-11177.109724,1378.971896,4441.235652
1468.931628,-11769.274478,1378.971896,3997.112087
1468.931940,-9696.697840,2681.334243,4441.235652
1468.932251,-8068.244768,2145.067394,2886.803174
1468.932563,-7179.997637,229.828649,2664.741391
1468.932874,-6809.894666,-536.266849,1924.535449
1468.933185,-5921.647536,-919.314598,1702.473667
1468.933497,-5551.544565,-1225.752797,2368.659014
1468.933808,-7402.059420,-1378.971896,2516.700203
1468.934120,-10510.924376,-2528.115143,4071.132681
1468.934431,-12139.377449,-1762.019645,4737.318029
1468.934742,-12435.459826,-1225.752797,4959.379811
1468.935054,-12287.418637,76.609550,4885.359217
1468.935365,-11325.150913,689.485948,3552.988522
1468.935676,-9696.697840,1225.752797,1480.411884
1468.935988,-7328.038826,1762.019645,962.267725
1468.936299,-6661.853478,2451.505594,-0.000000
1468.936611,-7402.059420,1378.971896,1184.329507
1468.936922,-9178.553681,-306.438199,2368.659014
1468.937233,-9474.636058,-1532.190996,3701.029710
1468.937545,-9844.739029,-2145.067394,4367.215058
1468.937856,-9252.574275,-2374.896044,4737.318029
1468.938168,-8438.347739,-2451.505594,4071.132681
1468.938479,-7179.997637,-1915.238745,2738.761985
1468.938790,-6661.853478,-229.828649,1776.494261
1468.939102,-6809.894666,689.485948,888.247130
1468.939413,-8438.347739,689.485948,370.102971
1468.939725,-10140.821405,1455.581446,740.205942
1468.940036,-11325.150913,1302.362347,1850.514855
1468.940347,-12287.418637,995.924147,3108.864956
1468.940659,-12509.480420,-153.219100,3849.070898
1468.940970,-11473.192101,-612.876398,3997.112087
1468.941282,-9326.594869,-1149.143247,3849.070898
1468.941593,-6217.729913,-1608.800546,2368.659014
1468.941904,-3627.009116,-1225.752797,1924.535449
1468.942216,-4071.132681,-1072.533697,1258.350101
1468.942527,-6291.750507,-689.485948,1184.329507
1468.942839,-8808.450710,536.266849,2664.741391
1468.943150,-11621.233289,2298.286494,3997.112087
1468.943461,-14285.974681,2834.553343,5551.544565
1468.943773,-15174.221811,1685.410096,6439.791695
1468.944084,-12287.418637,459.657299,6069.688724
1468.944395,-8142.265362,0.000000,5181.441594
1468.944707,-4737.318029,-383.047749,2516.700203
1468.945018,-2664.741391,-229.828649,1406.391290
1468.945330,-2072.576638,-229.828649,1184.329507
1468.945641,-4219.173869,-383.047749,1628.453072
1468.945952,-9030.512492,-612.876398,3552.988522
1468.946264,-13101.645173,-229.828649,5181.441594
1468.946575,-15100.201217,612.876398,6735.874072
1468.946887,-13545.768739,459.657299,6735.874072
1468.947198,-10362.883188,-766.095498,5181.441594
1468.947509,-7105.977043,-1608.800546,4071.132681
1468.947821,-4737.318029,-766.095498,2886.803174
1468.948132,-4367.215058,0.000000,3552.988522
1468.948444,-5699.585753,383.047749,4811.338623
1468.948755,-8660.409521,0.000000,6439.791695
1468.949066,-11695.253884,-153.219100,7624.121203
1468.949378,-11917.315666,229.828649,7550.100608
1468.949689,-9918.759623,995.924147,5625.565159
1468.950001,-6587.832884,2987.772442,3182.885551
1468.950312,-4811.338623,3140.991542,666.185348
1468.950623,-4885.359217,2374.896044,-296.082377
1468.950935,-5921.647536,1991.848295,296.082377
1468.951246,-8586.388927,1455.581446,2738.761985
1468.951557,-11177.109724,689.485948,4959.379811
1468.951869,-13545.768739,-1532.190996,6883.915261
1468.952180,-13989.892304,-3064.381992,8364.327145
1468.952492,-11917.315666,-3447.429741,8808.450710
1468.952803,-9474.636058,-2374.896044,8216.285956
1468.953114,-7476.080014,-1532.190996,6069.688724
1468.953426,-5773.606348,-459.657299,3775.050304
1468.953737,-3849.070898,612.876398,1628.453072
1468.954049,-2960.823768,2374.896044,370.102971
1468.954360,-4219.173869,3217.601092,222.061783
1468.954671,-6809.894666,2451.505594,962.267725
1468.954983,-8734.430116,612.876398,2442.679609
1468.955294,-10881.027347,-612.876398,4293.194464
1468.955606,-12731.542202,-1455.581446,5551.544565
1468.955917,-13915.871710,-1838.629195,5477.523971
1468.956228,-14211.954086,-1455.581446,5921.647536
1468.956540,-12583.501014,-1608.800546,4811.338623
1468.956851,-10732.986159,-459.657299,4663.297435
1468.957163,-9252.574275,-229.828649,3701.029710
1468.957474,-6143.709319,383.047749,3478.967927
1468.957785,-3775.050304,1149.143247,2664.741391
1468.958097,-2072.576638,459.657299,1184.329507
1468.958408,-2072.576638,612.876398,-148.041188
1468.958720,-4071.132681,383.047749,-666.185348
1468.959031,-8068.244768,306.438199,-0.000000
1468.959342,-13619.789333,459.657299,2368.659014
1468.959654,-18209.066173,153.219100,4589.276840
1468.959965,-21391.951724,-383.047749,6883.915261
1468.960276,-18801.230927,76.609550,8068.244768
1468.960588,-13397.727550,-766.095498,6735.874072
1468.960899,-5181.441594,-1838.629195,4219.173869
1468.961211,518.144159,-766.095498,2368.659014
1468.961522,2664.741391,229.828649,296.082377
1468.961833,1332.370696,689.485948,-1554.432478
1468.962145,-2072.576638,842.705048,-1924.535449
1468.962456,-6069.688724,229.828649,-518.144159
1468.962768,-10436.903782,-229.828649,1480.411884
1468.963079,-14582.057057,0.000000,4145.153275
1468.963390,-19097.313304,-919.314598,6217.729913
1468.963702,-19985.560434,-2451.505594,7698.141797
1468.964013,-16580.613101,-2604.724693,8290.306550
1468.964325,-11621.233289,-2528.115143,7402.059420
1468.964636,-6513.812290,-2068.457845,4737.318029
1468.964947,-1110.308913,-1608.800546,814.226536
1468.965259,2960.823768,919.314598,-2738.761985
1468.965570,2812.782580,3753.867940,-3182.885551
1468.965882,-1776.494261,3294.210641,-1628.453072
1468.966193,-9474.636058,2145.067394,444.123565
1468.966504,-16506.592507,1532.190996,3627.009116
1468.966816,-20207.622217,1378.971896,5995.668130
1468.967127,-18801.230927,919.314598,7105.977043
1468.967438,-14063.912898,-689.485948,6439.791695
1468.967750,-9474.636058,-1915.238745,4367.215058
1468.968061,-5699.585753,-2145.067394,1702.473667
1468.968373,-1702.473667,-612.876398,814.226536
1468.968684,-1258.350101,919.314598,518.144159
1468.968995,-4219.173869,1455.581446,1850.514855
1468.969307,-10066.800811,689.485948,3330.926739
1468.969618,-13249.686362,76.609550,4515.256246
1468.969930,-13323.706956,1149.143247,5255.462188
1468.970241,-12065.356855,2451.505594,4293.194464
1468.970552,-8956.491898,766.095498,3108.864956
1468.970864,-8142.265362,-1991.848295,2590.720797
1468.971175,-7105.977043,-2221.676944,3552.988522
1468.971487,-8290.306550,-919.314598,4959.379811
1468.971798,-10732.986159,306.438199,7105.977043
1468.972109,-12139.377449,0.000000,8364.327145
1468.972421,-11695.253884,-1072.533697,8290.306550
1468.972732,-7846.182985,-1608.800546,6587.832884
1468.973044,-3849.070898,0.000000,3330.926739
1468.973355,0.000000,2911.162892,-1036.288319
1468.973666,-296.082377,3064.381992,-2812.782580
1468.973978,-3330.926739,1532.190996,-1332.370696
1468.974289,-8364.327145,383.047749,2146.597232
1468.974601,-14063.912898,-153.219100,6735.874072
1468.974912,-18209.066173,-1762.019645,10732.986159
1468.975223,-17987.004391,-2834.553343,12287.418637
1468.975535,-13471.748144,-3677.258390,10214.842000
1468.975846,-8068.244768,-3600.648841,6957.935855
1468.976157,-3849.070898,-2068.457845,3478.967927
1468.976469,-1110.308913,919.314598,-0.000000
1468.976780,-222.061783,3140.991542,-2442.679609
1468.977092,-1332.370696,4136.915689,-2220.617826
1468.977403,-4811.338623,3370.820191,-1480.411884
1468.977714,-7698.141797,2451.505594,740.205942
1468.978026,-9992.780217,1149.143247,3034.844362
1468.978337,-13471.748144,153.219100,4885.359217
1468.978648,-14952.160028,-1532.190996,6883.915261
1468.978960,-15766.386565,-2528.115143,5699.585753
1468.979271,-13693.809927,-1378.971896,3849.070898
1468.979582,-9696.697840,-919.314598,3108.864956
1468.979894,-7920.203579,-1838.629195,-1554.432478
1468.980205,-6587.832884,612.876398,-1480.411884
1468.980516,-6439.791695,2681.334243,-1628.453072
1468.980828,-6365.771101,153.219100,-296.082377
1468.981139,-5995.668130,-766.095498,-296.082377
1468.981450,-6291.750507,-1149.143247,-2072.576638
1468.981762,-6809.894666,612.876398,-814.226536
1468.982073,-9622.677246,919.314598,1110.308913
1468.982384,-12953.603985,459.657299,1628.453072
1468.982696,-15322.262999,-1072.533697,1332.370696
1468.983007,-14730.098246,-2681.334243,1184.329507
1468.983318,-11473.192101,-2451.505594,1924.535449
1468.983630,-9104.533087,-1532.190996,-0.000000
1468.983941,-7846.182985,-306.438199,-1776.494261
1468.984252,-6809.894666,-612.876398,-3108.864956
1468.984564,-6291.750507,-995.924147,-3849.070898
1468.984875,-4811.338623,306.438199,-4589.276840
1468.985186,-5773.606348,2221.676944,-4737.318029
1468.985498,-8660.409521,2068.457845,-3701.029710
1468.985809,-9326.594869,1072.533697,-1406.391290
1468.986120,-10436.903782,0.000000,-74.020594
1468.986432,-12139.377449,-1378.971896,2812.782580
1468.986743,-13545.768739,-3370.820191,3923.091493
1468.987054,-12879.583391,-3983.696590,1850.514855
1468.987366,-10436.903782,-1685.410096,-222.061783
1468.987677,-8734.430116,306.438199,-2960.823768
1468.987988,-7846.182985,153.219100,-4293.194464
1468.988300,-7920.203579,536.266849,-4515.256246
1468.988611,-7550.100608,459.657299,-3552.988522
1468.988922,-8882.471304,76.609550,-1998.556043
1468.989234,-10214.842000,229.828649,-148.041188
1468.989545,-10362.883188,766.095498,1850.514855
1468.989856,-11029.068536,-383.047749,2294.638420
1468.990168,-10436.903782,-689.485948,2812.782580
1468.990479,-9992.780217,842.705048,3256.906145
1468.990790,-9770.718434,612.876398,2220.617826
1468.991102,-7698.141797,459.657299,1998.556043
1468.991413,-6069.688724,-612.876398,296.082377
1468.991725,-5847.626942,1225.752797,-444.123565
1468.992036,-6291.750507,2068.457845,-0.000000
1468.992347,-8216.285956,1378.971896,-592.164754
1468.992659,-10214.842000,766.095498,740.205942
1468.992970,-10510.924376,1149.143247,2664.741391
1468.993281,-9474.636058,229.828649,2368.659014
1468.993593,-8882.471304,-919.314598,3108.864956
1468.993904,-7994.224174,-1608.800546,3108.864956
1468.994215,-5107.421000,-995.924147,3108.864956
1468.994527,-3775.050304,-153.219100,2146.597232
1468.994838,-5699.585753,306.438199,1184.329507
1468.995149,-9474.636058,612.876398,3034.844362
1468.995461,-11843.295072,0.000000,3034.844362
1468.995772,-12065.356855,306.438199,2442.679609
1468.996083,-10362.883188,689.485948,592.164754
1468.996395,-7920.203579,1225.752797,-814.226536
1468.996706,-7105.977043,2298.286494,-2590.720797
1468.997017,-7476.080014,1455.581446,-1258.350101
1468.997329,-8956.491898,153.219100,2442.679609
1468.997640,-10214.842000,-3294.210641,3775.050304
1468.997951,-11177.109724,-4136.915689,5181.441594
1468.998263,-8956.491898,-2604.724693,6439.791695
1468.998574,-7994.224174,-2068.457845,5477.523971
1468.998885,-8142.265362,-995.924147,2738.761985
1468.999197,-8216.285956,76.609550,518.144159
1468.999508,-6809.894666,842.705048,-1036.288319
1468.999819,-5477.523971,536.266849,-814.226536
1469.000131,-6513.812290,919.314598,-3108.864956
1469.000442,-7179.997637,995.924147,-4293.194464
1469.000753,-8586.388927,459.657299,-3034.844362
1469.001065,-9770.718434,842.705048,-370.102971
1469.001376,-12657.521608,1072.533697,1776.494261
1469.001687,-14730.098246,-229.828649,3034.844362
1469.001999,-15544.324782,-2145.067394,3034.844362
1469.002310,-12879.583391,-2068.457845,2516.700203
1469.002621,-7402.059420,-1072.533697,-296.082377
1469.002933,-3478.967927,459.657299,-3034.844362
1469.003244,-2294.638420,919.314598,-5033.400406
1469.003555,-3849.070898,842.705048,-5033.400406
1469.003867,-6069.688724,1225.752797,-4367.215058
1469.004178,-10732.986159,1149.143247,-2442.679609
1469.004489,-13545.768739,766.095498,814.226536
1469.004801,-14137.933492,-612.876398,814.226536
1469.005112,-13323.706956,-612.876398,814.226536
1469.005423,-11621.233289,-459.657299,-370.102971
1469.005735,-10140.821405,842.705048,-1110.308913
1469.006046,-9474.636058,1455.581446,-666.185348
1469.006357,-9400.615463,995.924147,-222.061783
1469.006669,-9622.677246,-1302.362347,-74.020594
1469.006980,-7550.100608,-1608.800546,-148.041188
1469.007291,-7254.018232,-306.438199,-0.000000
1469.007603,-5921.647536,0.000000,-814.226536
1469.007914,-5477.523971,-612.876398,-1184.329507
1469.008225,-7550.100608,-995.924147,-222.061783
1469.008537,-9030.512492,-1225.752797,962.267725
1469.008848,-10066.800811,-1302.362347,1184.329507
1469.009159,-9548.656652,-1685.410096,1036.288319
1469.009471,-7550.100608,-1302.362347,370.102971
1469.009782,-7328.038826,-306.438199,666.185348
1469.010094,-10436.903782,612.876398,814.226536
1469.010405,-13767.830521,1455.581446,2442.679609
1469.010716,-14656.077652,612.876398,4145.153275
1469.011028,-13471.748144,-919.314598,3034.844362
1469.011339,-9104.533087,-1608.800546,666.185348
1469.011650,-3330.926739,153.219100,-1036.288319
1469.011962,-592.164754,-153.219100,-3182.885551
1469.012273,-962.267725,0.000000,-2960.823768
1469.012584,-5551.544565,-689.485948,-74.020594
1469.012896,-11325.150913,-919.314598,3034.844362
1469.013207,-15322.262999,-306.438199,5625.565159
1469.013518,-16506.592507,153.219100,5329.482782
1469.013830,-13693.809927,842.705048,3330.926739
1469.014141,-9844.739029,2145.067394,1406.391290
1469.014452,-7254.018232,4136.915689,-370.102971
1469.014764,-6587.832884,3600.648841,-518.144159
1469.015075,-7179.997637,1608.800546,148.041188
1469.015386,-6069.688724,-1991.848295,-518.144159
1469.015698,-4737.318029,-2451.505594,-1702.473667
1469.016009,-4071.132681,-842.705048,-148.041188
1469.016320,-7105.977043,689.485948,666.185348
1469.016632,-10658.965565,0.000000,1036.288319
1469.016943,-12509.480420,-1378.971896,2738.761985
1469.017254,-13915.871710,-919.314598,4219.173869
1469.017566,-11325.150913,229.828649,5107.421000
1469.017877,-8882.471304,0.000000,2368.659014
1469.018188,-6735.874072,-536.266849,-888.247130
1469.018500,-3478.967927,0.000000,-1776.494261
1469.018811,-3552.988522,0.000000,-2886.803174
1469.019122,-6217.729913,0.000000,-74.020594
1469.019434,-11325.150913,-306.438199,1554.432478
1469.019745,-15322.262999,-3064.381992,2442.679609
1469.020056,-15322.262999,-3370.820191,2738.761985
1469.020368,-11177.109724,-2221.676944,2886.803174
1469.020679,-6217.729913,-1455.581446,1036.288319
1469.020990,-3627.009116,-1378.971896,-740.205942
1469.021302,-3256.906145,-842.705048,-814.226536
1469.021613,-5921.647536,536.266849,-370.102971
1469.021924,-9104.533087,1455.581446,740.205942
1469.022236,-11991.336260,2604.724693,2664.741391
1469.022547,-13915.871710,2068.457845,1924.535449
1469.022858,-11843.295072,689.485948,814.226536
1469.023170,-8956.491898,1455.581446,-1184.329507
1469.023481,-6957.935855,3140.991542,-2072.576638
1469.023792,-5033.400406,2681.334243,-1850.514855
1469.024104,-5995.668130,-459.657299,-1776.494261
1469.024415,-7846.182985,-2451.505594,-814.226536
1469.024726,-8660.409521,-1149.143247,222.061783
1469.025038,-9474.636058,689.485948,518.144159
1469.025349,-10510.924376,1838.629195,2072.576638
1469.025660,-11917.315666,2145.067394,1850.514855
1469.025972,-12139.377449,-612.876398,2072.576638
1469.026283,-10288.862594,-536.266849,1258.350101
1469.026594,-7624.121203,306.438199,-296.082377
1469.026906,-5551.544565,383.047749,-2738.761985
1469.027217,-5255.462188,229.828649,-2886.803174
1469.027528,-7105.977043,229.828649,-2220.617826
1469.027840,-10510.924376,-612.876398,-444.123565
1469.028151,-12435.459826,-383.047749,1628.453072
1469.028462,-13619.789333,-1378.971896,3182.885551
1469.028774,-13027.624579,-1838.629195,3330.926739
1469.029085,-10436.903782,-1302.362347,2442.679609
1469.029397,-8512.368333,-459.657299,1628.453072
1469.029708,-6365.771101,-383.047749,-74.020594
1469.030019,-5847.626942,-306.438199,-74.020594
1469.030331,-6513.812290,-459.657299,-0.000000
1469.030642,-7476.080014,-919.314598,-0.000000
1469.030953,-7772.162391,-1225.752797,-296.082377
1469.031265,-9474.636058,-1455.581446,-370.102971
1469.031576,-10436.903782,-383.047749,518.144159
1469.031887,-11029.068536,-612.876398,-0.000000
1469.032199,-12435.459826,459.657299,592.164754
1469.032510,-13101.645173,1991.848295,2146.597232
1469.032821,-13915.871710,1149.143247,2146.597232
1469.033133,-11029.068536,-689.485948,2516.700203
1469.033444,-5107.421000,-612.876398,740.205942
1469.033755,-2812.782580,-612.876398,-1110.308913
1469.034067,-1480.411884,0.000000,-1554.432478
1469.034378,-3775.050304,459.657299,-518.144159
1469.034689,-8956.491898,0.000000,296.082377
1469.035001,-11473.192101,-153.219100,2072.576638
1469.035312,-12879.583391,-383.047749,1924.535449
1469.035623,-11103.089130,612.876398,1184.329507
1469.035935,-8586.388927,612.876398,-0.000000
1469.036246,-6735.874072,459.657299,-1258.350101
1469.036557,-7476.080014,1302.362347,-1184.329507
1469.036869,-7994.224174,2681.334243,-0.000000
1469.037180,-9400.615463,1532.190996,1184.329507
1469.037491,-11177.109724,76.609550,2220.617826
1469.037803,-9548.656652,383.047749,1332.370696
1469.038114,-7402.059420,459.657299,370.102971
1469.038425,-4663.297435,612.876398,-0.000000
1469.038737,-4663.297435,612.876398,-0.000000
1469.039048,-6735.874072,-995.924147,-0.000000
1469.039359,-7550.100608,-2451.505594,814.226536
1469.039671,-7772.162391,-2298.286494,740.205942
1469.039982,-9918.759623,-766.095498,222.061783
1469.040293,-11547.212695,995.924147,1184.329507
1469.040605,-13101.645173,1608.800546,1332.370696
1469.040916,-14285.974681,766.095498,2294.638420
1469.041227,-14508.036463,536.266849,2738.761985
1469.041539,-11695.253884,0.000000,1924.535449
1469.041850,-7920.203579,-459.657299,-74.020594
1469.042161,-5255.462188,-995.924147,-814.226536
1469.042473,-4145.153275,-1838.629195,-296.082377
1469.042784,-6291.750507,-3064.381992,-222.061783
1469.043095,-8586.388927,-2221.676944,1702.473667
1469.043407,-10362.883188,-3140.991542,2442.679609
1469.043718,-11399.171507,-2681.334243,3256.906145
1469.044029,-12287.418637,-612.876398,2368.659014
1469.044341,-10955.047942,383.047749,1776.494261
1469.044652,-9474.636058,76.609550,1036.288319
1469.044963,-7920.203579,1455.581446,814.226536
1469.045275,-8068.244768,3447.429741,-148.041188
1469.045586,-7624.121203,2374.896044,-0.000000
1469.045897,-7105.977043,2068.457845,666.185348
1469.046209,-8364.327145,689.485948,296.082377
1469.046520,-6735.874072,459.657299,-0.000000
1469.046831,-6291.750507,689.485948,-74.020594
1469.047143,-8290.306550,-229.828649,-592.164754
1469.047454,-9400.615463,-153.219100,-888.247130
1469.047766,-8068.244768,0.000000,-740.205942
1469.048077,-8142.265362,383.047749,-370.102971
1469.048388,-8142.265362,306.438199,518.144159
1469.048700,-9326.594869,-383.047749,-0.000000
1469.049011,-9104.533087,-229.828649,148.041188
1469.049322,-8734.430116,689.485948,444.123565
1469.049634,-10288.862594,919.314598,296.082377
1469.049945,-10881.027347,1685.410096,666.185348
1469.050256,-10214.842000,306.438199,-0.000000
1469.050568,-10881.027347,-766.095498,-1480.411884
1469.050879,-9992.780217,-536.266849,-222.061783
1469.051190,-8956.491898,229.828649,-0.000000
1469.051502,-8290.306550,-1149.143247,370.102971
1469.051813,-6661.853478,-3600.648841,-296.082377
1469.052124,-4959.379811,-3217.601092,-814.226536
1469.052436,-6513.812290,-536.266849,592.164754
1469.052747,-9918.759623,766.095498,1924.535449
1469.053058,-12805.562797,-766.095498,1776.494261
1469.053370,-13471.748144,-1378.971896,1850.514855
1469.053681,-10584.944971,0.000000,1924.535449
1469.053992,-8142.265362,76.609550,222.061783
1469.054304,-7698.141797,-76.609550,-370.102971
1469.054615,-7031.956449,-153.219100,-962.267725
1469.054926,-6365.771101,-1225.752797,-1554.432478
1469.055238,-7328.038826,-383.047749,222.061783
1469.055549,-10584.944971,1455.581446,1406.391290
1469.055860,-12731.542202,919.314598,2442.679609
1469.056172,-11769.274478,229.828649,1998.556043
1469.056483,-7328.038826,842.705048,666.185348
1469.056794,-5033.400406,1302.362347,-370.102971
1469.057106,-5033.400406,1455.581446,-666.185348
1469.057417,-6069.688724,689.485948,-1554.432478
1469.057728,-8290.306550,-306.438199,-666.185348
1469.058040,-10658.965565,842.705048,518.144159
1469.058351,-12953.603985,995.924147,1184.329507
1469.058662,-12583.501014,383.047749,1850.514855
1469.058974,-10732.986159,-383.047749,962.267725
1469.059285,-9178.553681,-1225.752797,592.164754
1469.059596,-7031.956449,-1302.362347,740.205942
1469.059908,-6735.874072,0.000000,1332.370696
1469.060219,-6883.915261,-459.657299,592.164754
1469.060530,-7031.956449,-153.219100,-0.000000
1469.060842,-7846.182985,0.000000,740.205942
1469.061153,-9178.553681,-689.485948,1332.370696
1469.061464,-9178.553681,-766.095498,1406.391290
1469.061776,-8882.471304,-536.266849,814.226536
1469.062087,-9548.656652,-689.485948,444.123565
1469.062398,-10214.842000,-153.219100,1110.308913
1469.062710,-11325.150913,0.000000,1036.288319
1469.063021,-11251.130318,229.828649,740.205942
1469.063332,-10362.883188,1532.190996,1480.411884
1469.063644,-8956.491898,459.657299,1184.329507
1469.063955,-7772.162391,-612.876398,-0.000000
1469.064266,-6661.853478,-689.485948,-0.000000
1469.064578,-6365.771101,-919.314598,-296.082377
1469.064889,-6883.915261,153.219100,296.082377
1469.065200,-7920.203579,229.828649,518.144159
1469.065512,-9474.636058,-689.485948,1036.288319
1469.065823,-10584.944971,-2757.943793,1258.350101
1469.066134,-10066.800811,-2221.676944,2368.659014
1469.066446,-9474.636058,-919.314598,1554.432478
1469.066757,-9622.677246,-306.438199,1184.329507
1469.067069,-9252.574275,-612.876398,814.226536
1469.067380,-9252.574275,459.657299,-222.061783
1469.067691,-8512.368333,2681.334243,-0.000000
1469.068003,-7624.121203,2221.676944,-0.000000
1469.068314,-7846.182985,1149.143247,-1036.288319
1469.068625,-6069.688724,1838.629195,-1036.288319
1469.068937,-5181.441594,1455.581446,-1406.391290
1469.069248,-6143.709319,995.924147,-518.144159
1469.069559,-7846.182985,2221.676944,1406.391290
1469.069871,-10955.047942,919.314598,1332.370696
1469.070182,-10436.903782,-2068.457845,1924.535449
1469.070493,-9622.677246,-2681.334243,370.102971
1469.070805,-7328.038826,-1608.800546,-1628.453072
1469.071116,-6735.874072,842.705048,-1776.494261
1469.071427,-8586.388927,995.924147,-1776.494261
1469.071739,-10881.027347,-766.095498,-1036.288319
1469.072050,-12879.583391,-689.485948,-0.000000
1469.072361,-12953.603985,536.266849,2146.597232
1469.072673,-12139.377449,766.095498,1702.473667
1469.072984,-10066.800811,-306.438199,370.102971
1469.073295,-7698.141797,-842.705048,-444.123565
1469.073607,-4811.338623,-995.924147,-2072.576638
1469.073918,-4441.235652,-612.876398,-1850.514855
1469.074229,-7846.182985,-536.266849,-592.164754
1469.074541,-11991.336260,-2528.115143,1406.391290
1469.074852,-13545.768739,-2451.505594,1702.473667
1469.075163,-12879.583391,-1378.971896,1554.432478
1469.075475,-10214.842000,-459.657299,370.102971
1469.075786,-8586.388927,-612.876398,-0.000000
1469.076097,-8586.388927,-689.485948,-740.205942
1469.076409,-8512.368333,842.705048,-370.102971
1469.076720,-9696.697840,919.314598,962.267725
1469.077032,-11325.150913,306.438199,2886.803174
1469.077343,-10732.986159,0.000000,2220.617826
1469.077654,-8586.388927,0.000000,1258.350101
1469.077966,-6883.915261,459.657299,148.041188
1469.078277,-5921.647536,1072.533697,-444.123565
1469.078589,-6587.832884,1378.971896,-296.082377
1469.078900,-7772.162391,76.609550,222.061783
1469.079212,-9104.533087,-612.876398,296.082377
1469.079523,-9770.718434,0.000000,-0.000000
1469.079835,-9548.656652,1455.581446,740.205942
1469.080146,-8660.409521,2068.457845,370.102971
1469.080458,-9178.553681,1225.752797,888.247130
1469.080769,-9400.615463,383.047749,2146.597232
1469.081080,-8216.285956,153.219100,2664.741391
1469.081392,-7846.182985,-306.438199,2220.617826
1469.081703,-7328.038826,-842.705048,1258.350101
1469.082015,-5403.503377,0.000000,1554.432478
1469.082326,-4737.318029,-383.047749,-0.000000
1469.082638,-6069.688724,919.314598,296.082377
1469.082949,-8512.368333,383.047749,814.226536
1469.083261,-8808.450710,-919.314598,1776.494261
1469.083572,-9030.512492,-919.314598,1554.432478
1469.083884,-8882.471304,0.000000,1258.350101
1469.084195,-9918.759623,383.047749,962.267725
1469.084506,-9918.759623,1149.143247,1480.411884
1469.084818,-10140.821405,306.438199,2590.720797
1469.085129,-9992.780217,-1149.143247,1850.514855
1469.085441,-9252.574275,-1225.752797,1998.556043
1469.085752,-9178.553681,-229.828649,1924.535449
1469.086064,-8068.244768,-153.219100,1628.453072
1469.086375,-7846.182985,-1532.190996,296.082377
1469.086687,-7698.141797,-1225.752797,-0.000000
1469.086998,-7031.956449,-229.828649,-592.164754
1469.087310,-7698.141797,76.609550,-148.041188
1469.087621,-8586.388927,-383.047749,666.185348
1469.087932,-10436.903782,-919.314598,-0.000000
1469.088244,-11177.109724,-459.657299,888.247130
1469.088555,-11399.171507,76.609550,962.267725
1469.088867,-11695.253884,1072.533697,1036.288319
1469.089178,-12583.501014,1225.752797,-0.000000
1469.089490,-10658.965565,536.266849,-0.000000
1469.089801,-9104.533087,229.828649,-962.267725
1469.090113,-7179.997637,153.219100,-1776.494261
1469.090424,-6809.894666,689.485948,-2220.617826
1469.090736,-6439.791695,0.000000,-1998.556043
1469.091047,-6883.915261,229.828649,-2146.597232
1469.091358,-7772.162391,1149.143247,-2442.679609
1469.091670,-9548.656652,2374.896044,-592.164754
1469.091981,-11769.274478,842.705048,1258.350101
1469.092293,-12139.377449,-919.314598,962.267725
1469.092604,-10955.047942,0.000000,-0.000000
1469.092916,-9474.636058,229.828649,-592.164754
1469.093227,-7846.182985,76.609550,-814.226536
1469.093539,-6661.853478,-153.219100,-1776.494261
1469.093850,-7994.224174,612.876398,-962.267725
1469.094162,-10140.821405,459.657299,296.082377
1469.094473,-11251.130318,-459.657299,740.205942
1469.094784,-11251.130318,0.000000,1332.370696
1469.095096,-9030.512492,-229.828649,1332.370696
1469.095407,-6809.894666,-842.705048,962.267725
1469.095719,-6069.688724,-612.876398,296.082377
1469.096030,-6587.832884,459.657299,1036.288319
1469.096342,-7624.121203,-229.828649,814.226536
1469.096653,-8216.285956,-1991.848295,1258.350101
1469.096965,-8290.306550,-1685.410096,1998.556043
1469.097276,-9474.636058,-536.266849,2146.597232
1469.097588,-10584.944971,-919.314598,2590.720797
1469.097899,-10214.842000,-1915.238745,2072.576638
1469.098210,-9696.697840,-842.705048,2146.597232
1469.098522,-8882.471304,-459.657299,1924.535449
1469.098833,-7772.162391,-1225.752797,1850.514855
1469.099145,-8216.285956,-919.314598,1702.473667
1469.099456,-8068.244768,612.876398,1480.411884
1469.099768,-7254.018232,1455.581446,1850.514855
1469.100079,-6735.874072,1685.410096,1924.535449
1469.100391,-7846.182985,1608.800546,1554.432478
1469.100702,-8364.327145,919.314598,1480.411884
1469.101013,-8216.285956,995.924147,2294.638420
1469.101325,-9548.656652,1532.190996,1406.391290
1469.101636,-10510.924376,1302.362347,518.144159
1469.101948,-10658.965565,536.266849,-518.144159
1469.102259,-9252.574275,-306.438199,-592.164754
1469.102571,-7772.162391,153.219100,-444.123565
1469.102882,-7994.224174,842.705048,-296.082377
1469.103194,-9474.636058,0.000000,370.102971
1469.103505,-9696.697840,-1225.752797,1110.308913
1469.103817,-7772.162391,-1608.800546,1998.556043
1469.104128,-8438.347739,-536.266849,1702.473667
1469.104439,-9104.533087,842.705048,1258.350101
1469.104751,-8956.491898,1455.581446,444.123565
1469.105062,-8290.306550,612.876398,-296.082377
1469.105374,-7994.224174,459.657299,-666.185348
1469.105685,-7179.997637,-153.219100,-1998.556043
1469.105997,-7994.224174,-1072.533697,-2220.617826
1469.106308,-9474.636058,-689.485948,-1776.494261
1469.106620,-11621.233289,-919.314598,-740.205942
1469.106931,-13545.768739,-1072.533697,592.164754
1469.107243,-13545.768739,-612.876398,1924.535449
1469.107554,-13471.748144,-1149.143247,2516.700203
1469.107865,-10807.006753,-2451.505594,2368.659014
1469.108177,-5773.606348,-2451.505594,888.247130
1469.108488,-3034.844362,-1149.143247,-0.000000
1469.108800,-3256.906145,-229.828649,-222.061783
1469.109111,-5995.668130,-459.657299,-592.164754
1469.109423,-8808.450710,0.000000,740.205942
1469.109734,-10881.027347,-689.485948,1184.329507
1469.110046,-11029.068536,0.000000,1480.411884
1469.110357,-10732.986159,919.314598,-296.082377
1469.110669,-9622.677246,1378.971896,-1332.370696
1469.110980,-9178.553681,995.924147,-1332.370696
1469.111291,-8290.306550,536.266849,-1036.288319
1469.111603,-9474.636058,1915.238745,-0.000000
1469.111914,-9844.739029,1455.581446,1258.350101
1469.112226,-10658.965565,-689.485948,1184.329507
1469.112537,-8734.430116,-766.095498,1850.514855
1469.112849,-7105.977043,1149.143247,592.164754
1469.113160,-6069.688724,459.657299,-740.205942
1469.113472,-6069.688724,459.657299,-296.082377
1469.113783,-7254.018232,459.657299,148.041188
1469.114095,-8290.306550,0.000000,370.102971
1469.114406,-8734.430116,-995.924147,-74.020594
1469.114717,-8586.388927,-1225.752797,-444.123565
1469.115029,-8808.450710,689.485948,-814.226536
1469.115340,-9770.718434,2221.676944,-296.082377
1469.115652,-13249.686362,2374.896044,1480.411884
1469.115963,-15840.407159,612.876398,2516.700203
1469.116275,-13471.748144,-1302.362347,1702.473667
1469.116586,-9326.594869,-2451.505594,444.123565
1469.116898,-4515.256246,-766.095498,-0.000000
1469.117209,-3552.988522,-153.219100,-962.267725
1469.117521,-6217.729913,-1838.629195,-1036.288319
1469.117832,-8586.388927,-1915.238745,962.267725
1469.118143,-10658.965565,-1532.190996,2886.803174
1469.118455,-10584.944971,-1455.581446,4959.379811
1469.118766,-10066.800811,-2298.286494,2738.761985
1469.119078,-9474.636058,-2451.505594,296.082377
1469.119389,-7402.059420,-1225.752797,-1036.288319
1469.119701,-6069.688724,689.485948,-518.144159
1469.120012,-7254.018232,1991.848295,-74.020594
1469.120324,-11843.295072,306.438199,1110.308913
1469.120635,-14063.912898,-1072.533697,2368.659014
1469.120947,-12213.398043,-1149.143247,2146.597232
1469.121258,-7846.182985,306.438199,1554.432478
1469.121569,-4959.379811,1225.752797,-0.000000
1469.121881,-3997.112087,459.657299,-592.164754
1469.122192,-4737.318029,-459.657299,-2368.659014
1469.122504,-5403.503377,612.876398,-1702.473667
1469.122815,-7920.203579,2451.505594,-444.123565
1469.123127,-9992.780217,3524.039291,1036.288319
1469.123438,-11769.274478,1455.581446,962.267725
1469.123750,-11917.315666,689.485948,888.247130
1469.124061,-11251.130318,459.657299,1702.473667
1469.124373,-9844.739029,1072.533697,296.082377
1469.124684,-8438.347739,2528.115143,518.144159
1469.124995,-8216.285956,383.047749,-296.082377
1469.125307,-7698.141797,-2145.067394,222.061783
1469.125618,-7105.977043,-2451.505594,-444.123565
1469.125930,-5625.565159,-229.828649,-592.164754
1469.126241,-6439.791695,689.485948,-518.144159
1469.126553,-8142.265362,0.000000,370.102971
1469.126864,-9622.677246,0.000000,1406.391290
1469.127176,-11251.130318,76.609550,2146.597232
1469.127487,-11547.212695,-229.828649,2812.782580
1469.127798,-10140.821405,-306.438199,1110.308913
1469.128110,-8364.327145,306.438199,296.082377
1469.128421,-7476.080014,383.047749,-296.082377
1469.128733,-8512.368333,-536.266849,-444.123565
1469.129044,-9622.677246,-766.095498,222.061783
1469.129356,-10140.821405,-1149.143247,1332.370696
1469.129667,-10658.965565,-1915.238745,2146.597232
1469.129979,-10288.862594,-3294.210641,1776.494261
1469.130290,-9844.739029,-2451.505594,1702.473667
1469.130602,-8734.430116,-612.876398,1628.453072
1469.130913,-6661.853478,-1915.238745,296.082377
1469.131224,-4737.318029,-2298.286494,-1036.288319
1469.131536,-6439.791695,-153.219100,-888.247130
1469.131847,-8660.409521,1991.848295,666.185348
1469.132159,-11695.253884,1762.019645,1184.329507
1469.132470,-13989.892304,306.438199,1554.432478
1469.132782,-13545.768739,1072.533697,1184.329507
1469.133093,-11473.192101,995.924147,296.082377
1469.133405,-8142.265362,1762.019645,-444.123565
1469.133716,-6217.729913,2221.676944,-2294.638420
1469.134028,-5995.668130,612.876398,-3034.844362
1469.134339,-6143.709319,-536.266849,-2516.700203
1469.134650,-5477.523971,153.219100,-814.226536
1469.134962,-7698.141797,842.705048,-370.102971
1469.135273,-10288.862594,766.095498,888.247130
1469.135585,-10658.965565,919.314598,1924.535449
1469.135896,-9770.718434,-153.219100,1480.411884
1469.136208,-7624.121203,-459.657299,444.123565
1469.136519,-6809.894666,76.609550,-962.267725
1469.136831,-6661.853478,689.485948,-2072.576638
1469.137142,-7105.977043,612.876398,-2590.720797
1469.137454,-9622.677246,153.219100,-1850.514855
1469.137765,-11695.253884,459.657299,-814.226536
1469.138076,-12287.418637,995.924147,1258.350101
1469.138388,-11917.315666,-919.314598,2220.617826
1469.138699,-11251.130318,-2681.334243,518.144159
1469.139011,-8882.471304,-1685.410096,962.267725
1469.139322,-5773.606348,-689.485948,296.082377
1469.139634,-5625.565159,-536.266849,-0.000000
1469.139945,-7772.162391,-1149.143247,444.123565
1469.140257,-11325.150913,-1378.971896,1258.350101
1469.140568,-11843.295072,-1302.362347,2442.679609
1469.140880,-10436.903782,-1608.800546,2220.617826
1469.141191,-9474.636058,-995.924147,1406.391290
1469.141502,-8956.491898,-1149.143247,666.185348
1469.141814,-8364.327145,-1608.800546,518.144159
1469.142125,-9326.594869,-1225.752797,-0.000000
1469.142437,-10140.821405,919.314598,1110.308913
1469.142748,-11029.068536,689.485948,1702.473667
1469.143060,-10140.821405,459.657299,2146.597232
1469.143371,-7994.224174,0.000000,2294.638420
1469.143683,-7772.162391,-306.438199,1702.473667
1469.143994,-7624.121203,383.047749,2368.659014
1469.144306,-6661.853478,1532.190996,1480.411884
1469.144617,-6439.791695,459.657299,296.082377
1469.144928,-6291.750507,995.924147,148.041188
1469.145240,-7476.080014,1302.362347,518.144159
1469.145551,-9992.780217,2068.457845,-0.000000
1469.145863,-9252.574275,2068.457845,518.144159
1469.146174,-8364.327145,689.485948,370.102971
1469.146486,-8438.347739,536.266849,-370.102971
1469.146797,-8956.491898,2298.286494,2516.700203
1469.147109,-10732.986159,0.000000,1406.391290
1469.147420,-11251.130318,-1378.971896,1776.494261
1469.147732,-9622.677246,-689.485948,814.226536
1469.148043,-6513.812290,-995.924147,444.123565
1469.148354,-5033.400406,-1072.533697,-1110.308913
1469.148666,-4885.359217,-689.485948,-1628.453072
1469.148977,-6217.729913,76.609550,-888.247130
1469.149289,-7994.224174,0.000000,-222.061783
1469.149600,-9696.697840,-536.266849,592.164754
1469.149912,-11769.274478,-766.095498,814.226536
1469.150223,-13175.665768,0.000000,1184.329507
1469.150535,-12361.439231,459.657299,888.247130
1469.150846,-11177.109724,229.828649,-296.082377
1469.151158,-9622.677246,995.924147,-444.123565
1469.151469,-8586.388927,0.000000,-74.020594
1469.151780,-7994.224174,-2068.457845,-148.041188
1469.152092,-7031.956449,-2221.676944,-888.247130
1469.152403,-6735.874072,-1225.752797,518.144159
1469.152715,-7624.121203,-1762.019645,370.102971
1469.153026,-8068.244768,-1532.190996,518.144159
1469.153338,-7920.203579,-1072.533697,-0.000000
1469.153649,-9030.512492,-1685.410096,-888.247130
1469.153961,-9622.677246,-689.485948,-148.041188
1469.154272,-9252.574275,1072.533697,-1850.514855
1469.154583,-9474.636058,1915.238745,-2368.659014
1469.154895,-11103.089130,2987.772442,-1036.288319
1469.155206,-13397.727550,2221.676944,740.205942
1469.155518,-14434.015869,1762.019645,1480.411884
1469.155829,-12583.501014,1685.410096,1628.453072
1469.156141,-9918.759623,766.095498,518.144159
1469.156452,-6069.688724,-153.219100,-1036.288319
1469.156764,-3034.844362,-306.438199,-1924.535449
1469.157075,-3478.967927,-689.485948,-2516.700203
1469.157387,-5329.482782,-842.705048,-1480.411884
1469.157698,-8660.409521,0.000000,148.041188
1469.158009,-11325.150913,0.000000,2442.679609
1469.158321,-12435.459826,-995.924147,3034.844362
1469.158632,-11695.253884,-459.657299,3182.885551
1469.158944,-10288.862594,459.657299,2146.597232
1469.159255,-7994.224174,1455.581446,1924.535449
1469.159567,-7476.080014,536.266849,518.144159
1469.159878,-7846.182985,76.609550,592.164754
1469.160190,-8808.450710,1685.410096,1258.350101
1469.160501,-10214.842000,766.095498,1702.473667
1469.160813,-9696.697840,-1302.362347,2368.659014
1469.161124,-7624.121203,-3064.381992,1406.391290
1469.161435,-4959.379811,-2681.334243,444.123565
1469.161747,-4071.132681,-612.876398,1480.411884
1469.162058,-6143.709319,-1915.238745,2738.761985
1469.162370,-9992.780217,-3064.381992,3775.050304
1469.162681,-12065.356855,-3447.429741,4071.132681
1469.162993,-11843.295072,-1915.238745,3478.967927
1469.163304,-9770.718434,306.438199,2960.823768
1469.163616,-7772.162391,1149.143247,1036.288319
1469.163927,-6957.935855,383.047749,-1036.288319
1469.164239,-7254.018232,229.828649,-2220.617826
1469.164550,-5995.668130,766.095498,-296.082377
1469.164861,-9474.636058,995.924147,-740.205942
1469.165173,-11991.336260,1455.581446,888.247130
1469.165484,-11177.109724,536.266849,518.144159
1469.165796,-9104.533087,459.657299,-0.000000
1469.166107,-6513.812290,1608.800546,-0.000000
1469.166419,-5477.523971,2221.676944,-444.123565
1469.166730,-6957.935855,229.828649,-148.041188
1469.167042,-7698.141797,153.219100,-0.000000
1469.167353,-9992.780217,0.000000,-148.041188
1469.167665,-11695.253884,1072.533697,888.247130
1469.167976,-10955.047942,2221.676944,1036.288319
1469.168287,-11399.171507,1685.410096,-370.102971
1469.168599,-10066.800811,612.876398,-74.020594
1469.168910,-8734.430116,459.657299,-592.164754
1469.169222,-7254.018232,383.047749,-222.061783
1469.169533,-6661.853478,76.609550,-592.164754
1469.169845,-7179.997637,-842.705048,-370.102971
1469.170156,-8512.368333,-1685.410096,-0.000000
1469.170468,-9474.636058,-153.219100,-518.144159
1469.170779,-9178.553681,383.047749,888.247130
1469.171091,-9622.677246,-842.705048,1406.391290
1469.171402,-10732.986159,-1762.019645,1998.556043
1469.171713,-10807.006753,-2681.334243,1036.288319
1469.172025,-10584.944971,-1685.410096,296.082377
1469.172336,-9918.759623,-919.314598,518.144159
1469.172648,-9474.636058,-306.438199,518.144159
1469.172959,-8956.491898,-1378.971896,-74.020594
1469.173271,-8364.327145,-2068.457845,814.226536
1469.173582,-8068.244768,-1149.143247,1924.535449
1469.173894,-8734.430116,-306.438199,888.247130
1469.174205,-8808.450710,0.000000,1776.494261
1469.174517,-9104.533087,-612.876398,1554.432478
1469.174828,-8660.409521,-383.047749,962.267725
1469.175139,-7550.100608,919.314598,888.247130
1469.175451,-7994.224174,1378.971896,1036.288319
1469.175762,-9474.636058,306.438199,1480.411884
1469.176074,-9992.780217,-766.095498,1036.288319
1469.176385,-7328.038826,-612.876398,-518.144159
1469.176697,-5255.462188,842.705048,-1998.556043
1469.177008,-6365.771101,1838.629195,-444.123565
1469.177320,-9326.594869,1378.971896,666.185348
1469.177631,-12065.356855,842.705048,1332.370696
1469.177943,-13989.892304,0.000000,2368.659014
1469.178254,-12879.583391,0.000000,2738.761985
1469.178566,-8512.368333,536.266849,1776.494261
1469.178878,-4293.194464,0.000000,-740.205942
1469.179189,-1924.535449,-1072.533697,-3775.050304
1469.179501,-1332.370696,-229.828649,-4737.318029
1469.179812,-5255.462188,1378.971896,-2368.659014
1469.180124,-12139.377449,1532.190996,-74.020594
1469.180435,-17987.004391,0.000000,2368.659014
1469.180747,-19097.313304,-689.485948,3330.926739
1469.181058,-15322.262999,459.657299,1850.514855
1469.181370,-9252.574275,1838.629195,-1924.535449
1469.181681,-4515.256246,1149.143247,-3404.947333
1469.181993,-3034.844362,689.485948,-3478.967927
1469.182304,-4589.276840,-229.828649,-2294.638420
1469.182616,-9696.697840,-459.657299,592.164754
1469.182927,-13323.706956,-383.047749,4293.194464
1469.183239,-14063.912898,-766.095498,5625.565159
1469.183550,-11769.274478,-1455.581446,3775.050304
1469.183862,-7031.956449,-1455.581446,888.247130
1469.184173,-4663.297435,-1072.533697,592.164754
1469.184485,-3849.070898,-1838.629195,-740.205942
1469.184797,-4885.359217,-2221.676944,-962.267725
1469.185108,-7772.162391,-2145.067394,-740.205942
1469.185420,-11103.089130,-1378.971896,888.247130
1469.185731,-13027.624579,229.828649,3256.906145
1469.186043,-13471.748144,153.219100,2960.823768
1469.186354,-11473.192101,919.314598,3330.926739
1469.186666,-10584.944971,995.924147,3108.864956
1469.186977,-9178.553681,-383.047749,3108.864956
1469.187289,-6439.791695,0.000000,2738.761985
1469.187600,-3997.112087,-229.828649,740.205942
1469.187912,-2368.659014,-229.828649,370.102971
1469.188223,-2886.803174,229.828649,-666.185348
1469.188535,-4885.359217,1378.971896,-0.000000
1469.188846,-7846.182985,766.095498,1110.308913
1469.189158,-10362.883188,-459.657299,1628.453072
1469.189469,-12583.501014,-612.876398,740.205942
1469.189781,-13027.624579,919.314598,1332.370696
1469.190092,-12435.459826,2451.505594,814.226536
1469.190404,-12435.459826,2298.286494,444.123565
1469.190716,-11251.130318,2298.286494,1258.350101
1469.191027,-8660.409521,459.657299,1110.308913
1469.191339,-6957.935855,-1762.019645,-222.061783
1469.191650,-4663.297435,-153.219100,-222.061783
1469.191962,-4441.235652,842.705048,-370.102971
1469.192273,-8216.285956,-383.047749,-444.123565
1469.192585,-10807.006753,-842.705048,-148.041188
1469.192896,-11251.130318,-842.705048,518.144159
1469.193208,-10881.027347,0.000000,444.123565
1469.193519,-9474.636058,-1072.533697,-0.000000
1469.193831,-8216.285956,-2451.505594,-1998.556043
1469.194142,-7698.141797,-1302.362347,-2738.761985
1469.194454,-7550.100608,306.438199,-888.247130
1469.194765,-8808.450710,0.000000,-518.144159
1469.195077,-10732.986159,-1072.533697,-148.041188
1469.195388,-11917.315666,-1378.971896,-814.226536
1469.195700,-11843.295072,-919.314598,-1628.453072
1469.196011,-10436.903782,229.828649,-592.164754
1469.196323,-9178.553681,0.000000,-1258.350101
1469.196635,-8660.409521,-1302.362347,-2146.597232
1469.196946,-7624.121203,-2145.067394,-2664.741391
1469.197258,-5551.544565,-536.266849,-1554.432478
1469.197569,-6513.812290,842.705048,-2368.659014
1469.197881,-7772.162391,-153.219100,-370.102971
1469.198192,-9622.677246,-459.657299,740.205942
1469.198504,-12065.356855,-153.219100,962.267725
1469.198815,-13175.665768,1455.581446,2886.803174
1469.199127,-14730.098246,1608.800546,3256.906145
1469.199438,-12361.439231,1302.362347,2368.659014
1469.199750,-9474.636058,689.485948,-0.000000
1469.200061,-5847.626942,383.047749,-1480.411884
1469.200373,-3330.926739,76.609550,-2146.597232
1469.200684,-2738.761985,0.000000,-1776.494261
1469.200996,-3775.050304,536.266849,-592.164754
1469.201307,-8142.265362,76.609550,1332.370696
1469.201619,-12805.562797,0.000000,3923.091493
1469.201930,-15248.242405,0.000000,5181.441594
1469.202242,-13989.892304,306.438199,5329.482782
1469.202554,-11547.212695,-536.266849,3108.864956
1469.202865,-8586.388927,-1378.971896,1924.535449
1469.203177,-5107.421000,-1378.971896,-222.061783
1469.203488,-4219.173869,0.000000,-592.164754
1469.203800,-6587.832884,0.000000,888.247130
1469.204111,-9030.512492,-1608.800546,1998.556043
1469.204423,-11029.068536,-2068.457845,3256.906145
1469.204734,-11325.150913,-1532.190996,3404.947333
1469.205046,-10510.924376,0.000000,2664.741391
1469.205357,-8364.327145,1838.629195,2220.617826
1469.205669,-6513.812290,4443.353888,1924.535449
1469.205980,-5921.647536,1991.848295,1184.329507
1469.206292,-5551.544565,-1378.971896,1036.288319
1469.206603,-4737.318029,0.000000,888.247130
1469.206915,-5699.585753,1991.848295,1036.288319
1469.207226,-7179.997637,995.924147,740.205942
1469.207538,-8808.450710,-1685.410096,518.144159
1469.207849,-11325.150913,-1915.238745,814.226536
1469.208161,-10881.027347,-1685.410096,1850.514855
1469.208473,-9918.759623,-1302.362347,1776.494261
1469.208784,-10288.862594,-766.095498,962.267725
1469.209096,-9474.636058,-306.438199,-74.020594
1469.209407,-6439.791695,-919.314598,-1110.308913
1469.209719,-4885.359217,0.000000,-518.144159
1469.210030,-6365.771101,2681.334243,222.061783
1469.210342,-8068.244768,1762.019645,-370.102971
1469.210653,-9030.512492,0.000000,-1776.494261
1469.210965,-8142.265362,0.000000,-1850.514855
1469.211276,-9622.677246,1762.019645,-2072.576638
1469.211588,-12879.583391,1149.143247,-1850.514855
1469.211899,-14137.933492,-459.657299,-1554.432478
1469.212211,-14878.139434,-995.924147,-1924.535449
1469.212522,-13471.748144,-842.705048,-1776.494261
1469.212834,-9474.636058,383.047749,-1036.288319
1469.213145,-7846.182985,-383.047749,-2442.679609
1469.213457,-6809.894666,-1378.971896,-2590.720797
1469.213768,-7698.141797,-766.095498,-666.185348
1469.214080,-9770.718434,306.438199,1184.329507
1469.214392,-11695.253884,1225.752797,2220.617826
1469.214703,-12287.418637,1149.143247,2146.597232
1469.215015,-11547.212695,-612.876398,1184.329507
1469.215326,-8882.471304,-383.047749,-148.041188
1469.215638,-5403.503377,0.000000,-2072.576638
1469.215949,-4441.235652,0.000000,-3108.864956
1469.216261,-5403.503377,-459.657299,-2220.617826
1469.216572,-9474.636058,-1685.410096,-1036.288319
1469.216884,-12213.398043,-1225.752797,1702.473667
1469.217195,-14804.118840,536.266849,3552.988522
1469.217507,-13619.789333,459.657299,5625.565159
1469.217818,-9178.553681,-1302.362347,3478.967927
1469.218130,-5403.503377,-1915.238745,2590.720797
1469.218441,-2590.720797,-1302.362347,1406.391290
1469.218753,-962.267725,-306.438199,-0.000000
1469.219064,-2886.803174,-153.219100,518.144159
1469.219376,-6809.894666,-766.095498,888.247130
1469.219687,-8512.368333,-1072.533697,2886.803174
1469.219999,-10732.986159,-919.314598,2220.617826
1469.220310,-11991.336260,995.924147,2294.638420
1469.220622,-12213.398043,1762.019645,1554.432478
1469.220934,-11695.253884,2221.676944,2516.700203
1469.221245,-11991.336260,1378.971896,2368.659014
1469.221557,-9400.615463,459.657299,1406.391290
1469.221868,-6735.874072,-306.438199,-0.000000
1469.222180,-4811.338623,842.705048,518.144159
1469.222491,-4367.215058,1378.971896,666.185348
1469.222803,-6957.935855,-459.657299,1258.350101
1469.223114,-10436.903782,-995.924147,2590.720797
1469.223426,-11843.295072,-842.705048,2664.741391
1469.223737,-10807.006753,0.000000,2368.659014
1469.224049,-8586.388927,153.219100,592.164754
1469.224360,-6809.894666,-76.609550,-1998.556043
1469.224672,-5847.626942,0.000000,-2442.679609
1469.224983,-6809.894666,612.876398,-2146.597232
1469.225295,-9252.574275,1532.190996,592.164754
1469.225606,-13989.892304,1072.533697,1776.494261
1469.225918,-14952.160028,306.438199,1628.453072
1469.226229,-12731.542202,76.609550,740.205942
1469.226541,-10066.800811,229.828649,-222.061783
1469.226853,-8216.285956,-153.219100,-444.123565
1469.227164,-6217.729913,-766.095498,-2072.576638
1469.227476,-5329.482782,-2221.676944,-2146.597232
1469.227787,-5995.668130,-1302.362347,-296.082377
1469.228099,-7105.977043,-1302.362347,-0.000000
1469.228410,-8512.368333,-612.876398,592.164754
1469.228722,-9400.615463,-842.705048,666.185348
1469.229033,-9622.677246,-1149.143247,296.082377
1469.229345,-10955.047942,-306.438199,74.020594
1469.229656,-10881.027347,1149.143247,1776.494261
1469.229968,-10881.027347,995.924147,148.041188
1469.230279,-10510.924376,306.438199,962.267725
1469.230591,-9326.594869,0.000000,1628.453072
1469.230902,-7254.018232,-1225.752797,1406.391290
1469.231214,-4885.359217,-1915.238745,1258.350101
1469.231525,-4515.256246,-1838.629195,518.144159
1469.231837,-5773.606348,-689.485948,370.102971
1469.232148,-7476.080014,766.095498,-222.061783
1469.232460,-9696.697840,1608.800546,814.226536
1469.232772,-10881.027347,1915.238745,1628.453072
1469.233083,-11177.109724,1455.581446,1184.329507
1469.233395,-10584.944971,612.876398,222.061783
1469.233706,-8290.306550,1072.533697,-74.020594
1469.234018,-6661.853478,1608.800546,814.226536
1469.234329,-8216.285956,459.657299,518.144159
1469.234641,-10436.903782,-842.705048,1036.288319
1469.234952,-10955.047942,-1915.238745,1480.411884
1469.235264,-11621.233289,-1302.362347,1406.391290
1469.235575,-11251.130318,-153.219100,1628.453072
1469.235887,-9770.718434,-766.095498,592.164754
1469.236198,-7328.038826,-1915.238745,-592.164754
1469.236510,-4589.276840,-1302.362347,-2368.659014
1469.236821,-4663.297435,1455.581446,-2294.638420
1469.237133,-6957.935855,3294.210641,-74.020594
1469.237444,-11177.109724,1838.629195,1776.494261
1469.237756,-14137.933492,-153.219100,2516.700203
1469.238067,-14952.160028,-612.876398,2886.803174
1469.238379,-12287.418637,766.095498,2516.700203
1469.238691,-8956.491898,1685.410096,-0.000000
1469.239002,-7254.018232,612.876398,-1332.370696
1469.239314,-6587.832884,-1838.629195,-2442.679609
1469.239625,-6365.771101,-2068.457845,-1702.473667
1469.239937,-5773.606348,-2757.943793,-592.164754
1469.240248,-7476.080014,-1838.629195,222.061783
1469.240560,-9104.533087,-2298.286494,2072.576638
1469.240871,-8660.409521,-2757.943793,1850.514855
1469.241183,-8142.265362,-1532.190996,1258.350101
1469.241494,-8660.409521,842.705048,740.205942
1469.241806,-9474.636058,1532.190996,592.164754
1469.242117,-10066.800811,1685.410096,-444.123565
1469.242429,-10807.006753,1149.143247,-148.041188
1469.242740,-9622.677246,1072.533697,-666.185348
1469.243052,-9178.553681,919.314598,-1036.288319
1469.243363,-7550.100608,1915.238745,-592.164754
1469.243675,-7772.162391,1378.971896,-592.164754
1469.243986,-10955.047942,-1685.410096,-0.000000
1469.244298,-11621.233289,-1149.143247,592.164754
1469.244610,-8956.491898,536.266849,1702.473667
1469.244921,-6217.729913,229.828649,1702.473667
1469.245233,-7254.018232,-383.047749,444.123565
1469.245544,-6957.935855,-306.438199,1702.473667
1469.245856,-6735.874072,0.000000,1184.329507
1469.246167,-7105.977043,536.266849,2664.741391
1469.246479,-9030.512492,459.657299,2220.617826
1469.246790,-10732.986159,689.485948,1110.308913
1469.247102,-10288.862594,383.047749,-814.226536
1469.247413,-8882.471304,1532.190996,-1184.329507
1469.247725,-7846.182985,2757.943793,-2072.576638
1469.248036,-8142.265362,3217.601092,-2146.597232
1469.248348,-8364.327145,612.876398,-1332.370696
1469.248659,-9030.512492,-2068.457845,-1184.329507
1469.248971,-8586.388927,-383.047749,962.267725
1469.249282,-8512.368333,612.876398,-0.000000
1469.249594,-8216.285956,-689.485948,-0.000000
1469.249905,-8290.306550,-1455.581446,814.226536
1469.250217,-8956.491898,-1532.190996,666.185348
1469.250529,-8734.430116,-919.314598,370.102971
1469.250840,-10066.800811,-1072.533697,-740.205942
1469.251152,-9770.718434,-1685.410096,-2294.638420
1469.251463,-6217.729913,-3064.381992,-3997.112087
1469.251775,-2664.741391,-1991.848295,-5477.523971
1469.252086,-4737.318029,689.485948,-5773.606348
1469.252398,-9992.780217,2145.067394,-3404.947333
1469.252709,-14137.933492,1455.581446,-1776.494261
1469.253021,-17912.983796,689.485948,296.082377
1469.253332,-17542.880825,-153.219100,962.267725
1469.253644,-12065.356855,0.000000,-0.000000
1469.253955,-7846.182985,0.000000,-3478.967927
1469.254267,-3552.988522,-153.219100,-6587.832884
1469.254578,-2368.659014,76.609550,-7254.018232
1469.254890,-4885.359217,-229.828649,-5773.606348
1469.255201,-8586.388927,153.219100,-3478.967927
1469.255513,-13545.768739,-995.924147,-1998.556043
1469.255824,-14656.077652,-1455.581446,-1406.391290
1469.256136,-13323.706956,76.609550,-2960.823768
1469.256448,-8956.491898,1685.410096,-4219.173869
1469.256759,-5773.606348,2374.896044,-6513.812290
1469.257071,-7772.162391,2528.115143,-6439.791695
1469.257382,-9474.636058,2068.457845,-3775.050304
1469.257694,-12731.542202,383.047749,-2516.700203
1469.258005,-13989.892304,-842.705048,-222.061783
1469.258317,-11843.295072,-1685.410096,-1110.308913
1469.258628,-6587.832884,-2987.772442,-2812.782580
1469.258940,-1998.556043,-2757.943793,-5477.523971
1469.259251,-3034.844362,-1915.238745,-5773.606348
1469.259563,-5699.585753,0.000000,-5033.400406
1469.259874,-10510.924376,689.485948,-2664.741391
1469.260186,-15544.324782,842.705048,1184.329507
1469.260497,-15840.407159,-306.438199,2738.761985
1469.260809,-11029.068536,-919.314598,296.082377
1469.261120,-5847.626942,0.000000,-3775.050304
1469.261432,-296.082377,0.000000,-4737.318029
1469.261743,222.061783,-536.266849,-5847.626942
