#time,accel_x,accel_y,accel_z
1426.494635,-8956.491898,306.438199,666.185348
1426.494946,-8956.491898,76.609550,370.102971
1426.495258,-8734.430116,-76.609550,444.123565
1426.495569,-9178.553681,0.000000,148.041188
1426.495880,-8808.450710,-153.219100,518.144159
1426.496191,-8882.471304,-153.219100,740.205942
1426.496503,-9030.512492,-229.828649,592.164754
1426.496814,-9030.512492,-229.828649,666.185348
1426.497125,-8808.450710,0.000000,222.061783
1426.497436,-8956.491898,536.266849,518.144159
1426.497747,-9104.533087,0.000000,148.041188
1426.498059,-9104.533087,-153.219100,370.102971
1426.498370,-8882.471304,76.609550,666.185348
1426.498681,-8956.491898,0.000000,518.144159
1426.498992,-8956.491898,0.000000,444.123565
1426.499304,-8956.491898,0.000000,518.144159
1426.499615,-8882.471304,0.000000,148.041188
1426.499926,-8734.430116,0.000000,592.164754
1426.500237,-8660.409521,0.000000,518.144159
1426.500549,-8734.430116,76.609550,518.144159
1426.500860,-8956.491898,-306.438199,518.144159
1426.501171,-8956.491898,0.000000,666.185348
1426.501482,-8882.471304,0.000000,444.123565
1426.501794,-9178.553681,76.609550,444.123565
1426.502105,-8808.450710,0.000000,666.185348
1426.502416,-8808.450710,-306.438199,518.144159
1426.502727,-9400.615463,0.000000,222.061783
1426.503039,-9252.574275,-153.219100,296.082377
1426.503350,-9030.512492,-76.609550,666.185348
1426.503661,-9030.512492,0.000000,518.144159
1426.503972,-9030.512492,0.000000,444.123565
1426.504283,-9252.574275,0.000000,222.061783
1426.504595,-8956.491898,383.047749,740.205942
1426.504906,-8586.388927,306.438199,592.164754
1426.505217,-8808.450710,0.000000,444.123565
1426.505528,-8808.450710,0.000000,518.144159
1426.505840,-8808.450710,-306.438199,518.144159
1426.506151,-9030.512492,-153.219100,518.144159
1426.506462,-8882.471304,-306.438199,370.102971
1426.506773,-8734.430116,229.828649,740.205942
1426.507085,-8808.450710,-229.828649,518.144159
1426.507396,-8512.368333,0.000000,518.144159
1426.507707,-8808.450710,-153.219100,222.061783
1426.508018,-9252.574275,-153.219100,666.185348
1426.508330,-9104.533087,0.000000,444.123565
1426.508641,-9030.512492,0.000000,666.185348
1426.508952,-8882.471304,0.000000,518.144159
1426.509263,-8808.450710,229.828649,444.123565
1426.509575,-9104.533087,229.828649,222.061783
1426.509886,-8808.450710,153.219100,222.061783
1426.510197,-8808.450710,0.000000,592.164754
1426.510508,-9030.512492,-153.219100,518.144159
1426.510820,-9030.512492,-229.828649,592.164754
1426.511131,-8956.491898,0.000000,666.185348
1426.511442,-8882.471304,0.000000,518.144159
1426.511753,-8808.450710,0.000000,592.164754
1426.512064,-8734.430116,-153.219100,370.102971
1426.512376,-9104.533087,0.000000,-0.000000
1426.512687,-8882.471304,153.219100,444.123565
1426.512998,-8882.471304,0.000000,518.144159
1426.513309,-8956.491898,0.000000,592.164754
1426.513621,-9030.512492,76.609550,444.123565
1426.513932,-9178.553681,76.609550,444.123565
1426.514243,-8956.491898,153.219100,592.164754
1426.514554,-8734.430116,-153.219100,592.164754
1426.514866,-8808.450710,-459.657299,444.123565
1426.515177,-9030.512492,-306.438199,444.123565
1426.515488,-8956.491898,-306.438199,518.144159
1426.515799,-8808.450710,0.000000,444.123565
1426.516111,-9030.512492,0.000000,592.164754
1426.516422,-9030.512492,76.609550,-0.000000
1426.516733,-8808.450710,0.000000,962.267725
1426.517044,-8808.450710,-459.657299,518.144159
1426.517356,-8808.450710,76.609550,592.164754
1426.517667,-9030.512492,0.000000,444.123565
1426.517978,-9030.512492,76.609550,592.164754
1426.518289,-9178.553681,0.000000,592.164754
1426.518600,-8438.347739,153.219100,518.144159
1426.518912,-8882.471304,153.219100,222.061783
1426.519223,-8956.491898,0.000000,296.082377
1426.519534,-8808.450710,76.609550,296.082377
1426.519845,-8586.388927,153.219100,444.123565
1426.520157,-8956.491898,0.000000,518.144159
1426.520468,-8956.491898,0.000000,592.164754
1426.520779,-8808.450710,0.000000,518.144159
1426.521090,-8586.388927,0.000000,518.144159
1426.521402,-8660.409521,229.828649,592.164754
1426.521713,-8882.471304,76.609550,370.102971
1426.522024,-8956.491898,76.609550,370.102971
1426.522335,-8956.491898,-229.828649,296.082377
1426.522647,-8956.491898,0.000000,518.144159
1426.522958,-9030.512492,0.000000,518.144159
1426.523269,-8882.471304,0.000000,518.144159
1426.523580,-8808.450710,153.219100,518.144159
1426.523892,-8956.491898,76.609550,222.061783
1426.524203,-8734.430116,0.000000,444.123565
1426.524514,-10288.862594,536.266849,888.247130
1426.524825,-11843.295072,1915.238745,370.102971
1426.525137,-9252.574275,4443.353888,740.205942
1426.525448,-7772.162391,4596.572988,740.205942
1426.525759,-6809.894666,2068.457845,1480.411884
1426.526070,-6291.750507,-536.266849,1258.350101
1426.526381,-7402.059420,-1762.019645,-370.102971
1426.526693,-7105.977043,-536.266849,-74.020594
1426.527004,-10658.965565,-766.095498,-1184.329507
1426.527315,-13323.706956,-766.095498,-962.267725
1426.527626,-11103.089130,919.314598,148.041188
1426.527938,-9400.615463,536.266849,962.267725
1426.528249,-8660.409521,-229.828649,2738.761985
1426.528560,-11103.089130,-153.219100,1628.453072
1426.528871,-9770.718434,3217.601092,1998.556043
1426.529183,-5329.482782,5209.449386,2072.576638
1426.529494,-6735.874072,3830.477490,1406.391290
1426.529805,-8142.265362,2451.505594,-0.000000
1426.530116,-7105.977043,2987.772442,-1554.432478
1426.530428,-8808.450710,3217.601092,-1850.514855
1426.530739,-8586.388927,4290.134789,-296.082377
1426.531050,-11029.068536,2757.943793,-1332.370696
1426.531361,-14582.057057,-153.219100,-222.061783
1426.531673,-9770.718434,-536.266849,2590.720797
1426.531984,-9622.677246,-153.219100,888.247130
1426.532295,-9622.677246,3983.696590,2220.617826
1426.532606,-7698.141797,6511.811733,1850.514855
1426.532917,-7846.182985,3830.477490,1628.453072
1426.533229,-6143.709319,4749.792088,2368.659014
1426.533540,-6587.832884,6435.202183,962.267725
1426.533851,-8142.265362,7048.078582,-518.144159
1426.534162,-8660.409521,5975.544884,-1332.370696
1426.534474,-9326.594869,5132.839837,-1258.350101
1426.534785,-10066.800811,5515.887586,-1554.432478
1426.535096,-12065.356855,5515.887586,-74.020594
1426.535407,-12139.377449,4366.744339,740.205942
1426.535719,-10066.800811,3753.867940,1998.556043
1426.536030,-9252.574275,4749.792088,2146.597232
1426.536341,-7254.018232,5822.325785,2220.617826
1426.536652,-5329.482782,4903.011187,148.041188
1426.536964,-5625.565159,4673.182538,814.226536
1426.537275,-5255.462188,4826.401637,444.123565
1426.537586,-6069.688724,4673.182538,-1110.308913
1426.537897,-7698.141797,4366.744339,-518.144159
1426.538209,-9104.533087,3140.991542,-592.164754
1426.538520,-10288.862594,1378.971896,148.041188
1426.538831,-10732.986159,306.438199,592.164754
1426.539142,-11399.171507,0.000000,1628.453072
1426.539454,-11399.171507,76.609550,1702.473667
1426.539765,-10436.903782,2068.457845,2220.617826
1426.540076,-9104.533087,3294.210641,2294.638420
1426.540387,-7179.997637,3830.477490,444.123565
1426.540698,-5995.668130,3370.820191,370.102971
1426.541010,-6217.729913,3600.648841,-592.164754
1426.541321,-6217.729913,3524.039291,-296.082377
1426.541632,-7105.977043,2221.676944,-1480.411884
1426.541943,-8512.368333,-383.047749,-814.226536
1426.542255,-9918.759623,-2068.457845,-444.123565
1426.542566,-11843.295072,-2374.896044,740.205942
1426.542877,-13323.706956,-1915.238745,1110.308913
1426.543188,-13101.645173,-1072.533697,1628.453072
1426.543500,-12879.583391,0.000000,1480.411884
1426.543811,-11917.315666,1762.019645,444.123565
1426.544122,-9770.718434,4213.525239,-222.061783
1426.544433,-6883.915261,4366.744339,-0.000000
1426.544745,-5699.585753,4673.182538,814.226536
1426.545056,-5773.606348,3983.696590,888.247130
1426.545367,-7031.956449,3294.210641,814.226536
1426.545678,-9474.636058,2221.676944,-0.000000
1426.545990,-11029.068536,995.924147,-74.020594
1426.546301,-13175.665768,919.314598,-444.123565
1426.546612,-14063.912898,306.438199,-370.102971
1426.546923,-13619.789333,689.485948,-0.000000
1426.547234,-12139.377449,1991.848295,592.164754
1426.547546,-10140.821405,3140.991542,1702.473667
1426.547857,-8216.285956,4903.011187,1924.535449
1426.548168,-4885.359217,5132.839837,1924.535449
1426.548479,-2590.720797,6358.592633,740.205942
1426.548791,-1702.473667,6665.030833,-740.205942
1426.549102,-2072.576638,5209.449386,-2368.659014
1426.549413,-5255.462188,4060.306139,-2368.659014
1426.549724,-9548.656652,3140.991542,-1406.391290
1426.550036,-13619.789333,2987.772442,-148.041188
1426.550347,-15914.427753,2604.724693,1702.473667
1426.550658,-15544.324782,2298.286494,3627.009116
1426.550969,-12953.603985,2451.505594,3849.070898
1426.551281,-8660.409521,2757.943793,2960.823768
1426.551592,-4811.338623,4060.306139,2072.576638
1426.551903,-2146.597232,5209.449386,-0.000000
1426.552214,-1702.473667,7124.688131,-1258.350101
1426.552526,-2812.782580,8120.612279,-2442.679609
1426.552837,-6069.688724,4749.792088,-2368.659014
1426.553148,-8586.388927,4060.306139,-1480.411884
1426.553459,-9400.615463,2298.286494,-0.000000
1426.553771,-11473.192101,-919.314598,444.123565
1426.554082,-12139.377449,-3677.258390,1850.514855
1426.554393,-13175.665768,-3830.477490,2072.576638
1426.554704,-13471.748144,-1915.238745,1554.432478
1426.555015,-12657.521608,1838.629195,2220.617826
1426.555327,-11547.212695,3370.820191,1554.432478
1426.555638,-8808.450710,5362.668486,2072.576638
1426.555949,-6291.750507,5745.716235,1998.556043
1426.556260,-6513.812290,3370.820191,592.164754
1426.556572,-6587.832884,2987.772442,-74.020594
1426.556883,-6883.915261,3370.820191,-2146.597232
1426.557194,-9252.574275,3753.867940,-2590.720797
1426.557505,-9770.718434,3524.039291,-2368.659014
1426.557817,-12361.439231,2911.162892,-1776.494261
1426.558128,-12139.377449,2451.505594,-0.000000
1426.558439,-12213.398043,1072.533697,1850.514855
1426.558750,-13027.624579,1302.362347,2590.720797
1426.559062,-12583.501014,3370.820191,2664.741391
1426.559373,-10584.944971,6435.202183,1406.391290
1426.559684,-8216.285956,7201.297681,296.082377
1426.559995,-5921.647536,6894.859482,-814.226536
1426.560307,-4811.338623,5669.106685,-1480.411884
1426.560618,-5403.503377,3753.867940,-1776.494261
1426.560929,-7772.162391,2298.286494,-1110.308913
1426.561240,-8734.430116,2221.676944,296.082377
1426.561551,-9622.677246,383.047749,666.185348
1426.561863,-9104.533087,-1838.629195,2146.597232
1426.562174,-7920.203579,-2834.553343,1998.556043
1426.562485,-7698.141797,-842.705048,1628.453072
1426.562796,-8364.327145,2911.162892,592.164754
1426.563108,-9548.656652,7048.078582,-148.041188
1426.563419,-9918.759623,9346.365076,-0.000000
1426.563730,-10214.842000,8886.707777,1110.308913
1426.564041,-9696.697840,6281.983084,1110.308913
1426.564353,-8290.306550,4519.963438,740.205942
1426.564664,-7105.977043,4213.525239,444.123565
1426.564975,-6217.729913,4673.182538,296.082377
1426.565286,-5477.523971,2911.162892,-0.000000
1426.565598,-5033.400406,689.485948,-0.000000
1426.565909,-6291.750507,-1225.752797,370.102971
1426.566220,-7920.203579,-459.657299,666.185348
1426.566531,-9548.656652,3294.210641,-148.041188
1426.566843,-11695.253884,5822.325785,-222.061783
1426.567154,-12361.439231,6358.592633,518.144159
1426.567465,-13471.748144,3983.696590,2294.638420
1426.567777,-13545.768739,2068.457845,2738.761985
1426.568088,-10584.944971,2451.505594,2590.720797
1426.568399,-8364.327145,2987.772442,2072.576638
1426.568711,-5921.647536,842.705048,1554.432478
1426.569022,-4071.132681,-2757.943793,1036.288319
1426.569333,-5033.400406,-6205.373534,-444.123565
1426.569645,-6217.729913,-4826.401637,-444.123565
1426.569956,-7105.977043,1225.752797,-1110.308913
1426.570267,-10584.944971,4903.011187,-1406.391290
1426.570579,-14137.933492,3830.477490,296.082377
1426.570890,-16654.633695,2145.067394,1850.514855
1426.571201,-17098.757260,3370.820191,2664.741391
1426.571513,-13693.809927,7048.078582,3034.844362
1426.571824,-9326.594869,7584.345430,1406.391290
1426.572135,-5181.441594,3524.039291,222.061783
1426.572447,-2146.597232,-612.876398,-444.123565
1426.572758,-1110.308913,-766.095498,-1258.350101
1426.573069,-1110.308913,2604.724693,-1184.329507
1426.573381,-5477.523971,3907.087040,-666.185348
1426.573692,-11399.171507,1149.143247,148.041188
1426.574003,-15026.180623,-153.219100,740.205942
1426.574315,-15470.304188,1455.581446,814.226536
1426.574626,-13175.665768,3830.477490,296.082377
1426.574938,-11843.295072,3140.991542,-518.144159
1426.575249,-10807.006753,919.314598,-1924.535449
1426.575560,-7772.162391,383.047749,-1628.453072
1426.575872,-4071.132681,1608.800546,-370.102971
1426.576183,-3478.967927,919.314598,1480.411884
1426.576494,-5921.647536,-1378.971896,3627.009116
1426.576806,-9104.533087,-3370.820191,4885.359217
1426.577117,-8808.450710,-1532.190996,4071.132681
1426.577428,-8438.347739,4060.306139,1480.411884
1426.577740,-9622.677246,7201.297681,-1480.411884
1426.578051,-10066.800811,6052.154434,-3775.050304
1426.578362,-8660.409521,4213.525239,-5625.565159
1426.578674,-7179.997637,6052.154434,-4885.359217
1426.578985,-8808.450710,7584.345430,-2368.659014
1426.579296,-13397.727550,4213.525239,-0.000000
1426.579608,-14063.912898,-383.047749,3627.009116
1426.579919,-11251.130318,-3294.210641,5551.544565
1426.580230,-7105.977043,-2681.334243,4737.318029
1426.580542,-3701.029710,-1991.848295,3404.947333
1426.580853,-3923.091493,-3294.210641,-296.082377
1426.581164,-1702.473667,-4366.744339,-1258.350101
1426.581476,-1776.494261,-2757.943793,-1332.370696
1426.581787,-8808.450710,0.000000,-1110.308913
1426.582098,-15470.304188,306.438199,814.226536
1426.582410,-18505.148550,-1149.143247,2812.782580
1426.582721,-16136.489536,-1532.190996,4663.297435
1426.583032,-11917.315666,-842.705048,2960.823768
1426.583344,-10362.883188,-1762.019645,888.247130
1426.583655,-5995.668130,-1685.410096,-1110.308913
1426.583966,-1554.432478,-1072.533697,-814.226536
1426.584278,-1554.432478,-1225.752797,296.082377
1426.584589,-5699.585753,-1455.581446,666.185348
1426.584900,-9918.759623,-1991.848295,2220.617826
1426.585212,-10807.006753,-1762.019645,3256.906145
1426.585523,-9918.759623,-1762.019645,3182.885551
1426.585834,-10658.965565,-2604.724693,592.164754
1426.586146,-10955.047942,-2298.286494,-2664.741391
1426.586457,-8882.471304,-1608.800546,-4589.276840
1426.586768,-6957.935855,0.000000,-2590.720797
1426.587080,-9770.718434,-612.876398,-962.267725
1426.587391,-14211.954086,-2298.286494,1258.350101
1426.587702,-15248.242405,-2451.505594,3923.091493
1426.588014,-13175.665768,-459.657299,6661.853478
1426.588325,-8586.388927,1685.410096,5403.503377
1426.588636,-5107.421000,1762.019645,1776.494261
1426.588948,-3849.070898,1149.143247,-1850.514855
1426.589259,-1702.473667,2681.334243,-4071.132681
1426.589571,-4145.153275,5209.449386,-5477.523971
1426.589882,-10955.047942,6588.421283,-4737.318029
1426.590193,-16728.654289,4519.963438,-2516.700203
1426.590505,-17912.983796,2068.457845,740.205942
1426.590816,-14804.118840,536.266849,4219.173869
1426.591127,-11399.171507,-1378.971896,3997.112087
1426.591439,-8586.388927,-3600.648841,1480.411884
1426.591750,-2590.720797,-2987.772442,592.164754
1426.592061,74.020594,153.219100,444.123565
1426.592373,-2072.576638,2681.334243,-1110.308913
1426.592684,-7328.038826,2681.334243,-2072.576638
1426.592995,-10510.924376,2451.505594,-1480.411884
1426.593307,-9622.677246,2911.162892,1480.411884
1426.593618,-9474.636058,2604.724693,2368.659014
1426.593929,-11473.192101,0.000000,888.247130
1426.594241,-9696.697840,-1455.581446,-74.020594
1426.594552,-7179.997637,-4136.915689,296.082377
1426.594863,-6143.709319,-919.314598,1406.391290
1426.595175,-9252.574275,1302.362347,592.164754
1426.595486,-11695.253884,995.924147,444.123565
1426.595797,-10436.903782,-229.828649,2516.700203
1426.596109,-7328.038826,919.314598,3849.070898
1426.596420,-6587.832884,1302.362347,2368.659014
1426.596731,-5255.462188,-612.876398,74.020594
1426.597043,-3478.967927,-2604.724693,-592.164754
1426.597354,-2590.720797,-2451.505594,-814.226536
1426.597665,-5329.482782,-1608.800546,-296.082377
1426.597977,-11547.212695,-2834.553343,-222.061783
1426.598288,-15322.262999,-3983.696590,1628.453072
1426.598599,-14952.160028,-3294.210641,4589.276840
1426.598911,-13619.789333,-2221.676944,5107.421000
1426.599222,-12879.583391,-2681.334243,3552.988522
1426.599533,-10214.842000,-3064.381992,518.144159
1426.599845,-4589.276840,-2298.286494,-0.000000
1426.600156,-1406.391290,153.219100,-1110.308913
1426.600467,-4959.379811,1378.971896,-1554.432478
1426.600779,-9770.718434,612.876398,-2368.659014
1426.601090,-11917.315666,229.828649,-592.164754
1426.601401,-12065.356855,1225.752797,1554.432478
1426.601713,-13027.624579,-536.266849,2516.700203
1426.602024,-13767.830521,-3294.210641,222.061783
1426.602335,-10288.862594,-3753.867940,148.041188
1426.602647,-7105.977043,-2528.115143,814.226536
1426.602958,-6291.750507,-612.876398,1406.391290
1426.603269,-9622.677246,0.000000,592.164754
1426.603581,-11547.212695,842.705048,222.061783
1426.603892,-11177.109724,2757.943793,1036.288319
1426.604203,-9030.512492,6281.983084,740.205942
1426.604515,-8660.409521,6358.592633,-1998.556043
1426.604826,-7994.224174,4366.744339,-4515.256246
1426.605138,-5181.441594,2757.943793,-3108.864956
1426.605449,-4219.173869,2987.772442,-1554.432478
1426.605760,-7920.203579,2911.162892,-370.102971
1426.606072,-13619.789333,1608.800546,1110.308913
1426.606383,-14656.077652,-306.438199,2738.761985
1426.606694,-11473.192101,229.828649,4589.276840
1426.607006,-8660.409521,1225.752797,2442.679609
1426.607317,-7105.977043,689.485948,-1036.288319
1426.607628,-4145.153275,-153.219100,-2886.803174
1426.607940,-666.185348,383.047749,-1924.535449
1426.608251,-1184.329507,0.000000,-1554.432478
1426.608562,-6439.791695,-1225.752797,-1924.535449
1426.608874,-11029.068536,-2604.724693,222.061783
1426.609185,-13397.727550,-2987.772442,2664.741391
1426.609496,-12583.501014,-1685.410096,5699.585753
1426.609808,-11325.150913,306.438199,3478.967927
1426.610119,-11399.171507,-995.924147,1036.288319
1426.610430,-7328.038826,-2221.676944,1110.308913
1426.610742,-2960.823768,-995.924147,592.164754
1426.611053,-3849.070898,1302.362347,-0.000000
1426.611364,-7402.059420,383.047749,-444.123565
1426.611676,-9770.718434,-1838.629195,-222.061783
1426.611987,-9622.677246,-1455.581446,2072.576638
1426.612298,-9548.656652,-919.314598,1924.535449
1426.612610,-9474.636058,-2221.676944,-518.144159
1426.612921,-8660.409521,-4366.744339,-1258.350101
1426.613232,-7994.224174,-4749.792088,-222.061783
1426.613544,-8956.491898,-3983.696590,592.164754
1426.613855,-12583.501014,-2451.505594,1776.494261
1426.614166,-15322.262999,-2451.505594,3182.885551
1426.614478,-14508.036463,-1915.238745,4663.297435
1426.614789,-11843.295072,-459.657299,4293.194464
1426.615100,-9696.697840,1302.362347,1554.432478
1426.615412,-7254.018232,1762.019645,-2146.597232
1426.615723,-4663.297435,1838.629195,-3997.112087
1426.616034,-2886.803174,2145.067394,-3627.009116
1426.616346,-7402.059420,2987.772442,-3849.070898
1426.616657,-12509.480420,1225.752797,-1258.350101
1426.616968,-15618.345376,612.876398,1184.329507
1426.617280,-15840.407159,689.485948,4367.215058
1426.617591,-13471.748144,842.705048,5551.544565
1426.617902,-11769.274478,0.000000,2146.597232
1426.618214,-9400.615463,-1608.800546,-74.020594
1426.618525,-4293.194464,919.314598,222.061783
1426.618836,-1776.494261,2681.334243,-2146.597232
1426.619148,-4663.297435,3294.210641,-2294.638420
1426.619459,-8586.388927,2681.334243,-2368.659014
1426.619771,-10658.965565,2068.457845,-518.144159
1426.620082,-8586.388927,2834.553343,2146.597232
1426.620393,-8882.471304,2911.162892,1628.453072
1426.620705,-9400.615463,1149.143247,-740.205942
1426.621016,-6587.832884,689.485948,-1628.453072
1426.621327,-5107.421000,2374.896044,-222.061783
1426.621639,-4589.276840,2681.334243,518.144159
1426.621950,-7254.018232,1532.190996,518.144159
1426.622261,-9844.739029,-383.047749,1924.535449
1426.622573,-9548.656652,-229.828649,2590.720797
1426.622884,-8438.347739,1608.800546,2368.659014
1426.623195,-8142.265362,1378.971896,-444.123565
1426.623507,-7031.956449,153.219100,-3108.864956
1426.623818,-4071.132681,-2298.286494,-2516.700203
1426.624129,-3923.091493,-2834.553343,-1554.432478
1426.624441,-7550.100608,-2757.943793,-296.082377
1426.624752,-11103.089130,-3294.210641,2072.576638
1426.625063,-13175.665768,-5056.230287,5033.400406
1426.625375,-13027.624579,-4979.620737,7179.997637
1426.625686,-11695.253884,-3524.039291,5699.585753
1426.625997,-11103.089130,-2987.772442,1702.473667
1426.626309,-7179.997637,-2068.457845,-1110.308913
1426.626620,-3108.864956,-689.485948,-2368.659014
1426.626931,-3775.050304,-459.657299,-3034.844362
1426.627243,-8586.388927,-1455.581446,-2220.617826
1426.627554,-11621.233289,-2451.505594,-0.000000
1426.627865,-14137.933492,-1991.848295,1332.370696
1426.628177,-14434.015869,-1532.190996,3182.885551
1426.628488,-14211.954086,-459.657299,1924.535449
1426.628799,-13175.665768,-1991.848295,-814.226536
1426.629111,-10362.883188,-1149.143247,-592.164754
1426.629422,-7254.018232,842.705048,-0.000000
1426.629733,-8956.491898,2221.676944,370.102971
1426.630045,-11473.192101,1302.362347,1036.288319
1426.630356,-11473.192101,995.924147,2368.659014
1426.630667,-9696.697840,1225.752797,2886.803174
1426.630979,-8364.327145,1302.362347,2146.597232
1426.631290,-8734.430116,1532.190996,-1628.453072
1426.631601,-8364.327145,842.705048,-3775.050304
1426.631913,-6143.709319,2145.067394,-2812.782580
1426.632224,-6513.812290,3217.601092,-1776.494261
1426.632535,-10881.027347,3064.381992,-148.041188
1426.632847,-13619.789333,1149.143247,1998.556043
1426.633158,-13249.686362,536.266849,3627.009116
1426.633469,-10510.924376,2221.676944,5477.523971
1426.633781,-7328.038826,3217.601092,2960.823768
1426.634092,-4589.276840,2221.676944,-1036.288319
1426.634404,-2368.659014,1455.581446,-2368.659014
1426.634715,-444.123565,1455.581446,-1406.391290
1426.635026,-148.041188,2681.334243,-2590.720797
1426.635338,-5921.647536,2451.505594,-1332.370696
1426.635649,-11177.109724,229.828649,1702.473667
1426.635960,-11251.130318,-1762.019645,4959.379811
1426.636272,-9918.759623,-536.266849,5033.400406
1426.636583,-9474.636058,-229.828649,2738.761985
1426.636894,-6957.935855,-842.705048,814.226536
1426.637206,-3923.091493,612.876398,-1258.350101
1426.637517,-2516.700203,1762.019645,-1036.288319
1426.637828,-5329.482782,383.047749,-1406.391290
1426.638140,-10140.821405,-1225.752797,-0.000000
1426.638451,-12657.521608,-995.924147,1998.556043
1426.638762,-12139.377449,-612.876398,2960.823768
1426.639074,-9104.533087,-1762.019645,3182.885551
1426.639385,-8956.491898,-4596.572988,148.041188
1426.639696,-7624.121203,-4519.963438,-148.041188
1426.640008,-5551.544565,-3064.381992,-444.123565
1426.640319,-8734.430116,-1225.752797,-1110.308913
1426.640630,-11843.295072,0.000000,888.247130
1426.640942,-14359.995275,-2068.457845,1258.350101
1426.641253,-14656.077652,-2451.505594,2590.720797
1426.641564,-12287.418637,-153.219100,2886.803174
1426.641876,-11177.109724,689.485948,-74.020594
1426.642187,-9770.718434,0.000000,-2590.720797
1426.642498,-7772.162391,0.000000,-2812.782580
1426.642810,-6513.812290,1455.581446,-2812.782580
1426.643121,-8142.265362,689.485948,-1850.514855
1426.643432,-13323.706956,-766.095498,-74.020594
1426.643744,-15026.180623,-919.314598,2146.597232
1426.644055,-13989.892304,-306.438199,4219.173869
1426.644366,-11843.295072,0.000000,3997.112087
1426.644678,-12139.377449,-1455.581446,444.123565
1426.644989,-9622.677246,-2068.457845,-1258.350101
1426.645300,-5107.421000,1378.971896,-1110.308913
1426.645612,-5255.462188,2298.286494,-1850.514855
1426.645923,-8068.244768,2451.505594,-1258.350101
1426.646234,-9918.759623,1072.533697,148.041188
1426.646546,-9474.636058,612.876398,2738.761985
1426.646857,-7550.100608,1762.019645,4219.173869
1426.647168,-6143.709319,2528.115143,1406.391290
1426.647480,-6143.709319,2068.457845,-518.144159
1426.647791,-5033.400406,2451.505594,-1184.329507
1426.648102,-3256.906145,2681.334243,-1184.329507
1426.648414,-5181.441594,3753.867940,-1554.432478
1426.648725,-8364.327145,3294.210641,-592.164754
1426.649037,-11029.068536,919.314598,1406.391290
1426.649348,-9918.759623,-919.314598,2664.741391
1426.649659,-6365.771101,153.219100,2812.782580
1426.649971,-6365.771101,-1915.238745,740.205942
1426.650282,-5847.626942,-4519.963438,-444.123565
1426.650593,-3997.112087,-2987.772442,-0.000000
1426.650905,-4293.194464,-1532.190996,-0.000000
1426.651216,-6809.894666,-1455.581446,1110.308913
1426.651527,-11473.192101,-3064.381992,2368.659014
1426.651839,-12953.603985,-2757.943793,3478.967927
1426.652150,-11029.068536,-919.314598,3330.926739
1426.652461,-9474.636058,306.438199,1110.308913
1426.652773,-10140.821405,-229.828649,-1406.391290
1426.653084,-8660.409521,153.219100,-2442.679609
1426.653395,-6365.771101,-536.266849,-2590.720797
1426.653707,-8068.244768,-306.438199,-1110.308913
1426.654018,-11547.212695,76.609550,-0.000000
1426.654329,-14211.954086,-612.876398,666.185348
1426.654641,-13767.830521,-1378.971896,2368.659014
1426.654952,-11177.109724,-536.266849,2960.823768
1426.655263,-10362.883188,-536.266849,814.226536
1426.655575,-9992.780217,-1532.190996,-1332.370696
1426.655886,-8586.388927,-766.095498,-962.267725
1426.656197,-8660.409521,919.314598,-666.185348
1426.656509,-11177.109724,842.705048,-0.000000
1426.656820,-14656.077652,-306.438199,962.267725
1426.657131,-14359.995275,153.219100,2368.659014
1426.657443,-11843.295072,536.266849,2960.823768
1426.657754,-8882.471304,229.828649,1850.514855
1426.658065,-8364.327145,153.219100,-1406.391290
1426.658377,-7994.224174,612.876398,-2960.823768
1426.658688,-3182.885551,3294.210641,-888.247130
1426.658999,-6883.915261,2451.505594,-1332.370696
1426.659311,-11843.295072,1302.362347,666.185348
1426.659622,-12583.501014,689.485948,2220.617826
1426.659933,-11547.212695,459.657299,3997.112087
1426.660245,-7031.956449,1072.533697,4219.173869
1426.660556,-5921.647536,0.000000,592.164754
1426.660867,-5773.606348,-1149.143247,-1110.308913
1426.661179,-2146.597232,-612.876398,-962.267725
1426.661490,-1258.350101,2298.286494,-1480.411884
1426.661801,-3849.070898,3753.867940,148.041188
1426.662113,-9622.677246,1685.410096,592.164754
1426.662424,-10584.944971,-1149.143247,4293.194464
1426.662735,-9104.533087,-1685.410096,4737.318029
1426.663047,-7772.162391,153.219100,3182.885551
1426.663358,-6291.750507,536.266849,518.144159
1426.663669,-6735.874072,-919.314598,-2442.679609
1426.663981,-3849.070898,-842.705048,-1406.391290
1426.664292,-3701.029710,-306.438199,-1998.556043
1426.664604,-8068.244768,-2068.457845,74.020594
1426.664915,-11695.253884,-3600.648841,1110.308913
1426.665226,-12953.603985,-3907.087040,1702.473667
1426.665538,-11325.150913,-2681.334243,2368.659014
1426.665849,-9326.594869,-1991.848295,1332.370696
1426.666160,-8734.430116,-3294.210641,-1184.329507
1426.666472,-7105.977043,-3064.381992,-1628.453072
1426.666783,-7254.018232,-1072.533697,-1258.350101
1426.667095,-9326.594869,76.609550,-518.144159
1426.667406,-12879.583391,-306.438199,-0.000000
1426.667717,-15692.365970,-919.314598,1184.329507
1426.668029,-14063.912898,-459.657299,2664.741391
1426.668340,-12287.418637,459.657299,1628.453072
1426.668652,-11547.212695,306.438199,-666.185348
1426.668963,-9844.739029,689.485948,-2812.782580
1426.669275,-7624.121203,1225.752797,-2886.803174
1426.669586,-6291.750507,1532.190996,-1554.432478
1426.669898,-9844.739029,0.000000,-666.185348
1426.670209,-14211.954086,-1225.752797,-0.000000
1426.670521,-15026.180623,-689.485948,1924.535449
1426.670832,-12287.418637,536.266849,3182.885551
1426.671144,-10955.047942,689.485948,2368.659014
1426.671455,-9696.697840,-1225.752797,-74.020594
1426.671766,-5921.647536,-919.314598,-518.144159
1426.672078,-4663.297435,0.000000,-222.061783
1426.672389,-5181.441594,1302.362347,1554.432478
1426.672701,-9474.636058,1685.410096,222.061783
1426.673012,-11103.089130,2298.286494,1776.494261
1426.673324,-10214.842000,3140.991542,3404.947333
1426.673635,-8438.347739,2987.772442,2960.823768
1426.673947,-5551.544565,3907.087040,814.226536
1426.674258,-5699.585753,2528.115143,-1110.308913
1426.674570,-2590.720797,1149.143247,-666.185348
1426.674881,-1702.473667,2298.286494,-888.247130
1426.675192,-6217.729913,2834.553343,-370.102971
1426.675504,-9622.677246,995.924147,1776.494261
1426.675815,-11103.089130,-1532.190996,3627.009116
1426.676127,-8586.388927,-766.095498,3775.050304
1426.676438,-5551.544565,-306.438199,3404.947333
1426.676750,-7550.100608,-2298.286494,-74.020594
1426.677061,-5847.626942,-2911.162892,-74.020594
1426.677373,-3108.864956,-919.314598,-296.082377
1426.677684,-3849.070898,-919.314598,370.102971
1426.677996,-8438.347739,-2068.457845,1036.288319
1426.678307,-12435.459826,-2757.943793,1998.556043
1426.678618,-12583.501014,-2604.724693,3478.967927
1426.678930,-9770.718434,-2451.505594,3552.988522
1426.679241,-9326.594869,-995.924147,1332.370696
1426.679553,-9992.780217,-1225.752797,-1850.514855
1426.679864,-7476.080014,-1915.238745,-2738.761985
1426.680176,-6069.688724,-1072.533697,-2072.576638
1426.680487,-8956.491898,-153.219100,-1554.432478
1426.680799,-12953.603985,-306.438199,-814.226536
1426.681110,-14952.160028,-2451.505594,-0.000000
1426.681422,-13619.789333,-1838.629195,1554.432478
1426.681733,-11769.274478,-383.047749,1554.432478
1426.682044,-11769.274478,-1915.238745,-1924.535449
1426.682356,-10362.883188,-2681.334243,-2294.638420
1426.682667,-7920.203579,-1838.629195,-1776.494261
1426.682979,-9030.512492,-689.485948,-1036.288319
1426.683290,-11991.336260,919.314598,370.102971
1426.683602,-14730.098246,612.876398,740.205942
1426.683913,-14285.974681,383.047749,2294.638420
1426.684225,-11103.089130,2681.334243,1406.391290
1426.684536,-9622.677246,3217.601092,-666.185348
1426.684848,-8734.430116,1685.410096,-3330.926739
1426.685159,-6809.894666,306.438199,-2960.823768
1426.685470,-5403.503377,995.924147,-1850.514855
1426.685782,-8438.347739,2451.505594,-592.164754
1426.686093,-12583.501014,1302.362347,740.205942
1426.686405,-13693.809927,0.000000,2738.761985
1426.686716,-10066.800811,-306.438199,3997.112087
1426.687028,-6587.832884,459.657299,4441.235652
1426.687339,-5403.503377,-842.705048,1110.308913
1426.687651,-2812.782580,-536.266849,-592.164754
1426.687962,-1184.329507,689.485948,-814.226536
1426.688274,74.020594,3064.381992,148.041188
1426.688585,-4515.256246,3064.381992,740.205942
1426.688896,-11769.274478,-536.266849,1850.514855
1426.689208,-11473.192101,0.000000,4663.297435
1426.689519,-9548.656652,1302.362347,4959.379811
1426.689831,-7846.182985,2221.676944,2738.761985
1426.690142,-7402.059420,536.266849,-0.000000
1426.690454,-5181.441594,-1608.800546,-814.226536
1426.690765,-1110.308913,-842.705048,-592.164754
1426.691077,-2664.741391,306.438199,-148.041188
1426.691388,-8290.306550,-766.095498,740.205942
1426.691700,-12287.418637,-2451.505594,2368.659014
1426.692011,-11251.130318,-3370.820191,4441.235652
1426.692322,-8956.491898,-3294.210641,4293.194464
1426.692634,-9548.656652,-3753.867940,1258.350101
1426.692945,-8586.388927,-3294.210641,-1554.432478
1426.693257,-7031.956449,-2528.115143,-2072.576638
1426.693568,-7624.121203,-1608.800546,-1628.453072
1426.693880,-9992.780217,-383.047749,-222.061783
1426.694191,-14508.036463,-842.705048,814.226536
1426.694503,-15914.427753,-1838.629195,1998.556043
1426.694814,-12953.603985,-689.485948,3256.906145
1426.695126,-10881.027347,919.314598,962.267725
1426.695437,-9992.780217,1608.800546,-1554.432478
1426.695748,-8882.471304,1225.752797,-4071.132681
1426.696060,-7994.224174,1915.238745,-4145.153275
1426.696371,-9400.615463,2298.286494,-2590.720797
1426.696683,-13027.624579,1072.533697,-666.185348
1426.696994,-16358.551318,-842.705048,592.164754
1426.697306,-15396.283594,0.000000,2590.720797
1426.697617,-11843.295072,1302.362347,2738.761985
1426.697929,-9770.718434,-612.876398,74.020594
1426.698240,-7772.162391,-1762.019645,-1924.535449
1426.698552,-5181.441594,-1225.752797,-2220.617826
1426.698863,-4589.276840,1915.238745,-1998.556043
1426.699174,-7328.038826,3217.601092,-740.205942
1426.699486,-12139.377449,2374.896044,-0.000000
1426.699797,-13027.624579,1225.752797,2590.720797
1426.700109,-10955.047942,2451.505594,3923.091493
1426.700420,-8734.430116,3753.867940,2738.761985
1426.700732,-5255.462188,3140.991542,-296.082377
1426.701043,-5329.482782,2068.457845,-1850.514855
1426.701355,-2886.803174,995.924147,-444.123565
1426.701666,-1628.453072,2374.896044,-1332.370696
1426.701978,-5181.441594,2528.115143,592.164754
1426.702289,-9474.636058,76.609550,2072.576638
1426.702601,-10436.903782,-1762.019645,4071.132681
1426.702912,-6291.750507,-1225.752797,4441.235652
1426.703223,-5773.606348,-1915.238745,2738.761985
1426.703535,-5477.523971,-4366.744339,-148.041188
1426.703846,-3034.844362,-2528.115143,-1036.288319
1426.704158,-3849.070898,-1149.143247,-666.185348
1426.704469,-5921.647536,-1302.362347,444.123565
1426.704781,-11695.253884,-2068.457845,1702.473667
1426.705092,-13915.871710,-1838.629195,3108.864956
1426.705404,-11695.253884,-1378.971896,4589.276840
1426.705715,-10066.800811,-2068.457845,3923.091493
1426.706027,-8808.450710,-1762.019645,888.247130
1426.706338,-7254.018232,-766.095498,-1628.453072
1426.706649,-4589.276840,-459.657299,-2220.617826
1426.706961,-6365.771101,-306.438199,-1332.370696
1426.707272,-10732.986159,383.047749,-148.041188
1426.707584,-14063.912898,-2681.334243,-0.000000
1426.707895,-15322.262999,-2757.943793,1480.411884
1426.708207,-14137.933492,-766.095498,2664.741391
1426.708518,-12731.542202,-76.609550,-0.000000
1426.708830,-11621.233289,-1685.410096,-2368.659014
1426.709141,-8734.430116,-1608.800546,-2368.659014
1426.709453,-8364.327145,1072.533697,-1554.432478
1426.709764,-9696.697840,3217.601092,-814.226536
1426.710075,-12879.583391,1838.629195,518.144159
1426.710387,-14211.954086,919.314598,1184.329507
1426.710698,-11103.089130,1072.533697,4071.132681
1426.711010,-9622.677246,1378.971896,2368.659014
1426.711321,-8364.327145,842.705048,-148.041188
1426.711633,-8586.388927,306.438199,-3627.009116
1426.711944,-6513.812290,1532.190996,-2960.823768
1426.712256,-6217.729913,3294.210641,-2368.659014
1426.712567,-11177.109724,2987.772442,-1998.556043
1426.712879,-13101.645173,1378.971896,740.205942
1426.713190,-11917.315666,-1072.533697,2960.823768
1426.713501,-8512.368333,-612.876398,4811.338623
1426.713813,-5699.585753,0.000000,2960.823768
1426.714124,-5921.647536,-842.705048,-222.061783
1426.714436,-3478.967927,-459.657299,-222.061783
1426.714747,-1036.288319,1532.190996,-592.164754
1426.715059,-1480.411884,2528.115143,-370.102971
1426.715370,-7105.977043,1149.143247,-444.123565
1426.715682,-11621.233289,-1455.581446,2664.741391
1426.715993,-9622.677246,229.828649,4515.256246
1426.716305,-7698.141797,1915.238745,3849.070898
1426.716616,-6365.771101,1455.581446,1702.473667
1426.716927,-5847.626942,-229.828649,-518.144159
1426.717239,-3330.926739,-383.047749,-1184.329507
1426.717550,-1998.556043,153.219100,-296.082377
1426.717862,-6217.729913,-229.828649,-370.102971
1426.718173,-10881.027347,-2451.505594,1406.391290
1426.718485,-13619.789333,-3217.601092,2812.782580
1426.718796,-12139.377449,-4443.353888,4071.132681
1426.719108,-9474.636058,-4443.353888,3182.885551
1426.719419,-10140.821405,-4519.963438,-222.061783
1426.719731,-7994.224174,-3064.381992,-1702.473667
1426.720042,-7254.018232,-1915.238745,-1998.556043
1426.720353,-8956.491898,0.000000,-74.020594
1426.720665,-12139.377449,76.609550,888.247130
1426.720976,-15026.180623,-919.314598,2072.576638
1426.721288,-14137.933492,76.609550,2590.720797
1426.721599,-11325.150913,2374.896044,2516.700203
1426.721911,-10140.821405,2528.115143,-518.144159
1426.722222,-9696.697840,383.047749,-2664.741391
1426.722534,-7846.182985,306.438199,-2516.700203
1426.722845,-7476.080014,995.924147,-2368.659014
1426.723157,-11843.295072,1838.629195,-1998.556043
1426.723468,-15248.242405,919.314598,-444.123565
1426.723779,-15840.407159,-383.047749,1554.432478
1426.724091,-13323.706956,-536.266849,3552.988522
1426.724402,-10584.944971,-153.219100,2664.741391
1426.724714,-9326.594869,-1225.752797,-0.000000
1426.725025,-5847.626942,-536.266849,-1258.350101
1426.725337,-3478.967927,0.000000,-222.061783
1426.725648,-5107.421000,1532.190996,-0.000000
1426.725960,-8808.450710,995.924147,-740.205942
1426.726271,-10732.986159,1685.410096,518.144159
1426.726583,-10140.821405,1455.581446,2294.638420
1426.726894,-8512.368333,2451.505594,2516.700203
1426.727205,-6809.894666,2451.505594,592.164754
1426.727517,-6217.729913,842.705048,-1628.453072
1426.727828,-3775.050304,383.047749,-444.123565
1426.728140,-2368.659014,1838.629195,-296.082377
1426.728451,-5033.400406,3983.696590,-148.041188
1426.728763,-9252.574275,2374.896044,1258.350101
1426.729074,-11325.150913,-1225.752797,2368.659014
1426.729386,-8216.285956,-919.314598,3552.988522
1426.729697,-5255.462188,229.828649,2146.597232
1426.730009,-5625.565159,-2911.162892,-0.000000
1426.730320,-5773.606348,-4826.401637,-0.000000
1426.730631,-3552.988522,-3370.820191,296.082377
1426.730943,-4737.318029,-3064.381992,-0.000000
1426.731254,-8734.430116,-3447.429741,1184.329507
1426.731566,-12805.562797,-3600.648841,1924.535449
1426.731877,-13841.851115,-2834.553343,2738.761985
1426.732189,-10658.965565,-1991.848295,3404.947333
1426.732500,-8586.388927,-153.219100,1628.453072
1426.732812,-9326.594869,-995.924147,-444.123565
1426.733123,-7920.203579,-1532.190996,-1554.432478
1426.733435,-5403.503377,-842.705048,-1332.370696
1426.733746,-8438.347739,383.047749,-1554.432478
1426.734058,-12065.356855,306.438199,-222.061783
1426.734369,-14804.118840,-995.924147,148.041188
1426.734680,-15766.386565,-1225.752797,814.226536
1426.734992,-13101.645173,919.314598,2220.617826
1426.735303,-12731.542202,306.438199,-444.123565
1426.735615,-11547.212695,-612.876398,-1702.473667
1426.735926,-8586.388927,306.438199,-1850.514855
1426.736238,-7772.162391,1685.410096,-1036.288319
1426.736549,-9992.780217,1455.581446,-370.102971
1426.736861,-13323.706956,1225.752797,222.061783
1426.737172,-13693.809927,536.266849,2294.638420
1426.737484,-11843.295072,1991.848295,2516.700203
1426.737795,-9622.677246,1838.629195,1332.370696
1426.738106,-9622.677246,1072.533697,-1110.308913
1426.738418,-8142.265362,536.266849,-1850.514855
1426.738729,-5107.421000,1608.800546,-1554.432478
1426.739041,-6883.915261,2757.943793,-1406.391290
1426.739352,-10732.986159,3830.477490,222.061783
1426.739664,-12065.356855,1149.143247,3108.864956
1426.739975,-9104.533087,306.438199,3923.091493
1426.740287,-4663.297435,689.485948,3997.112087
1426.740598,-4145.153275,459.657299,1258.350101
1426.740910,-5033.400406,-995.924147,-370.102971
1426.741221,-1776.494261,-536.266849,-814.226536
1426.741532,-1554.432478,1608.800546,-1480.411884
1426.741844,-4885.359217,2221.676944,-518.144159
1426.742155,-9622.677246,76.609550,888.247130
1426.742467,-11621.233289,-1838.629195,2516.700203
1426.742778,-10066.800811,-1149.143247,3997.112087
1426.743090,-7624.121203,-612.876398,3256.906145
1426.743401,-6809.894666,-766.095498,-0.000000
1426.743713,-5329.482782,-612.876398,-814.226536
1426.744024,-2368.659014,-1225.752797,-1184.329507
1426.744336,-1702.473667,-1225.752797,-962.267725
1426.744647,-6439.791695,-2451.505594,1110.308913
1426.744958,-11843.295072,-4136.915689,2146.597232
1426.745270,-13619.789333,-4673.182538,3404.947333
1426.745581,-12287.418637,-3830.477490,3923.091493
1426.745893,-10732.986159,-3447.429741,2664.741391
1426.746204,-9992.780217,-5515.887586,-962.267725
1426.746516,-8512.368333,-4596.572988,-1924.535449
1426.746827,-8956.491898,-1302.362347,-2368.659014
1426.747139,-9770.718434,612.876398,-2146.597232
1426.747450,-13323.706956,689.485948,222.061783
1426.747762,-16210.510130,-612.876398,1406.391290
1426.748073,-14137.933492,-229.828649,2664.741391
1426.748384,-11843.295072,1149.143247,1850.514855
1426.748696,-10881.027347,1685.410096,-888.247130
1426.749007,-9030.512492,1302.362347,-2368.659014
1426.749319,-7254.018232,1149.143247,-3108.864956
1426.749630,-7402.059420,1378.971896,-2072.576638
1426.749942,-11029.068536,995.924147,-1332.370696
1426.750253,-14656.077652,459.657299,-444.123565
1426.750565,-15544.324782,306.438199,962.267725
1426.750876,-13249.686362,1608.800546,1776.494261
1426.751188,-11621.233289,612.876398,666.185348
1426.751499,-9400.615463,-459.657299,-0.000000
1426.751810,-4885.359217,-383.047749,-888.247130
1426.752122,-4663.297435,1532.190996,-222.061783
1426.752433,-7105.977043,2374.896044,1184.329507
1426.752745,-8660.409521,2374.896044,740.205942
1426.753056,-10140.821405,2987.772442,1998.556043
1426.753368,-8660.409521,3217.601092,3701.029710
1426.753679,-6735.874072,3983.696590,2738.761985
1426.753991,-5329.482782,2987.772442,-222.061783
1426.754302,-4589.276840,2451.505594,-2072.576638
1426.754614,-1110.308913,2604.724693,-1332.370696
1426.754925,-740.205942,2757.943793,-1776.494261
1426.755236,-5329.482782,2528.115143,-518.144159
1426.755548,-9104.533087,383.047749,962.267725
1426.755859,-10214.842000,-2068.457845,2886.803174
1426.756171,-7698.141797,-689.485948,4441.235652
1426.756482,-7179.997637,-995.924147,2886.803174
1426.756794,-7772.162391,-4366.744339,888.247130
1426.757105,-5033.400406,-4826.401637,1332.370696
1426.757417,-2664.741391,-4060.306139,592.164754
1426.757728,-4515.256246,-3064.381992,222.061783
1426.758040,-9844.739029,-2528.115143,1332.370696
1426.758351,-14137.933492,-3140.991542,1184.329507
1426.758662,-12879.583391,-2068.457845,2960.823768
1426.758974,-11251.130318,-1915.238745,3404.947333
1426.759285,-10510.924376,-1378.971896,1480.411884
1426.759597,-9918.759623,-1762.019645,-1332.370696
1426.759908,-7624.121203,-1608.800546,-2294.638420
1426.760220,-6439.791695,-153.219100,-1554.432478
1426.760531,-9992.780217,-306.438199,-1480.411884
1426.760843,-13841.851115,-459.657299,-0.000000
1426.761154,-15692.365970,-1455.581446,518.144159
1426.761466,-14285.974681,0.000000,1406.391290
1426.761777,-11843.295072,459.657299,1628.453072
1426.762088,-12287.418637,-459.657299,-1480.411884
1426.762400,-9770.718434,-306.438199,-1702.473667
1426.762711,-7772.162391,689.485948,-1628.453072
1426.763023,-8142.265362,1685.410096,-1332.370696
1426.763334,-11325.150913,1378.971896,-0.000000
1426.763646,-14359.995275,153.219100,592.164754
1426.763957,-13471.748144,383.047749,2738.761985
1426.764269,-11251.130318,1455.581446,2738.761985
1426.764580,-10807.006753,1838.629195,370.102971
1426.764892,-9474.636058,1149.143247,-1332.370696
1426.765203,-4959.379811,383.047749,-2072.576638
1426.765514,-2960.823768,1838.629195,-1036.288319
1426.765826,-7402.059420,2528.115143,-888.247130
1426.766137,-9992.780217,2374.896044,-148.041188
1426.766449,-10288.862594,2451.505594,1702.473667
1426.766760,-8660.409521,2145.067394,3701.029710
1426.767072,-6365.771101,1915.238745,3034.844362
1426.767383,-6809.894666,536.266849,-222.061783
1426.767695,-4515.256246,229.828649,-296.082377
1426.768006,-1184.329507,1072.533697,-444.123565
1426.768318,-666.185348,2681.334243,-148.041188
1426.768629,-5773.606348,1455.581446,740.205942
1426.768941,-10362.883188,-2145.067394,2664.741391
1426.769252,-9474.636058,-2145.067394,4441.235652
1426.769563,-6957.935855,536.266849,3478.967927
1426.769875,-7550.100608,1302.362347,222.061783
1426.770186,-7846.182985,-536.266849,-1702.473667
1426.770498,-4811.338623,-1608.800546,-2590.720797
1426.770809,-3108.864956,-536.266849,-2146.597232
1426.771121,-5551.544565,-1225.752797,-888.247130
1426.771432,-11399.171507,-3677.258390,444.123565
1426.771743,-15174.221811,-3830.477490,2886.803174
1426.772055,-13841.851115,-2757.943793,4145.153275
1426.772366,-10510.924376,-2374.896044,3627.009116
1426.772678,-9474.636058,-2221.676944,1110.308913
1426.772989,-7624.121203,-2451.505594,-592.164754
1426.773301,-5699.585753,-2298.286494,-2738.761985
1426.773612,-7031.956449,-1532.190996,-2146.597232
1426.773923,-10955.047942,536.266849,-740.205942
1426.774235,-15026.180623,-229.828649,518.144159
1426.774546,-16506.592507,-1532.190996,1776.494261
1426.774858,-15470.304188,-766.095498,2664.741391
1426.775169,-13619.789333,1072.533697,740.205942
1426.775481,-12213.398043,1302.362347,-1628.453072
1426.775792,-9474.636058,689.485948,-1776.494261
1426.776103,-7254.018232,3140.991542,-1776.494261
1426.776415,-7994.224174,2374.896044,-666.185348
1426.776726,-11991.336260,459.657299,592.164754
1426.777038,-13767.830521,229.828649,1332.370696
1426.777349,-11473.192101,1608.800546,2368.659014
1426.777661,-9326.594869,1838.629195,1850.514855
1426.777972,-7920.203579,-383.047749,-370.102971
1426.778283,-7031.956449,-459.657299,-2072.576638
1426.778595,-6513.812290,229.828649,-1776.494261
1426.778906,-5773.606348,2145.067394,-148.041188
1426.779218,-8290.306550,3447.429741,296.082377
1426.779529,-12361.439231,2068.457845,2220.617826
1426.779841,-11251.130318,1149.143247,4515.256246
1426.780152,-7031.956449,766.095498,4663.297435
1426.780463,-4663.297435,2298.286494,2516.700203
1426.780775,-4515.256246,2221.676944,-370.102971
1426.781086,-2442.679609,995.924147,-2516.700203
1426.781398,-296.082377,2911.162892,-3034.844362
1426.781709,-2886.803174,2911.162892,-1702.473667
1426.782021,-8068.244768,383.047749,-888.247130
1426.782332,-11621.233289,-842.705048,2368.659014
1426.782644,-11103.089130,-842.705048,4737.318029
1426.782955,-9474.636058,-1072.533697,4663.297435
1426.783266,-8290.306550,-2528.115143,2812.782580
1426.783578,-6439.791695,-2911.162892,740.205942
1426.783889,-3034.844362,-2911.162892,-370.102971
1426.784201,-1406.391290,-1838.629195,-1184.329507
1426.784512,-4737.318029,-689.485948,-666.185348
1426.784824,-10436.903782,-2374.896044,-296.082377
1426.785135,-13693.809927,-5132.839837,2146.597232
1426.785446,-13397.727550,-4290.134789,2886.803174
1426.785758,-11547.212695,-1838.629195,2590.720797
1426.786069,-13471.748144,-2911.162892,-0.000000
1426.786381,-11769.274478,-3524.039291,-962.267725
1426.786692,-9030.512492,-1532.190996,-1628.453072
1426.787004,-9104.533087,919.314598,-1850.514855
1426.787315,-11325.150913,1302.362347,148.041188
1426.787626,-13249.686362,-612.876398,592.164754
1426.787938,-13471.748144,-2145.067394,1776.494261
1426.788249,-10140.821405,-766.095498,2294.638420
1426.788561,-9844.739029,-1072.533697,-370.102971
1426.788872,-10214.842000,-919.314598,-2146.597232
1426.789184,-8290.306550,-76.609550,-2146.597232
1426.789495,-8438.347739,-153.219100,-1850.514855
1426.789806,-10584.944971,995.924147,-888.247130
1426.790118,-14137.933492,1302.362347,814.226536
1426.790429,-16062.468941,0.000000,1184.329507
1426.790741,-13027.624579,1302.362347,4071.132681
1426.791052,-9918.759623,1991.848295,2886.803174
1426.791364,-7328.038826,1762.019645,-148.041188
1426.791675,-5181.441594,1532.190996,-1184.329507
1426.791986,-4293.194464,2298.286494,-2146.597232
1426.792298,-3627.009116,3294.210641,-888.247130
1426.792609,-7254.018232,3370.820191,-1998.556043
1426.792921,-9844.739029,2451.505594,814.226536
1426.793232,-11991.336260,1149.143247,1998.556043
1426.793544,-10288.862594,229.828649,4589.276840
1426.793855,-6883.915261,229.828649,2664.741391
1426.794166,-7105.977043,-229.828649,-222.061783
1426.794478,-3256.906145,1072.533697,-296.082377
1426.794789,-888.247130,3907.087040,-74.020594
1426.795101,-3256.906145,3830.477490,-0.000000
1426.795412,-8438.347739,1225.752797,666.185348
1426.795724,-11103.089130,383.047749,2886.803174
1426.796035,-9326.594869,3140.991542,3108.864956
1426.796346,-8142.265362,2604.724693,3034.844362
1426.796658,-6439.791695,-612.876398,814.226536
1426.796969,-4071.132681,-3370.820191,-666.185348
1426.797281,-1850.514855,-3217.601092,-592.164754
1426.797592,-3552.988522,-3830.477490,-962.267725
1426.797904,-8364.327145,-1915.238745,-74.020594
1426.798215,-13545.768739,-612.876398,1110.308913
1426.798527,-14656.077652,-3370.820191,3330.926739
1426.798838,-12805.562797,-4213.525239,3627.009116
1426.799149,-10362.883188,-2604.724693,2516.700203
1426.799461,-8290.306550,-2834.553343,-888.247130
1426.799772,-7105.977043,-3600.648841,-2220.617826
1426.800084,-7105.977043,-3370.820191,-2442.679609
1426.800395,-8734.430116,-536.266849,-592.164754
1426.800707,-11621.233289,-1455.581446,-0.000000
1426.801018,-15470.304188,-2451.505594,962.267725
1426.801329,-15840.407159,-766.095498,3108.864956
1426.801641,-13249.686362,1378.971896,2442.679609
1426.801952,-11695.253884,842.705048,444.123565
1426.802264,-10584.944971,766.095498,-1480.411884
1426.802575,-7550.100608,2298.286494,-2146.597232
1426.802887,-6143.709319,2221.676944,-2442.679609
1426.803198,-9548.656652,1149.143247,-2072.576638
1426.803509,-12879.583391,153.219100,-592.164754
1426.803821,-13989.892304,306.438199,222.061783
1426.804132,-12361.439231,766.095498,2146.597232
1426.804444,-11325.150913,-229.828649,1924.535449
1426.804755,-10584.944971,-2451.505594,-296.082377
1426.805067,-7698.141797,-612.876398,-0.000000
1426.805378,-6365.771101,0.000000,592.164754
1426.805689,-6217.729913,1762.019645,666.185348
1426.806001,-8660.409521,3370.820191,1332.370696
1426.806312,-11325.150913,1685.410096,2294.638420
1426.806624,-9622.677246,1455.581446,3923.091493
1426.806935,-6587.832884,3677.258390,2738.761985
1426.807247,-5477.523971,4826.401637,-444.123565
1426.807558,-3923.091493,2298.286494,-2220.617826
1426.807869,-962.267725,536.266849,-2294.638420
1426.808181,-148.041188,1455.581446,-1554.432478
1426.808492,-6069.688724,919.314598,-1110.308913
1426.808804,-10436.903782,-229.828649,1702.473667
1426.809115,-11177.109724,-1149.143247,3627.009116
1426.809427,-10362.883188,-919.314598,4367.215058
1426.809738,-8142.265362,-995.924147,3627.009116
1426.810049,-7846.182985,-2221.676944,1110.308913
1426.810361,-4885.359217,-2068.457845,-1110.308913
1426.810672,-1184.329507,-1149.143247,-148.041188
1426.810984,-1850.514855,-1991.848295,-518.144159
1426.811295,-7179.997637,-2834.553343,-148.041188
1426.811607,-12213.398043,-3140.991542,2368.659014
1426.811918,-12953.603985,-4213.525239,3552.988522
1426.812230,-12731.542202,-2374.896044,3552.988522
1426.812541,-11991.336260,0.000000,1702.473667
1426.812852,-11473.192101,-2145.067394,-1776.494261
1426.813164,-9104.533087,-2987.772442,-2516.700203
1426.813475,-6513.812290,229.828649,-1628.453072
1426.813787,-9104.533087,1149.143247,-1258.350101
1426.814098,-12805.562797,-229.828649,-222.061783
1426.814410,-15692.365970,-1225.752797,1110.308913
1426.814721,-14211.954086,-306.438199,1850.514855
1426.815032,-10807.006753,229.828649,1702.473667
1426.815344,-11473.192101,-1608.800546,-1776.494261
1426.815655,-10066.800811,-689.485948,-2664.741391
1426.815967,-7105.977043,612.876398,-2516.700203
1426.816278,-8142.265362,1532.190996,-1110.308913
1426.816590,-11177.109724,229.828649,518.144159
1426.816901,-16284.530724,-1072.533697,444.123565
1426.817212,-14285.974681,459.657299,4145.153275
1426.817524,-11991.336260,1608.800546,2590.720797
1426.817835,-11251.130318,2987.772442,888.247130
1426.818147,-7624.121203,2298.286494,-1702.473667
1426.818458,-4959.379811,1225.752797,-2442.679609
1426.818770,-3256.906145,1532.190996,-518.144159
1426.819081,-5699.585753,1149.143247,-1184.329507
1426.819392,-9770.718434,2145.067394,-592.164754
1426.819704,-11621.233289,2068.457845,2220.617826
1426.820015,-11103.089130,1302.362347,4663.297435
1426.820327,-7031.956449,1378.971896,3923.091493
1426.820638,-5921.647536,1225.752797,1110.308913
1426.820950,-6883.915261,-536.266849,-296.082377
1426.821261,-222.061783,1838.629195,-518.144159
1426.821572,148.041188,4979.620737,-444.123565
1426.821884,-5033.400406,2221.676944,-0.000000
1426.822195,-9696.697840,-2145.067394,1702.473667
1426.822507,-10214.842000,-1762.019645,3775.050304
1426.822818,-8216.285956,1838.629195,3775.050304
1426.823130,-8142.265362,995.924147,2294.638420
1426.823441,-8142.265362,-1685.410096,-74.020594
1426.823752,-5699.585753,-1455.581446,-1110.308913
1426.824064,-2812.782580,-1838.629195,-370.102971
1426.824375,-4071.132681,-2757.943793,-222.061783
1426.824687,-9696.697840,-1685.410096,814.226536
1426.824998,-13693.809927,-1991.848295,2072.576638
1426.825310,-11621.233289,-4290.134789,3256.906145
1426.825621,-9326.594869,-3524.039291,3552.988522
1426.825933,-9104.533087,-2451.505594,1850.514855
1426.826244,-8438.347739,-4136.915689,-1406.391290
1426.826555,-7846.182985,-4596.572988,-2294.638420
1426.826867,-7105.977043,-1072.533697,-1258.350101
1426.827178,-10066.800811,459.657299,-1332.370696
1426.827490,-14359.995275,-2604.724693,-592.164754
1426.827801,-16950.716072,-2451.505594,1258.350101
1426.828113,-14804.118840,306.438199,3182.885551
1426.828424,-13027.624579,2068.457845,1184.329507
1426.828735,-13989.892304,766.095498,-1258.350101
1426.829047,-11399.171507,919.314598,-2442.679609
1426.829358,-5995.668130,1838.629195,-2516.700203
1426.829670,-4959.379811,1991.848295,-1850.514855
1426.829981,-8660.409521,842.705048,-1554.432478
1426.830293,-11325.150913,-689.485948,-444.123565
1426.830604,-12583.501014,-995.924147,1850.514855
1426.830915,-12657.521608,612.876398,2442.679609
1426.831227,-11103.089130,0.000000,148.041188
1426.831538,-11325.150913,-383.047749,-1184.329507
1426.831850,-8586.388927,-1149.143247,-0.000000
1426.832161,-3404.947333,-229.828649,-148.041188
1426.832473,-5847.626942,1762.019645,-1184.329507
1426.832784,-9696.697840,1915.238745,740.205942
1426.833095,-12139.377449,1149.143247,2590.720797
1426.833407,-10436.903782,2298.286494,4589.276840
1426.833718,-6809.894666,4749.792088,2812.782580
1426.834030,-6735.874072,2911.162892,-0.000000
1426.834341,-5033.400406,1685.410096,-2072.576638
1426.834653,-1258.350101,3447.429741,-1776.494261
1426.834964,-740.205942,4596.572988,-1998.556043
1426.835275,-6439.791695,1991.848295,-740.205942
1426.835587,-10436.903782,229.828649,2664.741391
1426.835898,-11177.109724,-153.219100,3478.967927
1426.836210,-7920.203579,459.657299,4885.359217
1426.836521,-7105.977043,229.828649,2516.700203
1426.836833,-6439.791695,-2451.505594,-222.061783
1426.837144,-2664.741391,-2145.067394,-1406.391290
1426.837455,-1554.432478,-1991.848295,-1184.329507
1426.837767,-4959.379811,-2068.457845,-888.247130
1426.838078,-11325.150913,-1608.800546,814.226536
1426.838390,-14211.954086,-2451.505594,3182.885551
1426.838701,-13249.686362,-2757.943793,4737.318029
1426.839013,-10807.006753,-1915.238745,4885.359217
1426.839324,-10066.800811,-2298.286494,2146.597232
1426.839636,-9400.615463,-3753.867940,-296.082377
1426.839947,-5551.544565,-2528.115143,-1258.350101
1426.840258,-4959.379811,766.095498,-1776.494261
1426.840570,-9252.574275,1225.752797,-814.226536
1426.840881,-13175.665768,-1685.410096,-148.041188
1426.841193,-14952.160028,-2987.772442,2072.576638
1426.841504,-13175.665768,-766.095498,2516.700203
1426.841816,-11251.130318,0.000000,1332.370696
1426.842127,-11917.315666,-1915.238745,-1628.453072
1426.842438,-9326.594869,-1915.238745,-1924.535449
1426.842750,-7328.038826,-689.485948,-2294.638420
1426.843061,-9326.594869,1378.971896,-1554.432478
1426.843373,-13101.645173,1838.629195,-222.061783
1426.843684,-16136.489536,612.876398,592.164754
1426.843996,-13323.706956,1378.971896,3330.926739
1426.844307,-10955.047942,2374.896044,2516.700203
1426.844618,-9178.553681,2451.505594,-0.000000
1426.844930,-6587.832884,1225.752797,-2590.720797
1426.845241,-4885.359217,1225.752797,-2368.659014
1426.845553,-4737.318029,2068.457845,-1702.473667
1426.845864,-9326.594869,2298.286494,-1998.556043
1426.846176,-12361.439231,1991.848295,888.247130
1426.846487,-13767.830521,-306.438199,3627.009116
1426.846798,-11103.089130,-459.657299,5551.544565
1426.847110,-7328.038826,0.000000,3478.967927
1426.847421,-6143.709319,153.219100,-74.020594
1426.847733,-2960.823768,689.485948,-74.020594
1426.848044,518.144159,2145.067394,-1776.494261
1426.848356,-444.123565,5056.230287,-1258.350101
1426.848667,-6883.915261,3064.381992,-296.082377
1426.848978,-11029.068536,1072.533697,1628.453072
1426.849290,-9844.739029,2221.676944,3997.112087
1426.849601,-6809.894666,3140.991542,3923.091493
1426.849913,-6587.832884,76.609550,1628.453072
1426.850224,-6069.688724,-3064.381992,-814.226536
1426.850536,-2590.720797,-1685.410096,-1332.370696
1426.850847,-2368.659014,-842.705048,-1998.556043
1426.851158,-6069.688724,-1302.362347,-1110.308913
1426.851470,-12361.439231,-2298.286494,1036.288319
1426.851781,-14211.954086,-3370.820191,3701.029710
1426.852093,-11991.336260,-4519.963438,4737.318029
1426.852404,-10066.800811,-4290.134789,3997.112087
1426.852716,-9104.533087,-3830.477490,1036.288319
1426.853027,-7550.100608,-3830.477490,-888.247130
1426.853338,-5847.626942,-2911.162892,-1406.391290
1426.853650,-7402.059420,-306.438199,-1406.391290
1426.853961,-11769.274478,919.314598,222.061783
1426.854273,-15766.386565,-1225.752797,666.185348
1426.854584,-15840.407159,-1302.362347,2812.782580
1426.854896,-13545.768739,1225.752797,2812.782580
1426.855207,-11917.315666,1991.848295,592.164754
1426.855519,-10881.027347,1149.143247,-2812.782580
1426.855830,-8142.265362,689.485948,-3627.009116
1426.856141,-6143.709319,1915.238745,-3849.070898
1426.856453,-9400.615463,1685.410096,-2664.741391
1426.856764,-13767.830521,306.438199,-814.226536
1426.857076,-15100.201217,-536.266849,888.247130
1426.857387,-14137.933492,0.000000,3330.926739
1426.857699,-11843.295072,-919.314598,2960.823768
1426.858010,-11399.171507,-306.438199,-444.123565
1426.858321,-7994.224174,-306.438199,-1702.473667
1426.858633,-4293.194464,383.047749,-444.123565
1426.858944,-4811.338623,766.095498,-370.102971
1426.859256,-7772.162391,1072.533697,-0.000000
1426.859567,-11769.274478,612.876398,814.226536
1426.859879,-12065.356855,306.438199,3108.864956
1426.860190,-10066.800811,919.314598,3627.009116
1426.860501,-7846.182985,2451.505594,1480.411884
1426.860813,-6735.874072,2221.676944,-1110.308913
1426.861124,-3923.091493,1149.143247,-740.205942
1426.861436,0.000000,2757.943793,-0.000000
1426.861747,-2220.617826,3983.696590,222.061783
1426.862059,-7105.977043,1915.238745,1702.473667
1426.862370,-7698.141797,-153.219100,3108.864956
1426.862681,-7179.997637,0.000000,3701.029710
1426.862993,-5847.626942,1608.800546,3034.844362
1426.863304,-5921.647536,766.095498,-296.082377
1426.863616,-5329.482782,-612.876398,-1554.432478
1426.863927,-3330.926739,-689.485948,-814.226536
1426.864239,-3182.885551,-1532.190996,-296.082377
1426.864550,-6957.935855,-2681.334243,962.267725
1426.864861,-13249.686362,-3524.039291,2886.803174
1426.865173,-14804.118840,-4366.744339,3478.967927
1426.865484,-12361.439231,-2451.505594,4145.153275
1426.865796,-10807.006753,306.438199,2960.823768
1426.866107,-10140.821405,-1072.533697,-0.000000
1426.866419,-8142.265362,-3140.991542,-1628.453072
1426.866730,-5625.565159,-2221.676944,-888.247130
1426.867041,-7328.038826,0.000000,-444.123565
1426.867353,-12065.356855,0.000000,-444.123565
1426.867664,-15100.201217,-1302.362347,444.123565
1426.867976,-15248.242405,-612.876398,1924.535449
1426.868287,-12731.542202,0.000000,1554.432478
1426.868599,-11547.212695,-995.924147,-370.102971
1426.868910,-10955.047942,-1685.410096,-1998.556043
1426.869221,-7994.224174,-919.314598,-1776.494261
1426.869533,-7031.956449,-842.705048,-962.267725
1426.869844,-10732.986159,-383.047749,-222.061783
1426.870155,-13323.706956,-1072.533697,-0.000000
1426.870467,-13915.871710,-842.705048,518.144159
1426.870778,-11325.150913,995.924147,1628.453072
1426.871089,-10362.883188,2911.162892,370.102971
1426.871401,-9474.636058,2145.067394,-1628.453072
1426.871712,-7254.018232,76.609550,-1406.391290
1426.872024,-5107.421000,0.000000,-296.082377
1426.872335,-4959.379811,1532.190996,-148.041188
1426.872646,-10362.883188,1991.848295,-148.041188
1426.872958,-12731.542202,1149.143247,1258.350101
1426.873269,-10214.842000,1455.581446,2368.659014
1426.873580,-7994.224174,1991.848295,2516.700203
1426.873892,-6587.832884,1608.800546,888.247130
1426.874203,-7476.080014,0.000000,-1036.288319
1426.874514,-4293.194464,-689.485948,-814.226536
1426.874826,-814.226536,1532.190996,-518.144159
1426.875137,-4367.215058,1685.410096,-888.247130
1426.875448,-8586.388927,153.219100,962.267725
1426.875760,-10955.047942,-459.657299,2664.741391
1426.876071,-9252.574275,536.266849,3478.967927
1426.876382,-6143.709319,2757.943793,2886.803174
1426.876694,-6439.791695,2298.286494,-222.061783
1426.877005,-6513.812290,153.219100,-1258.350101
1426.877316,-2368.659014,306.438199,-1036.288319
1426.877628,-2738.761985,306.438199,-740.205942
1426.877939,-7624.121203,-1991.848295,-0.000000
1426.878251,-12139.377449,-2604.724693,1480.411884
1426.878562,-13693.809927,-3370.820191,2886.803174
1426.878873,-10732.986159,-2451.505594,3701.029710
1426.879185,-10140.821405,-2528.115143,1924.535449
1426.879496,-9548.656652,-3830.477490,-0.000000
1426.879807,-8956.491898,-4213.525239,-1406.391290
1426.880119,-7624.121203,-2604.724693,-740.205942
1426.880430,-8586.388927,-153.219100,-222.061783
1426.880741,-13471.748144,-689.485948,666.185348
1426.881053,-14582.057057,-689.485948,2072.576638
1426.881364,-13619.789333,306.438199,3330.926739
1426.881675,-11843.295072,1685.410096,1924.535449
1426.881987,-10362.883188,1762.019645,-518.144159
1426.882298,-8734.430116,1915.238745,-2368.659014
1426.882609,-5699.585753,1608.800546,-2812.782580
1426.882921,-5921.647536,1608.800546,-2886.803174
1426.883232,-10214.842000,1685.410096,-1850.514855
1426.883543,-14063.912898,229.828649,-148.041188
1426.883855,-14508.036463,-689.485948,1776.494261
1426.884166,-12953.603985,-153.219100,3108.864956
1426.884478,-11769.274478,-919.314598,1998.556043
1426.884789,-9178.553681,-2451.505594,-148.041188
1426.885100,-7254.018232,-2451.505594,-518.144159
1426.885412,-4737.318029,-1838.629195,666.185348
1426.885723,-3404.947333,-306.438199,-148.041188
1426.886034,-8438.347739,153.219100,1110.308913
1426.886346,-11917.315666,-1378.971896,2442.679609
1426.886657,-10140.821405,-612.876398,3478.967927
1426.886968,-8660.409521,2757.943793,2664.741391
1426.887280,-8068.244768,2834.553343,296.082377
1426.887591,-6957.935855,919.314598,-1406.391290
1426.887902,-4441.235652,689.485948,-1776.494261
1426.888214,-2590.720797,2987.772442,-666.185348
1426.888525,-5625.565159,2911.162892,-444.123565
1426.888836,-10066.800811,1225.752797,962.267725
1426.889148,-10955.047942,1072.533697,2220.617826
1426.889459,-8142.265362,1838.629195,1924.535449
1426.889771,-6513.812290,1378.971896,1258.350101
1426.890082,-5403.503377,-153.219100,-1184.329507
1426.890393,-4145.153275,-1608.800546,-1702.473667
1426.890705,-2664.741391,-2604.724693,-814.226536
1426.891016,-4737.318029,-2604.724693,-444.123565
1426.891327,-9918.759623,-1302.362347,740.205942
1426.891639,-13915.871710,-1762.019645,1998.556043
1426.891950,-13471.748144,-2451.505594,3849.070898
1426.892261,-11251.130318,-919.314598,3627.009116
1426.892573,-10362.883188,-995.924147,1258.350101
1426.892884,-9400.615463,-2221.676944,-518.144159
1426.893195,-6661.853478,-1915.238745,-1332.370696
1426.893507,-5773.606348,0.000000,-962.267725
1426.893818,-8438.347739,306.438199,-1110.308913
1426.894129,-12213.398043,-766.095498,-296.082377
1426.894441,-14137.933492,-919.314598,814.226536
1426.894752,-13619.789333,842.705048,1998.556043
1426.895063,-11325.150913,1149.143247,1924.535449
1426.895375,-11399.171507,-766.095498,-148.041188
1426.895686,-9474.636058,-1532.190996,-888.247130
1426.895998,-7105.977043,-1149.143247,-740.205942
1426.896309,-8142.265362,459.657299,-1184.329507
1426.896620,-11547.212695,612.876398,-148.041188
1426.896932,-13693.809927,-306.438199,740.205942
1426.897243,-11843.295072,-229.828649,2886.803174
1426.897554,-9844.739029,306.438199,3108.864956
1426.897866,-8586.388927,229.828649,1406.391290
1426.898177,-8068.244768,-612.876398,-1184.329507
1426.898488,-5847.626942,383.047749,-1332.370696
1426.898800,-5033.400406,1991.848295,-1480.411884
1426.899111,-7476.080014,2911.162892,-1776.494261
1426.899422,-12139.377449,2374.896044,-1332.370696
1426.899734,-13619.789333,1072.533697,1850.514855
1426.900045,-12139.377449,842.705048,4145.153275
1426.900356,-8586.388927,1532.190996,3552.988522
1426.900668,-7402.059420,689.485948,444.123565
1426.900979,-5329.482782,229.828649,222.061783
1426.901290,444.123565,766.095498,-296.082377
1426.901602,444.123565,2604.724693,-1258.350101
1426.901913,-4885.359217,2374.896044,-148.041188
1426.902225,-10214.842000,0.000000,518.144159
1426.902536,-10436.903782,383.047749,2664.741391
1426.902847,-9474.636058,1915.238745,3404.947333
1426.903159,-9474.636058,306.438199,1628.453072
1426.903470,-8956.491898,-2221.676944,-222.061783
1426.903781,-6217.729913,-1838.629195,-1036.288319
1426.904093,-2590.720797,-1762.019645,-1258.350101
1426.904404,-4737.318029,-1915.238745,-222.061783
1426.904715,-10584.944971,-2451.505594,1036.288319
1426.905027,-12287.418637,-3217.601092,2442.679609
1426.905338,-12139.377449,-3830.477490,3256.906145
1426.905649,-10288.862594,-1991.848295,3701.029710
1426.905961,-7994.224174,-1072.533697,1184.329507
1426.906272,-8956.491898,-2911.162892,-2294.638420
1426.906583,-6513.812290,-3064.381992,-0.000000
1426.906895,-6587.832884,-1149.143247,-666.185348
1426.907206,-10658.965565,0.000000,-148.041188
1426.907517,-14582.057057,-766.095498,1184.329507
1426.907829,-15840.407159,-1149.143247,1332.370696
1426.908140,-13175.665768,306.438199,2072.576638
1426.908452,-10510.924376,1378.971896,444.123565
1426.908763,-9104.533087,153.219100,-1258.350101
1426.909074,-7254.018232,-306.438199,-2368.659014
1426.909386,-6217.729913,1455.581446,-2294.638420
1426.909697,-7624.121203,2604.724693,-1184.329507
1426.910008,-12287.418637,1838.629195,-740.205942
1426.910320,-14952.160028,842.705048,1036.288319
1426.910631,-13249.686362,229.828649,1998.556043
1426.910942,-11399.171507,76.609550,2886.803174
1426.911254,-9326.594869,-1072.533697,1332.370696
1426.911565,-9252.574275,-2451.505594,-592.164754
1426.911876,-7624.121203,-2374.896044,1036.288319
1426.912188,-4589.276840,-689.485948,518.144159
1426.912499,-6217.729913,1378.971896,592.164754
1426.912810,-11547.212695,306.438199,666.185348
1426.913122,-11621.233289,1149.143247,1406.391290
1426.913433,-8142.265362,4443.353888,2368.659014
1426.913745,-6365.771101,5515.887586,740.205942
1426.914056,-5477.523971,3294.210641,-370.102971
1426.914367,-5033.400406,1608.800546,-1776.494261
1426.914679,-2368.659014,2834.553343,-0.000000
1426.914990,-2960.823768,3140.991542,-518.144159
1426.915301,-7772.162391,1762.019645,888.247130
1426.915613,-10881.027347,-459.657299,2368.659014
1426.915924,-10955.047942,-1532.190996,2812.782580
1426.916235,-7698.141797,-1608.800546,3182.885551
1426.916547,-7254.018232,-1685.410096,1406.391290
1426.916858,-6143.709319,-2068.457845,-74.020594
1426.917169,-3701.029710,-3140.991542,-1110.308913
1426.917481,-3108.864956,-2834.553343,-370.102971
1426.917792,-6143.709319,-919.314598,814.226536
1426.918103,-11325.150913,-1149.143247,2146.597232
1426.918415,-13249.686362,-3524.039291,2812.782580
1426.918726,-12213.398043,-2068.457845,3701.029710
1426.919037,-10955.047942,-153.219100,2146.597232
1426.919349,-10066.800811,-766.095498,-888.247130
1426.919660,-9400.615463,-1762.019645,-2368.659014
1426.919972,-6365.771101,-153.219100,-1776.494261
1426.920283,-7624.121203,536.266849,-1628.453072
1426.920594,-11473.192101,229.828649,-1258.350101
1426.920906,-14063.912898,0.000000,-148.041188
1426.921217,-13619.789333,0.000000,-74.020594
1426.921528,-9770.718434,1378.971896,1184.329507
1426.921840,-9178.553681,306.438199,-148.041188
1426.922151,-9844.739029,-2068.457845,-2072.576638
1426.922462,-8956.491898,-1608.800546,-1184.329507
1426.922774,-8882.471304,0.000000,666.185348
1426.923085,-10584.944971,536.266849,1110.308913
1426.923396,-15026.180623,76.609550,1480.411884
1426.923708,-15100.201217,-1225.752797,2220.617826
1426.924019,-11325.150913,-153.219100,2812.782580
1426.924330,-8586.388927,919.314598,1480.411884
1426.924642,-7105.977043,306.438199,-592.164754
1426.924953,-7772.162391,-1762.019645,-1924.535449
1426.925264,-4293.194464,-1685.410096,-1110.308913
1426.925576,-4515.256246,306.438199,-1036.288319
1426.925887,-8586.388927,76.609550,-0.000000
1426.926199,-12879.583391,-2757.943793,1924.535449
1426.926510,-12657.521608,-3983.696590,4145.153275
1426.926821,-6661.853478,-2068.457845,3923.091493
1426.927133,-4737.318029,-1608.800546,2886.803174
1426.927444,-4663.297435,-3524.039291,296.082377
1426.927755,-3552.988522,-3447.429741,-592.164754
1426.928067,-1110.308913,-2068.457845,-370.102971
1426.928378,-2368.659014,612.876398,-740.205942
1426.928689,-8364.327145,-766.095498,666.185348
1426.929001,-12657.521608,-1838.629195,1480.411884
1426.929312,-12509.480420,-2834.553343,3849.070898
1426.929623,-9030.512492,-1915.238745,3923.091493
1426.929935,-8290.306550,-1762.019645,2146.597232
1426.930246,-8068.244768,-3600.648841,-296.082377
1426.930557,-5995.668130,-4749.792088,-1776.494261
1426.930869,-3775.050304,-2681.334243,-1554.432478
1426.931180,-3034.844362,-1838.629195,-222.061783
1426.931492,-8142.265362,-5362.668486,1184.329507
1426.931803,-13323.706956,-9729.412825,2738.761985
1426.932114,-12509.480420,-8580.269578,3849.070898
1426.932426,-10436.903782,-4903.011187,1554.432478
1426.932737,-9622.677246,-4826.401637,-740.205942
1426.933048,-10658.965565,-7201.297681,-2738.761985
1426.933360,-8882.471304,-7660.954980,-3552.988522
1426.933671,-7254.018232,-5132.839837,-3256.906145
1426.933982,-10288.862594,-2757.943793,-2220.617826
1426.934294,-13989.892304,-2145.067394,888.247130
1426.934605,-16136.489536,-4213.525239,3627.009116
1426.934916,-16358.551318,-5362.668486,4293.194464
1426.935228,-12435.459826,-3447.429741,2812.782580
1426.935539,-11547.212695,-536.266849,-370.102971
1426.935850,-8586.388927,612.876398,-666.185348
1426.936162,-5773.606348,-919.314598,-3182.885551
1426.936473,-5551.544565,-2221.676944,-5107.421000
1426.936784,-7031.956449,-536.266849,-4589.276840
1426.937096,-9548.656652,153.219100,-2368.659014
1426.937407,-11621.233289,612.876398,-0.000000
1426.937719,-13397.727550,-1225.752797,2442.679609
1426.938030,-14063.912898,-3753.867940,3775.050304
1426.938341,-11769.274478,-4136.915689,3701.029710
1426.938653,-8142.265362,-612.876398,3108.864956
1426.938964,-5921.647536,459.657299,1184.329507
1426.939275,-2146.597232,-1762.019645,-296.082377
1426.939587,-1480.411884,-2987.772442,-2442.679609
1426.939898,-2516.700203,-3753.867940,-1628.453072
1426.940209,-6069.688724,-3064.381992,-740.205942
1426.940521,-8882.471304,-2757.943793,1184.329507
1426.940832,-11029.068536,-3370.820191,1850.514855
1426.941143,-12805.562797,-3600.648841,3552.988522
1426.941455,-11029.068536,-3217.601092,3701.029710
1426.941766,-10066.800811,-1838.629195,3034.844362
1426.942077,-8808.450710,-919.314598,3478.967927
1426.942389,-5773.606348,-689.485948,1850.514855
1426.942700,-2812.782580,459.657299,1776.494261
1426.943011,-2072.576638,459.657299,-592.164754
1426.943323,-1258.350101,-1302.362347,-296.082377
1426.943634,-1850.514855,-4136.915689,-814.226536
1426.943946,-3775.050304,-3907.087040,-814.226536
1426.944257,-7624.121203,-3370.820191,-1406.391290
1426.944568,-12879.583391,-3217.601092,-814.226536
1426.944880,-15396.283594,-2604.724693,370.102971
1426.945191,-15766.386565,-3524.039291,2368.659014
1426.945502,-15544.324782,-4290.134789,4219.173869
1426.945814,-14285.974681,-5362.668486,3701.029710
1426.946125,-11325.150913,-3907.087040,2812.782580
1426.946436,-6661.853478,-3907.087040,1554.432478
1426.946748,-3775.050304,-4366.744339,-148.041188
1426.947059,-2368.659014,-4826.401637,-888.247130
1426.947370,-2220.617826,-5362.668486,-2664.741391
1426.947682,-3775.050304,-5898.935335,-2590.720797
1426.947993,-6587.832884,-5592.497135,-2146.597232
1426.948304,-11547.212695,-5669.106685,-444.123565
1426.948616,-16062.468941,-5822.325785,1036.288319
1426.948927,-18801.230927,-5822.325785,2368.659014
1426.949239,-19245.354492,-4826.401637,3256.906145
1426.949550,-16802.674883,-3600.648841,3923.091493
1426.949861,-13249.686362,-3524.039291,1628.453072
1426.950173,-9400.615463,-4519.963438,1110.308913
1426.950484,-4737.318029,-5286.058936,-0.000000
1426.950795,-1480.411884,-5592.497135,-666.185348
1426.951107,-222.061783,-5132.839837,-1850.514855
1426.951418,-3478.967927,-4443.353888,-2664.741391
1426.951729,-6587.832884,-4060.306139,-1776.494261
1426.952041,-9252.574275,-2681.334243,-1628.453072
1426.952352,-13027.624579,-919.314598,222.061783
1426.952663,-15322.262999,-1915.238745,1406.391290
1426.952975,-15618.345376,-766.095498,2294.638420
1426.953286,-13471.748144,-766.095498,2146.597232
1426.953597,-10584.944971,-766.095498,1184.329507
1426.953909,-7328.038826,-383.047749,148.041188
1426.954220,-6069.688724,-536.266849,-1258.350101
1426.954531,-4959.379811,0.000000,-888.247130
1426.954843,-3552.988522,-995.924147,-1702.473667
1426.955154,-4367.215058,-1149.143247,-962.267725
1426.955466,-4885.359217,-2068.457845,-444.123565
1426.955777,-6069.688724,-3370.820191,-0.000000
1426.956088,-7328.038826,-3983.696590,962.267725
1426.956400,-8438.347739,-3294.210641,666.185348
1426.956711,-10584.944971,-3524.039291,1332.370696
1426.957022,-12435.459826,-3140.991542,1332.370696
1426.957334,-12509.480420,-1991.848295,1628.453072
1426.957645,-11177.109724,-1072.533697,1110.308913
1426.957956,-8364.327145,-2528.115143,1554.432478
1426.958268,-6143.709319,-3370.820191,962.267725
1426.958579,-4515.256246,-3447.429741,518.144159
1426.958890,-3849.070898,-3600.648841,-148.041188
1426.959202,-3478.967927,-3370.820191,-592.164754
1426.959513,-5477.523971,-3600.648841,-518.144159
1426.959824,-7402.059420,-4290.134789,370.102971
1426.960136,-9326.594869,-4213.525239,962.267725
1426.960447,-11843.295072,-4443.353888,1480.411884
1426.960758,-12879.583391,-4519.963438,2664.741391
1426.961070,-13027.624579,-5439.278036,3108.864956
1426.961381,-13027.624579,-5209.449386,2664.741391
1426.961693,-12213.398043,-3907.087040,2220.617826
1426.962004,-11029.068536,-1149.143247,444.123565
1426.962315,-9400.615463,536.266849,-444.123565
1426.962627,-7031.956449,1838.629195,-296.082377
1426.962938,-5995.668130,1762.019645,-814.226536
1426.963249,-5921.647536,153.219100,-222.061783
1426.963561,-6291.750507,-1225.752797,666.185348
1426.963872,-7624.121203,-3217.601092,1258.350101
1426.964183,-9030.512492,-4596.572988,1628.453072
1426.964495,-10955.047942,-6128.763984,1776.494261
1426.964806,-12139.377449,-6205.373534,1406.391290
1426.965117,-12953.603985,-6588.421283,1110.308913
1426.965429,-12435.459826,-5898.935335,740.205942
1426.965740,-11251.130318,-5515.887586,814.226536
1426.966051,-9474.636058,-5669.106685,962.267725
1426.966363,-7550.100608,-5209.449386,1036.288319
1426.966674,-6291.750507,-3064.381992,1184.329507
1426.966985,-5033.400406,-2221.676944,1406.391290
1426.967297,-4441.235652,-2221.676944,666.185348
1426.967608,-4811.338623,-1915.238745,1184.329507
1426.967920,-6143.709319,-689.485948,1184.329507
1426.968231,-9104.533087,-1608.800546,592.164754
1426.968542,-10584.944971,-2374.896044,296.082377
1426.968854,-11917.315666,-1762.019645,-0.000000
1426.969165,-11399.171507,-919.314598,-444.123565
1426.969476,-10658.965565,-1302.362347,-1406.391290
1426.969788,-7328.038826,-1149.143247,-1110.308913
1426.970099,-8142.265362,-2604.724693,-1184.329507
1426.970410,-6143.709319,-2298.286494,-222.061783
1426.970722,-4959.379811,-2068.457845,-444.123565
1426.971033,-6069.688724,-2604.724693,666.185348
1426.971344,-7624.121203,-4290.134789,1406.391290
1426.971656,-10066.800811,-4366.744339,1036.288319
1426.971967,-10436.903782,-3600.648841,962.267725
1426.972279,-9918.759623,-1532.190996,1406.391290
1426.972590,-10436.903782,-3217.601092,1184.329507
1426.972901,-10881.027347,-3907.087040,666.185348
1426.973213,-10288.862594,-3830.477490,666.185348
1426.973524,-9696.697840,-2451.505594,1258.350101
1426.973835,-10436.903782,-1532.190996,1184.329507
1426.974147,-11991.336260,0.000000,370.102971
1426.974458,-10362.883188,153.219100,2146.597232
1426.974770,-9030.512492,-766.095498,1554.432478
1426.975081,-7254.018232,-842.705048,2960.823768
1426.975392,-7402.059420,-612.876398,2146.597232
1426.975704,-8438.347739,-2451.505594,3182.885551
1426.976015,-8808.450710,-3753.867940,4219.173869
1426.976327,-10362.883188,-3064.381992,3404.947333
1426.976638,-10066.800811,-766.095498,5033.400406
1426.976949,-12213.398043,-1225.752797,4441.235652
1426.977261,-11325.150913,-1455.581446,5847.626942
1426.977572,-8216.285956,-229.828649,3182.885551
1426.977883,-7254.018232,1608.800546,3775.050304
1426.978195,-6513.812290,1225.752797,3330.926739
1426.978506,-6735.874072,-689.485948,3256.906145
1426.978818,-7920.203579,-1072.533697,3701.029710
1426.979129,-5477.523971,-383.047749,5329.482782
1426.979440,-9326.594869,-1225.752797,4145.153275
1426.979752,-10584.944971,-689.485948,6439.791695
1426.980063,-10807.006753,-383.047749,6143.709319
1426.980374,-9104.533087,-1455.581446,5625.565159
1426.980686,-7476.080014,-612.876398,5847.626942
1426.980997,-8290.306550,689.485948,4589.276840
1426.981309,-6217.729913,1685.410096,4589.276840
1426.981620,-5403.503377,1762.019645,3552.988522
1426.981931,-4811.338623,2298.286494,4219.173869
1426.982243,-6957.935855,3217.601092,3627.009116
1426.982554,-8512.368333,1991.848295,4811.338623
1426.982866,-8660.409521,1072.533697,4885.359217
1426.983177,-7846.182985,0.000000,5181.441594
1426.983488,-7846.182985,-689.485948,4367.215058
1426.983800,-8364.327145,-1915.238745,4219.173869
1426.984111,-8364.327145,-2987.772442,4811.338623
1426.984422,-7846.182985,-1532.190996,5255.462188
1426.984734,-8364.327145,0.000000,5107.421000
1426.985045,-9622.677246,842.705048,4737.318029
1426.985357,-11103.089130,536.266849,4737.318029
1426.985668,-9770.718434,1762.019645,4811.338623
1426.985979,-8142.265362,1991.848295,4145.153275
1426.986291,-7550.100608,919.314598,3849.070898
1426.986602,-7402.059420,-612.876398,3034.844362
1426.986914,-6661.853478,-919.314598,2738.761985
1426.987225,-5625.565159,-689.485948,3478.967927
1426.987536,-6957.935855,-1608.800546,3404.947333
1426.987848,-9178.553681,-1302.362347,3997.112087
1426.988159,-10510.924376,-1072.533697,4293.194464
1426.988470,-11769.274478,153.219100,4145.153275
1426.988782,-11103.089130,1608.800546,3775.050304
1426.989093,-10584.944971,2145.067394,3478.967927
1426.989405,-9918.759623,1455.581446,1628.453072
1426.989716,-8660.409521,1455.581446,1036.288319
1426.990027,-7624.121203,1378.971896,962.267725
1426.990339,-8290.306550,842.705048,1702.473667
1426.990650,-9918.759623,-1225.752797,2664.741391
1426.990961,-10881.027347,-3217.601092,3627.009116
1426.991273,-10955.047942,-3447.429741,4589.276840
1426.991584,-9770.718434,-3140.991542,4441.235652
1426.991896,-8586.388927,-3064.381992,3997.112087
1426.992207,-7772.162391,-2374.896044,2368.659014
1426.992518,-6661.853478,-536.266849,1406.391290
1426.992830,-6217.729913,919.314598,-0.000000
1426.993141,-7328.038826,1838.629195,-222.061783
1426.993453,-9474.636058,2145.067394,-0.000000
1426.993764,-11843.295072,2451.505594,814.226536
1426.994075,-12879.583391,2298.286494,2516.700203
1426.994387,-12953.603985,1302.362347,3775.050304
1426.994698,-12361.439231,689.485948,3997.112087
1426.995009,-9992.780217,-383.047749,4145.153275
1426.995321,-6883.915261,-1685.410096,2738.761985
1426.995632,-3627.009116,-1685.410096,1406.391290
1426.995944,-2442.679609,-1225.752797,962.267725
1426.996255,-4663.297435,-1302.362347,-0.000000
1426.996566,-6883.915261,-536.266849,1628.453072
1426.996878,-10658.965565,612.876398,3034.844362
1426.997189,-13841.851115,995.924147,4737.318029
1426.997501,-15766.386565,766.095498,6069.688724
1426.997812,-14211.954086,0.000000,6291.750507
1426.998123,-10584.944971,-536.266849,5255.462188
1426.998435,-6365.771101,-842.705048,3330.926739
1426.998746,-2812.782580,-612.876398,1036.288319
1426.999057,-1406.391290,-689.485948,518.144159
1426.999369,-2516.700203,-153.219100,592.164754
1426.999680,-6883.915261,306.438199,2146.597232
1426.999992,-11769.274478,612.876398,3627.009116
1427.000303,-15248.242405,1608.800546,5995.668130
1427.000614,-15026.180623,1225.752797,6217.729913
1427.000926,-12139.377449,689.485948,5477.523971
1427.001237,-8586.388927,-612.876398,4441.235652
1427.001548,-5329.482782,-383.047749,4145.153275
1427.001860,-4589.276840,-459.657299,3330.926739
1427.002171,-5181.441594,153.219100,4663.297435
1427.002483,-7698.141797,0.000000,6143.709319
1427.002794,-10584.944971,76.609550,7254.018232
1427.003105,-11769.274478,306.438199,7846.182985
1427.003417,-10732.986159,1072.533697,5625.565159
1427.003728,-7254.018232,2374.896044,3923.091493
1427.004040,-5551.544565,2681.334243,2146.597232
1427.004351,-5255.462188,2911.162892,1184.329507
1427.004662,-6439.791695,2451.505594,1480.411884
1427.004974,-8734.430116,2068.457845,2960.823768
1427.005285,-10658.965565,612.876398,5033.400406
1427.005596,-12065.356855,-1455.581446,7179.997637
1427.005908,-13101.645173,-2604.724693,8216.285956
1427.006219,-12065.356855,-3600.648841,9326.594869
1427.006531,-11103.089130,-2221.676944,9400.615463
1427.006842,-8956.491898,-1685.410096,7994.224174
1427.007153,-6661.853478,-842.705048,5625.565159
1427.007465,-4219.173869,76.609550,2368.659014
1427.007776,-1628.453072,2068.457845,592.164754
1427.008088,-1776.494261,3830.477490,-370.102971
1427.008399,-4737.318029,3600.648841,592.164754
1427.008710,-7328.038826,1991.848295,2590.720797
1427.009022,-11843.295072,-229.828649,5107.421000
1427.009333,-14434.015869,-2145.067394,7105.977043
1427.009644,-15988.448347,-2451.505594,7328.038826
1427.009956,-14582.057057,-1762.019645,7179.997637
1427.010267,-11325.150913,-612.876398,5773.606348
1427.010579,-8808.450710,-459.657299,4441.235652
1427.010890,-6587.832884,0.000000,3849.070898
1427.011201,-5181.441594,612.876398,3775.050304
1427.011513,-3330.926739,766.095498,3552.988522
1427.011824,-1702.473667,612.876398,2368.659014
1427.012135,-1628.453072,612.876398,370.102971
1427.012447,-1924.535449,459.657299,-296.082377
1427.012758,-5181.441594,842.705048,-444.123565
1427.013070,-11029.068536,-153.219100,1554.432478
1427.013381,-16580.613101,-1072.533697,3182.885551
1427.013692,-20503.704593,-1762.019645,5033.400406
1427.014004,-20873.807564,-1302.362347,6513.812290
1427.014315,-16358.551318,-766.095498,6513.812290
1427.014627,-10214.842000,-1072.533697,4515.256246
1427.014938,-4145.153275,-1302.362347,2220.617826
1427.015249,296.082377,-383.047749,370.102971
1427.015561,2146.597232,306.438199,-2738.761985
1427.015872,-296.082377,1838.629195,-3627.009116
1427.016183,-3923.091493,1532.190996,-2960.823768
1427.016495,-8808.450710,689.485948,-2220.617826
1427.016806,-14211.954086,689.485948,1406.391290
1427.017118,-18949.272115,-383.047749,4737.318029
1427.017429,-21910.095883,-995.924147,7105.977043
1427.017740,-20281.642811,-3217.601092,8216.285956
1427.018052,-15840.407159,-3064.381992,6957.935855
1427.018363,-9400.615463,-2374.896044,5477.523971
1427.018675,-3330.926739,-689.485948,1554.432478
1427.018986,1628.453072,459.657299,-1628.453072
1427.019297,4219.173869,1455.581446,-4293.194464
1427.019609,1332.370696,1608.800546,-3923.091493
1427.019920,-4885.359217,2911.162892,-2294.638420
1427.020231,-12805.562797,3064.381992,888.247130
1427.020543,-19689.478057,2068.457845,4441.235652
1427.020854,-21984.116477,459.657299,7031.956449
1427.021166,-18727.210333,-766.095498,6809.894666
1427.021477,-12879.583391,-1532.190996,5699.585753
1427.021788,-6883.915261,-2145.067394,3108.864956
1427.022100,-814.226536,-1915.238745,444.123565
1427.022411,1110.308913,-766.095498,-814.226536
1427.022722,-592.164754,306.438199,-0.000000
1427.023034,-5477.523971,842.705048,1924.535449
1427.023345,-10732.986159,1225.752797,3182.885551
1427.023657,-12879.583391,1838.629195,4071.132681
1427.023968,-12213.398043,1915.238745,3849.070898
1427.024279,-9178.553681,536.266849,2812.782580
1427.024591,-6809.894666,-995.924147,1036.288319
1427.024902,-5847.626942,-2757.943793,814.226536
1427.025214,-5625.565159,-1685.410096,2220.617826
1427.025525,-7846.182985,-766.095498,3552.988522
1427.025836,-11695.253884,-1378.971896,4737.318029
1427.026148,-13175.665768,-1149.143247,5847.626942
1427.026459,-11991.336260,306.438199,5403.503377
1427.026770,-7772.162391,1455.581446,3256.906145
1427.027082,-2590.720797,2298.286494,-148.041188
1427.027393,-888.247130,2681.334243,-3404.947333
1427.027705,-1406.391290,995.924147,-4737.318029
1427.028016,-2960.823768,842.705048,-2664.741391
1427.028327,-7846.182985,383.047749,-444.123565
1427.028639,-14952.160028,-1225.752797,3330.926739
1427.028950,-20799.786970,-3830.477490,6957.935855
1427.029262,-21391.951724,-4213.525239,9104.533087
1427.029573,-16802.674883,-3447.429741,7698.141797
1427.029884,-10140.821405,-2374.896044,4737.318029
1427.030196,-5477.523971,-1532.190996,-592.164754
1427.030507,-1702.473667,536.266849,-4441.235652
1427.030818,444.123565,3140.991542,-5699.585753
1427.031130,-962.267725,5745.716235,-4959.379811
1427.031441,-8290.306550,6052.154434,-1924.535449
1427.031753,-13915.871710,3447.429741,1702.473667
1427.032064,-15618.345376,-995.924147,3256.906145
1427.032375,-13471.748144,-2911.162892,4219.173869
1427.032687,-11251.130318,-1455.581446,3182.885551
1427.032998,-11695.253884,-2068.457845,1924.535449
1427.033309,-10140.821405,-3294.210641,-74.020594
1427.033621,-7994.224174,-2145.067394,-296.082377
1427.033932,-6809.894666,-689.485948,-740.205942
1427.034244,-6735.874072,1149.143247,-592.164754
1427.034555,-6143.709319,3064.381992,-666.185348
1427.034866,-3997.112087,1149.143247,-1776.494261
1427.035178,-1702.473667,153.219100,-2368.659014
1427.035489,-2590.720797,76.609550,-3256.906145
1427.035801,-7105.977043,383.047749,-2738.761985
1427.036112,-10288.862594,383.047749,-1776.494261
1427.036423,-14063.912898,76.609550,962.267725
1427.036735,-17246.798449,-612.876398,1850.514855
1427.037046,-16580.613101,-536.266849,2516.700203
1427.037357,-12657.521608,-1378.971896,1628.453072
1427.037669,-7698.141797,-1991.848295,-518.144159
1427.037980,-3108.864956,-995.924147,-2886.803174
1427.038292,-1332.370696,-536.266849,-6291.750507
1427.038603,-2590.720797,919.314598,-6809.894666
1427.038914,-5181.441594,1762.019645,-5255.462188
1427.039226,-8956.491898,1685.410096,-2220.617826
1427.039537,-15100.201217,-229.828649,-370.102971
1427.039848,-18283.086767,-1991.848295,2590.720797
1427.040160,-17468.860231,-3064.381992,3478.967927
1427.040471,-14211.954086,-4366.744339,3182.885551
1427.040783,-10955.047942,-5056.230287,1998.556043
1427.041094,-9104.533087,-5286.058936,-1036.288319
1427.041405,-7402.059420,-2987.772442,-1480.411884
1427.041717,-6661.853478,459.657299,-2516.700203
1427.042028,-6957.935855,2681.334243,-1998.556043
1427.042340,-9696.697840,4060.306139,-1406.391290
1427.042651,-10807.006753,2451.505594,-148.041188
1427.042962,-8734.430116,1991.848295,666.185348
1427.043274,-7254.018232,1532.190996,-444.123565
1427.043585,-7031.956449,919.314598,-666.185348
1427.043896,-6587.832884,-689.485948,-518.144159
1427.044208,-7846.182985,-1991.848295,444.123565
1427.044519,-9992.780217,-1608.800546,2368.659014
1427.044831,-13175.665768,-1302.362347,3627.009116
1427.045142,-15174.221811,-1685.410096,4663.297435
1427.045453,-12435.459826,-612.876398,4441.235652
1427.045765,-6587.832884,995.924147,2368.659014
1427.046076,-2146.597232,612.876398,-1036.288319
1427.046388,-296.082377,1302.362347,-3404.947333
1427.046699,-296.082377,2068.457845,-3330.926739
1427.047010,-3627.009116,3064.381992,-2294.638420
1427.047322,-7624.121203,3983.696590,1110.308913
1427.047633,-12953.603985,1838.629195,3701.029710
1427.047944,-15544.324782,-383.047749,6365.771101
1427.048256,-13175.665768,-2681.334243,6883.915261
1427.048567,-8956.491898,-2451.505594,4663.297435
1427.048879,-5847.626942,-766.095498,740.205942
1427.049190,-4737.318029,459.657299,-1332.370696
1427.049501,-6883.915261,0.000000,-2442.679609
1427.049813,-7476.080014,1302.362347,-2368.659014
1427.050124,-9400.615463,3600.648841,-1110.308913
1427.050435,-10955.047942,3907.087040,444.123565
1427.050747,-10140.821405,536.266849,2072.576638
1427.051058,-7476.080014,-3370.820191,1480.411884
1427.051370,-5551.544565,-3907.087040,1184.329507
1427.051681,-7550.100608,-2604.724693,2738.761985
1427.051992,-10510.924376,-3447.429741,4367.215058
1427.052304,-14137.933492,-2987.772442,3108.864956
1427.052615,-15248.242405,-2374.896044,2886.803174
1427.052927,-13989.892304,-612.876398,2368.659014
1427.053238,-10658.965565,766.095498,1036.288319
1427.053549,-6143.709319,1991.848295,-1480.411884
1427.053861,-3478.967927,2068.457845,-3849.070898
1427.054172,-2516.700203,1838.629195,-5033.400406
1427.054483,-4145.153275,1455.581446,-3256.906145
1427.054795,-6735.874072,1455.581446,-1554.432478
1427.055106,-10955.047942,229.828649,1332.370696
1427.055418,-14211.954086,-1149.143247,2960.823768
1427.055729,-15766.386565,-1532.190996,3923.091493
1427.056040,-13767.830521,-1072.533697,4145.153275
1427.056352,-9992.780217,-2298.286494,2886.803174
1427.056663,-6809.894666,-2987.772442,296.082377
1427.056975,-4737.318029,-1991.848295,-1554.432478
1427.057286,-3849.070898,-383.047749,-3330.926739
1427.057597,-4145.153275,1991.848295,-3849.070898
1427.057909,-6365.771101,3677.258390,-2960.823768
1427.058220,-8660.409521,3370.820191,-2146.597232
1427.058531,-11399.171507,2221.676944,-666.185348
1427.058843,-12583.501014,612.876398,1702.473667
1427.059154,-11621.233289,459.657299,1924.535449
1427.059466,-11547.212695,-612.876398,666.185348
1427.059777,-9326.594869,-1378.971896,-296.082377
1427.060088,-8068.244768,-2145.067394,-1628.453072
1427.060400,-7920.203579,-995.924147,-666.185348
1427.060711,-8956.491898,383.047749,-814.226536
1427.061022,-10658.965565,1532.190996,-1184.329507
1427.061334,-10140.821405,536.266849,444.123565
1427.061645,-8660.409521,-306.438199,518.144159
1427.061957,-6513.812290,-536.266849,-518.144159
1427.062268,-5477.523971,-689.485948,-1480.411884
1427.062579,-5921.647536,-842.705048,-1998.556043
1427.062891,-6735.874072,0.000000,-1110.308913
1427.063202,-9474.636058,306.438199,888.247130
1427.063514,-13323.706956,153.219100,1480.411884
1427.063825,-15988.448347,-612.876398,3404.947333
1427.064136,-15248.242405,-306.438199,3182.885551
1427.064448,-11325.150913,-306.438199,1554.432478
1427.064759,-6587.832884,689.485948,-1184.329507
1427.065070,-4293.194464,229.828649,-3256.906145
1427.065382,-3404.947333,0.000000,-4145.153275
1427.065693,-4071.132681,536.266849,-2368.659014
1427.066005,-7920.203579,1225.752797,-888.247130
1427.066316,-12139.377449,536.266849,1332.370696
1427.066627,-12287.418637,-1149.143247,2812.782580
1427.066939,-10584.944971,-2374.896044,3627.009116
1427.067250,-8882.471304,-2298.286494,3330.926739
1427.067562,-9400.615463,-2451.505594,2886.803174
1427.067873,-10732.986159,-2221.676944,2442.679609
1427.068184,-10510.924376,-842.705048,2146.597232
1427.068496,-9252.574275,0.000000,1702.473667
1427.068807,-7550.100608,2604.724693,222.061783
1427.069118,-7179.997637,2911.162892,-666.185348
1427.069430,-7105.977043,2451.505594,-518.144159
1427.069741,-6957.935855,1762.019645,592.164754
1427.070053,-7772.162391,1302.362347,1480.411884
1427.070364,-8808.450710,-536.266849,1332.370696
1427.070675,-8660.409521,-1072.533697,1850.514855
1427.070987,-8290.306550,536.266849,2812.782580
1427.071298,-9622.677246,536.266849,3701.029710
1427.071609,-11399.171507,-612.876398,3478.967927
1427.071921,-11547.212695,-919.314598,4441.235652
1427.072232,-9252.574275,-919.314598,3775.050304
1427.072543,-5403.503377,-766.095498,2220.617826
1427.072855,-2960.823768,-383.047749,-74.020594
1427.073166,-3330.926739,306.438199,-2960.823768
1427.073477,-4441.235652,1378.971896,-2294.638420
1427.073789,-5329.482782,1838.629195,-1406.391290
1427.074100,-9622.677246,2221.676944,444.123565
1427.074411,-14063.912898,1762.019645,3256.906145
1427.074723,-15840.407159,536.266849,4885.359217
1427.075034,-13841.851115,0.000000,4885.359217
1427.075346,-9474.636058,0.000000,2886.803174
1427.075657,-6439.791695,76.609550,296.082377
1427.075968,-5255.462188,-612.876398,-1258.350101
1427.076280,-4515.256246,-153.219100,-1776.494261
1427.076591,-6957.935855,919.314598,-2072.576638
1427.076902,-10214.842000,1378.971896,-1036.288319
1427.077214,-12509.480420,995.924147,370.102971
1427.077525,-11843.295072,-306.438199,1924.535449
1427.077836,-9178.553681,-2528.115143,1554.432478
1427.078148,-8216.285956,-3447.429741,962.267725
1427.078459,-8586.388927,-2757.943793,444.123565
1427.078770,-8660.409521,-2681.334243,1110.308913
1427.079082,-9326.594869,-995.924147,1702.473667
1427.079393,-12213.398043,-842.705048,1480.411884
1427.079704,-14063.912898,-153.219100,1998.556043
1427.080016,-12583.501014,306.438199,1554.432478
1427.080327,-9696.697840,766.095498,1332.370696
1427.080638,-6661.853478,1378.971896,-592.164754
1427.080950,-4811.338623,536.266849,-3108.864956
1427.081261,-3775.050304,-153.219100,-3034.844362
1427.081572,-4663.297435,76.609550,-1850.514855
1427.081884,-7698.141797,919.314598,814.226536
1427.082195,-12065.356855,766.095498,2072.576638
1427.082506,-14952.160028,0.000000,4219.173869
1427.082818,-13397.727550,-1149.143247,4219.173869
1427.083129,-9474.636058,-2681.334243,3701.029710
1427.083440,-5477.523971,-2221.676944,888.247130
1427.083752,-4219.173869,-1762.019645,-2442.679609
1427.084063,-3923.091493,-612.876398,-3552.988522
1427.084374,-4737.318029,689.485948,-3108.864956
1427.084686,-7328.038826,1532.190996,-1332.370696
1427.084997,-10881.027347,1532.190996,-888.247130
1427.085309,-13027.624579,1149.143247,148.041188
1427.085620,-12065.356855,1762.019645,2220.617826
1427.085931,-10510.924376,1991.848295,1554.432478
1427.086243,-9474.636058,1532.190996,814.226536
1427.086554,-9104.533087,306.438199,-0.000000
1427.086865,-8734.430116,383.047749,-222.061783
1427.087177,-8290.306550,1149.143247,-740.205942
1427.087488,-8660.409521,1991.848295,-1406.391290
1427.087799,-9474.636058,1762.019645,-1110.308913
1427.088111,-9252.574275,76.609550,-74.020594
1427.088422,-8438.347739,-1378.971896,148.041188
1427.088733,-7698.141797,-1915.238745,-0.000000
1427.089045,-8142.265362,-1915.238745,296.082377
1427.089356,-10214.842000,-1685.410096,296.082377
1427.089667,-10658.965565,-536.266849,2146.597232
1427.089979,-10288.862594,-842.705048,1924.535449
1427.090290,-10881.027347,-1608.800546,1406.391290
1427.090601,-9548.656652,-1225.752797,1702.473667
1427.090913,-9918.759623,0.000000,2812.782580
1427.091224,-9326.594869,-383.047749,2368.659014
1427.091535,-9474.636058,-459.657299,962.267725
1427.091847,-8660.409521,-76.609550,-0.000000
1427.092158,-6217.729913,0.000000,-148.041188
1427.092469,-4959.379811,612.876398,-222.061783
1427.092781,-6365.771101,1455.581446,-222.061783
1427.093092,-9474.636058,1302.362347,1406.391290
1427.093403,-11621.233289,0.000000,3849.070898
1427.093715,-11029.068536,-919.314598,4737.318029
1427.094026,-9770.718434,-1225.752797,4071.132681
1427.094337,-8808.450710,-1302.362347,2664.741391
1427.094649,-6587.832884,-1072.533697,2294.638420
1427.094960,-5329.482782,-153.219100,222.061783
1427.095271,-6291.750507,842.705048,296.082377
1427.095583,-8068.244768,1225.752797,-0.000000
1427.095894,-10362.883188,689.485948,1184.329507
1427.096206,-9844.739029,153.219100,2738.761985
1427.096517,-9030.512492,0.000000,1554.432478
1427.096828,-7698.141797,383.047749,666.185348
1427.097140,-6143.709319,612.876398,518.144159
1427.097451,-6661.853478,383.047749,-0.000000
1427.097762,-8216.285956,306.438199,1776.494261
1427.098074,-10955.047942,842.705048,2812.782580
1427.098385,-13101.645173,766.095498,2960.823768
1427.098696,-12139.377449,1149.143247,3256.906145
1427.099008,-9030.512492,306.438199,1480.411884
1427.099319,-5181.441594,-612.876398,-222.061783
1427.099630,-2738.761985,-1302.362347,-2220.617826
1427.099942,-2812.782580,-842.705048,-3108.864956
1427.100253,-5033.400406,612.876398,-1776.494261
1427.100564,-7920.203579,766.095498,-666.185348
1427.100876,-12287.418637,536.266849,1628.453072
1427.101187,-15026.180623,-306.438199,2960.823768
1427.101498,-14804.118840,-459.657299,3330.926739
1427.101810,-11473.192101,-612.876398,1850.514855
1427.102121,-7920.203579,-612.876398,-888.247130
1427.102432,-5033.400406,-536.266849,-3108.864956
1427.102744,-5107.421000,-1455.581446,-3923.091493
1427.103055,-5995.668130,-1378.971896,-2812.782580
1427.103366,-10066.800811,-1072.533697,-2368.659014
1427.103678,-13323.706956,0.000000,-1184.329507
1427.103989,-14804.118840,0.000000,1184.329507
1427.104300,-14211.954086,-1455.581446,888.247130
1427.104612,-10807.006753,-1915.238745,-222.061783
1427.104923,-6439.791695,-1991.848295,-1850.514855
1427.105234,-5255.462188,-1455.581446,-3478.967927
1427.105546,-4737.318029,229.828649,-4219.173869
1427.105857,-7254.018232,919.314598,-2294.638420
1427.106169,-12139.377449,306.438199,-1184.329507
1427.106480,-15692.365970,0.000000,1998.556043
1427.106791,-15544.324782,-229.828649,1998.556043
1427.107103,-11843.295072,-306.438199,296.082377
1427.107414,-6365.771101,0.000000,-2368.659014
1427.107725,-2516.700203,-459.657299,-5033.400406
1427.108037,-1628.453072,-842.705048,-5699.585753
1427.108348,-4145.153275,995.924147,-3182.885551
1427.108659,-10881.027347,2298.286494,592.164754
1427.108971,-16950.716072,612.876398,4441.235652
1427.109282,-18135.045579,-383.047749,6217.729913
1427.109593,-13249.686362,-689.485948,4663.297435
1427.109905,-6217.729913,-459.657299,1702.473667
1427.110216,-3330.926739,-459.657299,-888.247130
1427.110527,-1998.556043,-1302.362347,-3701.029710
1427.110839,-2664.741391,-1072.533697,-3478.967927
1427.111150,-6883.915261,-612.876398,-1110.308913
1427.111461,-10658.965565,229.828649,2072.576638
1427.111773,-13619.789333,689.485948,3627.009116
1427.112084,-13471.748144,0.000000,4219.173869
1427.112395,-9548.656652,0.000000,3256.906145
1427.112707,-6439.791695,153.219100,1702.473667
1427.113018,-5995.668130,1225.752797,1110.308913
1427.113329,-6809.894666,1532.190996,222.061783
1427.113641,-8586.388927,1149.143247,1850.514855
1427.113952,-10214.842000,919.314598,1850.514855
1427.114263,-10955.047942,1532.190996,2220.617826
1427.114575,-10066.800811,919.314598,2738.761985
1427.114886,-8438.347739,-153.219100,2738.761985
1427.115197,-6735.874072,-2604.724693,1406.391290
1427.115509,-5699.585753,-2298.286494,1110.308913
1427.115820,-6661.853478,-2528.115143,-0.000000
1427.116131,-7550.100608,-1532.190996,518.144159
1427.116443,-8512.368333,306.438199,814.226536
1427.116754,-9400.615463,1072.533697,592.164754
1427.117066,-11251.130318,995.924147,2220.617826
1427.117377,-11843.295072,919.314598,3108.864956
1427.117688,-10436.903782,-383.047749,3849.070898
1427.118000,-7994.224174,-842.705048,2368.659014
1427.118311,-5773.606348,-689.485948,-740.205942
1427.118622,-5477.523971,76.609550,-2368.659014
1427.118934,-5625.565159,1225.752797,-2294.638420
1427.119245,-7328.038826,842.705048,-1702.473667
1427.119556,-10362.883188,306.438199,-0.000000
1427.119868,-12879.583391,536.266849,1998.556043
1427.120179,-13323.706956,-306.438199,3404.947333
1427.120490,-10955.047942,-995.924147,2664.741391
1427.120802,-7994.224174,-1915.238745,1406.391290
1427.121113,-6439.791695,-2451.505594,-444.123565
1427.121424,-5255.462188,-1915.238745,-1850.514855
1427.121736,-5995.668130,153.219100,-2368.659014
1427.122047,-8660.409521,766.095498,-2368.659014
1427.122358,-12139.377449,1302.362347,-370.102971
1427.122670,-14804.118840,-766.095498,962.267725
1427.122981,-14137.933492,-1608.800546,1628.453072
1427.123292,-11103.089130,-1378.971896,296.082377
1427.123604,-7624.121203,0.000000,-1406.391290
1427.123915,-4737.318029,76.609550,-2738.761985
1427.124226,-6809.894666,689.485948,-3108.864956
1427.124538,-7624.121203,1532.190996,-1184.329507
1427.124849,-10807.006753,1685.410096,-0.000000
1427.125160,-13545.768739,1302.362347,1184.329507
1427.125472,-12435.459826,1225.752797,1628.453072
1427.125783,-9030.512492,0.000000,222.061783
1427.126094,-5551.544565,-1225.752797,-1554.432478
1427.126406,-3997.112087,-2221.676944,-2738.761985
1427.126717,-3849.070898,-1072.533697,-3997.112087
1427.127029,-5699.585753,153.219100,-3478.967927
1427.127340,-9178.553681,1762.019645,-1702.473667
1427.127651,-12065.356855,1608.800546,222.061783
1427.127963,-13397.727550,536.266849,1702.473667
1427.128274,-12509.480420,153.219100,1628.453072
1427.128585,-10288.862594,995.924147,888.247130
1427.128897,-9252.574275,1072.533697,-0.000000
1427.129208,-7550.100608,459.657299,-74.020594
1427.129519,-6143.709319,-766.095498,-1480.411884
1427.129831,-5847.626942,-2451.505594,-2146.597232
1427.130142,-7031.956449,-1149.143247,-1332.370696
1427.130453,-9696.697840,919.314598,1036.288319
1427.130765,-12805.562797,-153.219100,2368.659014
1427.131076,-13545.768739,-2604.724693,3627.009116
1427.131387,-12213.398043,-2604.724693,3182.885551
1427.131699,-8586.388927,-1685.410096,1998.556043
1427.132010,-5847.626942,766.095498,962.267725
1427.132321,-5995.668130,612.876398,-222.061783
1427.132633,-7698.141797,459.657299,444.123565
1427.132944,-10066.800811,229.828649,888.247130
1427.133255,-10881.027347,153.219100,2960.823768
1427.133567,-11547.212695,383.047749,4145.153275
1427.133878,-11029.068536,-229.828649,3923.091493
1427.134189,-8956.491898,-1685.410096,2294.638420
1427.134501,-6513.812290,-2298.286494,740.205942
1427.134812,-3478.967927,-1072.533697,666.185348
1427.135123,-4219.173869,-153.219100,962.267725
1427.135435,-7846.182985,536.266849,1702.473667
1427.135746,-11917.315666,766.095498,2664.741391
1427.136057,-12657.521608,1762.019645,4737.318029
1427.136369,-10955.047942,1532.190996,5107.421000
1427.136680,-7772.162391,995.924147,2886.803174
1427.136991,-5255.462188,612.876398,888.247130
1427.137303,-3923.091493,0.000000,-518.144159
1427.137614,-3404.947333,612.876398,-888.247130
1427.137926,-5477.523971,1608.800546,148.041188
1427.138237,-8734.430116,1455.581446,222.061783
1427.138548,-11177.109724,995.924147,888.247130
1427.138860,-11399.171507,229.828649,2368.659014
1427.139171,-10214.842000,-689.485948,1258.350101
1427.139482,-7994.224174,919.314598,1480.411884
1427.139794,-5551.544565,-153.219100,-74.020594
1427.140105,-5699.585753,-459.657299,-1036.288319
1427.140416,-7254.018232,0.000000,-518.144159
1427.140728,-10510.924376,153.219100,740.205942
1427.141039,-13249.686362,306.438199,1554.432478
1427.141350,-13027.624579,0.000000,2368.659014
1427.141662,-10807.006753,-766.095498,1998.556043
1427.141973,-6735.874072,-1685.410096,-0.000000
1427.142284,-5551.544565,-2451.505594,-1998.556043
1427.142596,-6069.688724,-1762.019645,-3108.864956
1427.142907,-7920.203579,-229.828649,-2442.679609
1427.143218,-10658.965565,1532.190996,-592.164754
1427.143530,-13989.892304,1225.752797,-0.000000
1427.143841,-15618.345376,766.095498,2072.576638
1427.144152,-13767.830521,229.828649,2442.679609
1427.144464,-9770.718434,-459.657299,962.267725
1427.144775,-5995.668130,-1608.800546,-1924.535449
1427.145086,-3849.070898,-1838.629195,-3775.050304
1427.145398,-3923.091493,-842.705048,-4145.153275
1427.145709,-6809.894666,0.000000,-2738.761985
1427.146020,-11695.253884,-536.266849,-1184.329507
1427.146332,-15174.221811,459.657299,2072.576638
1427.146643,-16432.571912,1608.800546,3256.906145
1427.146954,-13101.645173,536.266849,2590.720797
1427.147266,-8142.265362,76.609550,888.247130
1427.147577,-5181.441594,153.219100,-1850.514855
1427.147888,-3182.885551,612.876398,-2146.597232
1427.148200,-4219.173869,995.924147,-1924.535449
1427.148511,-7328.038826,1302.362347,222.061783
1427.148823,-12065.356855,689.485948,444.123565
1427.149134,-12805.562797,459.657299,2738.761985
1427.149445,-11547.212695,-612.876398,3330.926739
1427.149757,-8956.491898,-1838.629195,1554.432478
1427.150068,-6735.874072,-1608.800546,-444.123565
1427.150379,-5329.482782,-76.609550,-1258.350101
1427.150691,-5181.441594,0.000000,-1184.329507
1427.151002,-7105.977043,0.000000,666.185348
1427.151313,-10881.027347,1149.143247,2960.823768
1427.151625,-14508.036463,1991.848295,4367.215058
1427.151936,-14285.974681,2374.896044,6291.750507
1427.152247,-10732.986159,766.095498,5995.668130
1427.152559,-6143.709319,-2145.067394,3182.885551
1427.152870,-2368.659014,-3064.381992,814.226536
1427.153181,-666.185348,-1608.800546,-962.267725
1427.153493,-2960.823768,153.219100,-1332.370696
1427.153804,-7772.162391,1532.190996,-222.061783
1427.154115,-13027.624579,1455.581446,1480.411884
1427.154427,-15322.262999,383.047749,4663.297435
1427.154738,-13397.727550,-766.095498,6069.688724
1427.155049,-9252.574275,-842.705048,4071.132681
1427.155361,-5995.668130,-383.047749,1554.432478
1427.155672,-3701.029710,229.828649,-888.247130
1427.155983,-2886.803174,76.609550,-1184.329507
1427.156295,-5625.565159,153.219100,-148.041188
1427.156606,-9770.718434,459.657299,370.102971
1427.156917,-13027.624579,536.266849,1110.308913
1427.157229,-13397.727550,766.095498,2294.638420
1427.157540,-11843.295072,76.609550,2664.741391
1427.157851,-8438.347739,-1762.019645,2220.617826
1427.158163,-5995.668130,-2911.162892,-814.226536
1427.158474,-4515.256246,-1532.190996,-2072.576638
1427.158786,-5477.523971,919.314598,-2960.823768
1427.159097,-8808.450710,3294.210641,-1702.473667
1427.159408,-13693.809927,3064.381992,222.061783
1427.159720,-16136.489536,1685.410096,1554.432478
1427.160031,-15174.221811,0.000000,3552.988522
1427.160342,-10807.006753,-1455.581446,2442.679609
1427.160654,-5921.647536,-1455.581446,-740.205942
1427.160965,-3108.864956,-995.924147,-3330.926739
1427.161276,-2516.700203,-1225.752797,-3849.070898
1427.161588,-6069.688724,-919.314598,-2294.638420
1427.161899,-10732.986159,-766.095498,-148.041188
1427.162210,-15026.180623,-459.657299,1998.556043
1427.162522,-15988.448347,-306.438199,3701.029710
1427.162833,-12361.439231,-459.657299,3997.112087
1427.163144,-7846.182985,-1455.581446,1924.535449
1427.163456,-4885.359217,-2221.676944,296.082377
1427.163767,-3923.091493,-2528.115143,-2294.638420
1427.164078,-4293.194464,-536.266849,-2146.597232
1427.164390,-6143.709319,1838.629195,-1480.411884
1427.164701,-9918.759623,2068.457845,-666.185348
1427.165012,-12509.480420,1225.752797,-74.020594
1427.165324,-11695.253884,1149.143247,-148.041188
1427.165635,-9326.594869,842.705048,-0.000000
1427.165946,-6513.812290,1915.238745,-444.123565
1427.166258,-6143.709319,1225.752797,-962.267725
1427.166569,-7254.018232,612.876398,-1850.514855
1427.166880,-8808.450710,153.219100,-1110.308913
1427.167192,-9400.615463,919.314598,444.123565
1427.167503,-11547.212695,919.314598,444.123565
1427.167814,-12361.439231,1225.752797,2146.597232
1427.168126,-10732.986159,-306.438199,2368.659014
1427.168437,-7994.224174,-2451.505594,666.185348
1427.168748,-5847.626942,-2757.943793,-0.000000
1427.169060,-6217.729913,-1608.800546,-1850.514855
1427.169371,-7254.018232,-1072.533697,-2072.576638
1427.169683,-8438.347739,229.828649,-1702.473667
1427.169994,-10436.903782,1378.971896,-888.247130
1427.170305,-12879.583391,2221.676944,888.247130
1427.170617,-15618.345376,1762.019645,2738.761985
1427.170928,-14804.118840,1225.752797,3552.988522
1427.171239,-11621.233289,459.657299,3108.864956
1427.171551,-7624.121203,-766.095498,2072.576638
1427.171862,-3923.091493,-2374.896044,-0.000000
1427.172174,-1036.288319,-2528.115143,-2146.597232
1427.172485,-1850.514855,-1302.362347,-1258.350101
1427.172797,-7550.100608,-612.876398,518.144159
1427.173108,-13397.727550,-766.095498,3108.864956
1427.173420,-16210.510130,-1149.143247,5255.462188
1427.173731,-14878.139434,-2145.067394,5551.544565
1427.174042,-9474.636058,-1991.848295,3478.967927
1427.174354,-5773.606348,-842.705048,518.144159
1427.174665,-4737.318029,459.657299,-814.226536
1427.174977,-4293.194464,1608.800546,-888.247130
1427.175288,-6883.915261,842.705048,962.267725
1427.175600,-10288.862594,1608.800546,2146.597232
1427.175911,-12879.583391,1455.581446,4071.132681
1427.176223,-11251.130318,-459.657299,3404.947333
1427.176534,-6439.791695,-459.657299,1184.329507
1427.176845,-2738.761985,842.705048,-1628.453072
1427.177157,-2516.700203,1302.362347,-3034.844362
1427.177468,-4959.379811,995.924147,-1850.514855
1427.177780,-7698.141797,842.705048,-814.226536
1427.178091,-11769.274478,842.705048,740.205942
1427.178403,-14952.160028,612.876398,2738.761985
1427.178714,-12805.562797,919.314598,3923.091493
1427.179025,-8734.430116,306.438199,1924.535449
1427.179337,-5329.482782,-766.095498,-0.000000
1427.179648,-4737.318029,-1455.581446,-1554.432478
1427.179960,-4885.359217,-383.047749,-2368.659014
1427.180271,-6513.812290,1378.971896,-2146.597232
1427.180583,-10140.821405,1225.752797,-1776.494261
1427.180894,-13027.624579,306.438199,-888.247130
1427.181206,-13323.706956,306.438199,-0.000000
1427.181517,-11103.089130,-229.828649,222.061783
1427.181828,-8660.409521,-689.485948,-148.041188
1427.182140,-8216.285956,-995.924147,-1036.288319
1427.182451,-8068.244768,-1072.533697,-1332.370696
1427.182763,-9400.615463,-1915.238745,-666.185348
1427.183074,-11103.089130,-1838.629195,-0.000000
1427.183386,-12435.459826,-919.314598,370.102971
1427.183697,-12805.562797,0.000000,-222.061783
1427.184009,-10214.842000,-766.095498,-0.000000
1427.184320,-7772.162391,-1762.019645,-1110.308913
1427.184631,-5699.585753,-1302.362347,-2294.638420
1427.184943,-6513.812290,-306.438199,-2590.720797
1427.185254,-7550.100608,-919.314598,-2516.700203
1427.185566,-10214.842000,306.438199,-518.144159
1427.185877,-13175.665768,2374.896044,814.226536
1427.186189,-14211.954086,1532.190996,1480.411884
1427.186500,-14730.098246,383.047749,1998.556043
1427.186812,-11843.295072,306.438199,2368.659014
1427.187123,-7846.182985,153.219100,592.164754
1427.187434,-5699.585753,0.000000,-1406.391290
1427.187746,-5033.400406,-919.314598,-2294.638420
1427.188057,-5329.482782,-1838.629195,-2590.720797
1427.188369,-4885.359217,-689.485948,-814.226536
1427.188680,-7624.121203,0.000000,-0.000000
1427.188992,-11695.253884,-306.438199,2146.597232
1427.189303,-14211.954086,-536.266849,3701.029710
1427.189614,-11251.130318,0.000000,5255.462188
1427.189926,-7624.121203,-383.047749,2886.803174
1427.190237,-5921.647536,-842.705048,1332.370696
1427.190549,-5699.585753,0.000000,-222.061783
1427.190860,-5033.400406,1762.019645,-666.185348
1427.191172,-5921.647536,2451.505594,888.247130
1427.191483,-8808.450710,2145.067394,2072.576638
1427.191795,-10584.944971,1225.752797,2516.700203
1427.192106,-8438.347739,-229.828649,2146.597232
1427.192417,-5773.606348,-2068.457845,-0.000000
1427.192729,-4071.132681,306.438199,-444.123565
1427.193040,-5699.585753,1149.143247,-296.082377
1427.193352,-8882.471304,0.000000,222.061783
1427.193663,-10807.006753,-1608.800546,1998.556043
1427.193975,-13323.706956,-1762.019645,3923.091493
1427.194286,-12879.583391,-919.314598,3627.009116
1427.194598,-10214.842000,-306.438199,2886.803174
1427.194909,-7624.121203,-1762.019645,814.226536
1427.195220,-5329.482782,-2604.724693,-222.061783
1427.195532,-5403.503377,-2374.896044,-1628.453072
1427.195843,-7920.203579,-1149.143247,-1554.432478
1427.196155,-11103.089130,842.705048,-518.144159
1427.196466,-13027.624579,2451.505594,518.144159
1427.196778,-12953.603985,2451.505594,1184.329507
1427.197089,-11843.295072,1225.752797,444.123565
1427.197401,-9770.718434,536.266849,592.164754
1427.197712,-7846.182985,1072.533697,296.082377
1427.198023,-6883.915261,1302.362347,-1258.350101
1427.198335,-6883.915261,153.219100,-1406.391290
1427.198646,-8882.471304,-919.314598,-1258.350101
1427.198958,-10140.821405,-842.705048,-0.000000
1427.199269,-10584.944971,-383.047749,370.102971
1427.199581,-10807.006753,0.000000,-0.000000
1427.199892,-10955.047942,-1915.238745,1628.453072
1427.200203,-8734.430116,-2221.676944,2072.576638
1427.200515,-7179.997637,-2911.162892,1258.350101
1427.200826,-7105.977043,-2374.896044,962.267725
1427.201138,-8068.244768,-2145.067394,148.041188
1427.201449,-8512.368333,-383.047749,-296.082377
1427.201761,-8586.388927,2145.067394,444.123565
1427.202072,-9992.780217,1455.581446,666.185348
1427.202384,-11029.068536,1072.533697,1406.391290
1427.202695,-11029.068536,306.438199,2516.700203
1427.203006,-10658.965565,0.000000,1924.535449
1427.203318,-7698.141797,153.219100,444.123565
1427.203629,-5921.647536,766.095498,-1554.432478
1427.203941,-4293.194464,919.314598,-2368.659014
1427.204252,-3849.070898,1455.581446,-1554.432478
1427.204564,-5699.585753,1072.533697,-962.267725
1427.204875,-9548.656652,1838.629195,222.061783
1427.205187,-12435.459826,1532.190996,2664.741391
1427.205498,-13323.706956,-536.266849,4145.153275
1427.205809,-11399.171507,-1149.143247,3330.926739
1427.206121,-8808.450710,-1532.190996,2072.576638
1427.206432,-6439.791695,-1915.238745,-740.205942
1427.206744,-3849.070898,-1302.362347,-2368.659014
1427.207055,-4441.235652,612.876398,-2368.659014
1427.207367,-8142.265362,766.095498,-1628.453072
1427.207678,-10881.027347,766.095498,296.082377
1427.207990,-13693.809927,306.438199,1924.535449
1427.208301,-13545.768739,689.485948,2812.782580
1427.208612,-10955.047942,766.095498,1850.514855
1427.208924,-8216.285956,153.219100,666.185348
1427.209235,-5403.503377,1149.143247,-1110.308913
1427.209547,-5773.606348,1455.581446,-2368.659014
1427.209858,-7772.162391,383.047749,-1036.288319
1427.210170,-11177.109724,76.609550,296.082377
1427.210481,-14211.954086,536.266849,2294.638420
1427.210793,-13693.809927,-229.828649,3701.029710
1427.211104,-11251.130318,-3217.601092,2738.761985
1427.211415,-6291.750507,-4213.525239,1110.308913
1427.211727,-2146.597232,-3753.867940,-1480.411884
1427.212038,-2812.782580,-1378.971896,-1480.411884
1427.212350,-7994.224174,-306.438199,148.041188
1427.212661,-12731.542202,229.828649,814.226536
1427.212973,-15766.386565,229.828649,2220.617826
1427.213284,-15248.242405,1072.533697,3849.070898
1427.213595,-12139.377449,1072.533697,3923.091493
1427.213907,-9252.574275,536.266849,1628.453072
1427.214218,-6661.853478,-306.438199,-592.164754
1427.214530,-3849.070898,-689.485948,-1850.514855
1427.214841,-3627.009116,-229.828649,-1184.329507
1427.215153,-5403.503377,995.924147,-518.144159
1427.215464,-9696.697840,1225.752797,-148.041188
1427.215776,-12065.356855,459.657299,1480.411884
1427.216087,-11547.212695,842.705048,2738.761985
1427.216398,-8438.347739,919.314598,2738.761985
1427.216710,-6513.812290,-306.438199,2516.700203
1427.217021,-6365.771101,-2451.505594,1110.308913
1427.217333,-5403.503377,-1991.848295,-148.041188
1427.217644,-5477.523971,536.266849,-962.267725
1427.217956,-6661.853478,1838.629195,-370.102971
1427.218267,-8882.471304,1225.752797,-0.000000
1427.218579,-11251.130318,0.000000,1110.308913
1427.218890,-12287.418637,-306.438199,2220.617826
1427.219201,-12805.562797,-229.828649,2590.720797
1427.219513,-10510.924376,459.657299,1776.494261
1427.219824,-8068.244768,842.705048,370.102971
1427.220136,-6143.709319,0.000000,-740.205942
1427.220447,-5477.523971,-459.657299,-1258.350101
1427.220759,-7328.038826,612.876398,-444.123565
1427.221070,-9770.718434,2451.505594,1036.288319
1427.221382,-11251.130318,919.314598,2812.782580
1427.221693,-11473.192101,-1991.848295,2738.761985
1427.222004,-9622.677246,-2987.772442,1924.535449
1427.222316,-7476.080014,-2145.067394,518.144159
1427.222627,-6439.791695,-1072.533697,-1110.308913
1427.222939,-6809.894666,153.219100,-1702.473667
1427.223250,-8512.368333,766.095498,-2072.576638
1427.223562,-10066.800811,1608.800546,-666.185348
1427.223873,-12139.377449,1991.848295,1480.411884
1427.224184,-13915.871710,1225.752797,2294.638420
1427.224496,-12657.521608,536.266849,2368.659014
1427.224807,-9696.697840,-459.657299,740.205942
1427.225119,-6365.771101,-766.095498,-222.061783
1427.225430,-5847.626942,-383.047749,-888.247130
1427.225742,-7031.956449,-383.047749,-814.226536
1427.226053,-9474.636058,-1455.581446,-1036.288319
1427.226365,-11843.295072,-1532.190996,-0.000000
1427.226676,-12287.418637,383.047749,2294.638420
1427.226987,-11473.192101,153.219100,1998.556043
1427.227299,-9252.574275,-1302.362347,1036.288319
1427.227610,-6587.832884,-1838.629195,-0.000000
1427.227922,-5625.565159,-842.705048,-666.185348
1427.228233,-5773.606348,2451.505594,-0.000000
1427.228545,-8734.430116,3677.258390,518.144159
1427.228856,-11769.274478,1455.581446,1480.411884
1427.229168,-12805.562797,229.828649,2812.782580
1427.229479,-9918.759623,-1302.362347,2590.720797
1427.229790,-5551.544565,-995.924147,148.041188
1427.230102,-3256.906145,-229.828649,-1332.370696
1427.230413,-4959.379811,-536.266849,-1332.370696
1427.230725,-7772.162391,-1455.581446,-592.164754
1427.231036,-9474.636058,-1915.238745,-0.000000
1427.231348,-10584.944971,-612.876398,1332.370696
1427.231659,-11621.233289,1072.533697,2368.659014
1427.231971,-11177.109724,1762.019645,2072.576638
1427.232282,-10066.800811,459.657299,1480.411884
1427.232593,-7920.203579,-995.924147,592.164754
1427.232905,-5625.565159,-536.266849,-0.000000
1427.233216,-5699.585753,612.876398,-1406.391290
1427.233528,-5995.668130,1225.752797,-1332.370696
1427.233839,-7846.182985,612.876398,-1924.535449
1427.234151,-10066.800811,536.266849,-1406.391290
1427.234462,-11621.233289,1532.190996,-148.041188
1427.234774,-11473.192101,1149.143247,1332.370696
1427.235085,-10732.986159,-766.095498,1332.370696
1427.235396,-9770.718434,-689.485948,222.061783
1427.235708,-7698.141797,766.095498,-888.247130
1427.236019,-6735.874072,1915.238745,-1480.411884
1427.236331,-7254.018232,383.047749,-148.041188
1427.236642,-9844.739029,0.000000,1258.350101
1427.236954,-12065.356855,-689.485948,1628.453072
1427.237265,-12805.562797,-1149.143247,2590.720797
1427.237576,-11547.212695,-1838.629195,2442.679609
1427.237888,-8882.471304,-2528.115143,1258.350101
1427.238199,-6513.812290,-2604.724693,-370.102971
1427.238511,-5625.565159,-2987.772442,-2072.576638
1427.238822,-6957.935855,-1608.800546,-1628.453072
1427.239134,-8882.471304,383.047749,-0.000000
1427.239445,-11251.130318,1455.581446,1702.473667
1427.239757,-13101.645173,612.876398,3404.947333
1427.240068,-13323.706956,-459.657299,4293.194464
1427.240379,-10658.965565,0.000000,3627.009116
1427.240691,-7179.997637,-153.219100,1036.288319
1427.241002,-4441.235652,0.000000,-666.185348
1427.241314,-3701.029710,76.609550,-2220.617826
1427.241625,-4885.359217,229.828649,-1554.432478
1427.241937,-8068.244768,76.609550,-666.185348
1427.242248,-11695.253884,306.438199,962.267725
1427.242560,-13471.748144,306.438199,2960.823768
1427.242871,-11843.295072,153.219100,3478.967927
1427.243182,-8512.368333,153.219100,2960.823768
1427.243494,-5699.585753,0.000000,1480.411884
1427.243805,-5107.421000,-459.657299,-0.000000
1427.244117,-4737.318029,459.657299,-518.144159
1427.244428,-6069.688724,1072.533697,-370.102971
1427.244740,-8734.430116,1072.533697,-814.226536
1427.245051,-11103.089130,995.924147,-148.041188
1427.245363,-10807.006753,383.047749,814.226536
1427.245674,-9400.615463,-459.657299,296.082377
1427.245985,-8512.368333,-766.095498,-1036.288319
1427.246297,-7328.038826,459.657299,-1628.453072
1427.246608,-6735.874072,1455.581446,-1628.453072
1427.246920,-7698.141797,1149.143247,-1332.370696
1427.247231,-10288.862594,1378.971896,148.041188
1427.247543,-13101.645173,1838.629195,666.185348
1427.247854,-13323.706956,2604.724693,2738.761985
1427.248165,-11843.295072,0.000000,2442.679609
1427.248477,-8882.471304,-2604.724693,814.226536
1427.248788,-4367.215058,-4519.963438,-1850.514855
1427.249100,-2146.597232,-3983.696590,-3034.844362
1427.249411,-4663.297435,-2068.457845,-2664.741391
1427.249723,-9770.718434,-1149.143247,-1554.432478
1427.250034,-15618.345376,-1838.629195,-74.020594
1427.250346,-17616.901420,-1378.971896,2516.700203
1427.250657,-15766.386565,-306.438199,4071.132681
1427.250968,-11103.089130,0.000000,2516.700203
1427.251280,-7550.100608,306.438199,-0.000000
1427.251591,-4885.359217,153.219100,-2442.679609
1427.251903,-3701.029710,459.657299,-2812.782580
1427.252214,-5033.400406,1532.190996,-1776.494261
1427.252526,-8364.327145,1991.848295,222.061783
1427.252837,-13323.706956,306.438199,1184.329507
