#time,accel_x,accel_y,accel_z
1372.963705,-8956.491898,-383.047749,592.164754
1372.964017,-8882.471304,0.000000,444.123565
1372.964328,-8512.368333,76.609550,592.164754
1372.964640,-9030.512492,0.000000,592.164754
1372.964952,-8956.491898,0.000000,518.144159
1372.965263,-8882.471304,76.609550,518.144159
1372.965575,-8882.471304,-306.438199,592.164754
1372.965886,-8808.450710,-306.438199,518.144159
1372.966198,-8586.388927,-459.657299,518.144159
1372.966509,-9030.512492,153.219100,222.061783
1372.966821,-9178.553681,229.828649,740.205942
1372.967132,-8734.430116,76.609550,666.185348
1372.967444,-9030.512492,-229.828649,518.144159
1372.967755,-8882.471304,-229.828649,444.123565
1372.968067,-8882.471304,612.876398,666.185348
1372.968379,-8882.471304,-536.266849,740.205942
1372.968690,-8808.450710,153.219100,444.123565
1372.969002,-8734.430116,-153.219100,444.123565
1372.969313,-8734.430116,229.828649,592.164754
1372.969625,-9030.512492,0.000000,518.144159
1372.969936,-8882.471304,0.000000,518.144159
1372.970248,-8956.491898,0.000000,592.164754
1372.970559,-8808.450710,0.000000,666.185348
1372.970871,-8956.491898,153.219100,740.205942
1372.971182,-8808.450710,536.266849,222.061783
1372.971494,-8808.450710,383.047749,222.061783
1372.971805,-8660.409521,0.000000,518.144159
1372.972117,-8882.471304,0.000000,592.164754
1372.972429,-9104.533087,0.000000,518.144159
1372.972740,-9178.553681,0.000000,518.144159
1372.973052,-8956.491898,0.000000,592.164754
1372.973363,-9104.533087,-229.828649,296.082377
1372.973675,-8364.327145,306.438199,444.123565
1372.973986,-8808.450710,153.219100,-0.000000
1372.974298,-9178.553681,0.000000,296.082377
1372.974609,-8808.450710,0.000000,518.144159
1372.974921,-8956.491898,0.000000,518.144159
1372.975232,-8882.471304,0.000000,666.185348
1372.975544,-8216.285956,-153.219100,962.267725
1372.975856,-8660.409521,0.000000,370.102971
1372.976167,-9030.512492,229.828649,518.144159
1372.976479,-8882.471304,-536.266849,666.185348
1372.976790,-8808.450710,-383.047749,518.144159
1372.977102,-8882.471304,0.000000,592.164754
1372.977413,-9030.512492,-383.047749,592.164754
1372.977725,-9030.512492,-306.438199,444.123565
1372.978036,-9030.512492,153.219100,444.123565
1372.978348,-8808.450710,-153.219100,592.164754
1372.978659,-8882.471304,-459.657299,666.185348
1372.978971,-8882.471304,-306.438199,888.247130
1372.979283,-9030.512492,-153.219100,592.164754
1372.979594,-8882.471304,-229.828649,666.185348
1372.979906,-8882.471304,0.000000,592.164754
1372.980217,-8808.450710,-536.266849,666.185348
1372.980529,-8660.409521,0.000000,222.061783
1372.980840,-9104.533087,-153.219100,74.020594
1372.981152,-8586.388927,-153.219100,370.102971
1372.981463,-8956.491898,-229.828649,296.082377
1372.981775,-9030.512492,-229.828649,518.144159
1372.982086,-9030.512492,-153.219100,444.123565
1372.982398,-9030.512492,0.000000,370.102971
1372.982710,-9178.553681,76.609550,296.082377
1372.983021,-8808.450710,76.609550,518.144159
1372.983333,-8956.491898,-689.485948,666.185348
1372.983644,-8882.471304,-612.876398,518.144159
1372.983956,-9030.512492,-153.219100,444.123565
1372.984267,-9030.512492,153.219100,518.144159
1372.984579,-8956.491898,0.000000,666.185348
1372.984890,-8882.471304,-153.219100,370.102971
1372.985202,-8512.368333,0.000000,592.164754
1372.985513,-8956.491898,0.000000,222.061783
1372.985825,-9030.512492,153.219100,444.123565
1372.986136,-9104.533087,76.609550,518.144159
1372.986448,-8734.430116,0.000000,666.185348
1372.986760,-8808.450710,0.000000,518.144159
1372.987071,-9030.512492,0.000000,592.164754
1372.987383,-8956.491898,153.219100,666.185348
1372.987694,-8882.471304,229.828649,370.102971
1372.988006,-8882.471304,0.000000,222.061783
1372.988317,-8734.430116,-153.219100,666.185348
1372.988629,-9178.553681,0.000000,518.144159
1372.988940,-8882.471304,0.000000,444.123565
1372.989252,-8882.471304,153.219100,518.144159
1372.989563,-8808.450710,0.000000,666.185348
1372.989875,-8808.450710,0.000000,666.185348
1372.990187,-8882.471304,0.000000,518.144159
1372.990498,-8808.450710,153.219100,444.123565
1372.990810,-9252.574275,-536.266849,296.082377
1372.991121,-8882.471304,0.000000,222.061783
1372.991433,-8882.471304,0.000000,592.164754
1372.991744,-9030.512492,0.000000,592.164754
1372.992056,-8882.471304,0.000000,518.144159
1372.992367,-8586.388927,76.609550,666.185348
1372.992679,-9252.574275,0.000000,-0.000000
1372.992990,-9770.718434,536.266849,1036.288319
1372.993302,-11769.274478,2145.067394,-0.000000
1372.993614,-9770.718434,4290.134789,444.123565
1372.993925,-8068.244768,4749.792088,592.164754
1372.994237,-7105.977043,2451.505594,1332.370696
1372.994548,-6365.771101,-383.047749,888.247130
1372.994860,-7402.059420,-1762.019645,-370.102971
1372.995171,-6883.915261,-1072.533697,-148.041188
1372.995483,-8882.471304,-766.095498,-888.247130
1372.995794,-12953.603985,-689.485948,-1628.453072
1372.996106,-11325.150913,383.047749,148.041188
1372.996417,-9696.697840,153.219100,740.205942
1372.996729,-8734.430116,-612.876398,2812.782580
1372.997040,-11177.109724,-536.266849,2220.617826
1372.997352,-10066.800811,2987.772442,1924.535449
1372.997664,-5699.585753,5286.058936,2590.720797
1372.997975,-5995.668130,3907.087040,1628.453072
1372.998287,-7772.162391,1762.019645,148.041188
1372.998598,-7031.956449,3447.429741,-1406.391290
1372.998910,-8290.306550,3524.039291,-2146.597232
1372.999221,-9252.574275,3907.087040,-592.164754
1372.999533,-10362.883188,2987.772442,-962.267725
1372.999844,-14508.036463,536.266849,-518.144159
1373.000156,-10436.903782,-919.314598,2590.720797
1373.000467,-8734.430116,-306.438199,1036.288319
1373.000779,-9178.553681,3447.429741,1776.494261
1373.001091,-7402.059420,6741.640382,2368.659014
1373.001402,-9104.533087,3677.258390,1776.494261
1373.001714,-6365.771101,3524.039291,2590.720797
1373.002025,-6587.832884,6435.202183,1036.288319
1373.002337,-8290.306550,7584.345430,-370.102971
1373.002648,-9326.594869,5975.544884,-1480.411884
1373.002960,-9770.718434,4673.182538,-1036.288319
1373.003271,-9178.553681,5515.887586,-1776.494261
1373.003583,-11029.068536,5745.716235,-0.000000
1373.003894,-11399.171507,4366.744339,592.164754
1373.004206,-10881.027347,3753.867940,2442.679609
1373.004518,-10214.842000,3830.477490,2664.741391
1373.004829,-7550.100608,5439.278036,2516.700203
1373.005141,-5773.606348,5439.278036,666.185348
1373.005452,-5847.626942,5132.839837,666.185348
1373.005764,-4737.318029,5056.230287,-0.000000
1373.006075,-5255.462188,4903.011187,-814.226536
1373.006387,-7476.080014,4673.182538,-444.123565
1373.006698,-9178.553681,3294.210641,-740.205942
1373.007010,-10066.800811,2068.457845,-74.020594
1373.007321,-10140.821405,1302.362347,814.226536
1373.007633,-10140.821405,842.705048,1628.453072
1373.007944,-11325.150913,0.000000,1628.453072
1373.008256,-10658.965565,1838.629195,2294.638420
1373.008568,-8734.430116,3677.258390,1702.473667
1373.008879,-7105.977043,4749.792088,370.102971
1373.009191,-6439.791695,3370.820191,148.041188
1373.009502,-7105.977043,3370.820191,-888.247130
1373.009814,-5847.626942,3983.696590,-370.102971
1373.010125,-6291.750507,2987.772442,-1554.432478
1373.010437,-8364.327145,459.657299,-1036.288319
1373.010748,-10436.903782,-1915.238745,-370.102971
1373.011060,-11917.315666,-2451.505594,740.205942
1373.011371,-13101.645173,-2451.505594,1480.411884
1373.011683,-13915.871710,-1378.971896,2072.576638
1373.011995,-13915.871710,0.000000,1776.494261
1373.012306,-12583.501014,1915.238745,740.205942
1373.012618,-9104.533087,3907.087040,518.144159
1373.012929,-6735.874072,3907.087040,-74.020594
1373.013241,-6069.688724,4519.963438,-0.000000
1373.013552,-6291.750507,5056.230287,-0.000000
1373.013864,-7105.977043,4213.525239,-0.000000
1373.014175,-8586.388927,2298.286494,-444.123565
1373.014487,-11325.150913,1532.190996,-148.041188
1373.014798,-12731.542202,842.705048,-296.082377
1373.015110,-13841.851115,306.438199,-296.082377
1373.015422,-13915.871710,306.438199,296.082377
1373.015733,-13323.706956,1838.629195,518.144159
1373.016045,-10807.006753,3294.210641,1332.370696
1373.016356,-7698.141797,4596.572988,1480.411884
1373.016668,-5255.462188,4826.401637,1998.556043
1373.016979,-2738.761985,5056.230287,592.164754
1373.017291,-740.205942,6128.763984,-0.000000
1373.017602,-1554.432478,4979.620737,-1258.350101
1373.017914,-4663.297435,3524.039291,-888.247130
1373.018225,-9400.615463,2451.505594,-814.226536
1373.018537,-13249.686362,2987.772442,222.061783
1373.018848,-15618.345376,3140.991542,1628.453072
1373.019160,-16284.530724,3447.429741,2590.720797
1373.019472,-13915.871710,3907.087040,2590.720797
1373.019783,-9252.574275,3524.039291,3108.864956
1373.020095,-5255.462188,3217.601092,1776.494261
1373.020406,-1924.535449,4366.744339,962.267725
1373.020718,-1258.350101,6665.030833,-296.082377
1373.021029,-2220.617826,7048.078582,-1924.535449
1373.021341,-5107.421000,5515.887586,-1628.453072
1373.021652,-7772.162391,4136.915689,-1184.329507
1373.021964,-10066.800811,2451.505594,-0.000000
1373.022275,-11251.130318,76.609550,518.144159
1373.022587,-12287.418637,-2757.943793,1628.453072
1373.022899,-13323.706956,-3217.601092,1406.391290
1373.023210,-12805.562797,-2145.067394,2072.576638
1373.023522,-12879.583391,383.047749,1924.535449
1373.023833,-11843.295072,3064.381992,1998.556043
1373.024145,-10732.986159,5745.716235,2664.741391
1373.024456,-7476.080014,5592.497135,1998.556043
1373.024768,-5625.565159,5515.887586,1480.411884
1373.025079,-5551.544565,4136.915689,-296.082377
1373.025391,-5995.668130,2987.772442,-1776.494261
1373.025702,-7402.059420,3677.258390,-3108.864956
1373.026014,-9992.780217,4903.011187,-3034.844362
1373.026326,-12065.356855,4136.915689,-2442.679609
1373.026637,-12953.603985,3294.210641,-592.164754
1373.026949,-12583.501014,1762.019645,1924.535449
1373.027260,-12213.398043,612.876398,2886.803174
1373.027572,-11843.295072,2374.896044,2738.761985
1373.027883,-10066.800811,4596.572988,2368.659014
1373.028195,-7846.182985,6741.640382,-0.000000
1373.028506,-5255.462188,6511.811733,-148.041188
1373.028818,-5329.482782,4519.963438,-1850.514855
1373.029129,-6661.853478,2374.896044,-1406.391290
1373.029441,-7105.977043,2221.676944,-1554.432478
1373.029752,-9104.533087,1685.410096,-444.123565
1373.030064,-9400.615463,459.657299,518.144159
1373.030376,-9770.718434,-2451.505594,1924.535449
1373.030687,-9252.574275,-4903.011187,2812.782580
1373.030999,-7550.100608,-4519.963438,2516.700203
1373.031310,-7772.162391,459.657299,962.267725
1373.031622,-8512.368333,5286.058936,-296.082377
1373.031933,-8882.471304,7814.174080,-518.144159
1373.032245,-9252.574275,6894.859482,666.185348
1373.032556,-8660.409521,4443.353888,1184.329507
1373.032868,-8734.430116,2068.457845,1332.370696
1373.033179,-8068.244768,1685.410096,518.144159
1373.033491,-7328.038826,2145.067394,888.247130
1373.033803,-7550.100608,1378.971896,222.061783
1373.034114,-5477.523971,-612.876398,1480.411884
1373.034426,-4811.338623,-2451.505594,-0.000000
1373.034737,-6143.709319,-3140.991542,-518.144159
1373.035049,-9104.533087,-459.657299,-666.185348
1373.035360,-11695.253884,2068.457845,-1406.391290
1373.035672,-12953.603985,3677.258390,-740.205942
1373.035983,-14063.912898,2681.334243,1628.453072
1373.036294,-14508.036463,612.876398,3256.906145
1373.036606,-13915.871710,-1991.848295,3256.906145
1373.036917,-10881.027347,-1072.533697,3034.844362
1373.037228,-7772.162391,-1532.190996,2442.679609
1373.037540,-4589.276840,-2834.553343,1554.432478
1373.037851,-3034.844362,-5286.058936,888.247130
1373.038163,-4071.132681,-7967.393179,296.082377
1373.038474,-3997.112087,-6588.421283,-592.164754
1373.038785,-7031.956449,-1838.629195,-1776.494261
1373.039097,-11547.212695,2911.162892,-2442.679609
1373.039408,-15692.365970,3140.991542,-1110.308913
1373.039719,-17394.839637,2451.505594,1406.391290
1373.040031,-16802.674883,689.485948,3034.844362
1373.040342,-15322.262999,0.000000,3478.967927
1373.040653,-10881.027347,459.657299,1998.556043
1373.040965,-5847.626942,1225.752797,296.082377
1373.041276,0.000000,-459.657299,148.041188
1373.041587,3552.988522,-3524.039291,-0.000000
1373.041899,-1110.308913,-5515.887586,-518.144159
1373.042210,-3923.091493,-3677.258390,-1406.391290
1373.042522,-7550.100608,2604.724693,-2294.638420
1373.042833,-12657.521608,5132.839837,-2368.659014
1373.043144,-16580.613101,4979.620737,-1332.370696
1373.043456,-18949.272115,2451.505594,-0.000000
1373.043767,-17987.004391,1455.581446,962.267725
1373.044078,-14878.139434,3983.696590,1480.411884
1373.044390,-9918.759623,5362.668486,1406.391290
1373.044701,-4589.276840,995.924147,2146.597232
1373.045012,1332.370696,-5056.230287,2738.761985
1373.045324,2590.720797,-8656.879127,1258.350101
1373.045635,-1258.350101,-7354.516781,148.041188
1373.045947,-4589.276840,-536.266849,-3997.112087
1373.046258,-9622.677246,5515.887586,-4441.235652
1373.046569,-14285.974681,6128.763984,-2664.741391
1373.046881,-17690.922014,4596.572988,-444.123565
1373.047192,-20281.642811,1149.143247,1850.514855
1373.047503,-17542.880825,1685.410096,3182.885551
1373.047815,-12879.583391,3907.087040,4071.132681
1373.048126,-6883.915261,3600.648841,2368.659014
1373.048437,-1406.391290,-919.314598,1480.411884
1373.048749,2442.679609,-4060.306139,740.205942
1373.049060,814.226536,-5132.839837,666.185348
1373.049372,-2146.597232,-2451.505594,-1036.288319
1373.049683,-5921.647536,2757.943793,-2664.741391
1373.049994,-11103.089130,3600.648841,-1258.350101
1373.050306,-15692.365970,1378.971896,962.267725
1373.050617,-18727.210333,-689.485948,2368.659014
1373.050928,-17024.736666,-459.657299,2146.597232
1373.051240,-14952.160028,2834.553343,2220.617826
1373.051551,-10807.006753,4366.744339,1406.391290
1373.051862,-6661.853478,2298.286494,666.185348
1373.052174,-1776.494261,-3983.696590,888.247130
1373.052485,740.205942,-7277.907231,1998.556043
1373.052796,-1924.535449,-6281.983084,2886.803174
1373.053108,-2516.700203,-2911.162892,-148.041188
1373.053419,-5181.441594,1302.362347,-740.205942
1373.053731,-10955.047942,-612.876398,-0.000000
1373.054042,-15914.427753,-1455.581446,1332.370696
1373.054353,-18949.272115,-919.314598,2294.638420
1373.054665,-18061.024985,1915.238745,1110.308913
1373.054976,-14730.098246,3064.381992,2220.617826
1373.055287,-9696.697840,842.705048,1184.329507
1373.055599,-6291.750507,-3830.477490,962.267725
1373.055910,-2442.679609,-7814.174080,444.123565
1373.056221,148.041188,-6511.811733,962.267725
1373.056533,-3552.988522,-1915.238745,962.267725
1373.056844,-6661.853478,1225.752797,444.123565
1373.057156,-9252.574275,459.657299,-1036.288319
1373.057467,-11621.233289,-383.047749,222.061783
1373.057778,-12953.603985,536.266849,-0.000000
1373.058090,-15100.201217,1915.238745,-0.000000
1373.058401,-13989.892304,3753.867940,-148.041188
1373.058712,-11473.192101,2451.505594,-592.164754
1373.059024,-7105.977043,-919.314598,-0.000000
1373.059335,-4737.318029,-5056.230287,-74.020594
1373.059646,-2960.823768,-5132.839837,-666.185348
1373.059958,-3552.988522,-2757.943793,-1110.308913
1373.060269,-6661.853478,306.438199,-740.205942
1373.060581,-8660.409521,2068.457845,-888.247130
1373.060892,-12731.542202,1685.410096,-0.000000
1373.061203,-14878.139434,995.924147,1406.391290
1373.061515,-15692.365970,2911.162892,740.205942
1373.061826,-13397.727550,5822.325785,666.185348
1373.062137,-9474.636058,5669.106685,-0.000000
1373.062449,-6365.771101,1685.410096,-814.226536
1373.062760,-3478.967927,-1762.019645,-1110.308913
1373.063071,-3108.864956,-3753.867940,-1628.453072
1373.063383,-5255.462188,-2604.724693,-1628.453072
1373.063694,-7920.203579,0.000000,-1184.329507
1373.064005,-10066.800811,2451.505594,-370.102971
1373.064317,-12435.459826,306.438199,962.267725
1373.064628,-14434.015869,-1762.019645,3330.926739
1373.064940,-14878.139434,-306.438199,3330.926739
1373.065251,-12139.377449,3447.429741,2368.659014
1373.065562,-9030.512492,4749.792088,1036.288319
1373.065874,-5255.462188,1991.848295,-296.082377
1373.066185,-1628.453072,-919.314598,-1184.329507
1373.066496,-1554.432478,-3753.867940,-1628.453072
1373.066808,-3034.844362,-3907.087040,-1110.308913
1373.067119,-5921.647536,689.485948,-0.000000
1373.067430,-9770.718434,2681.334243,1332.370696
1373.067742,-13027.624579,0.000000,2664.741391
1373.068053,-15988.448347,-2987.772442,4441.235652
1373.068365,-16580.613101,-995.924147,4071.132681
1373.068676,-13471.748144,3524.039291,2960.823768
1373.068987,-8734.430116,5132.839837,370.102971
1373.069299,-5551.544565,3447.429741,-962.267725
1373.069610,-2664.741391,-612.876398,-888.247130
1373.069921,-1110.308913,-4290.134789,-740.205942
1373.070233,-2294.638420,-5592.497135,148.041188
1373.070544,-5699.585753,-1838.629195,-0.000000
1373.070855,-10214.842000,-306.438199,-0.000000
1373.071167,-13693.809927,-1838.629195,1184.329507
1373.071478,-16284.530724,-2987.772442,2886.803174
1373.071790,-17098.757260,-2145.067394,3404.947333
1373.072101,-15322.262999,383.047749,2960.823768
1373.072412,-12287.418637,3064.381992,1998.556043
1373.072724,-7402.059420,2451.505594,1184.329507
1373.073035,-2960.823768,-459.657299,-666.185348
1373.073346,-370.102971,-4136.915689,-888.247130
1373.073658,-962.267725,-4519.963438,-1406.391290
1373.073969,-4145.153275,-1455.581446,-1702.473667
1373.074280,-7698.141797,1532.190996,-1332.370696
1373.074592,-11769.274478,1455.581446,444.123565
1373.074903,-14952.160028,-612.876398,1924.535449
1373.075215,-16506.592507,-2145.067394,3775.050304
1373.075526,-16580.613101,-383.047749,3108.864956
1373.075837,-12953.603985,1685.410096,2664.741391
1373.076149,-9030.512492,3370.820191,-0.000000
1373.076460,-4589.276840,1915.238745,-518.144159
1373.076771,-518.144159,-1685.410096,-2146.597232
1373.077083,0.000000,-4366.744339,-2886.803174
1373.077394,-1850.514855,-3140.991542,-2516.700203
1373.077705,-5847.626942,383.047749,-2738.761985
1373.078017,-10066.800811,1991.848295,-1406.391290
1373.078328,-14211.954086,76.609550,962.267725
1373.078639,-17468.860231,-2221.676944,3108.864956
1373.078951,-18061.024985,-766.095498,3923.091493
1373.079262,-15470.304188,3447.429741,2960.823768
1373.079574,-10214.842000,5592.497135,1406.391290
1373.079885,-5921.647536,3064.381992,-296.082377
1373.080196,-2368.659014,-1532.190996,-1924.535449
1373.080508,370.102971,-3600.648841,-3330.926739
1373.080819,-1184.329507,-1991.848295,-3701.029710
1373.081130,-5773.606348,919.314598,-2664.741391
1373.081442,-9696.697840,2374.896044,-2072.576638
1373.081753,-14211.954086,0.000000,518.144159
1373.082064,-17172.777854,-2604.724693,3330.926739
1373.082376,-18505.148550,-2528.115143,4071.132681
1373.082687,-17394.839637,2145.067394,3256.906145
1373.082999,-11991.336260,4136.915689,1554.432478
1373.083310,-6809.894666,2911.162892,444.123565
1373.083621,-2220.617826,-229.828649,-888.247130
1373.083933,518.144159,-2451.505594,-1850.514855
1373.084244,-1258.350101,-3217.601092,-2368.659014
1373.084555,-4737.318029,-153.219100,-2146.597232
1373.084867,-8068.244768,3370.820191,-1702.473667
1373.085178,-12065.356855,2681.334243,-148.041188
1373.085489,-14952.160028,-536.266849,2368.659014
1373.085801,-17024.736666,-1532.190996,3404.947333
1373.086112,-15544.324782,842.705048,4145.153275
1373.086424,-12435.459826,2681.334243,3478.967927
1373.086735,-7994.224174,2528.115143,2664.741391
1373.087046,-3775.050304,-459.657299,1332.370696
1373.087358,-518.144159,-3370.820191,592.164754
1373.087669,74.020594,-5132.839837,-1628.453072
1373.087980,-1850.514855,-1532.190996,-2072.576638
1373.088292,-5477.523971,2604.724693,-1924.535449
1373.088603,-9622.677246,2451.505594,-592.164754
1373.088914,-13027.624579,-919.314598,2220.617826
1373.089226,-16210.510130,-2987.772442,4071.132681
1373.089537,-16284.530724,-536.266849,4737.318029
1373.089848,-13989.892304,1838.629195,4145.153275
1373.090160,-9474.636058,3140.991542,2442.679609
1373.090471,-5551.544565,1685.410096,1406.391290
1373.090783,-2442.679609,-2528.115143,518.144159
1373.091094,-1702.473667,-4903.011187,-370.102971
1373.091405,-3849.070898,-2451.505594,-1776.494261
1373.091717,-6291.750507,2987.772442,-1850.514855
1373.092028,-9326.594869,3064.381992,-2146.597232
1373.092339,-12287.418637,919.314598,222.061783
1373.092651,-15100.201217,-1838.629195,2146.597232
1373.092962,-15544.324782,-1838.629195,2960.823768
1373.093273,-14508.036463,2145.067394,2960.823768
1373.093585,-11917.315666,3907.087040,1924.535449
1373.093896,-8290.306550,1762.019645,1036.288319
1373.094208,-4441.235652,-2681.334243,666.185348
1373.094519,-1628.453072,-4443.353888,-0.000000
1373.094830,-1332.370696,-3830.477490,-1628.453072
1373.095142,-4367.215058,-229.828649,-2442.679609
1373.095453,-7698.141797,2145.067394,-2220.617826
1373.095764,-12065.356855,842.705048,-1110.308913
1373.096076,-15026.180623,-995.924147,592.164754
1373.096387,-16876.695478,-842.705048,1258.350101
1373.096698,-16432.571912,1915.238745,962.267725
1373.097010,-12731.542202,4443.353888,962.267725
1373.097321,-8660.409521,3447.429741,148.041188
1373.097633,-5551.544565,-766.095498,444.123565
1373.097944,-2294.638420,-3830.477490,444.123565
1373.098255,-666.185348,-4213.525239,-1332.370696
1373.098567,-4219.173869,-1072.533697,-2220.617826
1373.098878,-8660.409521,2221.676944,-1998.556043
1373.099189,-10214.842000,2911.162892,-2664.741391
1373.099501,-13101.645173,1608.800546,-148.041188
1373.099812,-15766.386565,-536.266849,1628.453072
1373.100123,-16136.489536,536.266849,1850.514855
1373.100435,-14211.954086,3370.820191,2442.679609
1373.100746,-8882.471304,4213.525239,1184.329507
1373.101057,-5625.565159,1072.533697,1184.329507
1373.101369,-1998.556043,-2374.896044,222.061783
1373.101680,-1110.308913,-3064.381992,-962.267725
1373.101992,-2442.679609,-2145.067394,-1406.391290
1373.102303,-6587.832884,2068.457845,-740.205942
1373.102614,-11029.068536,2681.334243,296.082377
1373.102926,-14137.933492,0.000000,1258.350101
1373.103237,-16580.613101,-2374.896044,2738.761985
1373.103548,-15766.386565,-919.314598,3182.885551
1373.103860,-13027.624579,4060.306139,2368.659014
1373.104171,-8956.491898,4673.182538,2072.576638
1373.104482,-5255.462188,1378.971896,296.082377
1373.104794,-2220.617826,-1149.143247,370.102971
1373.105105,-888.247130,-2451.505594,-592.164754
1373.105417,-2072.576638,-1838.629195,-814.226536
1373.105728,-5699.585753,1225.752797,-1332.370696
1373.106039,-8956.491898,2757.943793,-888.247130
1373.106351,-12657.521608,1225.752797,444.123565
1373.106662,-15174.221811,-1838.629195,2738.761985
1373.106973,-16580.613101,-1225.752797,3701.029710
1373.107285,-15174.221811,0.000000,3478.967927
1373.107596,-11473.192101,1072.533697,2590.720797
1373.107907,-6957.935855,536.266849,1332.370696
1373.108219,-2738.761985,-1838.629195,518.144159
1373.108530,-962.267725,-4673.182538,-370.102971
1373.108842,-1850.514855,-5592.497135,-296.082377
1373.109153,-4071.132681,-1072.533697,222.061783
1373.109464,-8660.409521,1608.800546,-0.000000
1373.109776,-12065.356855,306.438199,1628.453072
1373.110087,-14582.057057,-2681.334243,2442.679609
1373.110398,-15766.386565,-2451.505594,2664.741391
1373.110710,-13989.892304,1225.752797,2072.576638
1373.111021,-11251.130318,3600.648841,518.144159
1373.111332,-7920.203579,3217.601092,-592.164754
1373.111644,-4441.235652,-459.657299,-444.123565
1373.111955,-2294.638420,-3753.867940,-814.226536
1373.112266,-2220.617826,-4443.353888,-1184.329507
1373.112578,-4885.359217,-1378.971896,-962.267725
1373.112889,-8068.244768,1838.629195,-1554.432478
1373.113201,-10658.965565,1838.629195,-666.185348
1373.113512,-13841.851115,-842.705048,666.185348
1373.113823,-16136.489536,-2221.676944,1924.535449
1373.114135,-16062.468941,-229.828649,2368.659014
1373.114446,-14434.015869,2911.162892,1406.391290
1373.114757,-10881.027347,3217.601092,148.041188
1373.115069,-7031.956449,919.314598,-666.185348
1373.115380,-2886.803174,-2298.286494,-888.247130
1373.115691,-2072.576638,-3907.087040,-1406.391290
1373.116003,-3997.112087,-2068.457845,-1702.473667
1373.116314,-6587.832884,2528.115143,-2220.617826
1373.116626,-10214.842000,4136.915689,-1332.370696
1373.116937,-12583.501014,1608.800546,962.267725
1373.117248,-15396.283594,0.000000,2442.679609
1373.117560,-15766.386565,1378.971896,2294.638420
1373.117871,-14211.954086,4366.744339,1924.535449
1373.118182,-9770.718434,5592.497135,1480.411884
1373.118494,-5773.606348,2987.772442,-0.000000
1373.118805,-3108.864956,-766.095498,-962.267725
1373.119116,-1480.411884,-3600.648841,-1702.473667
1373.119428,-2664.741391,-3217.601092,-2294.638420
1373.119739,-4663.297435,842.705048,-2146.597232
1373.120051,-7624.121203,2604.724693,-1332.370696
1373.120362,-11029.068536,-612.876398,888.247130
1373.120673,-14656.077652,-3524.039291,3627.009116
1373.120985,-16432.571912,-3677.258390,4885.359217
1373.121296,-14804.118840,842.705048,4811.338623
1373.121607,-11621.233289,2757.943793,3627.009116
1373.121919,-6809.894666,1608.800546,1850.514855
1373.122230,-2516.700203,-1608.800546,-74.020594
1373.122541,0.000000,-4673.182538,-1702.473667
1373.122853,0.000000,-3907.087040,-1850.514855
1373.123164,-3923.091493,-153.219100,-2146.597232
1373.123475,-8438.347739,1762.019645,-740.205942
1373.123787,-13027.624579,-229.828649,1036.288319
1373.124098,-16062.468941,-2834.553343,3330.926739
1373.124410,-16950.716072,-2451.505594,4441.235652
1373.124721,-15618.345376,536.266849,3849.070898
1373.125032,-12509.480420,2528.115143,2664.741391
1373.125344,-8290.306550,2451.505594,1184.329507
1373.125655,-3552.988522,-1838.629195,888.247130
1373.125966,-1554.432478,-4749.792088,148.041188
1373.126278,-2146.597232,-6511.811733,-666.185348
1373.126589,-4885.359217,-2451.505594,-1480.411884
1373.126900,-8660.409521,1225.752797,-1406.391290
1373.127212,-11177.109724,1915.238745,-148.041188
1373.127523,-14582.057057,-1302.362347,1628.453072
1373.127835,-17098.757260,-3370.820191,3182.885551
1373.128146,-15322.262999,-919.314598,3552.988522
1373.128457,-13027.624579,2987.772442,2442.679609
1373.128769,-9178.553681,4443.353888,1554.432478
1373.129080,-4219.173869,0.000000,592.164754
1373.129391,-1702.473667,-3370.820191,-814.226536
1373.129703,-518.144159,-4749.792088,-1110.308913
1373.130014,-2738.761985,-1685.410096,-2072.576638
1373.130325,-7031.956449,1838.629195,-2516.700203
1373.130637,-11251.130318,3140.991542,-1850.514855
1373.130948,-13397.727550,459.657299,-0.000000
1373.131260,-14656.077652,-459.657299,2146.597232
1373.131571,-15544.324782,612.876398,2960.823768
1373.131882,-14211.954086,3140.991542,2516.700203
1373.132194,-10066.800811,4366.744339,1628.453072
1373.132505,-6291.750507,2911.162892,1258.350101
1373.132816,-1924.535449,0.000000,-148.041188
1373.133128,-518.144159,-2528.115143,-2368.659014
1373.133439,-2590.720797,-1685.410096,-4145.153275
1373.133750,-5551.544565,2451.505594,-4811.338623
1373.134062,-8512.368333,4826.401637,-4145.153275
1373.134373,-13027.624579,2681.334243,-1702.473667
1373.134684,-16876.695478,-995.924147,1998.556043
1373.134996,-18283.086767,-2451.505594,4145.153275
1373.135307,-16432.571912,-229.828649,4367.215058
1373.135619,-11843.295072,2834.553343,3404.947333
1373.135930,-6439.791695,2834.553343,740.205942
1373.136241,-1628.453072,-612.876398,-0.000000
1373.136553,1332.370696,-4060.306139,-1702.473667
1373.136864,74.020594,-4979.620737,-2516.700203
1373.137175,-4145.153275,-766.095498,-2590.720797
1373.137487,-9400.615463,2145.067394,-888.247130
1373.137798,-13767.830521,2068.457845,1110.308913
1373.138109,-16728.654289,-1685.410096,3404.947333
1373.138421,-17616.901420,-3447.429741,4959.379811
1373.138732,-15840.407159,-2068.457845,5033.400406
1373.139044,-11843.295072,2451.505594,3552.988522
1373.139355,-7179.997637,3907.087040,1110.308913
1373.139666,-2664.741391,229.828649,814.226536
1373.139978,0.000000,-3524.039291,-1036.288319
1373.140289,370.102971,-5439.278036,-1554.432478
1373.140600,-2590.720797,-2528.115143,-1924.535449
1373.140912,-7105.977043,919.314598,-1554.432478
1373.141223,-11843.295072,1149.143247,-0.000000
1373.141534,-15840.407159,-1915.238745,3034.844362
1373.141846,-17690.922014,-3294.210641,4737.318029
1373.142157,-16654.633695,-2145.067394,4663.297435
1373.142469,-13471.748144,1685.410096,3701.029710
1373.142780,-8586.388927,2068.457845,2072.576638
1373.143091,-3997.112087,1072.533697,370.102971
1373.143403,-666.185348,-2221.676944,-666.185348
1373.143714,222.061783,-4673.182538,-888.247130
1373.144025,-2886.803174,-4290.134789,-888.247130
1373.144337,-7698.141797,-306.438199,-1036.288319
1373.144648,-11843.295072,1838.629195,-666.185348
1373.144959,-14656.077652,229.828649,1110.308913
1373.145271,-16284.530724,-2221.676944,2886.803174
1373.145582,-16358.551318,-1149.143247,3330.926739
1373.145894,-13693.809927,1532.190996,2886.803174
1373.146205,-9548.656652,2911.162892,1998.556043
1373.146516,-5847.626942,2834.553343,444.123565
1373.146828,-2960.823768,-306.438199,-222.061783
1373.147139,-296.082377,-2451.505594,-2146.597232
1373.147450,-888.247130,-2221.676944,-2960.823768
1373.147762,-4663.297435,1685.410096,-4071.132681
1373.148073,-8586.388927,4596.572988,-3404.947333
1373.148384,-12361.439231,3217.601092,-1924.535449
1373.148696,-15840.407159,0.000000,740.205942
1373.149007,-17616.901420,-459.657299,3404.947333
1373.149319,-17394.839637,919.314598,3404.947333
1373.149630,-13323.706956,3677.258390,2812.782580
1373.149941,-7402.059420,4290.134789,666.185348
1373.150253,-2442.679609,459.657299,-518.144159
1373.150564,-296.082377,-2068.457845,-3256.906145
1373.150875,-1036.288319,-3370.820191,-3552.988522
1373.151187,-3849.070898,0.000000,-3627.009116
1373.151498,-7550.100608,3370.820191,-2442.679609
1373.151809,-12731.542202,2987.772442,-740.205942
1373.152121,-16728.654289,0.000000,2368.659014
1373.152432,-18357.107362,-1838.629195,4589.276840
1373.152743,-16802.674883,-1072.533697,4885.359217
1373.153055,-12509.480420,2681.334243,3627.009116
1373.153366,-7550.100608,4213.525239,518.144159
1373.153678,-3552.988522,1838.629195,-962.267725
1373.153989,-962.267725,-1915.238745,-2146.597232
1373.154300,0.000000,-3064.381992,-3034.844362
1373.154612,-2442.679609,-612.876398,-2294.638420
1373.154923,-6365.771101,2374.896044,-1554.432478
1373.155234,-12139.377449,1532.190996,740.205942
1373.155546,-14952.160028,-1378.971896,3775.050304
1373.155857,-17172.777854,-3140.991542,4737.318029
1373.156168,-16432.571912,-2757.943793,4959.379811
1373.156480,-12731.542202,689.485948,2960.823768
1373.156791,-8956.491898,2681.334243,1184.329507
1373.157103,-4071.132681,689.485948,518.144159
1373.157414,-592.164754,-3753.867940,-666.185348
1373.157725,0.000000,-5669.106685,-74.020594
1373.158037,-2368.659014,-4673.182538,962.267725
1373.158348,-7476.080014,-1072.533697,296.082377
1373.158659,-11695.253884,842.705048,592.164754
1373.158971,-14656.077652,383.047749,1998.556043
1373.159282,-15692.365970,-1378.971896,3182.885551
1373.159593,-15618.345376,-689.485948,3108.864956
1373.159905,-13323.706956,1915.238745,2590.720797
1373.160216,-9326.594869,2528.115143,2072.576638
1373.160528,-5847.626942,1685.410096,1702.473667
1373.160839,-2886.803174,-1378.971896,740.205942
1373.161150,-1332.370696,-3524.039291,-666.185348
1373.161462,-2368.659014,-4136.915689,-1554.432478
1373.161773,-4737.318029,-383.047749,-1480.411884
1373.162084,-8438.347739,2221.676944,-2146.597232
1373.162396,-11991.336260,1378.971896,-814.226536
1373.162707,-14804.118840,-1608.800546,1628.453072
1373.163018,-16876.695478,-2528.115143,3256.906145
1373.163330,-15692.365970,-612.876398,3478.967927
1373.163641,-12213.398043,1762.019645,2664.741391
1373.163953,-8216.285956,2221.676944,666.185348
1373.164264,-3775.050304,-383.047749,-0.000000
1373.164575,-666.185348,-2068.457845,-1998.556043
1373.164887,-1184.329507,-2604.724693,-2368.659014
1373.165198,-3997.112087,76.609550,-3478.967927
1373.165509,-7476.080014,4060.306139,-2516.700203
1373.165821,-11843.295072,3907.087040,-1184.329507
1373.166132,-14878.139434,1302.362347,1110.308913
1373.166443,-17098.757260,0.000000,2590.720797
1373.166755,-16654.633695,1072.533697,2886.803174
1373.167066,-13545.768739,4903.011187,1998.556043
1373.167378,-9104.533087,5515.887586,-0.000000
1373.167689,-5181.441594,3447.429741,-1036.288319
1373.168000,-2664.741391,-842.705048,-2442.679609
1373.168312,-740.205942,-3140.991542,-2812.782580
1373.168623,-2146.597232,-612.876398,-2886.803174
1373.168934,-6365.771101,2374.896044,-2886.803174
1373.169246,-10510.924376,2911.162892,-1036.288319
1373.169557,-14730.098246,0.000000,1628.453072
1373.169868,-17987.004391,-2374.896044,3034.844362
1373.170180,-17246.798449,-842.705048,3923.091493
1373.170491,-14508.036463,2298.286494,2368.659014
1373.170803,-9474.636058,3983.696590,962.267725
1373.171114,-4737.318029,2451.505594,-296.082377
1373.171425,-1036.288319,-1838.629195,-1036.288319
1373.171737,740.205942,-3983.696590,-814.226536
1373.172048,-1554.432478,-3600.648841,-592.164754
1373.172359,-5921.647536,536.266849,-666.185348
1373.172671,-10658.965565,2451.505594,-0.000000
1373.172982,-13471.748144,383.047749,2294.638420
1373.173293,-15396.283594,-2374.896044,3701.029710
1373.173605,-15988.448347,-2451.505594,4663.297435
1373.173916,-14582.057057,612.876398,3997.112087
1373.174227,-11473.192101,3140.991542,2960.823768
1373.174539,-6661.853478,3370.820191,1702.473667
1373.174850,-2812.782580,-766.095498,592.164754
1373.175162,-148.041188,-3140.991542,-0.000000
1373.175473,0.000000,-3753.867940,-666.185348
1373.175784,-2886.803174,-842.705048,-1184.329507
1373.176096,-7772.162391,1685.410096,-666.185348
1373.176407,-11991.336260,1455.581446,1332.370696
1373.176718,-13989.892304,-2221.676944,3256.906145
1373.177030,-16580.613101,-3370.820191,4219.173869
1373.177341,-16432.571912,-1915.238745,4145.153275
1373.177652,-13545.768739,1455.581446,2590.720797
1373.177964,-8734.430116,2528.115143,962.267725
1373.178275,-4071.132681,-1149.143247,1110.308913
1373.178587,-814.226536,-5286.058936,370.102971
1373.178898,-370.102971,-6511.811733,-296.082377
1373.179209,-2368.659014,-2834.553343,-222.061783
1373.179521,-7179.997637,1302.362347,-1184.329507
1373.179832,-11325.150913,3524.039291,-814.226536
1373.180143,-14508.036463,1991.848295,1036.288319
1373.180455,-16284.530724,-842.705048,2442.679609
1373.180766,-16876.695478,-919.314598,2442.679609
1373.181077,-15618.345376,3140.991542,2220.617826
1373.181389,-10288.862594,4903.011187,296.082377
1373.181700,-6217.729913,2528.115143,-1184.329507
1373.182012,-2664.741391,-1378.971896,-1628.453072
1373.182323,-1036.288319,-3677.258390,-2886.803174
1373.182634,-2146.597232,-1685.410096,-3256.906145
1373.182946,-5699.585753,612.876398,-2442.679609
1373.183257,-10066.800811,2451.505594,-1850.514855
1373.183568,-13693.809927,76.609550,-592.164754
1373.183880,-16432.571912,-153.219100,962.267725
1373.184191,-16728.654289,306.438199,1554.432478
1373.184502,-14656.077652,1838.629195,1480.411884
1373.184814,-10807.006753,4366.744339,-0.000000
1373.185125,-7105.977043,3140.991542,-962.267725
1373.185437,-3182.885551,-536.266849,-1184.329507
1373.185748,-1184.329507,-3907.087040,-1110.308913
1373.186059,-1924.535449,-3447.429741,-1554.432478
1373.186371,-5033.400406,0.000000,-2812.782580
1373.186682,-8882.471304,2757.943793,-1924.535449
1373.186993,-11991.336260,2681.334243,370.102971
1373.187305,-15026.180623,-536.266849,1924.535449
1373.187616,-15840.407159,-1302.362347,3775.050304
1373.187927,-15322.262999,919.314598,3404.947333
1373.188239,-11769.274478,3140.991542,2960.823768
1373.188550,-7624.121203,3753.867940,296.082377
1373.188862,-3627.009116,1072.533697,-222.061783
1373.189173,-370.102971,-2451.505594,-1628.453072
1373.189484,-222.061783,-3677.258390,-962.267725
1373.189796,-3256.906145,-1532.190996,-814.226536
1373.190107,-7624.121203,1608.800546,-148.041188
1373.190418,-11769.274478,459.657299,1480.411884
1373.190730,-14656.077652,-2145.067394,3404.947333
1373.191041,-15988.448347,-1991.848295,4663.297435
1373.191352,-16432.571912,383.047749,3478.967927
1373.191664,-13101.645173,1991.848295,3552.988522
1373.191975,-8142.265362,2528.115143,1850.514855
1373.192286,-4737.318029,-383.047749,1332.370696
1373.192598,-1776.494261,-3677.258390,888.247130
1373.192909,-2442.679609,-5209.449386,296.082377
1373.193221,-3552.988522,-2987.772442,-0.000000
1373.193532,-6365.771101,1072.533697,-666.185348
1373.193843,-9696.697840,2757.943793,-0.000000
1373.194155,-13397.727550,-383.047749,1110.308913
1373.194466,-14952.160028,-1838.629195,3627.009116
1373.194777,-16654.633695,-612.876398,3775.050304
1373.195089,-15396.283594,2298.286494,3849.070898
1373.195400,-10584.944971,3447.429741,1850.514855
1373.195711,-6513.812290,1225.752797,222.061783
1373.196023,-2516.700203,-2374.896044,-666.185348
1373.196334,296.082377,-4136.915689,-1184.329507
1373.196646,-888.247130,-3217.601092,-1998.556043
1373.196957,-5403.503377,-766.095498,-1702.473667
1373.197268,-10066.800811,766.095498,-740.205942
1373.197580,-13545.768739,0.000000,1184.329507
1373.197891,-16284.530724,-1838.629195,2812.782580
1373.198202,-16580.613101,-2374.896044,2960.823768
1373.198514,-14211.954086,536.266849,2146.597232
1373.198825,-10658.965565,3677.258390,1258.350101
1373.199136,-6587.832884,2145.067394,-814.226536
1373.199448,-2516.700203,-1378.971896,-1332.370696
1373.199759,-1036.288319,-4366.744339,-1480.411884
1373.200071,-1184.329507,-4290.134789,-1924.535449
1373.200382,-3330.926739,-919.314598,-2812.782580
1373.200693,-7105.977043,2528.115143,-2442.679609
1373.201005,-11621.233289,1532.190996,-888.247130
1373.201316,-15174.221811,-459.657299,1628.453072
1373.201627,-17912.983796,-1302.362347,2072.576638
1373.201939,-17320.819043,1915.238745,2812.782580
1373.202250,-13841.851115,4366.744339,814.226536
1373.202561,-9326.594869,4366.744339,-962.267725
1373.202873,-4293.194464,842.705048,-1702.473667
1373.203184,-666.185348,-2757.943793,-3034.844362
1373.203496,0.000000,-3907.087040,-3182.885551
1373.203807,-3701.029710,-229.828649,-2590.720797
1373.204118,-9104.533087,1149.143247,-1554.432478
1373.204430,-12879.583391,1762.019645,222.061783
1373.204741,-16580.613101,-842.705048,1924.535449
1373.205052,-18061.024985,-1608.800546,3330.926739
1373.205364,-17098.757260,1149.143247,2886.803174
1373.205675,-13841.851115,3140.991542,1850.514855
1373.205986,-8734.430116,4060.306139,370.102971
1373.206298,-4293.194464,766.095498,148.041188
1373.206609,-2294.638420,-2834.553343,-222.061783
1373.206921,-1406.391290,-4826.401637,-740.205942
1373.207232,-2812.782580,-2451.505594,-1184.329507
1373.207543,-6069.688724,1149.143247,-962.267725
1373.207855,-9918.759623,2834.553343,-0.000000
1373.208166,-12731.542202,0.000000,2146.597232
1373.208477,-15248.242405,-1991.848295,3849.070898
1373.208789,-15766.386565,-766.095498,5255.462188
1373.209100,-14656.077652,1838.629195,4441.235652
1373.209411,-10807.006753,3600.648841,2368.659014
1373.209723,-6883.915261,1838.629195,1036.288319
1373.210034,-2072.576638,-995.924147,-74.020594
1373.210346,962.267725,-3140.991542,-1036.288319
1373.210657,-666.185348,-2451.505594,-1554.432478
1373.210968,-3478.967927,-459.657299,-444.123565
1373.211280,-7624.121203,1072.533697,592.164754
1373.211591,-11769.274478,-919.314598,2146.597232
1373.211902,-14804.118840,-2068.457845,4071.132681
1373.212214,-16062.468941,-1532.190996,4367.215058
1373.212525,-14434.015869,1302.362347,3775.050304
1373.212836,-10510.924376,3370.820191,2516.700203
1373.213148,-7179.997637,1608.800546,370.102971
1373.213459,-3552.988522,-1991.848295,-148.041188
1373.213770,-1554.432478,-4596.572988,-1184.329507
1373.214082,-2220.617826,-5209.449386,-1776.494261
1373.214393,-4367.215058,-2145.067394,-1998.556043
1373.214705,-8068.244768,153.219100,-1554.432478
1373.215016,-11917.315666,-306.438199,148.041188
1373.215327,-15100.201217,-2451.505594,2368.659014
1373.215639,-17172.777854,-2221.676944,3923.091493
1373.215950,-16210.510130,76.609550,4071.132681
1373.216261,-13471.748144,2528.115143,2368.659014
1373.216573,-8512.368333,3294.210641,-74.020594
1373.216884,-3775.050304,842.705048,-1332.370696
1373.217195,-666.185348,-1762.019645,-2590.720797
1373.217507,-148.041188,-2757.943793,-2886.803174
1373.217818,-3997.112087,-459.657299,-3627.009116
1373.218130,-7920.203579,2681.334243,-2368.659014
1373.218441,-12287.418637,2528.115143,-814.226536
1373.218752,-16358.551318,-153.219100,1110.308913
1373.219064,-18135.045579,-995.924147,2368.659014
1373.219375,-17690.922014,766.095498,2294.638420
1373.219686,-14656.077652,3447.429741,2072.576638
1373.219998,-9474.636058,4749.792088,444.123565
1373.220309,-4589.276840,1455.581446,-1110.308913
1373.220620,-1110.308913,-2451.505594,-1332.370696
1373.220932,-1184.329507,-5056.230287,-1998.556043
1373.221243,-2072.576638,-2298.286494,-2516.700203
1373.221555,-5181.441594,2451.505594,-2590.720797
1373.221866,-9918.759623,3140.991542,-1184.329507
1373.222177,-14285.974681,1225.752797,592.164754
1373.222489,-17468.860231,153.219100,2590.720797
1373.222800,-16876.695478,0.000000,3775.050304
1373.223111,-13989.892304,3753.867940,2738.761985
1373.223423,-9474.636058,4673.182538,1110.308913
1373.223734,-4737.318029,2987.772442,-74.020594
1373.224045,-1332.370696,-842.705048,-1184.329507
1373.224357,370.102971,-3983.696590,-1554.432478
1373.224668,-1776.494261,-3140.991542,-888.247130
1373.224980,-5995.668130,-536.266849,-1480.411884
1373.225291,-9548.656652,1608.800546,222.061783
1373.225602,-12509.480420,-459.657299,1850.514855
1373.225914,-14656.077652,-1685.410096,3256.906145
1373.226225,-15618.345376,-1608.800546,4145.153275
1373.226536,-14211.954086,0.000000,3627.009116
1373.226848,-10732.986159,2604.724693,3108.864956
1373.227159,-6143.709319,2221.676944,2146.597232
1373.227470,-3478.967927,-2221.676944,814.226536
1373.227782,-1110.308913,-4903.011187,-222.061783
1373.228093,-1110.308913,-4979.620737,-222.061783
1373.228405,-4367.215058,-2068.457845,-1110.308913
1373.228716,-7994.224174,1378.971896,-592.164754
1373.229027,-12805.562797,1149.143247,1110.308913
1373.229339,-15692.365970,-995.924147,3256.906145
1373.229650,-16950.716072,-1838.629195,3849.070898
1373.229961,-16284.530724,995.924147,3997.112087
1373.230273,-12731.542202,2911.162892,2812.782580
1373.230584,-8290.306550,3907.087040,148.041188
1373.230895,-3849.070898,383.047749,370.102971
1373.231207,-666.185348,-2987.772442,-444.123565
1373.231518,-1258.350101,-4979.620737,-1406.391290
1373.231829,-4441.235652,-3064.381992,-1332.370696
1373.232141,-7994.224174,383.047749,-666.185348
1373.232452,-12213.398043,1532.190996,-296.082377
1373.232764,-15100.201217,-612.876398,1480.411884
1373.233075,-16654.633695,-2374.896044,2664.741391
1373.233386,-16580.613101,-1532.190996,3404.947333
1373.233698,-13989.892304,2068.457845,2886.803174
1373.234009,-8882.471304,3294.210641,1406.391290
1373.234320,-5181.441594,612.876398,-0.000000
1373.234632,-1554.432478,-2604.724693,-1036.288319
1373.234943,-962.267725,-3830.477490,-3108.864956
1373.235254,-1332.370696,-2145.067394,-3108.864956
1373.235566,-5329.482782,1838.629195,-3182.885551
1373.235877,-9622.677246,3217.601092,-1924.535449
1373.236189,-14063.912898,1455.581446,666.185348
1373.236500,-17024.736666,-229.828649,3256.906145
1373.236811,-17394.839637,0.000000,3775.050304
1373.237123,-14952.160028,3217.601092,2368.659014
1373.237434,-10436.903782,4519.963438,370.102971
1373.237745,-4367.215058,4443.353888,-1776.494261
1373.238065,-962.267725,1149.143247,-3108.864956
1373.238376,444.123565,-2374.896044,-3552.988522
1373.238688,-1258.350101,-2451.505594,-2664.741391
1373.238999,-6291.750507,842.705048,-2590.720797
1373.239311,-10807.006753,2757.943793,-888.247130
1373.239622,-14952.160028,1608.800546,666.185348
1373.239934,-17024.736666,-689.485948,2146.597232
1373.240245,-16506.592507,-689.485948,3256.906145
1373.240557,-14434.015869,1455.581446,2368.659014
1373.240868,-10584.944971,2451.505594,1406.391290
1373.241180,-6513.812290,2681.334243,-74.020594
1373.241491,-3108.864956,-1072.533697,-740.205942
1373.241803,-962.267725,-3907.087040,-1184.329507
1373.242114,-1406.391290,-4903.011187,-888.247130
1373.242426,-4737.318029,-1149.143247,-1110.308913
1373.242737,-8734.430116,1915.238745,-370.102971
1373.243049,-12953.603985,1455.581446,1406.391290
1373.243360,-16284.530724,-229.828649,2738.761985
1373.243672,-17616.901420,-229.828649,4145.153275
1373.243983,-15766.386565,1608.800546,3775.050304
1373.244295,-11991.336260,3217.601092,2368.659014
1373.244606,-6587.832884,3140.991542,1406.391290
1373.244918,-3034.844362,-536.266849,444.123565
1373.245229,-962.267725,-3370.820191,-222.061783
1373.245541,-962.267725,-4903.011187,-74.020594
1373.245852,-4219.173869,-3217.601092,-296.082377
1373.246164,-7550.100608,-229.828649,148.041188
1373.246475,-11473.192101,766.095498,962.267725
1373.246787,-14804.118840,-689.485948,1702.473667
1373.247098,-15692.365970,-2145.067394,3849.070898
1373.247410,-15396.283594,-612.876398,3849.070898
1373.247721,-13175.665768,2221.676944,3552.988522
1373.248033,-9622.677246,2451.505594,2886.803174
1373.248344,-5181.441594,0.000000,1702.473667
1373.248656,-962.267725,-2681.334243,296.082377
1373.248967,962.267725,-4903.011187,-592.164754
1373.249279,-666.185348,-3907.087040,-1850.514855
1373.249590,-5699.585753,-1149.143247,-2664.741391
1373.249902,-10066.800811,1762.019645,-888.247130
1373.250213,-14285.974681,689.485948,888.247130
1373.250525,-17468.860231,-1302.362347,3182.885551
1373.250836,-18209.066173,-1072.533697,3404.947333
1373.251148,-14952.160028,2298.286494,2812.782580
1373.251459,-9326.594869,3753.867940,962.267725
1373.251771,-4293.194464,2451.505594,-740.205942
1373.252082,-814.226536,-766.095498,-1258.350101
1373.252394,370.102971,-4213.525239,-2738.761985
1373.252705,-1554.432478,-3983.696590,-2368.659014
1373.253017,-5921.647536,-919.314598,-2516.700203
1373.253328,-9918.759623,2451.505594,-1924.535449
1373.253640,-13915.871710,2068.457845,-296.082377
1373.253951,-16136.489536,766.095498,1480.411884
1373.254263,-17172.777854,-459.657299,2368.659014
1373.254574,-16358.551318,2374.896044,2886.803174
1373.254886,-12657.521608,4443.353888,2368.659014
1373.255197,-8512.368333,4366.744339,148.041188
1373.255509,-4071.132681,1378.971896,-666.185348
1373.255820,-666.185348,-842.705048,-2072.576638
1373.256132,370.102971,-1762.019645,-2664.741391
1373.256443,-2368.659014,459.657299,-3108.864956
1373.256755,-7105.977043,2374.896044,-2368.659014
1373.257066,-12361.439231,2528.115143,-888.247130
1373.257378,-16950.716072,153.219100,1702.473667
1373.257689,-19245.354492,-1072.533697,3478.967927
1373.258001,-17764.942608,76.609550,3256.906145
1373.258312,-12657.521608,2451.505594,2368.659014
1373.258624,-7105.977043,3524.039291,-0.000000
1373.258935,-2664.741391,0.000000,-370.102971
1373.259247,370.102971,-2911.162892,-1332.370696
1373.259558,0.000000,-4749.792088,-296.082377
1373.259870,-3923.091493,-2145.067394,-666.185348
1373.260181,-8142.265362,1302.362347,-370.102971
1373.260493,-11991.336260,2528.115143,-0.000000
1373.260804,-15248.242405,459.657299,1480.411884
1373.261116,-16062.468941,-842.705048,3256.906145
1373.261427,-15840.407159,-919.314598,2590.720797
1373.261739,-12139.377449,1685.410096,3330.926739
1373.262050,-8956.491898,1608.800546,2368.659014
1373.262362,-4885.359217,-1149.143247,2220.617826
1373.262673,-1554.432478,-3447.429741,740.205942
1373.262985,-888.247130,-5132.839837,370.102971
1373.263296,-1998.556043,-4673.182538,666.185348
1373.263608,-4737.318029,-689.485948,-0.000000
1373.263919,-8882.471304,1072.533697,-0.000000
1373.264231,-12361.439231,-153.219100,1406.391290
1373.264542,-14211.954086,-1762.019645,2442.679609
1373.264854,-15692.365970,-1915.238745,2738.761985
1373.265165,-14508.036463,0.000000,2590.720797
1373.265477,-11029.068536,2145.067394,1628.453072
1373.265788,-7994.224174,1838.629195,222.061783
1373.266100,-4737.318029,-1915.238745,666.185348
1373.266411,-2516.700203,-4596.572988,-518.144159
1373.266723,-3034.844362,-5286.058936,-444.123565
1373.267034,-4663.297435,-1685.410096,-962.267725
1373.267346,-8068.244768,459.657299,-888.247130
1373.267657,-11325.150913,229.828649,-666.185348
1373.267969,-14359.995275,-1302.362347,1036.288319
1373.268280,-16210.510130,-1762.019645,2368.659014
1373.268592,-15914.427753,-383.047749,2738.761985
1373.268903,-13397.727550,3753.867940,1850.514855
1373.269215,-9918.759623,3294.210641,370.102971
1373.269526,-5255.462188,76.609550,-0.000000
1373.269838,-1702.473667,-2757.943793,-1110.308913
1373.270149,-888.247130,-2911.162892,-2442.679609
1373.270461,-2368.659014,0.000000,-3034.844362
1373.270772,-6513.812290,2451.505594,-2738.761985
1373.271084,-11177.109724,3370.820191,-962.267725
1373.271395,-15248.242405,995.924147,740.205942
1373.271707,-17320.819043,-306.438199,2812.782580
1373.272018,-18061.024985,766.095498,3330.926739
1373.272330,-14582.057057,3677.258390,1924.535449
1373.272641,-8808.450710,4903.011187,370.102971
1373.272953,-3997.112087,2068.457845,-666.185348
1373.273264,-592.164754,-1685.410096,-2072.576638
1373.273576,592.164754,-2681.334243,-2294.638420
1373.273887,-2516.700203,-1991.848295,-2886.803174
1373.274199,-6809.894666,2834.553343,-2590.720797
1373.274510,-10658.965565,4290.134789,-1332.370696
1373.274822,-14582.057057,1915.238745,518.144159
1373.275133,-16284.530724,-612.876398,1998.556043
1373.275445,-15322.262999,-842.705048,2960.823768
1373.275756,-13471.748144,1685.410096,3034.844362
1373.276068,-9696.697840,2451.505594,1110.308913
1373.276379,-5995.668130,1225.752797,-0.000000
1373.276691,-3182.885551,-2911.162892,-148.041188
1373.277002,-1110.308913,-5209.449386,-222.061783
1373.277314,-1702.473667,-4826.401637,-74.020594
1373.277625,-5773.606348,-1685.410096,-740.205942
1373.277937,-9622.677246,842.705048,-222.061783
1373.278248,-12583.501014,459.657299,740.205942
1373.278560,-15174.221811,-766.095498,2516.700203
1373.278871,-16284.530724,-1915.238745,3256.906145
1373.279183,-15100.201217,1455.581446,2516.700203
1373.279494,-11547.212695,3140.991542,1924.535449
1373.279806,-7846.182985,2298.286494,592.164754
1373.280117,-4145.153275,-842.705048,814.226536
1373.280429,-1776.494261,-3447.429741,222.061783
1373.280740,-2220.617826,-4366.744339,-0.000000
1373.281052,-4293.194464,-2068.457845,-296.082377
1373.281363,-7624.121203,1225.752797,-814.226536
1373.281675,-11103.089130,1225.752797,-0.000000
1373.281986,-14137.933492,-995.924147,1332.370696
1373.282298,-16728.654289,-2374.896044,2590.720797
1373.282609,-16062.468941,-153.219100,3034.844362
1373.282921,-13175.665768,1915.238745,2516.700203
1373.283232,-9400.615463,1072.533697,2072.576638
1373.283544,-4589.276840,-2604.724693,1554.432478
1373.283855,-1406.391290,-5056.230287,888.247130
1373.284167,-592.164754,-6665.030833,370.102971
1373.284478,-2368.659014,-3830.477490,-666.185348
1373.284790,-6291.750507,229.828649,-888.247130
1373.285101,-10807.006753,1302.362347,-518.144159
1373.285413,-14211.954086,-153.219100,740.205942
1373.285724,-16136.489536,-1149.143247,1924.535449
1373.286036,-16210.510130,842.705048,2220.617826
1373.286347,-13249.686362,3983.696590,1702.473667
1373.286659,-9178.553681,3983.696590,740.205942
1373.286970,-5107.421000,1072.533697,-0.000000
1373.287282,-2516.700203,-1685.410096,-666.185348
1373.287593,-1258.350101,-2374.896044,-1628.453072
1373.287905,-2072.576638,-536.266849,-2812.782580
1373.288216,-6143.709319,3294.210641,-3849.070898
1373.288528,-9178.553681,4060.306139,-2442.679609
1373.288839,-12139.377449,2374.896044,-1036.288319
1373.289151,-15396.283594,-153.219100,1036.288319
1373.289462,-16876.695478,-995.924147,2368.659014
1373.289774,-16210.510130,1072.533697,2368.659014
1373.290085,-12731.542202,2987.772442,2368.659014
1373.290397,-8068.244768,1685.410096,518.144159
1373.290708,-3849.070898,-2298.286494,-444.123565
1373.291020,-1110.308913,-3600.648841,-1554.432478
1373.291331,-888.247130,-2911.162892,-1480.411884
1373.291643,-3849.070898,-153.219100,-2146.597232
1373.291954,-8882.471304,2834.553343,-962.267725
1373.292266,-13027.624579,2451.505594,296.082377
1373.292577,-15988.448347,-306.438199,1628.453072
1373.292889,-17098.757260,0.000000,2442.679609
1373.293200,-15470.304188,3140.991542,2146.597232
1373.293512,-11029.068536,5056.230287,1332.370696
1373.293823,-5921.647536,3294.210641,296.082377
1373.294135,-2812.782580,-919.314598,518.144159
1373.294446,-1480.411884,-3983.696590,-148.041188
1373.294758,-2146.597232,-4443.353888,-0.000000
1373.295069,-4515.256246,-1838.629195,-592.164754
1373.295381,-7698.141797,1149.143247,-518.144159
1373.295692,-10510.924376,1302.362347,222.061783
1373.296004,-13989.892304,-1915.238745,1998.556043
1373.296315,-16136.489536,-2681.334243,3627.009116
1373.296627,-16062.468941,-536.266849,3775.050304
1373.296938,-13471.748144,2604.724693,2812.782580
1373.297250,-9474.636058,2757.943793,1406.391290
1373.297561,-5477.523971,459.657299,740.205942
1373.297873,-1110.308913,-3447.429741,666.185348
1373.298184,222.061783,-4596.572988,296.082377
1373.298496,-2368.659014,-3370.820191,-0.000000
1373.298807,-7031.956449,0.000000,-444.123565
1373.299119,-10807.006753,1455.581446,296.082377
1373.299430,-13841.851115,-306.438199,1480.411884
1373.299742,-16284.530724,-1455.581446,2590.720797
1373.300053,-16136.489536,306.438199,2738.761985
1373.300365,-13767.830521,2528.115143,2442.679609
1373.300676,-9622.677246,3064.381992,2294.638420
1373.300988,-5847.626942,1225.752797,1554.432478
1373.301299,-2220.617826,-3217.601092,888.247130
1373.301611,-222.061783,-5056.230287,-444.123565
1373.301922,-2368.659014,-4673.182538,-1924.535449
1373.302234,-5033.400406,0.000000,-2738.761985
1373.302545,-8586.388927,2987.772442,-2664.741391
1373.302857,-12657.521608,612.876398,-0.000000
1373.303168,-16062.468941,-1838.629195,2516.700203
1373.303480,-18653.189738,-2068.457845,3256.906145
1373.303791,-16728.654289,1225.752797,3256.906145
1373.304103,-12213.398043,3447.429741,2146.597232
1373.304414,-7031.956449,3294.210641,-592.164754
1373.304726,-2294.638420,306.438199,-1628.453072
1373.305037,518.144159,-2911.162892,-3182.885551
1373.305349,-370.102971,-3294.210641,-3330.926739
1373.305660,-3997.112087,1072.533697,-2664.741391
1373.305972,-8734.430116,4443.353888,-1924.535449
1373.306283,-13175.665768,2528.115143,-148.041188
1373.306595,-16358.551318,-306.438199,2072.576638
1373.306906,-17912.983796,-842.705048,3256.906145
1373.307218,-16876.695478,1608.800546,2812.782580
1373.307529,-12509.480420,4443.353888,2146.597232
1373.307841,-8734.430116,4136.915689,-0.000000
1373.308152,-4071.132681,1838.629195,-814.226536
1373.308464,-740.205942,-2528.115143,-1998.556043
1373.308775,-962.267725,-4290.134789,-2220.617826
1373.309087,-2960.823768,-1455.581446,-2590.720797
1373.309398,-7254.018232,2068.457845,-1998.556043
1373.309710,-11029.068536,2298.286494,-148.041188
1373.310021,-16062.468941,0.000000,1258.350101
1373.310333,-17838.963202,-306.438199,3923.091493
1373.310644,-16580.613101,919.314598,3923.091493
1373.310956,-13323.706956,2987.772442,2960.823768
1373.311267,-7772.162391,3447.429741,1406.391290
1373.311579,-2886.803174,612.876398,296.082377
1373.311890,0.000000,-3064.381992,-814.226536
1373.312202,296.082377,-6358.592633,-1110.308913
1373.312513,-2368.659014,-4213.525239,-1184.329507
1373.312825,-7624.121203,919.314598,-1628.453072
1373.313136,-11547.212695,2374.896044,-74.020594
1373.313448,-14211.954086,842.705048,1776.494261
1373.313759,-16432.571912,-1455.581446,3404.947333
1373.314071,-16802.674883,-995.924147,4071.132681
1373.314382,-14508.036463,1991.848295,3775.050304
1373.314694,-9252.574275,3677.258390,2442.679609
1373.315005,-4885.359217,2221.676944,1628.453072
1373.315317,-2368.659014,-2451.505594,370.102971
1373.315628,-444.123565,-4903.011187,-1258.350101
1373.315940,-2072.576638,-4366.744339,-1480.411884
1373.316251,-5329.482782,306.438199,-1480.411884
1373.316563,-8882.471304,3064.381992,-814.226536
1373.316874,-13397.727550,229.828649,222.061783
1373.317186,-16580.613101,-2987.772442,3182.885551
1373.317497,-16876.695478,-3064.381992,4441.235652
1373.317809,-15840.407159,306.438199,3552.988522
1373.318120,-11769.274478,3830.477490,3701.029710
1373.318432,-7105.977043,1991.848295,1332.370696
1373.318743,-2664.741391,-2451.505594,592.164754
1373.319055,148.041188,-4826.401637,-740.205942
1373.319366,-740.205942,-4749.792088,-1332.370696
1373.319678,-4071.132681,-1455.581446,-2294.638420
1373.319989,-9548.656652,2221.676944,-1258.350101
1373.320301,-13027.624579,2604.724693,-74.020594
1373.320612,-15100.201217,0.000000,2146.597232
1373.320924,-16580.613101,-1608.800546,3478.967927
1373.321235,-15840.407159,76.609550,2886.803174
1373.321547,-11621.233289,3753.867940,1702.473667
1373.321858,-7328.038826,4979.620737,-148.041188
1373.322170,-2960.823768,1149.143247,-444.123565
1373.322481,-592.164754,-2221.676944,-1776.494261
1373.322793,-1554.432478,-4213.525239,-2220.617826
1373.323104,-3627.009116,-1532.190996,-2516.700203
1373.323416,-6883.915261,2834.553343,-2590.720797
1373.323727,-11029.068536,3217.601092,-1184.329507
1373.324039,-14804.118840,0.000000,444.123565
1373.324350,-17320.819043,-2987.772442,2368.659014
1373.324662,-16950.716072,-1302.362347,2960.823768
1373.324973,-15100.201217,1991.848295,2442.679609
1373.325285,-10066.800811,3983.696590,962.267725
1373.325596,-5921.647536,1915.238745,-740.205942
1373.325908,-1258.350101,-2374.896044,-1332.370696
1373.326219,592.164754,-4366.744339,-2220.617826
1373.326531,-2294.638420,-3064.381992,-2368.659014
1373.326842,-7179.997637,1915.238745,-2220.617826
1373.327154,-11547.212695,3294.210641,-1998.556043
1373.327465,-14730.098246,995.924147,444.123565
1373.327777,-16580.613101,-1608.800546,2368.659014
1373.328088,-17320.819043,-1455.581446,3330.926739
1373.328400,-14730.098246,842.705048,3182.885551
1373.328711,-10436.903782,3370.820191,2220.617826
1373.329023,-5551.544565,3217.601092,-0.000000
1373.329334,-2072.576638,-306.438199,-1110.308913
1373.329646,-518.144159,-3370.820191,-1776.494261
1373.329957,-1036.288319,-3140.991542,-1924.535449
1373.330269,-4589.276840,459.657299,-1480.411884
1373.330580,-8956.491898,3294.210641,-592.164754
1373.330892,-13175.665768,1762.019645,1184.329507
1373.331203,-16728.654289,-1225.752797,2812.782580
1373.331515,-18283.086767,-1838.629195,4515.256246
1373.331826,-14359.995275,919.314598,4071.132681
1373.332138,-11103.089130,3140.991542,2072.576638
1373.332449,-6809.894666,2987.772442,1332.370696
1373.332761,-1628.453072,-1302.362347,814.226536
1373.333072,0.000000,-5056.230287,-222.061783
1373.333384,-666.185348,-5592.497135,444.123565
1373.333695,-4441.235652,-1991.848295,148.041188
1373.334007,-8882.471304,1608.800546,-518.144159
1373.334318,-11621.233289,2604.724693,1036.288319
1373.334630,-14211.954086,-612.876398,1776.494261
1373.334941,-15766.386565,-1378.971896,2590.720797
1373.335253,-16210.510130,842.705048,3182.885551
1373.335564,-12509.480420,3907.087040,3256.906145
1373.335876,-7994.224174,2681.334243,2516.700203
1373.336187,-5107.421000,-995.924147,1480.411884
1373.336499,-1110.308913,-3753.867940,-0.000000
1373.336810,-148.041188,-4213.525239,-1480.411884
1373.337122,-2294.638420,-2451.505594,-1924.535449
1373.337433,-6513.812290,689.485948,-1850.514855
1373.337745,-11695.253884,689.485948,-888.247130
1373.338056,-15174.221811,-1225.752797,1480.411884
1373.338367,-16802.674883,-2374.896044,3256.906145
1373.338679,-16506.592507,-1532.190996,3034.844362
1373.338990,-12731.542202,1762.019645,2886.803174
1373.339302,-9030.512492,2068.457845,740.205942
1373.339613,-3923.091493,919.314598,-592.164754
1373.339925,-814.226536,-1991.848295,-962.267725
1373.340236,-814.226536,-4060.306139,-1924.535449
1373.340548,-3478.967927,-3370.820191,-2072.576638
1373.340859,-6883.915261,459.657299,-2516.700203
1373.341170,-10807.006753,2451.505594,-1628.453072
1373.341482,-14582.057057,1991.848295,-888.247130
1373.341793,-17098.757260,153.219100,1776.494261
1373.342105,-18357.107362,153.219100,1924.535449
1373.342416,-15544.324782,3217.601092,1554.432478
1373.342728,-11547.212695,5592.497135,370.102971
1373.343039,-6291.750507,4443.353888,-592.164754
1373.343351,-2220.617826,0.000000,-1776.494261
1373.343662,-740.205942,-3753.867940,-2886.803174
1373.343973,-1184.329507,-3064.381992,-2590.720797
1373.344285,-4811.338623,229.828649,-2590.720797
1373.344596,-10214.842000,2451.505594,-2146.597232
1373.344908,-15026.180623,153.219100,444.123565
1373.345219,-17468.860231,-2528.115143,2072.576638
1373.345531,-17690.922014,-2145.067394,3478.967927
1373.345842,-16432.571912,306.438199,3034.844362
1373.346154,-11103.089130,3600.648841,2146.597232
1373.346465,-6365.771101,3217.601092,518.144159
1373.346776,-1628.453072,-1072.533697,666.185348
1373.347088,-222.061783,-3524.039291,-518.144159
1373.347399,-518.144159,-4060.306139,-1036.288319
1373.347711,-3478.967927,76.609550,-1036.288319
1373.348022,-7550.100608,2757.943793,-296.082377
1373.348334,-11325.150913,2604.724693,-0.000000
1373.348645,-14878.139434,76.609550,1332.370696
1373.348957,-16950.716072,766.095498,3182.885551
1373.349268,-15174.221811,919.314598,3701.029710
1373.349579,-12657.521608,2681.334243,3552.988522
1373.349891,-8956.491898,2451.505594,2590.720797
1373.350202,-4293.194464,-153.219100,1480.411884
1373.350514,-444.123565,-3447.429741,222.061783
1373.350825,962.267725,-4290.134789,-444.123565
1373.351137,-814.226536,-3294.210641,-1258.350101
1373.351448,-5995.668130,-459.657299,-592.164754
1373.351760,-10955.047942,229.828649,1110.308913
1373.352071,-14952.160028,-1838.629195,2220.617826
1373.352382,-17246.798449,-2757.943793,3997.112087
1373.352694,-17468.860231,-2221.676944,4811.338623
1373.353005,-14730.098246,0.000000,3849.070898
1373.353317,-10362.883188,1532.190996,2220.617826
1373.353628,-5329.482782,459.657299,740.205942
1373.353940,-1406.391290,-2911.162892,370.102971
1373.354251,-962.267725,-4060.306139,-592.164754
1373.354562,-2664.741391,-3447.429741,-1110.308913
1373.354874,-5625.565159,689.485948,-2072.576638
1373.355185,-9622.677246,2528.115143,-1258.350101
1373.355497,-13175.665768,1225.752797,-0.000000
1373.355808,-16210.510130,-1149.143247,1332.370696
1373.356120,-17764.942608,-383.047749,2664.741391
1373.356431,-15914.427753,2068.457845,3034.844362
1373.356743,-11843.295072,3677.258390,2368.659014
1373.357054,-7105.977043,2528.115143,370.102971
1373.357365,-3404.947333,-1149.143247,-444.123565
1373.357677,-1184.329507,-3753.867940,-2368.659014
1373.357988,-296.082377,-2757.943793,-2368.659014
1373.358300,-3256.906145,919.314598,-2960.823768
1373.358611,-8216.285956,3294.210641,-2516.700203
1373.358923,-12583.501014,1991.848295,-1554.432478
1373.359234,-17024.736666,-1302.362347,518.144159
1373.359546,-18505.148550,-383.047749,2368.659014
1373.359857,-17320.819043,1838.629195,1924.535449
1373.360168,-14063.912898,4596.572988,1332.370696
1373.360480,-7920.203579,4060.306139,962.267725
1373.360791,-2442.679609,-1072.533697,-0.000000
1373.361103,1406.391290,-3294.210641,-296.082377
1373.361414,2294.638420,-3983.696590,-2294.638420
1373.361726,-2590.720797,-536.266849,-3404.947333
1373.362037,-7031.956449,4060.306139,-2886.803174
1373.362349,-11769.274478,4596.572988,-2368.659014
1373.362660,-15544.324782,1915.238745,444.123565
1373.362971,-18135.045579,-153.219100,2368.659014
1373.363283,-18357.107362,-229.828649,3034.844362
1373.363594,-14656.077652,2604.724693,2960.823768
1373.363906,-10288.862594,2681.334243,2368.659014
1373.364217,-4515.256246,229.828649,592.164754
1373.364529,-666.185348,-2604.724693,-592.164754
1373.364840,-222.061783,-4213.525239,-2220.617826
1373.365152,-2368.659014,-2604.724693,-2442.679609
1373.365463,-5699.585753,1762.019645,-1924.535449
1373.365774,-9474.636058,2451.505594,-296.082377
1373.366086,-13915.871710,-842.705048,1332.370696
1373.366397,-17246.798449,-3294.210641,3849.070898
1373.366709,-16802.674883,-1685.410096,4589.276840
1373.367020,-13841.851115,1072.533697,3627.009116
1373.367332,-10510.924376,2068.457845,2368.659014
1373.367643,-6217.729913,383.047749,1036.288319
1373.367955,-2220.617826,-2681.334243,518.144159
1373.368266,-740.205942,-5286.058936,962.267725
1373.368577,-2516.700203,-3753.867940,1184.329507
1373.368889,-5773.606348,153.219100,740.205942
1373.369200,-9104.533087,2221.676944,740.205942
1373.369512,-11917.315666,383.047749,1332.370696
1373.369823,-14878.139434,-1838.629195,2442.679609
1373.370135,-15692.365970,536.266849,2738.761985
1373.370446,-14878.139434,2451.505594,3404.947333
1373.370758,-12065.356855,2681.334243,2516.700203
1373.371069,-7698.141797,1762.019645,1554.432478
1373.371380,-3701.029710,-766.095498,1036.288319
1373.371692,-740.205942,-3830.477490,814.226536
1373.372003,-962.267725,-4979.620737,592.164754
1373.372315,-3627.009116,-2145.067394,-148.041188
1373.372626,-6957.935855,1762.019645,-222.061783
1373.372938,-11103.089130,1225.752797,-666.185348
1373.373249,-14137.933492,-153.219100,888.247130
1373.373561,-15766.386565,0.000000,1554.432478
1373.373872,-15396.283594,1838.629195,1406.391290
1373.374183,-12287.418637,3140.991542,1850.514855
1373.374495,-8586.388927,2604.724693,1036.288319
1373.374806,-5181.441594,-459.657299,592.164754
1373.375118,-1776.494261,-3600.648841,-0.000000
1373.375429,-1628.453072,-4979.620737,-1406.391290
1373.375741,-3330.926739,-2221.676944,-2368.659014
1373.376052,-6217.729913,1991.848295,-2812.782580
1373.376363,-9992.780217,2681.334243,-2368.659014
1373.376675,-13471.748144,612.876398,-148.041188
1373.376986,-16876.695478,-1225.752797,1480.411884
1373.377298,-17024.736666,229.828649,2590.720797
1373.377609,-14211.954086,3600.648841,1998.556043
1373.377921,-9844.739029,5132.839837,518.144159
1373.378232,-5625.565159,2221.676944,-1776.494261
1373.378544,-1998.556043,-1225.752797,-2590.720797
1373.378855,-1184.329507,-1915.238745,-3404.947333
1373.379166,-3627.009116,-306.438199,-3034.844362
1373.379478,-7105.977043,2298.286494,-2812.782580
1373.379789,-11399.171507,2068.457845,-1036.288319
1373.380101,-15174.221811,-1149.143247,370.102971
1373.380412,-17172.777854,-2604.724693,2812.782580
1373.380724,-16136.489536,-766.095498,2738.761985
1373.381035,-15174.221811,2145.067394,1776.494261
1373.381347,-11399.171507,3524.039291,1184.329507
1373.381658,-6883.915261,1608.800546,-888.247130
1373.381969,-2590.720797,-1532.190996,-222.061783
1373.382281,-1258.350101,-4366.744339,-444.123565
1373.382592,-2590.720797,-4060.306139,-518.144159
1373.382904,-4811.338623,76.609550,-1184.329507
1373.383215,-8142.265362,1991.848295,-0.000000
1373.383527,-12213.398043,76.609550,1332.370696
1373.383838,-16284.530724,-1915.238745,3256.906145
1373.384150,-17468.860231,-1149.143247,3701.029710
1373.384461,-15840.407159,1685.410096,3849.070898
1373.384772,-11621.233289,3830.477490,2590.720797
1373.385084,-7105.977043,3753.867940,1184.329507
1373.385395,-2442.679609,-536.266849,-0.000000
1373.385707,814.226536,-4596.572988,-592.164754
1373.386018,0.000000,-4443.353888,666.185348
1373.386330,-3701.029710,-1149.143247,296.082377
1373.386641,-7994.224174,2068.457845,888.247130
1373.386953,-11621.233289,383.047749,2294.638420
1373.387264,-14359.995275,-1762.019645,2812.782580
1373.387575,-15914.427753,-1378.971896,3478.967927
1373.387887,-14582.057057,1762.019645,2664.741391
1373.388198,-11621.233289,4060.306139,2516.700203
1373.388510,-7920.203579,2911.162892,1850.514855
1373.388821,-3997.112087,-1225.752797,1480.411884
1373.389133,-1776.494261,-4826.401637,518.144159
1373.389444,-1258.350101,-5745.716235,444.123565
1373.389756,-2738.761985,-2374.896044,-148.041188
1373.390067,-6365.771101,1915.238745,-1406.391290
1373.390378,-9622.677246,2681.334243,-518.144159
1373.390690,-13397.727550,-766.095498,888.247130
1373.391001,-16062.468941,-1838.629195,2886.803174
1373.391313,-16284.530724,919.314598,3478.967927
1373.391624,-13619.789333,3600.648841,2368.659014
1373.391936,-9622.677246,3907.087040,962.267725
1373.392247,-4663.297435,1302.362347,-296.082377
1373.392559,-1110.308913,-1762.019645,-1998.556043
1373.392870,0.000000,-3753.867940,-3034.844362
1373.393181,-3478.967927,-2757.943793,-3330.926739
1373.393493,-7846.182985,766.095498,-2886.803174
1373.393804,-11325.150913,2757.943793,-1776.494261
1373.394116,-14656.077652,306.438199,518.144159
1373.394427,-17320.819043,-2068.457845,1554.432478
1373.394739,-17468.860231,-1838.629195,2516.700203
1373.395050,-15100.201217,1762.019645,2368.659014
1373.395362,-10436.903782,4136.915689,1036.288319
1373.395673,-6809.894666,2528.115143,-444.123565
1373.395984,-3997.112087,-1455.581446,-2220.617826
1373.396296,-1554.432478,-3753.867940,-3034.844362
1373.396607,-1480.411884,-2604.724693,-3330.926739
1373.396919,-3552.988522,919.314598,-3182.885551
1373.397230,-9474.636058,3064.381992,-2960.823768
1373.397542,-14582.057057,1378.971896,-0.000000
1373.397853,-16876.695478,-1302.362347,3330.926739
1373.398164,-18431.127956,-919.314598,4071.132681
1373.398476,-16210.510130,2145.067394,3404.947333
1373.398787,-11547.212695,4826.401637,1628.453072
1373.399099,-6365.771101,4060.306139,-740.205942
1373.399410,-1036.288319,689.485948,-1184.329507
1373.399722,1480.411884,-2374.896044,-1998.556043
1373.400033,444.123565,-4213.525239,-1554.432478
1373.400345,-4959.379811,-2068.457845,-814.226536
1373.400656,-10214.842000,229.828649,-74.020594
1373.400967,-13249.686362,995.924147,1036.288319
1373.401279,-15470.304188,-536.266849,2442.679609
1373.401590,-16432.571912,-1762.019645,3552.988522
1373.401902,-14952.160028,-1149.143247,3627.009116
1373.402213,-11843.295072,1608.800546,3256.906145
1373.402525,-6957.935855,2068.457845,1998.556043
1373.402836,-2590.720797,-536.266849,1480.411884
1373.403148,-814.226536,-3370.820191,592.164754
1373.403459,0.000000,-4519.963438,148.041188
1373.403770,-2072.576638,-2145.067394,-1036.288319
1373.404082,-6365.771101,1991.848295,-814.226536
1373.404393,-11029.068536,3524.039291,-74.020594
1373.404705,-15026.180623,612.876398,1554.432478
1373.405016,-16876.695478,-1685.410096,3701.029710
1373.405328,-17246.798449,-919.314598,3997.112087
1373.405639,-14656.077652,2681.334243,3256.906145
1373.405951,-9696.697840,3907.087040,1776.494261
1373.406262,-5329.482782,1072.533697,-74.020594
1373.406573,-666.185348,-1838.629195,-370.102971
1373.406885,1110.308913,-4903.011187,-0.000000
1373.407196,-1036.288319,-4366.744339,-0.000000
1373.407508,-5403.503377,-1302.362347,-0.000000
1373.407819,-9770.718434,459.657299,-0.000000
1373.408131,-13027.624579,-612.876398,1036.288319
1373.408442,-16432.571912,-2068.457845,2072.576638
1373.408754,-17394.839637,-1532.190996,2590.720797
1373.409065,-15470.304188,1225.752797,2442.679609
1373.409376,-11251.130318,3524.039291,2072.576638
1373.409688,-7550.100608,1072.533697,666.185348
1373.409999,-3923.091493,-2834.553343,-444.123565
1373.410311,-1554.432478,-4290.134789,-1258.350101
1373.410622,-1332.370696,-3370.820191,-2146.597232
1373.410934,-3552.988522,229.828649,-2368.659014
1373.411245,-7920.203579,2604.724693,-2294.638420
1373.411557,-12435.459826,2145.067394,-444.123565
1373.411868,-15470.304188,-689.485948,1702.473667
1373.412179,-17098.757260,-842.705048,3478.967927
1373.412491,-16432.571912,2068.457845,2738.761985
1373.412802,-12065.356855,3907.087040,1776.494261
1373.413114,-8216.285956,3524.039291,-1628.453072
1373.413425,-4663.297435,766.095498,-2664.741391
1373.413737,-1036.288319,153.219100,-3997.112087
1373.414048,-962.267725,-1378.971896,-3404.947333
1373.414360,-4663.297435,-383.047749,-2664.741391
1373.414671,-8660.409521,1838.629195,-1924.535449
1373.414982,-12139.377449,1455.581446,-74.020594
1373.415294,-15100.201217,-536.266849,1554.432478
1373.415605,-16506.592507,-1225.752797,2960.823768
1373.415917,-15618.345376,0.000000,2812.782580
1373.416228,-13545.768739,2451.505594,2738.761985
1373.416540,-8216.285956,2374.896044,814.226536
1373.416851,-4219.173869,76.609550,-888.247130
1373.417162,-1406.391290,-2604.724693,-962.267725
1373.417474,-888.247130,-3830.477490,-1924.535449
1373.417785,-3108.864956,-2451.505594,-1776.494261
1373.418097,-6957.935855,1532.190996,-962.267725
1373.418408,-10436.903782,2604.724693,370.102971
1373.418720,-14137.933492,536.266849,1998.556043
1373.419031,-16654.633695,-1378.971896,3478.967927
1373.419343,-16654.633695,-536.266849,3997.112087
1373.419654,-13693.809927,2757.943793,2368.659014
1373.419965,-9326.594869,4290.134789,814.226536
1373.420277,-4589.276840,1915.238745,148.041188
1373.420588,-1184.329507,-2374.896044,-370.102971
1373.420900,-518.144159,-5898.935335,-222.061783
1373.421211,-2664.741391,-4443.353888,222.061783
1373.421523,-5995.668130,-76.609550,-0.000000
1373.421834,-10140.821405,1991.848295,666.185348
1373.422146,-13545.768739,-459.657299,2146.597232
1373.422457,-15766.386565,-2757.943793,3108.864956
1373.422768,-15988.448347,-1685.410096,3552.988522
1373.423080,-14434.015869,1991.848295,3034.844362
1373.423391,-11695.253884,2604.724693,1998.556043
1373.423703,-7772.162391,842.705048,1110.308913
1373.424014,-3404.947333,-1685.410096,444.123565
1373.424326,-222.061783,-3983.696590,370.102971
1373.424637,-1776.494261,-4749.792088,-518.144159
1373.424949,-4589.276840,-1072.533697,-296.082377
1373.425260,-7772.162391,2068.457845,-518.144159
1373.425571,-11917.315666,995.924147,814.226536
1373.425883,-15396.283594,-995.924147,3182.885551
1373.426194,-16506.592507,-2145.067394,2886.803174
1373.426506,-14878.139434,1302.362347,2220.617826
1373.426817,-11695.253884,3983.696590,1406.391290
1373.427129,-7920.203579,2528.115143,-296.082377
1373.427440,-4219.173869,0.000000,-962.267725
1373.427752,-1776.494261,-3677.258390,-814.226536
1373.428063,-1628.453072,-4979.620737,-962.267725
1373.428374,-4071.132681,-2451.505594,-1406.391290
1373.428686,-7328.038826,1838.629195,-1332.370696
1373.428997,-11251.130318,2298.286494,-888.247130
1373.429309,-13545.768739,153.219100,518.144159
1373.429620,-15766.386565,-459.657299,1924.535449
1373.429932,-15544.324782,1838.629195,1998.556043
1373.430243,-13397.727550,3677.258390,888.247130
1373.430555,-10140.821405,4290.134789,222.061783
1373.430866,-5921.647536,2374.896044,-1332.370696
1373.431177,-1702.473667,-1072.533697,-1776.494261
1373.431489,-962.267725,-2757.943793,-2738.761985
1373.431800,-3034.844362,-1762.019645,-2368.659014
1373.432112,-6513.812290,1072.533697,-1702.473667
1373.432423,-9992.780217,2374.896044,-518.144159
1373.432735,-13619.789333,0.000000,1036.288319
1373.433046,-16580.613101,-2221.676944,2590.720797
1373.433358,-16580.613101,-383.047749,2442.679609
1373.433669,-14656.077652,2757.943793,1406.391290
1373.433980,-10510.924376,4290.134789,-148.041188
1373.434292,-6513.812290,2068.457845,-888.247130
1373.434603,-2664.741391,-1149.143247,-592.164754
1373.434915,-1998.556043,-4749.792088,-666.185348
1373.435226,-3552.988522,-4596.572988,-592.164754
1373.435538,-6143.709319,-1072.533697,-222.061783
1373.435849,-9622.677246,2757.943793,-296.082377
1373.436161,-12509.480420,1608.800546,962.267725
1373.436472,-14285.974681,-919.314598,2442.679609
1373.436783,-15544.324782,-1302.362347,3034.844362
1373.437095,-14063.912898,1608.800546,3330.926739
1373.437406,-11177.109724,2911.162892,1998.556043
1373.437718,-7920.203579,2298.286494,888.247130
1373.438029,-3182.885551,-229.828649,592.164754
1373.438341,-1554.432478,-4673.182538,-666.185348
1373.438652,-888.247130,-5056.230287,-0.000000
1373.438963,-3701.029710,-1455.581446,-0.000000
1373.439275,-7698.141797,1072.533697,-0.000000
1373.439586,-12509.480420,306.438199,962.267725
1373.439898,-15544.324782,-1072.533697,3404.947333
1373.440209,-17172.777854,-1455.581446,3478.967927
1373.440521,-15692.365970,1302.362347,3478.967927
1373.440832,-11621.233289,2757.943793,2072.576638
1373.441144,-8142.265362,1991.848295,740.205942
1373.441455,-4145.153275,-153.219100,-0.000000
1373.441767,-1480.411884,-2834.553343,-222.061783
1373.442078,-1850.514855,-4290.134789,148.041188
1373.442389,-4293.194464,-1991.848295,518.144159
1373.442701,-7031.956449,1838.629195,-0.000000
1373.443012,-9696.697840,1762.019645,-0.000000
1373.443324,-12213.398043,-536.266849,740.205942
1373.443635,-14211.954086,-1302.362347,1776.494261
1373.443947,-14508.036463,612.876398,2294.638420
1373.444258,-13027.624579,2757.943793,1998.556043
1373.444570,-10658.965565,2374.896044,888.247130
1373.444881,-6809.894666,0.000000,370.102971
1373.445192,-3627.009116,-2604.724693,-666.185348
1373.445504,-1258.350101,-4826.401637,-1332.370696
1373.445815,-2368.659014,-2834.553343,-1850.514855
1373.446127,-5403.503377,-306.438199,-1480.411884
1373.446438,-8956.491898,1149.143247,-1110.308913
1373.446750,-12509.480420,-383.047749,148.041188
1373.447061,-15248.242405,-1991.848295,1998.556043
1373.447373,-16950.716072,-459.657299,2442.679609
1373.447684,-15618.345376,2757.943793,1406.391290
1373.447996,-11843.295072,4903.011187,-0.000000
1373.448307,-7846.182985,3907.087040,-1110.308913
1373.448618,-3330.926739,1225.752797,-1850.514855
1373.448930,-1702.473667,-1532.190996,-2960.823768
1373.449241,-2368.659014,-1225.752797,-3034.844362
1373.449553,-4737.318029,2068.457845,-2812.782580
1373.449864,-8882.471304,3524.039291,-2442.679609
1373.450176,-12805.562797,1762.019645,-518.144159
1373.450487,-15470.304188,-1225.752797,1406.391290
1373.450799,-17172.777854,-1532.190996,2072.576638
1373.451110,-16876.695478,1378.971896,2220.617826
1373.451422,-13101.645173,3064.381992,1406.391290
1373.451733,-7920.203579,1762.019645,-0.000000
1373.452044,-3627.009116,-2451.505594,962.267725
1373.452356,-740.205942,-5745.716235,444.123565
1373.452667,-1332.370696,-5745.716235,-0.000000
1373.452979,-4145.153275,-1991.848295,-148.041188
1373.453290,-7920.203579,2145.067394,-0.000000
1373.453602,-11547.212695,1532.190996,962.267725
1373.453913,-15026.180623,-306.438199,2516.700203
1373.454225,-16432.571912,-306.438199,3404.947333
1373.454536,-15026.180623,2221.676944,3330.926739
1373.454848,-11843.295072,5745.716235,2368.659014
1373.455159,-7920.203579,4903.011187,814.226536
1373.455470,-3552.988522,995.924147,-0.000000
1373.455782,-1184.329507,-2145.067394,-222.061783
1373.456093,-740.205942,-3294.210641,-518.144159
1373.456405,-2294.638420,-1762.019645,-296.082377
1373.456716,-5921.647536,383.047749,-296.082377
1373.457028,-10066.800811,536.266849,888.247130
1373.457339,-13027.624579,-766.095498,2146.597232
1373.457651,-15618.345376,-3370.820191,3923.091493
1373.457962,-16506.592507,-1149.143247,3849.070898
1373.458273,-14804.118840,1149.143247,2960.823768
1373.458585,-10955.047942,2451.505594,1554.432478
1373.458896,-6143.709319,842.705048,666.185348
1373.459208,-2738.761985,-2221.676944,-0.000000
1373.459519,-1110.308913,-4673.182538,148.041188
1373.459831,-2590.720797,-3140.991542,-370.102971
1373.460142,-5551.544565,306.438199,148.041188
1373.460454,-9474.636058,1378.971896,-74.020594
1373.460765,-13101.645173,-383.047749,1258.350101
1373.461077,-15174.221811,-1915.238745,2294.638420
1373.461388,-15692.365970,-689.485948,2368.659014
1373.461699,-13693.809927,2374.896044,1776.494261
1373.462011,-9696.697840,3830.477490,296.082377
1373.462322,-7031.956449,1608.800546,-666.185348
1373.462634,-3182.885551,-1762.019645,-518.144159
1373.462945,-1332.370696,-4443.353888,-1036.288319
1373.463257,-2220.617826,-3447.429741,-1406.391290
1373.463568,-4515.256246,-229.828649,-1924.535449
1373.463880,-7846.182985,1838.629195,-2368.659014
1373.464191,-11103.089130,459.657299,-1184.329507
1373.464503,-14211.954086,-536.266849,592.164754
1373.464814,-16580.613101,-766.095498,1776.494261
1373.465125,-17172.777854,1838.629195,2220.617826
1373.465437,-14952.160028,3140.991542,1850.514855
1373.465748,-11251.130318,2528.115143,888.247130
1373.466060,-5625.565159,-153.219100,-370.102971
1373.466371,-1702.473667,-2528.115143,-1406.391290
1373.466683,-888.247130,-3294.210641,-2442.679609
1373.466994,-3256.906145,-459.657299,-2738.761985
1373.467306,-7105.977043,3064.381992,-2738.761985
1373.467617,-10807.006753,3217.601092,-1184.329507
1373.467928,-14137.933492,995.924147,1332.370696
1373.468240,-17024.736666,-842.705048,2442.679609
1373.468551,-17172.777854,1378.971896,2442.679609
1373.468863,-13767.830521,3983.696590,1776.494261
1373.469174,-8438.347739,4213.525239,148.041188
1373.469486,-5181.441594,842.705048,-222.061783
1373.469797,-1406.391290,-2451.505594,-814.226536
1373.470109,-1480.411884,-4826.401637,-1998.556043
1373.470420,-3627.009116,-2987.772442,-1628.453072
1373.470732,-6069.688724,919.314598,-888.247130
1373.471043,-10288.862594,1532.190996,-0.000000
1373.471354,-13397.727550,-766.095498,1702.473667
1373.471666,-16062.468941,-1762.019645,3404.947333
1373.471977,-16062.468941,0.000000,3923.091493
1373.472289,-13619.789333,2757.943793,3627.009116
1373.472600,-9178.553681,2987.772442,1554.432478
1373.472912,-4737.318029,536.266849,370.102971
1373.473223,-1406.391290,-2528.115143,-296.082377
1373.473535,74.020594,-4136.915689,-740.205942
1373.473846,-2146.597232,-2604.724693,-666.185348
1373.474158,-5403.503377,536.266849,592.164754
1373.474469,-9178.553681,1072.533697,888.247130
1373.474780,-13249.686362,-229.828649,2368.659014
1373.475092,-14804.118840,-1378.971896,3108.864956
1373.475403,-15692.365970,-229.828649,3182.885551
1373.475715,-14582.057057,2451.505594,2590.720797
1373.476026,-10584.944971,3983.696590,1406.391290
1373.476338,-7105.977043,1378.971896,592.164754
1373.476649,-3627.009116,-2604.724693,740.205942
1373.476961,-1554.432478,-5286.058936,1036.288319
1373.477272,-3034.844362,-6358.592633,-296.082377
1373.477584,-5255.462188,-3064.381992,-222.061783
1373.477895,-8882.471304,459.657299,-740.205942
1373.478206,-11621.233289,306.438199,370.102971
1373.478518,-14730.098246,-1149.143247,1258.350101
1373.478829,-15840.407159,-1608.800546,2738.761985
1373.479141,-15174.221811,536.266849,2886.803174
1373.479452,-12435.459826,1915.238745,2146.597232
1373.479764,-8586.388927,1455.581446,962.267725
1373.480075,-4293.194464,-459.657299,-0.000000
1373.480387,-1480.411884,-3600.648841,-666.185348
1373.480698,-2072.576638,-3447.429741,-1702.473667
1373.481009,-4589.276840,0.000000,-2220.617826
1373.481321,-8808.450710,3294.210641,-2220.617826
1373.481632,-11621.233289,2834.553343,-814.226536
1373.481944,-14211.954086,383.047749,296.082377
1373.482255,-15470.304188,536.266849,1702.473667
1373.482567,-14359.995275,1608.800546,2146.597232
1373.482878,-12509.480420,2757.943793,1406.391290
1373.483190,-8956.491898,3600.648841,-74.020594
1373.483501,-5921.647536,1532.190996,-444.123565
1373.483813,-2960.823768,-919.314598,-1628.453072
1373.484124,-2368.659014,-3677.258390,-1702.473667
1373.484435,-3330.926739,-2145.067394,-1850.514855
1373.484747,-6735.874072,1532.190996,-2664.741391
1373.485058,-9252.574275,2987.772442,-1924.535449
1373.485370,-13101.645173,612.876398,-370.102971
1373.485681,-16210.510130,-842.705048,2146.597232
1373.485993,-17024.736666,-383.047749,2886.803174
1373.486304,-15396.283594,2298.286494,2368.659014
1373.486616,-10658.965565,4519.963438,1480.411884
1373.486927,-5773.606348,2681.334243,-592.164754
1373.487239,-1702.473667,-536.266849,-2072.576638
1373.487550,74.020594,-4136.915689,-2442.679609
1373.487861,-1924.535449,-3830.477490,-1924.535449
1373.488173,-5477.523971,-306.438199,-1036.288319
1373.488484,-10288.862594,1608.800546,370.102971
1373.488796,-13767.830521,-383.047749,2442.679609
1373.489107,-16136.489536,-3294.210641,3627.009116
1373.489419,-16950.716072,-3600.648841,4367.215058
1373.489730,-14359.995275,229.828649,3552.988522
1373.490042,-10510.924376,2681.334243,2146.597232
1373.490353,-5773.606348,1838.629195,888.247130
1373.490664,-2072.576638,-1378.971896,-0.000000
1373.490976,148.041188,-5056.230287,-296.082377
1373.491287,-740.205942,-3983.696590,-592.164754
1373.491599,-4589.276840,-306.438199,-518.144159
1373.491910,-9030.512492,2681.334243,-74.020594
1373.492222,-13323.706956,1915.238745,1850.514855
1373.492533,-15914.427753,-1149.143247,3034.844362
1373.492845,-17172.777854,-1608.800546,3849.070898
1373.493156,-15544.324782,383.047749,3552.988522
1373.493468,-11547.212695,2604.724693,2072.576638
1373.493779,-6957.935855,1762.019645,518.144159
1373.494090,-2294.638420,-1302.362347,222.061783
1373.494402,0.000000,-3907.087040,-74.020594
1373.494713,-1332.370696,-5592.497135,-0.000000
1373.495025,-4885.359217,-3064.381992,370.102971
1373.495336,-8586.388927,0.000000,-222.061783
1373.495648,-11843.295072,1072.533697,444.123565
1373.495959,-14063.912898,-612.876398,1776.494261
1373.496271,-16506.592507,-1072.533697,2368.659014
1373.496582,-16654.633695,-306.438199,3108.864956
1373.496894,-13323.706956,2145.067394,2368.659014
1373.497205,-9178.553681,3140.991542,740.205942
1373.497516,-5329.482782,919.314598,222.061783
1373.497828,-2516.700203,-2374.896044,-962.267725
1373.498139,-1258.350101,-3447.429741,-2294.638420
1373.498451,-2072.576638,-842.705048,-3256.906145
1373.498762,-6513.812290,2681.334243,-3034.844362
1373.499074,-10214.842000,3677.258390,-1924.535449
1373.499385,-13545.768739,1991.848295,-74.020594
1373.499697,-15840.407159,76.609550,2368.659014
1373.500008,-15692.365970,306.438199,3034.844362
1373.500319,-14063.912898,2528.115143,2146.597232
1373.500631,-10362.883188,4290.134789,518.144159
1373.500942,-5255.462188,3677.258390,-888.247130
1373.501254,-1850.514855,0.000000,-2072.576638
1373.501565,-148.041188,-1685.410096,-2368.659014
1373.501877,-3034.844362,-2987.772442,-2886.803174
1373.502188,-6143.709319,306.438199,-2146.597232
1373.502500,-10140.821405,2757.943793,-1110.308913
1373.502811,-14063.912898,1532.190996,518.144159
1373.503123,-16506.592507,-383.047749,2294.638420
1373.503434,-17320.819043,-766.095498,2960.823768
1373.503745,-15248.242405,1072.533697,3034.844362
1373.504057,-11473.192101,3064.381992,2368.659014
1373.504368,-7031.956449,2528.115143,444.123565
1373.504680,-3182.885551,-842.705048,-1184.329507
1373.504991,-888.247130,-3370.820191,-1480.411884
1373.505303,-1406.391290,-3983.696590,-1776.494261
1373.505614,-3923.091493,-1149.143247,-1850.514855
1373.505926,-8068.244768,1915.238745,-370.102971
1373.506237,-12435.459826,459.657299,1406.391290
1373.506549,-15100.201217,-1532.190996,2886.803174
1373.506860,-17172.777854,-2374.896044,3923.091493
1373.507171,-15766.386565,-229.828649,3701.029710
1373.507483,-11695.253884,2145.067394,2442.679609
1373.507794,-7254.018232,2528.115143,814.226536
1373.508106,-3552.988522,-459.657299,444.123565
1373.508417,-444.123565,-5362.668486,-148.041188
1373.508729,-666.185348,-5669.106685,518.144159
1373.509040,-3997.112087,-3370.820191,740.205942
1373.509352,-8364.327145,153.219100,518.144159
1373.509663,-11621.233289,1378.971896,888.247130
1373.509975,-14211.954086,76.609550,1628.453072
1373.510286,-15470.304188,-612.876398,2738.761985
1373.510597,-15840.407159,0.000000,2886.803174
1373.510909,-12435.459826,1455.581446,3108.864956
1373.511220,-9474.636058,2221.676944,1480.411884
1373.511532,-6217.729913,-153.219100,1110.308913
1373.511843,-2960.823768,-2374.896044,444.123565
1373.512155,-2294.638420,-3677.258390,-666.185348
1373.512466,-2368.659014,-2528.115143,-666.185348
1373.512778,-5329.482782,689.485948,-888.247130
1373.513089,-9474.636058,2298.286494,-888.247130
1373.513400,-12139.377449,766.095498,592.164754
1373.513712,-14804.118840,-1072.533697,1850.514855
1373.514023,-15248.242405,-1302.362347,2738.761985
1373.514335,-14211.954086,1532.190996,2368.659014
1373.514646,-10510.924376,2528.115143,740.205942
1373.514958,-6291.750507,1149.143247,296.082377
1373.515269,-3256.906145,-1991.848295,-666.185348
1373.515581,-740.205942,-3524.039291,-1110.308913
1373.515892,-2664.741391,-3677.258390,-2146.597232
1373.516204,-5255.462188,0.000000,-1998.556043
1373.516515,-8216.285956,3524.039291,-1258.350101
1373.516826,-12213.398043,2374.896044,-444.123565
1373.517138,-15026.180623,383.047749,962.267725
1373.517449,-16876.695478,0.000000,2146.597232
1373.517761,-15988.448347,2987.772442,1998.556043
1373.518072,-12361.439231,5745.716235,666.185348
1373.518384,-7698.141797,4903.011187,-888.247130
1373.518695,-3775.050304,766.095498,-1406.391290
1373.519007,-888.247130,-2681.334243,-2294.638420
1373.519318,-370.102971,-3600.648841,-2590.720797
1373.519630,-3552.988522,-2068.457845,-2294.638420
1373.519941,-8364.327145,-383.047749,-1406.391290
1373.520252,-11991.336260,-919.314598,296.082377
1373.520564,-14878.139434,-2757.943793,1628.453072
1373.520875,-17172.777854,-4136.915689,2738.761985
1373.521187,-16580.613101,-3830.477490,2886.803174
1373.521498,-14063.912898,-1378.971896,2072.576638
1373.521810,-9548.656652,306.438199,148.041188
1373.522121,-4737.318029,-1378.971896,148.041188
1373.522433,-2146.597232,-4519.963438,-296.082377
1373.522744,-370.102971,-7737.564530,592.164754
1373.523055,-2220.617826,-5822.325785,148.041188
1373.523367,-6439.791695,-3140.991542,-444.123565
1373.523678,-9696.697840,-76.609550,296.082377
1373.523990,-13323.706956,-995.924147,814.226536
1373.524301,-15100.201217,-2757.943793,2886.803174
1373.524613,-15914.427753,-3294.210641,3256.906145
1373.524924,-14582.057057,-1149.143247,2738.761985
1373.525236,-11917.315666,1149.143247,814.226536
1373.525547,-8364.327145,1762.019645,-296.082377
1373.525859,-4515.256246,-1762.019645,-0.000000
1373.526170,-1628.453072,-4903.011187,-148.041188
1373.526481,-444.123565,-6818.249932,-592.164754
1373.526793,-1998.556043,-6281.983084,-370.102971
1373.527104,-5699.585753,-4443.353888,-0.000000
1373.527416,-10214.842000,-3983.696590,-74.020594
1373.527727,-13767.830521,-3983.696590,1184.329507
1373.528039,-15988.448347,-3217.601092,2738.761985
1373.528350,-16284.530724,-2987.772442,3997.112087
1373.528662,-15100.201217,-3983.696590,3923.091493
1373.528973,-11991.336260,-4366.744339,2886.803174
1373.529285,-7994.224174,-5056.230287,1776.494261
1373.529596,-4145.153275,-4596.572988,1480.411884
1373.529907,-1184.329507,-4596.572988,740.205942
1373.530219,-444.123565,-4290.134789,-888.247130
1373.530530,-1406.391290,-3294.210641,-1702.473667
1373.530842,-4367.215058,-2911.162892,-1406.391290
1373.531153,-7624.121203,-1762.019645,-814.226536
1373.531465,-11769.274478,-1378.971896,-148.041188
1373.531776,-15026.180623,-1225.752797,592.164754
1373.532088,-16358.551318,-383.047749,1850.514855
1373.532399,-16062.468941,-689.485948,2072.576638
1373.532711,-13545.768739,-1225.752797,1850.514855
1373.533022,-9696.697840,-2987.772442,1776.494261
1373.533333,-5921.647536,-5515.887586,1702.473667
1373.533645,-2368.659014,-6588.421283,370.102971
1373.533956,-1850.514855,-6511.811733,-1554.432478
1373.534268,-3034.844362,-4903.011187,-2664.741391
1373.534579,-5329.482782,-2987.772442,-2886.803174
1373.534891,-8586.388927,-1302.362347,-2886.803174
1373.535202,-11917.315666,-766.095498,-1924.535449
1373.535514,-15396.283594,-1455.581446,370.102971
1373.535825,-16580.613101,-1608.800546,2146.597232
1373.536136,-15692.365970,-1762.019645,2368.659014
1373.536448,-12435.459826,-1915.238745,1776.494261
1373.536759,-8734.430116,-2374.896044,962.267725
1373.537071,-6513.812290,-2681.334243,148.041188
1373.537382,-5107.421000,-2604.724693,-0.000000
1373.537694,-4219.173869,-1072.533697,-666.185348
1373.538005,-5403.503377,-919.314598,-814.226536
1373.538317,-6661.853478,-1532.190996,-666.185348
1373.538628,-6809.894666,-2221.676944,-592.164754
1373.538940,-7105.977043,-3217.601092,-888.247130
1373.539251,-7846.182985,-4136.915689,-444.123565
1373.539562,-8956.491898,-4903.011187,148.041188
1373.539874,-11621.233289,-5209.449386,592.164754
1373.540185,-12583.501014,-5592.497135,2590.720797
1373.540497,-12435.459826,-5592.497135,3330.926739
1373.540808,-11695.253884,-5286.058936,3182.885551
1373.541120,-9474.636058,-4213.525239,2368.659014
1373.541432,-7550.100608,-3217.601092,888.247130
1373.541743,-5847.626942,-1838.629195,-148.041188
1373.542055,-5033.400406,-229.828649,-1480.411884
1373.542366,-4441.235652,766.095498,-1998.556043
1373.542678,-5551.544565,-229.828649,-1850.514855
1373.542989,-7402.059420,-1915.238745,-740.205942
1373.543301,-9474.636058,-2298.286494,888.247130
1373.543612,-10881.027347,-3830.477490,2072.576638
1373.543924,-12657.521608,-5515.887586,3182.885551
1373.544235,-12583.501014,-6281.983084,3627.009116
1373.544547,-12509.480420,-6205.373534,2590.720797
1373.544858,-10288.862594,-4290.134789,2072.576638
1373.545170,-8808.450710,-2987.772442,592.164754
1373.545481,-6661.853478,-1532.190996,-222.061783
1373.545793,-6439.791695,-536.266849,-740.205942
1373.546105,-6143.709319,-919.314598,-666.185348
1373.546416,-5921.647536,-1072.533697,-0.000000
1373.546728,-6883.915261,-2068.457845,888.247130
1373.547039,-8956.491898,-3217.601092,1480.411884
1373.547351,-10584.944971,-4749.792088,1776.494261
1373.547662,-11843.295072,-5056.230287,1480.411884
1373.547974,-11991.336260,-4213.525239,1554.432478
1373.548285,-11621.233289,-3983.696590,1702.473667
1373.548597,-11399.171507,-4213.525239,1332.370696
1373.548908,-10066.800811,-4519.963438,1332.370696
1373.549220,-7698.141797,-3217.601092,962.267725
1373.549531,-6069.688724,-2911.162892,592.164754
1373.549843,-4959.379811,-1302.362347,-74.020594
1373.550154,-5699.585753,-1225.752797,-888.247130
1373.550466,-6365.771101,-1608.800546,-888.247130
1373.550777,-7476.080014,-1302.362347,-740.205942
1373.551089,-9030.512492,-1378.971896,-444.123565
1373.551401,-9992.780217,-2451.505594,370.102971
1373.551712,-10955.047942,-4290.134789,888.247130
1373.552024,-9992.780217,-4749.792088,1554.432478
1373.552335,-10288.862594,-4826.401637,888.247130
1373.552647,-8142.265362,-2757.943793,962.267725
1373.552958,-8956.491898,-3294.210641,-518.144159
1373.553270,-7846.182985,-2604.724693,-370.102971
1373.553581,-6069.688724,-1991.848295,-814.226536
1373.553893,-6587.832884,-3217.601092,-1110.308913
1373.554204,-8364.327145,-4596.572988,-74.020594
1373.554516,-11103.089130,-5286.058936,592.164754
1373.554827,-10436.903782,-3294.210641,1406.391290
1373.555139,-10955.047942,-2757.943793,1480.411884
1373.555450,-10881.027347,-3907.087040,2590.720797
1373.555762,-10436.903782,-4596.572988,1924.535449
1373.556073,-9474.636058,-3753.867940,1480.411884
1373.556385,-8438.347739,-1608.800546,1702.473667
1373.556697,-9326.594869,-383.047749,1184.329507
1373.557008,-11177.109724,536.266849,962.267725
1373.557320,-10066.800811,689.485948,1184.329507
1373.557631,-8734.430116,-612.876398,1406.391290
1373.557943,-7105.977043,-766.095498,1998.556043
1373.558254,-7105.977043,-842.705048,1776.494261
1373.558566,-8216.285956,-2834.553343,2220.617826
1373.558877,-8290.306550,-4596.572988,3849.070898
1373.559189,-9696.697840,-4673.182538,3849.070898
1373.559500,-9474.636058,-1608.800546,6069.688724
1373.559812,-12657.521608,-1532.190996,4959.379811
1373.560123,-12139.377449,-1838.629195,6439.791695
1373.560435,-8808.450710,0.000000,4071.132681
1373.560746,-7031.956449,2145.067394,4145.153275
1373.561058,-5847.626942,2145.067394,2812.782580
1373.561370,-5107.421000,766.095498,2368.659014
1373.561681,-6735.874072,842.705048,1776.494261
1373.561993,-4885.359217,1378.971896,3923.091493
1373.562304,-8290.306550,229.828649,2886.803174
1373.562616,-11547.212695,306.438199,5329.482782
1373.562927,-11621.233289,229.828649,6883.915261
1373.563239,-10140.821405,-1532.190996,5995.668130
1373.563550,-8216.285956,-919.314598,7031.956449
1373.563862,-8660.409521,0.000000,4959.379811
1373.564173,-7624.121203,995.924147,5033.400406
1373.564485,-6291.750507,306.438199,3552.988522
1373.564796,-5551.544565,536.266849,3775.050304
1373.565108,-6439.791695,1532.190996,3330.926739
1373.565419,-8438.347739,766.095498,4071.132681
1373.565731,-8882.471304,-229.828649,4737.318029
1373.566042,-8364.327145,-1378.971896,5551.544565
1373.566354,-8808.450710,-1838.629195,5699.585753
1373.566666,-9474.636058,-1991.848295,5107.421000
1373.566977,-9178.553681,-2604.724693,5181.441594
1373.567289,-8068.244768,-536.266849,4663.297435
1373.567600,-8290.306550,995.924147,4441.235652
1373.567912,-9178.553681,2221.676944,3404.947333
1373.568223,-10436.903782,1991.848295,3775.050304
1373.568535,-9030.512492,2987.772442,3478.967927
1373.568846,-7772.162391,2757.943793,2812.782580
1373.569158,-6883.915261,1685.410096,2960.823768
1373.569469,-6587.832884,-153.219100,2146.597232
1373.569781,-6735.874072,-612.876398,2368.659014
1373.570092,-5995.668130,-919.314598,2368.659014
1373.570404,-6809.894666,-1838.629195,2516.700203
1373.570715,-8808.450710,-2068.457845,3627.009116
1373.571027,-10362.883188,-2145.067394,3997.112087
1373.571338,-11843.295072,-1378.971896,3849.070898
1373.571650,-11399.171507,-306.438199,3923.091493
1373.571962,-11473.192101,-459.657299,3404.947333
1373.572273,-10807.006753,-383.047749,2294.638420
1373.572585,-9474.636058,-229.828649,1554.432478
1373.572896,-8142.265362,229.828649,962.267725
1373.573208,-8660.409521,459.657299,1332.370696
1373.573519,-10436.903782,-459.657299,1702.473667
1373.573831,-10362.883188,-1455.581446,2960.823768
1373.574142,-10288.862594,-1838.629195,3775.050304
1373.574454,-9252.574275,-995.924147,3997.112087
1373.574765,-8956.491898,-612.876398,3701.029710
1373.575077,-8586.388927,-153.219100,2664.741391
1373.575388,-6809.894666,1225.752797,1850.514855
1373.575700,-5847.626942,1991.848295,222.061783
1373.576011,-7624.121203,2145.067394,-0.000000
1373.576323,-9030.512492,2834.553343,222.061783
1373.576635,-10955.047942,1532.190996,1332.370696
1373.576946,-11843.295072,1225.752797,2812.782580
1373.577258,-11991.336260,-306.438199,3923.091493
1373.577569,-11843.295072,-1532.190996,4737.318029
1373.577881,-10214.842000,-2221.676944,5033.400406
1373.578192,-7254.018232,-2834.553343,4145.153275
1373.578504,-5181.441594,-2221.676944,2664.741391
1373.578815,-3627.009116,-2068.457845,2516.700203
1373.579127,-4811.338623,-1991.848295,1776.494261
1373.579438,-8216.285956,-1149.143247,2368.659014
1373.579750,-10658.965565,995.924147,3627.009116
1373.580061,-13027.624579,1838.629195,5181.441594
1373.580373,-13989.892304,1302.362347,5995.668130
1373.580684,-12361.439231,0.000000,5699.585753
1373.580996,-8068.244768,229.828649,4737.318029
1373.581307,-4737.318029,612.876398,3256.906145
1373.581619,-3552.988522,995.924147,2220.617826
1373.581931,-3923.091493,1149.143247,1554.432478
1373.582242,-5255.462188,1455.581446,1702.473667
1373.582554,-7994.224174,1302.362347,2812.782580
1373.582865,-11251.130318,1455.581446,4293.194464
1373.583177,-13841.851115,1378.971896,5181.441594
1373.583488,-13175.665768,995.924147,5033.400406
1373.583800,-9844.739029,0.000000,5181.441594
1373.584111,-7920.203579,-1302.362347,4293.194464
1373.584423,-6587.832884,-1378.971896,4071.132681
1373.584734,-6217.729913,-766.095498,3627.009116
1373.585046,-6809.894666,-689.485948,4885.359217
1373.585357,-9030.512492,0.000000,5773.606348
1373.585669,-11177.109724,689.485948,6957.935855
1373.585980,-11177.109724,306.438199,7179.997637
1373.586292,-10362.883188,459.657299,5921.647536
1373.586603,-7328.038826,1378.971896,4219.173869
1373.586915,-5255.462188,2681.334243,1702.473667
1373.587227,-4737.318029,2757.943793,148.041188
1373.587538,-5477.523971,2145.067394,296.082377
1373.587850,-7402.059420,1685.410096,1258.350101
1373.588161,-10214.842000,1072.533697,3478.967927
1373.588473,-12509.480420,-229.828649,5625.565159
1373.588784,-13545.768739,-2451.505594,7846.182985
1373.589096,-12879.583391,-3677.258390,9178.553681
1373.589407,-11177.109724,-2681.334243,9104.533087
1373.589719,-9030.512492,-1991.848295,7624.121203
1373.590030,-6957.935855,-1302.362347,5329.482782
1373.590342,-4589.276840,306.438199,2812.782580
1373.590653,-1998.556043,2451.505594,962.267725
1373.590965,-2664.741391,3217.601092,-888.247130
1373.591276,-4219.173869,2604.724693,444.123565
1373.591588,-6883.915261,1685.410096,1628.453072
1373.591899,-10066.800811,229.828649,2442.679609
1373.592211,-11695.253884,-536.266849,4145.153275
1373.592523,-12731.542202,-1072.533697,4885.359217
1373.592834,-13027.624579,-1149.143247,4367.215058
1373.593146,-12139.377449,-229.828649,3478.967927
1373.593457,-9548.656652,995.924147,2960.823768
1373.593769,-8660.409521,689.485948,2738.761985
1373.594080,-7550.100608,1072.533697,2960.823768
1373.594392,-5995.668130,459.657299,2590.720797
1373.594703,-4515.256246,383.047749,1480.411884
1373.595015,-2960.823768,229.828649,-148.041188
1373.595326,-1998.556043,0.000000,-2146.597232
1373.595638,-3256.906145,-229.828649,-3997.112087
1373.595949,-7105.977043,0.000000,-2516.700203
1373.596261,-13545.768739,-1149.143247,-518.144159
1373.596572,-18357.107362,-1762.019645,1554.432478
1373.596884,-20873.807564,-1378.971896,3923.091493
1373.597196,-20059.581028,-306.438199,4885.359217
1373.597507,-15100.201217,-306.438199,4293.194464
1373.597819,-9548.656652,-536.266849,1924.535449
1373.598130,-4441.235652,536.266849,-1258.350101
1373.598442,-814.226536,1838.629195,-3701.029710
1373.598753,1406.391290,2451.505594,-5329.482782
1373.599065,0.000000,2298.286494,-7031.956449
1373.599376,-3701.029710,383.047749,-5625.565159
1373.599688,-8512.368333,-1225.752797,-3923.091493
1373.599999,-13027.624579,-1991.848295,-1184.329507
1373.600311,-18579.169144,-1455.581446,2146.597232
1373.600622,-22502.260637,-1991.848295,4737.318029
1373.600934,-23242.466579,-1762.019645,6513.812290
1373.601245,-20207.622217,-2221.676944,5403.503377
1373.601557,-11991.336260,-229.828649,3256.906145
1373.601868,-3849.070898,459.657299,-518.144159
1373.602180,3108.864956,1149.143247,-4071.132681
1373.602492,6809.894666,2604.724693,-6883.915261
1373.602803,5477.523971,1762.019645,-7179.997637
1373.603115,-1628.453072,459.657299,-4737.318029
1373.603426,-10288.862594,-766.095498,-1480.411884
1373.603738,-18357.107362,-689.485948,1332.370696
1373.604049,-22798.343014,-306.438199,4589.276840
1373.604361,-23316.487173,-229.828649,6513.812290
1373.604672,-19985.560434,-383.047749,6513.812290
1373.604984,-13101.645173,0.000000,5699.585753
1373.605295,-4589.276840,76.609550,3404.947333
1373.605607,2664.741391,-536.266849,740.205942
1373.605918,7105.977043,0.000000,-3034.844362
1373.606230,7105.977043,1455.581446,-4589.276840
1373.606541,2960.823768,1762.019645,-5181.441594
1373.606853,-3256.906145,536.266849,-4219.173869
1373.607164,-11251.130318,1225.752797,-1702.473667
1373.607476,-19171.333898,1532.190996,1554.432478
1373.607788,-24796.899057,1149.143247,5329.482782
1373.608099,-25611.125593,-459.657299,7402.059420
1373.608411,-21243.910535,-1455.581446,8438.347739
1373.608722,-13101.645173,-1072.533697,7105.977043
1373.609034,-4515.256246,-919.314598,4515.256246
1373.609345,3256.906145,-612.876398,962.267725
1373.609657,7698.141797,459.657299,-2886.803174
1373.609968,7550.100608,1685.410096,-3775.050304
1373.610280,1850.514855,1915.238745,-3775.050304
1373.610591,-6809.894666,153.219100,-2812.782580
1373.610903,-14211.954086,-153.219100,-444.123565
1373.611214,-20947.828159,1225.752797,2590.720797
1373.611526,-23760.610738,76.609550,5403.503377
1373.611837,-22428.240043,-2298.286494,6661.853478
1373.612149,-17320.819043,-3600.648841,6957.935855
1373.612461,-10140.821405,-2145.067394,5995.668130
1373.612772,-3849.070898,-1302.362347,3256.906145
1373.613084,1702.473667,-995.924147,1184.329507
1373.613395,3775.050304,76.609550,-2294.638420
1373.613707,3849.070898,1225.752797,-4071.132681
1373.614018,-222.061783,1378.971896,-5107.421000
1373.614330,-6143.709319,1685.410096,-4219.173869
1373.614641,-12657.521608,1838.629195,-2220.617826
1373.614953,-18505.148550,612.876398,1406.391290
1373.615264,-21614.013506,-1149.143247,4441.235652
1373.615576,-20947.828159,-2757.943793,6291.750507
1373.615887,-15840.407159,-3677.258390,6587.832884
1373.616199,-8808.450710,-2911.162892,4959.379811
1373.616510,-2072.576638,-1991.848295,1628.453072
1373.616822,2294.638420,-1302.362347,-2072.576638
1373.617133,3330.926739,689.485948,-5107.421000
1373.617445,1628.453072,1991.848295,-6883.915261
1373.617757,-4589.276840,3524.039291,-6883.915261
1373.618068,-12213.398043,4749.792088,-4737.318029
1373.618380,-19245.354492,4213.525239,-2072.576638
1373.618691,-22650.301825,2145.067394,1702.473667
1373.619003,-21021.848753,-1149.143247,3849.070898
1373.619314,-14804.118840,-3983.696590,4071.132681
1373.619626,-7550.100608,-4826.401637,3108.864956
1373.619937,-2960.823768,-3907.087040,2220.617826
1373.620249,-962.267725,-1762.019645,-1036.288319
1373.620560,-1924.535449,-995.924147,-2738.761985
1373.620872,-3256.906145,383.047749,-4367.215058
1373.621183,-6217.729913,1072.533697,-4219.173869
1373.621495,-8956.491898,2681.334243,-5033.400406
1373.621806,-11325.150913,4060.306139,-4737.318029
1373.622118,-13323.706956,3600.648841,-3849.070898
1373.622429,-14730.098246,1302.362347,-2294.638420
1373.622741,-14952.160028,-2221.676944,1184.329507
1373.623053,-14063.912898,-3064.381992,3108.864956
1373.623364,-11251.130318,-3907.087040,4145.153275
1373.623676,-7698.141797,-4213.525239,3330.926739
1373.623987,-3923.091493,-3064.381992,-148.041188
1373.624299,-1184.329507,-1608.800546,-2294.638420
1373.624610,-2220.617826,-1838.629195,-4441.235652
1373.624922,-5403.503377,459.657299,-4367.215058
1373.625233,-10436.903782,3064.381992,-5255.462188
1373.625545,-14730.098246,4596.572988,-2590.720797
1373.625856,-17098.757260,2987.772442,-518.144159
1373.626168,-16580.613101,0.000000,2590.720797
1373.626479,-13323.706956,-2681.334243,4367.215058
1373.626791,-8512.368333,-3294.210641,4737.318029
1373.627102,-5477.523971,-3753.867940,3108.864956
1373.627414,-2590.720797,-2298.286494,1776.494261
1373.627726,-1924.535449,-2374.896044,-814.226536
1373.628037,-4737.318029,-766.095498,-1554.432478
1373.628349,-8808.450710,689.485948,-1702.473667
1373.628660,-12213.398043,3217.601092,-1850.514855
1373.628972,-13545.768739,4903.011187,-1258.350101
1373.629283,-12953.603985,3907.087040,-74.020594
1373.629595,-11473.192101,1225.752797,1998.556043
1373.629906,-10214.842000,-1685.410096,2886.803174
1373.630218,-7994.224174,-3447.429741,4367.215058
1373.630529,-5033.400406,-3447.429741,4663.297435
1373.630841,-2738.761985,-4060.306139,3330.926739
1373.631152,-1332.370696,-3677.258390,1628.453072
1373.631464,-3997.112087,-2757.943793,-0.000000
1373.631775,-7772.162391,-1302.362347,-518.144159
1373.632087,-12361.439231,2681.334243,-222.061783
1373.632398,-16580.613101,5286.058936,296.082377
1373.632710,-18801.230927,5439.278036,1036.288319
1373.633022,-15544.324782,4213.525239,2072.576638
1373.633333,-9918.759623,1838.629195,1924.535449
1373.633645,-4367.215058,-689.485948,1702.473667
1373.633956,-370.102971,-2221.676944,1258.350101
1373.634268,444.123565,-1991.848295,740.205942
1373.634579,-1036.288319,-2604.724693,518.144159
1373.634891,-4663.297435,-3294.210641,1924.535449
1373.635202,-10807.006753,-2298.286494,2442.679609
1373.635514,-14730.098246,-536.266849,2072.576638
1373.635825,-16876.695478,2528.115143,2220.617826
1373.636137,-15618.345376,3983.696590,666.185348
1373.636448,-11325.150913,3983.696590,-444.123565
1373.636760,-7476.080014,919.314598,-1110.308913
1373.637071,-3627.009116,383.047749,-666.185348
1373.637383,-2368.659014,-1455.581446,-444.123565
1373.637694,-2886.803174,-1915.238745,888.247130
1373.638006,-4737.318029,-2451.505594,1036.288319
1373.638318,-7698.141797,-3983.696590,1258.350101
1373.638629,-10066.800811,-4290.134789,1776.494261
1373.638941,-13545.768739,-2834.553343,666.185348
1373.639252,-15470.304188,306.438199,148.041188
1373.639564,-16580.613101,3753.867940,-444.123565
1373.639875,-15248.242405,3370.820191,-1258.350101
1373.640187,-11177.109724,2374.896044,-370.102971
1373.640498,-7179.997637,689.485948,-592.164754
1373.640809,-3775.050304,0.000000,-1110.308913
1373.641121,-1850.514855,612.876398,-1924.535449
1373.641432,-1776.494261,-306.438199,-2368.659014
1373.641744,-3182.885551,-2451.505594,-2294.638420
1373.642055,-7254.018232,-4596.572988,-1924.535449
1373.642367,-11103.089130,-3064.381992,-370.102971
1373.642678,-16284.530724,-306.438199,518.144159
1373.642990,-19615.457463,2068.457845,962.267725
1373.643301,-19689.478057,2681.334243,1554.432478
1373.643613,-16728.654289,1838.629195,1776.494261
1373.643924,-11103.089130,1762.019645,1184.329507
1373.644235,-5551.544565,306.438199,444.123565
1373.644547,444.123565,0.000000,-1332.370696
1373.644858,4071.132681,-995.924147,-2812.782580
1373.645170,3256.906145,-1915.238745,-3552.988522
1373.645481,-2664.741391,-2145.067394,-1776.494261
1373.645793,-10881.027347,-1378.971896,1406.391290
1373.646104,-18357.107362,-1378.971896,3256.906145
1373.646416,-22576.281231,0.000000,4737.318029
1373.646727,-21021.848753,1608.800546,4071.132681
1373.647039,-14063.912898,1608.800546,3034.844362
1373.647350,-7254.018232,76.609550,1702.473667
1373.647661,-1776.494261,-995.924147,-518.144159
1373.647973,1776.494261,-459.657299,-1702.473667
1373.648284,1702.473667,-306.438199,-1480.411884
1373.648596,-1776.494261,153.219100,-370.102971
1373.648907,-6883.915261,-459.657299,1110.308913
1373.649219,-10140.821405,-2221.676944,1776.494261
1373.649530,-13915.871710,-1915.238745,3182.885551
1373.649842,-16062.468941,-306.438199,3182.885551
1373.650153,-16580.613101,1149.143247,3552.988522
1373.650465,-15248.242405,459.657299,2960.823768
1373.650776,-11769.274478,0.000000,3256.906145
1373.651088,-7476.080014,383.047749,2220.617826
1373.651399,-3701.029710,1149.143247,1480.411884
1373.651710,-518.144159,1455.581446,-74.020594
1373.652022,148.041188,1149.143247,-740.205942
1373.652333,-1998.556043,-383.047749,-1110.308913
1373.652645,-6513.812290,-689.485948,-0.000000
1373.652956,-11843.295072,536.266849,1110.308913
1373.653268,-16210.510130,2911.162892,1998.556043
1373.653579,-18579.169144,2145.067394,2738.761985
1373.653891,-17394.839637,2298.286494,2738.761985
1373.654202,-13249.686362,995.924147,3330.926739
1373.654514,-9030.512492,-689.485948,3404.947333
1373.654825,-4811.338623,-383.047749,2590.720797
1373.655136,-2072.576638,-383.047749,962.267725
1373.655448,-296.082377,-459.657299,-592.164754
1373.655759,-1776.494261,-1302.362347,-1184.329507
1373.656071,-4219.173869,-919.314598,-1628.453072
1373.656382,-8586.388927,-536.266849,-1406.391290
1373.656694,-12065.356855,766.095498,-444.123565
1373.657005,-16136.489536,1608.800546,1554.432478
1373.657317,-18505.148550,1685.410096,2664.741391
1373.657628,-16728.654289,0.000000,4145.153275
1373.657940,-13101.645173,-919.314598,4219.173869
1373.658251,-7772.162391,-1532.190996,3627.009116
1373.658562,-3923.091493,-459.657299,1628.453072
1373.658874,-666.185348,-229.828649,-962.267725
1373.659185,666.185348,-459.657299,-2442.679609
1373.659497,-2146.597232,-689.485948,-3330.926739
1373.659808,-5921.647536,-383.047749,-2368.659014
1373.660120,-10658.965565,919.314598,-1628.453072
1373.660431,-15544.324782,2298.286494,-0.000000
1373.660743,-18061.024985,2068.457845,2442.679609
1373.661054,-17320.819043,919.314598,3330.926739
1373.661366,-12657.521608,-1302.362347,3552.988522
1373.661677,-7624.121203,-2221.676944,2220.617826
1373.661988,-3849.070898,-842.705048,-0.000000
1373.662300,-1702.473667,689.485948,-2072.576638
1373.662611,-1998.556043,1532.190996,-3330.926739
1373.662923,-4959.379811,229.828649,-3330.926739
1373.663234,-8882.471304,0.000000,-1702.473667
1373.663546,-12879.583391,536.266849,-1184.329507
1373.663857,-14211.954086,1608.800546,-370.102971
1373.664169,-14434.015869,2374.896044,592.164754
1373.664480,-14063.912898,689.485948,1628.453072
1373.664792,-12213.398043,-1149.143247,2812.782580
1373.665103,-9844.739029,-1532.190996,3849.070898
1373.665414,-7920.203579,-1378.971896,3923.091493
1373.665726,-5403.503377,-919.314598,2590.720797
1373.666037,-3478.967927,-1762.019645,592.164754
1373.666349,-1702.473667,-1455.581446,-666.185348
1373.666660,-3404.947333,-2298.286494,-1628.453072
1373.666972,-7476.080014,-1225.752797,-1776.494261
1373.667283,-11843.295072,1072.533697,-1110.308913
1373.667595,-15544.324782,2374.896044,148.041188
1373.667906,-16950.716072,2068.457845,2442.679609
1373.668218,-15470.304188,766.095498,3923.091493
1373.668529,-12361.439231,1072.533697,4663.297435
1373.668840,-8438.347739,-536.266849,4441.235652
1373.669152,-4367.215058,-612.876398,3182.885551
1373.669463,-1184.329507,-229.828649,1258.350101
1373.669775,1184.329507,-842.705048,-666.185348
1373.670086,-814.226536,-1838.629195,-2442.679609
1373.670398,-5551.544565,-383.047749,-2072.576638
1373.670709,-11547.212695,2757.943793,-962.267725
1373.671021,-17468.860231,3524.039291,518.144159
1373.671332,-19985.560434,3217.601092,2960.823768
1373.671644,-18135.045579,1225.752797,3701.029710
1373.671955,-11843.295072,-306.438199,3923.091493
1373.672266,-4885.359217,-459.657299,2886.803174
1373.672578,-666.185348,-766.095498,962.267725
1373.672889,1110.308913,-536.266849,-1036.288319
1373.673201,-1258.350101,-1608.800546,-962.267725
1373.673512,-5625.565159,-689.485948,-814.226536
1373.673824,-10362.883188,-536.266849,370.102971
1373.674135,-13767.830521,919.314598,-0.000000
1373.674447,-15766.386565,2298.286494,-0.000000
1373.674758,-15248.242405,2451.505594,-74.020594
1373.675070,-12213.398043,995.924147,1110.308913
1373.675381,-9252.574275,-383.047749,2368.659014
1373.675692,-7476.080014,-1149.143247,3330.926739
1373.676004,-6513.812290,-612.876398,2442.679609
1373.676315,-4293.194464,-306.438199,1258.350101
1373.676627,-2664.741391,0.000000,-0.000000
1373.676938,-2442.679609,-766.095498,-1924.535449
1373.677250,-4589.276840,-1685.410096,-2516.700203
1373.677561,-9326.594869,-612.876398,-2146.597232
1373.677873,-13545.768739,536.266849,-1110.308913
1373.678184,-18283.086767,1838.629195,296.082377
1373.678496,-19615.457463,1838.629195,3034.844362
1373.678807,-15988.448347,766.095498,3256.906145
1373.679118,-10658.965565,-1149.143247,2738.761985
1373.679430,-4515.256246,-1455.581446,1924.535449
1373.679741,-222.061783,-1149.143247,-222.061783
1373.680053,1258.350101,0.000000,-1776.494261
1373.680364,-296.082377,-2221.676944,-2442.679609
1373.680676,-5551.544565,-2068.457845,-1998.556043
1373.680987,-10807.006753,-2068.457845,-1258.350101
1373.681299,-15470.304188,612.876398,-740.205942
1373.681610,-17987.004391,2528.115143,518.144159
1373.681922,-17690.922014,2604.724693,1554.432478
1373.682233,-15470.304188,842.705048,2072.576638
1373.682544,-9918.759623,-766.095498,2368.659014
1373.682856,-5033.400406,-1149.143247,1702.473667
1373.683167,-1332.370696,-689.485948,-148.041188
1373.683479,740.205942,612.876398,-2442.679609
1373.683790,-370.102971,0.000000,-3034.844362
1373.684102,-3552.988522,-1149.143247,-2812.782580
1373.684413,-9844.739029,-1915.238745,-1702.473667
1373.684725,-15100.201217,536.266849,222.061783
1373.685036,-19023.292709,1378.971896,1406.391290
1373.685348,-19393.395680,842.705048,1850.514855
1373.685659,-16358.551318,-153.219100,1332.370696
1373.685970,-9992.780217,-689.485948,1036.288319
1373.686282,-5033.400406,-1762.019645,814.226536
1373.686593,-1776.494261,-1225.752797,-296.082377
1373.686905,-962.267725,-306.438199,-1702.473667
1373.687216,-1998.556043,-919.314598,-1480.411884
1373.687528,-5403.503377,-995.924147,-1998.556043
1373.687839,-9474.636058,-1225.752797,-1406.391290
1373.688151,-12731.542202,-306.438199,-1406.391290
1373.688462,-15988.448347,1685.410096,-1036.288319
1373.688774,-17468.860231,2451.505594,444.123565
1373.689085,-16358.551318,689.485948,1184.329507
1373.689396,-12583.501014,-842.705048,2368.659014
1373.689708,-7698.141797,-919.314598,2664.741391
1373.690019,-4515.256246,-1838.629195,1554.432478
1373.690331,74.020594,-1149.143247,-0.000000
1373.690642,1332.370696,-536.266849,-1924.535449
1373.690954,-1110.308913,-1225.752797,-2590.720797
1373.691265,-4959.379811,-1685.410096,-1702.473667
1373.691577,-10436.903782,-536.266849,-1332.370696
1373.691888,-15396.283594,1608.800546,-666.185348
1373.692200,-17838.963202,2374.896044,1036.288319
1373.692511,-18209.066173,2068.457845,2146.597232
1373.692822,-14508.036463,459.657299,2442.679609
1373.693134,-9844.739029,-766.095498,2738.761985
1373.693445,-5033.400406,-995.924147,2368.659014
1373.693757,-2146.597232,-842.705048,1036.288319
1373.694068,-962.267725,-459.657299,-888.247130
1373.694380,-1554.432478,-1072.533697,-1628.453072
1373.694691,-4589.276840,-1838.629195,-2220.617826
1373.695003,-8438.347739,0.000000,-1332.370696
1373.695314,-13027.624579,2221.676944,-1036.288319
1373.695626,-17690.922014,2987.772442,814.226536
1373.695937,-19319.375086,2221.676944,2886.803174
1373.696248,-18061.024985,306.438199,4515.256246
1373.696560,-12509.480420,-995.924147,4737.318029
1373.696871,-5995.668130,-1608.800546,3330.926739
1373.697183,-592.164754,-1838.629195,296.082377
1373.697494,3552.988522,-153.219100,-1554.432478
1373.697806,1998.556043,-689.485948,-1850.514855
1373.698117,-4515.256246,-1532.190996,-148.041188
1373.698429,-11769.274478,-2068.457845,1258.350101
1373.698740,-16654.633695,76.609550,2590.720797
1373.699052,-18209.066173,2145.067394,3775.050304
1373.699363,-15470.304188,1608.800546,2664.741391
1373.699674,-10955.047942,-536.266849,1998.556043
1373.699986,-7254.018232,-1455.581446,1776.494261
1373.700297,-4293.194464,-1915.238745,2294.638420
1373.700609,-2664.741391,-1608.800546,2368.659014
1373.700920,-3701.029710,-1532.190996,1184.329507
1373.701232,-4885.359217,-1225.752797,592.164754
1373.701543,-5921.647536,-1685.410096,-518.144159
1373.701855,-6217.729913,-1378.971896,-1332.370696
1373.702166,-9104.533087,383.047749,-2220.617826
1373.702478,-12213.398043,2374.896044,-1628.453072
1373.702789,-15026.180623,1991.848295,148.041188
1373.703100,-16062.468941,1072.533697,1184.329507
1373.703412,-13915.871710,383.047749,2368.659014
1373.703723,-9696.697840,-459.657299,2294.638420
1373.704035,-5477.523971,-919.314598,740.205942
1373.704346,-1998.556043,-459.657299,-1332.370696
1373.704658,-888.247130,-536.266849,-2294.638420
1373.704969,-2664.741391,-2298.286494,-2664.741391
1373.705281,-7105.977043,-1762.019645,-2812.782580
1373.705592,-11251.130318,-306.438199,-2146.597232
1373.705904,-15544.324782,1991.848295,-888.247130
1373.706215,-17764.942608,2298.286494,148.041188
1373.706526,-17172.777854,2298.286494,814.226536
1373.706838,-13767.830521,153.219100,1776.494261
1373.707149,-9326.594869,-612.876398,2368.659014
1373.707461,-5403.503377,-1608.800546,1184.329507
1373.707772,-2960.823768,-1685.410096,-1036.288319
1373.708084,-2368.659014,-1455.581446,-2072.576638
1373.708395,-3182.885551,-2298.286494,-3330.926739
1373.708707,-6365.771101,-1991.848295,-3108.864956
1373.709018,-10066.800811,-842.705048,-1850.514855
1373.709330,-14434.015869,229.828649,-666.185348
1373.709641,-18135.045579,1225.752797,370.102971
1373.709952,-17764.942608,1455.581446,2664.741391
1373.710264,-16062.468941,383.047749,2368.659014
1373.710575,-11843.295072,-612.876398,2664.741391
1373.710887,-6883.915261,-1302.362347,814.226536
1373.711198,-2146.597232,-612.876398,-888.247130
1373.711510,370.102971,153.219100,-2664.741391
1373.711821,0.000000,-995.924147,-3923.091493
1373.712133,-4071.132681,-459.657299,-3108.864956
1373.712444,-9252.574275,-1532.190996,-1184.329507
1373.712756,-14137.933492,-153.219100,962.267725
1373.713067,-17542.880825,995.924147,2294.638420
1373.713378,-17616.901420,1915.238745,3330.926739
1373.713690,-14878.139434,1302.362347,3701.029710
1373.714001,-9918.759623,306.438199,3478.967927
1373.714313,-4071.132681,0.000000,2812.782580
1373.714624,-296.082377,153.219100,666.185348
1373.714936,1776.494261,842.705048,-592.164754
1373.715247,962.267725,-536.266849,-1332.370696
1373.715559,-3256.906145,-1378.971896,-740.205942
1373.715870,-8808.450710,-1225.752797,-0.000000
1373.716182,-13545.768739,0.000000,1850.514855
1373.716493,-17690.922014,76.609550,2146.597232
1373.716804,-18801.230927,1455.581446,3478.967927
1373.717116,-16876.695478,1532.190996,3478.967927
1373.717427,-11917.315666,76.609550,4145.153275
1373.717739,-7179.997637,-766.095498,3997.112087
1373.718050,-2886.803174,-1072.533697,2812.782580
1373.718362,-444.123565,-383.047749,1110.308913
1373.718673,-296.082377,-306.438199,444.123565
1373.718985,-2886.803174,-766.095498,-74.020594
1373.719296,-6883.915261,-1838.629195,888.247130
1373.719608,-11177.109724,-306.438199,1480.411884
1373.719919,-15914.427753,1302.362347,1998.556043
1373.720230,-18949.272115,2681.334243,2886.803174
1373.720542,-18357.107362,2221.676944,4367.215058
1373.720853,-14434.015869,842.705048,4589.276840
