#time,accel_x,accel_y,accel_z
1352.985841,-8882.471304,0.000000,518.144159
1352.986153,-8956.491898,-153.219100,666.185348
1352.986464,-8808.450710,0.000000,518.144159
1352.986776,-9030.512492,0.000000,592.164754
1352.987087,-8956.491898,76.609550,370.102971
1352.987398,-8882.471304,0.000000,592.164754
1352.987710,-9030.512492,229.828649,518.144159
1352.988021,-8734.430116,0.000000,370.102971
1352.988332,-9104.533087,153.219100,444.123565
1352.988644,-8586.388927,0.000000,740.205942
1352.988955,-9104.533087,153.219100,814.226536
1352.989267,-8808.450710,0.000000,740.205942
1352.989578,-8882.471304,0.000000,518.144159
1352.989889,-8882.471304,153.219100,592.164754
1352.990201,-8956.491898,76.609550,518.144159
1352.990512,-8956.491898,-383.047749,296.082377
1352.990824,-9030.512492,-229.828649,296.082377
1352.991135,-9252.574275,0.000000,518.144159
1352.991446,-9252.574275,0.000000,296.082377
1352.991758,-8956.491898,-229.828649,444.123565
1352.992069,-8956.491898,0.000000,296.082377
1352.992380,-8808.450710,0.000000,592.164754
1352.992692,-9252.574275,0.000000,370.102971
1352.993003,-9104.533087,383.047749,740.205942
1352.993315,-9030.512492,-383.047749,296.082377
1352.993626,-8586.388927,153.219100,518.144159
1352.993937,-8808.450710,153.219100,666.185348
1352.994249,-8808.450710,0.000000,518.144159
1352.994560,-8956.491898,-153.219100,518.144159
1352.994871,-8956.491898,-153.219100,518.144159
1352.995183,-9178.553681,0.000000,740.205942
1352.995494,-8882.471304,-383.047749,518.144159
1352.995806,-8586.388927,-153.219100,296.082377
1352.996117,-8882.471304,-229.828649,222.061783
1352.996428,-8808.450710,0.000000,592.164754
1352.996740,-8956.491898,0.000000,666.185348
1352.997051,-8882.471304,0.000000,518.144159
1352.997362,-8882.471304,-229.828649,666.185348
1352.997674,-9178.553681,459.657299,444.123565
1352.997985,-9104.533087,-842.705048,666.185348
1352.998297,-8512.368333,0.000000,740.205942
1352.998608,-8882.471304,-383.047749,444.123565
1352.998919,-9030.512492,0.000000,444.123565
1352.999231,-8734.430116,76.609550,518.144159
1352.999542,-8808.450710,0.000000,444.123565
1352.999854,-9030.512492,-459.657299,592.164754
1353.000165,-8882.471304,0.000000,148.041188
1353.000476,-8586.388927,306.438199,444.123565
1353.000788,-8734.430116,76.609550,296.082377
1353.001099,-8734.430116,0.000000,370.102971
1353.001410,-9030.512492,0.000000,444.123565
1353.001722,-8956.491898,0.000000,444.123565
1353.002033,-9030.512492,0.000000,518.144159
1353.002345,-9030.512492,0.000000,592.164754
1353.002656,-8586.388927,459.657299,740.205942
1353.002967,-8956.491898,-995.924147,740.205942
1353.003279,-8882.471304,0.000000,518.144159
1353.003590,-8808.450710,0.000000,592.164754
1353.003901,-8882.471304,0.000000,740.205942
1353.004213,-8956.491898,76.609550,592.164754
1353.004524,-8956.491898,0.000000,666.185348
1353.004836,-9104.533087,153.219100,740.205942
1353.005147,-9030.512492,-689.485948,222.061783
1353.005458,-8512.368333,-306.438199,518.144159
1353.005770,-8660.409521,0.000000,444.123565
1353.006081,-9030.512492,0.000000,518.144159
1353.006392,-9030.512492,0.000000,592.164754
1353.006704,-8734.430116,0.000000,888.247130
1353.007015,-8882.471304,76.609550,518.144159
1353.007327,-9178.553681,0.000000,370.102971
1353.007638,-8882.471304,76.609550,814.226536
1353.007949,-8808.450710,-229.828649,444.123565
1353.008261,-8586.388927,-306.438199,370.102971
1353.008572,-8956.491898,0.000000,444.123565
1353.008884,-8882.471304,76.609550,370.102971
1353.009195,-8734.430116,0.000000,518.144159
1353.009506,-8808.450710,0.000000,740.205942
1353.009818,-8882.471304,0.000000,370.102971
1353.010129,-8808.450710,229.828649,370.102971
1353.010440,-8586.388927,0.000000,370.102971
1353.010752,-8734.430116,-229.828649,518.144159
1353.011063,-8808.450710,-306.438199,592.164754
1353.011375,-9030.512492,-306.438199,666.185348
1353.011686,-8882.471304,-229.828649,592.164754
1353.011997,-8882.471304,383.047749,592.164754
1353.012309,-9178.553681,383.047749,592.164754
1353.012620,-8882.471304,229.828649,370.102971
1353.012931,-8956.491898,229.828649,296.082377
1353.013243,-8882.471304,0.000000,148.041188
1353.013554,-8882.471304,0.000000,518.144159
1353.013866,-9992.780217,76.609550,296.082377
1353.014177,-11769.274478,1532.190996,370.102971
1353.014488,-9770.718434,3907.087040,740.205942
1353.014800,-7846.182985,5286.058936,962.267725
1353.015111,-6957.935855,2298.286494,1258.350101
1353.015422,-5921.647536,76.609550,740.205942
1353.015734,-7402.059420,-1378.971896,-148.041188
1353.016045,-7105.977043,-383.047749,-0.000000
1353.016357,-9400.615463,-536.266849,-814.226536
1353.016668,-13101.645173,-842.705048,-1036.288319
1353.016979,-11325.150913,766.095498,592.164754
1353.017291,-9474.636058,153.219100,666.185348
1353.017602,-8660.409521,-383.047749,2590.720797
1353.017913,-10436.903782,-459.657299,1702.473667
1353.018225,-10732.986159,2451.505594,1924.535449
1353.018536,-5921.647536,5515.887586,2294.638420
1353.018848,-6439.791695,4290.134789,1332.370696
1353.019159,-7920.203579,2757.943793,-148.041188
1353.019470,-7402.059420,3600.648841,-1406.391290
1353.019782,-8660.409521,2604.724693,-2368.659014
1353.020093,-8882.471304,4136.915689,-0.000000
1353.020405,-10140.821405,3217.601092,-1036.288319
1353.020716,-14656.077652,459.657299,-370.102971
1353.021027,-10510.924376,-995.924147,2960.823768
1353.021339,-9252.574275,-766.095498,1258.350101
1353.021650,-10140.821405,3600.648841,1406.391290
1353.021961,-7328.038826,7431.126331,1998.556043
1353.022273,-8586.388927,4673.182538,1480.411884
1353.022584,-6587.832884,3140.991542,2516.700203
1353.022896,-6439.791695,6435.202183,888.247130
1353.023207,-7994.224174,7354.516781,-370.102971
1353.023518,-9474.636058,6281.983084,-1554.432478
1353.023830,-9992.780217,4826.401637,-740.205942
1353.024141,-9474.636058,5515.887586,-1924.535449
1353.024452,-11029.068536,5286.058936,-148.041188
1353.024764,-11325.150913,4366.744339,592.164754
1353.025075,-10955.047942,3524.039291,2146.597232
1353.025387,-9844.739029,3677.258390,2442.679609
1353.025698,-7476.080014,5056.230287,2368.659014
1353.026009,-5921.647536,4903.011187,814.226536
1353.026321,-5699.585753,5132.839837,814.226536
1353.026632,-4959.379811,5286.058936,370.102971
1353.026943,-5403.503377,4596.572988,-1184.329507
1353.027255,-7402.059420,4596.572988,-666.185348
1353.027566,-8734.430116,3447.429741,-888.247130
1353.027878,-9696.697840,2604.724693,-148.041188
1353.028189,-10510.924376,1149.143247,444.123565
1353.028500,-10658.965565,459.657299,1480.411884
1353.028812,-11251.130318,0.000000,1480.411884
1353.029123,-10362.883188,1838.629195,1924.535449
1353.029435,-8512.368333,3753.867940,1702.473667
1353.029746,-7105.977043,4213.525239,444.123565
1353.030057,-6513.812290,2834.553343,518.144159
1353.030369,-6661.853478,3217.601092,-740.205942
1353.030680,-6291.750507,3140.991542,-592.164754
1353.030991,-7105.977043,2298.286494,-1480.411884
1353.031303,-8290.306550,229.828649,-740.205942
1353.031614,-10214.842000,-1991.848295,-296.082377
1353.031926,-11769.274478,-2068.457845,1110.308913
1353.032237,-12953.603985,-2757.943793,1554.432478
1353.032548,-14211.954086,-1378.971896,1924.535449
1353.032860,-13323.706956,0.000000,1998.556043
1353.033171,-12435.459826,1991.848295,518.144159
1353.033482,-9696.697840,4290.134789,-74.020594
1353.033794,-6809.894666,5209.449386,-444.123565
1353.034105,-5921.647536,5209.449386,-74.020594
1353.034417,-6217.729913,5745.716235,-148.041188
1353.034728,-6957.935855,4826.401637,-0.000000
1353.035039,-8882.471304,2528.115143,-444.123565
1353.035351,-11251.130318,1455.581446,-0.000000
1353.035662,-12805.562797,766.095498,-74.020594
1353.035973,-13545.768739,459.657299,-148.041188
1353.036285,-14063.912898,229.828649,296.082377
1353.036596,-12287.418637,1838.629195,740.205942
1353.036908,-10214.842000,3064.381992,1184.329507
1353.037219,-8068.244768,4519.963438,1998.556043
1353.037530,-5403.503377,4673.182538,2368.659014
1353.037842,-3034.844362,5209.449386,888.247130
1353.038153,-1480.411884,6358.592633,-0.000000
1353.038465,-2072.576638,5822.325785,-1406.391290
1353.038776,-4737.318029,3524.039291,-1332.370696
1353.039087,-8438.347739,3370.820191,-666.185348
1353.039399,-12583.501014,2451.505594,222.061783
1353.039710,-14434.015869,2757.943793,1480.411884
1353.040021,-14878.139434,2834.553343,3182.885551
1353.040333,-13545.768739,3140.991542,3552.988522
1353.040644,-9474.636058,2604.724693,3108.864956
1353.040956,-4737.318029,3677.258390,2146.597232
1353.041267,-2220.617826,4903.011187,666.185348
1353.041578,-1776.494261,6205.373534,-666.185348
1353.041890,-2812.782580,7431.126331,-2368.659014
1353.042201,-5551.544565,6358.592633,-2220.617826
1353.042512,-7920.203579,4213.525239,-1110.308913
1353.042824,-9548.656652,919.314598,666.185348
1353.043135,-11103.089130,-1532.190996,962.267725
1353.043447,-12435.459826,-3370.820191,1628.453072
1353.043758,-12657.521608,-2681.334243,1406.391290
1353.044069,-12731.542202,-1838.629195,1258.350101
1353.044381,-12953.603985,995.924147,1480.411884
1353.044692,-11917.315666,2987.772442,1924.535449
1353.045003,-10807.006753,4673.182538,2072.576638
1353.045315,-8068.244768,5975.544884,1850.514855
1353.045626,-6957.935855,5362.668486,888.247130
1353.045938,-5995.668130,3677.258390,-592.164754
1353.046249,-5921.647536,3447.429741,-1850.514855
1353.046560,-6809.894666,3983.696590,-2590.720797
1353.046872,-8956.491898,3294.210641,-2664.741391
1353.047183,-11325.150913,2221.676944,-1924.535449
1353.047494,-12065.356855,1149.143247,-888.247130
1353.047806,-12213.398043,-229.828649,1480.411884
1353.048117,-12509.480420,-1915.238745,2664.741391
1353.048429,-11991.336260,-459.657299,2812.782580
1353.048740,-10881.027347,1378.971896,1702.473667
1353.049051,-8956.491898,3447.429741,666.185348
1353.049363,-7179.997637,4366.744339,-222.061783
1353.049674,-6735.874072,3600.648841,-1184.329507
1353.049986,-6661.853478,2834.553343,-222.061783
1353.050297,-6439.791695,1532.190996,-222.061783
1353.050608,-6957.935855,612.876398,370.102971
1353.050920,-8068.244768,0.000000,888.247130
1353.051231,-7920.203579,-459.657299,1776.494261
1353.051542,-8364.327145,-2834.553343,2294.638420
1353.051854,-7254.018232,-2451.505594,1776.494261
1353.052165,-8216.285956,-383.047749,888.247130
1353.052477,-9918.759623,1915.238745,-962.267725
1353.052788,-10510.924376,4979.620737,-1554.432478
1353.053099,-9844.739029,7354.516781,-1554.432478
1353.053411,-9326.594869,6052.154434,-1406.391290
1353.053722,-7846.182985,2987.772442,592.164754
1353.054033,-7031.956449,-1225.752797,2516.700203
1353.054345,-6661.853478,-2221.676944,3404.947333
1353.054656,-7402.059420,-2221.676944,3701.029710
1353.054968,-7698.141797,-2604.724693,3552.988522
1353.055279,-6735.874072,-3140.991542,1258.350101
1353.055590,-5995.668130,-2911.162892,-296.082377
1353.055902,-6143.709319,-1991.848295,-1628.453072
1353.056213,-9104.533087,-1608.800546,-2220.617826
1353.056524,-12361.439231,842.705048,-1702.473667
1353.056836,-14063.912898,2757.943793,-518.144159
1353.057147,-14952.160028,2987.772442,962.267725
1353.057459,-14211.954086,1991.848295,2368.659014
1353.057770,-11843.295072,536.266849,2664.741391
1353.058082,-9178.553681,-1532.190996,2442.679609
1353.058393,-6883.915261,-2068.457845,2368.659014
1353.058705,-5329.482782,-2681.334243,2886.803174
1353.059016,-4441.235652,-2834.553343,1924.535449
1353.059328,-5921.647536,-3907.087040,962.267725
1353.059639,-5921.647536,-4596.572988,592.164754
1353.059951,-5625.565159,-2221.676944,-2960.823768
1353.060262,-8734.430116,919.314598,-3923.091493
1353.060574,-12213.398043,2451.505594,-4441.235652
1353.060885,-15248.242405,3370.820191,-2294.638420
1353.061197,-16136.489536,3600.648841,1110.308913
1353.061508,-14656.077652,383.047749,3552.988522
1353.061820,-12879.583391,-3140.991542,5255.462188
1353.062131,-9844.739029,-3830.477490,4737.318029
1353.062443,-6439.791695,-2068.457845,3923.091493
1353.062754,-2368.659014,-1149.143247,1480.411884
1353.063066,-1184.329507,-459.657299,-0.000000
1353.063377,-1850.514855,-1149.143247,-1998.556043
1353.063689,-2368.659014,-229.828649,-4737.318029
1353.064000,-6661.853478,1072.533697,-4663.297435
1353.064312,-11251.130318,2987.772442,-4589.276840
1353.064623,-15470.304188,5286.058936,-2664.741391
1353.064935,-17764.942608,5132.839837,-296.082377
1353.065246,-16580.613101,3677.258390,2220.617826
1353.065558,-13545.768739,459.657299,4071.132681
1353.065869,-9844.739029,-2374.896044,4811.338623
1353.066181,-5329.482782,-3983.696590,6291.750507
1353.066492,-1998.556043,-3753.867940,3478.967927
1353.066804,-3034.844362,-2374.896044,1332.370696
1353.067115,-3478.967927,-995.924147,-1184.329507
1353.067427,-3849.070898,1455.581446,-5477.523971
1353.067738,-4959.379811,4060.306139,-6143.709319
1353.068050,-7550.100608,4366.744339,-5995.668130
1353.068361,-12509.480420,3753.867940,-3701.029710
1353.068673,-16062.468941,3677.258390,-1332.370696
1353.068984,-18431.127956,3140.991542,2738.761985
1353.069296,-17912.983796,1455.581446,5921.647536
1353.069607,-14804.118840,-612.876398,6735.874072
1353.069919,-10658.965565,-1378.971896,5995.668130
1353.070230,-1776.494261,-2145.067394,4071.132681
1353.070542,370.102971,-2298.286494,1554.432478
1353.070853,-296.082377,-2374.896044,1036.288319
1353.071165,296.082377,-1838.629195,-3997.112087
1353.071476,-2960.823768,1225.752797,-3701.029710
1353.071788,-6883.915261,919.314598,-4145.153275
1353.072099,-12435.459826,1072.533697,-3775.050304
1353.072411,-17468.860231,2451.505594,-1776.494261
1353.072722,-19319.375086,3677.258390,592.164754
1353.073033,-19393.395680,3370.820191,5255.462188
1353.073345,-16728.654289,1072.533697,7105.977043
1353.073656,-14211.954086,-1455.581446,6809.894666
1353.073968,-7254.018232,-4366.744339,6587.832884
1353.074279,962.267725,-3600.648841,4589.276840
1353.074591,2072.576638,-2987.772442,1702.473667
1353.074902,3478.967927,-3370.820191,-1480.411884
1353.075214,2220.617826,-1608.800546,-5773.606348
1353.075525,-1258.350101,-2145.067394,-5403.503377
1353.075837,-6661.853478,-2374.896044,-5181.441594
1353.076148,-15544.324782,-1532.190996,-3182.885551
1353.076460,-20947.828159,-153.219100,-148.041188
1353.076771,-23390.507767,1378.971896,4737.318029
1353.077083,-21391.951724,-536.266849,8734.430116
1353.077394,-18061.024985,-1455.581446,8956.491898
1353.077706,-13397.727550,-3830.477490,8660.409521
1353.078017,-3849.070898,-3830.477490,4663.297435
1353.078329,3182.885551,-306.438199,1036.288319
1353.078640,4959.379811,919.314598,-2664.741391
1353.078952,5033.400406,76.609550,-6439.791695
1353.079263,1702.473667,383.047749,-7994.224174
1353.079575,-3849.070898,919.314598,-7031.956449
1353.079886,-11917.315666,1762.019645,-5551.544565
1353.080198,-20577.725188,2451.505594,-1998.556043
1353.080509,-23982.672521,3600.648841,1702.473667
1353.080821,-22428.240043,1991.848295,5329.482782
1353.081132,-18579.169144,-1838.629195,7772.162391
1353.081444,-13693.809927,-2604.724693,6513.812290
1353.081755,-7254.018232,-2221.676944,6217.729913
1353.082067,1406.391290,-2757.943793,2368.659014
1353.082378,3330.926739,-1915.238745,-592.164754
1353.082690,4145.153275,-2987.772442,-2886.803174
1353.083001,3034.844362,-1608.800546,-8586.388927
1353.083313,-2146.597232,-1225.752797,-8438.347739
1353.083624,-7402.059420,-842.705048,-7920.203579
1353.083936,-15470.304188,536.266849,-4145.153275
1353.084247,-21688.034101,1149.143247,-0.000000
1353.084559,-25241.022622,1302.362347,4663.297435
1353.084870,-24352.775492,-306.438199,9770.718434
1353.085182,-19837.519246,-153.219100,9622.677246
1353.085493,-13397.727550,766.095498,8512.368333
1353.085805,-2738.761985,0.000000,5107.421000
1353.086116,5625.565159,76.609550,-370.102971
1353.086428,6365.771101,1149.143247,-4589.276840
1353.086739,6439.791695,1225.752797,-7402.059420
1353.087051,2664.741391,2298.286494,-10732.986159
1353.087362,-3997.112087,2681.334243,-8364.327145
1353.087674,-12879.583391,1608.800546,-6587.832884
1353.087985,-21614.013506,1455.581446,-1850.514855
1353.088297,-25833.187376,1838.629195,3701.029710
1353.088608,-25315.043216,1685.410096,7402.059420
1353.088920,-21910.095883,-612.876398,11103.089130
1353.089231,-15322.262999,-1378.971896,9844.739029
1353.089543,-7105.977043,-2221.676944,9178.553681
1353.089854,1850.514855,-2451.505594,3849.070898
1353.090166,5107.421000,-2145.067394,222.061783
1353.090477,7254.018232,-766.095498,-5255.462188
1353.090789,6069.688724,2298.286494,-9252.574275
1353.091100,0.000000,-229.828649,-8364.327145
1353.091412,-6365.771101,-1762.019645,-6809.894666
1353.091723,-14582.057057,-536.266849,-2664.741391
1353.092035,-20799.786970,-1072.533697,1258.350101
1353.092346,-25389.063811,1378.971896,6513.812290
1353.092658,-25389.063811,1838.629195,9474.636058
1353.092969,-20503.704593,1991.848295,10066.800811
1353.093281,-12065.356855,383.047749,9992.780217
1353.093592,-3330.926739,-1915.238745,7846.182985
1353.093904,4959.379811,-1072.533697,2738.761985
1353.094215,9770.718434,536.266849,-3478.967927
1353.094527,9844.739029,536.266849,-8290.306550
1353.094838,4293.194464,1149.143247,-9474.636058
1353.095150,-2072.576638,1072.533697,-9178.553681
1353.095461,-11251.130318,-1685.410096,-6439.791695
1353.095773,-21021.848753,-1915.238745,-1924.535449
1353.096084,-26721.434506,229.828649,4885.359217
1353.096396,-28423.908173,1991.848295,7994.224174
1353.096707,-25241.022622,-536.266849,10288.862594
1353.097019,-18949.272115,-1838.629195,8882.471304
1353.097330,-10140.821405,-153.219100,8512.368333
1353.097642,1332.370696,-383.047749,3923.091493
1353.097953,8808.450710,-153.219100,-740.205942
1353.098265,8734.430116,-1072.533697,-5625.565159
1353.098576,6513.812290,-1072.533697,-9178.553681
1353.098888,2146.597232,-612.876398,-9844.739029
1353.099199,-6957.935855,-1225.752797,-7698.141797
1353.099511,-16210.510130,-1149.143247,-4737.318029
1353.099822,-23686.590144,-1072.533697,740.205942
1353.100134,-27461.640448,-1455.581446,5699.585753
1353.100445,-26425.352129,-459.657299,9400.615463
1353.100757,-23612.569550,-612.876398,10436.903782
1353.101068,-15692.365970,-459.657299,8438.347739
1353.101380,-5995.668130,-766.095498,6587.832884
1353.101691,5255.462188,-459.657299,814.226536
1353.102003,9548.656652,1455.581446,-2664.741391
1353.102314,9178.553681,-1072.533697,-7920.203579
1353.102626,7402.059420,-1762.019645,-10066.800811
1353.102937,814.226536,-383.047749,-9474.636058
1353.103249,-8290.306550,-995.924147,-6513.812290
1353.103560,-19097.313304,-1225.752797,-2368.659014
1353.103872,-26425.352129,-153.219100,3997.112087
1353.104183,-28794.011144,1378.971896,6883.915261
1353.104495,-26055.249158,1608.800546,10214.842000
1353.104806,-19689.478057,1915.238745,8216.285956
1353.105117,-10955.047942,2451.505594,5477.523971
1353.105429,-814.226536,1685.410096,2738.761985
1353.105740,9326.594869,1532.190996,-1258.350101
1353.106052,10214.842000,1149.143247,-4589.276840
1353.106363,8512.368333,-459.657299,-8586.388927
1353.106675,3627.009116,-1991.848295,-9622.677246
1353.106986,-5181.441594,-1915.238745,-7476.080014
1353.107298,-14285.974681,-1685.410096,-4811.338623
1353.107609,-24426.796086,-766.095498,444.123565
1353.107921,-29682.258274,-536.266849,5329.482782
1353.108232,-28571.949361,229.828649,8956.491898
1353.108544,-24796.899057,0.000000,11621.233289
1353.108855,-15914.427753,459.657299,9030.512492
1353.109167,-6069.688724,842.705048,7698.141797
1353.109478,5625.565159,76.609550,666.185348
1353.109790,9770.718434,1762.019645,-3478.967927
1353.110101,9992.780217,2451.505594,-7772.162391
1353.110413,8216.285956,2528.115143,-11177.109724
1353.110724,-962.267725,1762.019645,-9104.533087
1353.111036,-9178.553681,0.000000,-4885.359217
1353.111347,-18875.251521,-383.047749,-518.144159
1353.111659,-26721.434506,-766.095498,4737.318029
1353.111970,-28719.990550,459.657299,7698.141797
1353.112282,-26351.331535,2681.334243,9622.677246
1353.112593,-19689.478057,3983.696590,8586.388927
1353.112905,-9474.636058,3600.648841,5625.565159
1353.113216,740.205942,1532.190996,4515.256246
1353.113528,7476.080014,842.705048,-0.000000
1353.113839,10362.883188,-229.828649,-2220.617826
1353.114151,11695.253884,383.047749,-6809.894666
1353.114462,4367.215058,-1685.410096,-7624.121203
1353.114774,-3552.988522,-2681.334243,-6365.771101
1353.115085,-12953.603985,-2604.724693,-3552.988522
1353.115397,-21614.013506,-2451.505594,518.144159
1353.115708,-28201.846390,-1915.238745,5995.668130
1353.116020,-29608.237680,-306.438199,8956.491898
1353.116331,-25611.125593,1072.533697,10658.965565
1353.116643,-17690.922014,1149.143247,8586.388927
1353.116954,-7402.059420,-1608.800546,7254.018232
1353.117266,2516.700203,-1532.190996,2220.617826
1353.117577,10955.047942,536.266849,-2442.679609
1353.117889,12805.562797,1378.971896,-7550.100608
1353.118200,8586.388927,383.047749,-8512.368333
1353.118512,1110.308913,-1302.362347,-8290.306550
1353.118823,-8586.388927,-2068.457845,-4293.194464
1353.119135,-18357.107362,-1915.238745,-370.102971
1353.119446,-26055.249158,-1532.190996,3849.070898
1353.119758,-28349.887579,0.000000,6291.750507
1353.120069,-26869.475695,1149.143247,7920.203579
1353.120381,-21465.972318,3140.991542,7105.977043
1353.120692,-12953.603985,1838.629195,4811.338623
1353.121004,-4737.318029,76.609550,2442.679609
1353.121315,4589.276840,-153.219100,-1332.370696
1353.121627,9844.739029,689.485948,-3923.091493
1353.121938,9030.512492,-995.924147,-5921.647536
1353.122250,7105.977043,-4213.525239,-7772.162391
1353.122561,296.082377,-3294.210641,-6809.894666
1353.122873,-10214.842000,-3600.648841,-4663.297435
1353.123184,-19689.478057,-2298.286494,-370.102971
1353.123496,-28719.990550,-612.876398,4219.173869
1353.123807,-30200.402434,612.876398,6439.791695
1353.124119,-27091.537477,1762.019645,9548.656652
1353.124430,-19097.313304,459.657299,7550.100608
1353.124742,-10436.903782,229.828649,5107.421000
1353.125053,-370.102971,383.047749,814.226536
1353.125365,9622.677246,1762.019645,-3256.906145
1353.125676,11029.068536,2451.505594,-5921.647536
1353.125988,8142.265362,919.314598,-7920.203579
1353.126299,2590.720797,-153.219100,-9178.553681
1353.126611,-5995.668130,-153.219100,-5033.400406
1353.126922,-14952.160028,0.000000,-2368.659014
1353.127234,-24574.837274,1072.533697,2220.617826
1353.127545,-28942.052332,1915.238745,5107.421000
1353.127857,-27387.619854,2298.286494,7476.080014
1353.128168,-21169.889941,3217.601092,8586.388927
1353.128480,-12287.418637,2834.553343,5107.421000
1353.128791,-3256.906145,1762.019645,2886.803174
1353.129103,4885.359217,842.705048,-888.247130
1353.129414,8438.347739,306.438199,-2812.782580
1353.129726,10066.800811,459.657299,-5625.565159
1353.130037,5773.606348,0.000000,-6957.935855
1353.130349,-2886.803174,-2911.162892,-5403.503377
1353.130660,-10955.047942,-3217.601092,-3108.864956
1353.130972,-20429.683999,-1302.362347,-0.000000
1353.131283,-25092.981434,-689.485948,4589.276840
1353.131595,-27313.599260,459.657299,7105.977043
1353.131906,-25241.022622,1762.019645,8290.306550
1353.132218,-17987.004391,2987.772442,7772.162391
1353.132529,-9474.636058,1072.533697,7031.956449
1353.132841,-518.144159,-306.438199,3775.050304
1353.133152,7476.080014,306.438199,-0.000000
1353.133464,10881.027347,995.924147,-4959.379811
1353.133775,8882.471304,1225.752797,-6809.894666
1353.134087,2960.823768,-1225.752797,-6809.894666
1353.134398,-4811.338623,-1302.362347,-4959.379811
1353.134710,-13841.851115,-2374.896044,-2294.638420
1353.135021,-21762.054695,-1608.800546,2146.597232
1353.135333,-26943.496289,76.609550,5699.585753
1353.135644,-27609.681637,919.314598,7624.121203
1353.135956,-23020.404796,1532.190996,8438.347739
1353.136267,-15544.324782,1149.143247,6661.853478
1353.136579,-5995.668130,-153.219100,5477.523971
1353.136890,2294.638420,-1225.752797,1406.391290
1353.137201,7846.182985,-1608.800546,-1332.370696
1353.137513,9844.739029,-766.095498,-5107.421000
1353.137824,7328.038826,-1225.752797,-6809.894666
1353.138136,444.123565,-2681.334243,-7031.956449
1353.138447,-8734.430116,-1991.848295,-3923.091493
1353.138759,-18357.107362,-1762.019645,-1332.370696
1353.139070,-24722.878463,-1455.581446,2886.803174
1353.139382,-27535.661042,0.000000,6143.709319
1353.139693,-26277.310941,919.314598,7772.162391
1353.140005,-21243.910535,1225.752797,7402.059420
1353.140316,-12805.562797,-459.657299,5773.606348
1353.140628,-2812.782580,-2451.505594,2738.761985
1353.140939,5181.441594,-536.266849,-444.123565
1353.141251,8734.430116,-76.609550,-4441.235652
1353.141562,9474.636058,-842.705048,-6957.935855
1353.141874,5181.441594,-2451.505594,-7328.038826
1353.142185,-2442.679609,-3064.381992,-5033.400406
1353.142497,-11621.233289,-2757.943793,-2442.679609
1353.142808,-20725.766376,-1685.410096,-0.000000
1353.143120,-26573.393318,229.828649,3256.906145
1353.143431,-26795.455100,1762.019645,5551.544565
1353.143743,-23464.528361,3064.381992,6957.935855
1353.144054,-16876.695478,2604.724693,5847.626942
1353.144366,-8142.265362,0.000000,4811.338623
1353.144677,1110.308913,-995.924147,1554.432478
1353.144989,6439.791695,459.657299,-1776.494261
1353.145300,8882.471304,383.047749,-6069.688724
1353.145612,6587.832884,536.266849,-8660.409521
1353.145923,1480.411884,0.000000,-7994.224174
1353.146235,-6365.771101,-995.924147,-6143.709319
1353.146546,-16136.489536,-919.314598,-2442.679609
1353.146858,-24574.837274,229.828649,2220.617826
1353.147169,-28719.990550,1455.581446,5625.565159
1353.147481,-27757.722825,2451.505594,8956.491898
1353.147792,-21762.054695,2528.115143,9326.594869
1353.148104,-13693.809927,1149.143247,7105.977043
1353.148415,-2886.803174,0.000000,2738.761985
1353.148727,5847.626942,1302.362347,-1406.391290
1353.149038,7772.162391,1302.362347,-4737.318029
1353.149350,8142.265362,459.657299,-7328.038826
1353.149661,3256.906145,-383.047749,-8438.347739
1353.149973,-3034.844362,-1762.019645,-5403.503377
1353.150284,-11547.212695,-2145.067394,-2368.659014
1353.150596,-19467.416275,-1225.752797,1850.514855
1353.150907,-24204.734303,0.000000,4515.256246
1353.151219,-26277.310941,1838.629195,7105.977043
1353.151530,-21688.034101,3140.991542,9178.553681
1353.151842,-14359.995275,4290.134789,7550.100608
1353.152153,-6143.709319,1455.581446,7031.956449
1353.152465,814.226536,-1225.752797,1258.350101
1353.152776,6143.709319,-1991.848295,-1110.308913
1353.153088,9474.636058,919.314598,-6365.771101
1353.153399,7328.038826,919.314598,-7550.100608
1353.153711,1036.288319,-2451.505594,-7179.997637
1353.154022,-6291.750507,-4673.182538,-3923.091493
1353.154334,-14804.118840,-4213.525239,-148.041188
1353.154645,-21984.116477,-3140.991542,3923.091493
1353.154957,-26869.475695,-1991.848295,6883.915261
1353.155268,-27535.661042,612.876398,9178.553681
1353.155580,-22576.281231,1991.848295,9474.636058
1353.155891,-14211.954086,0.000000,8438.347739
1353.156203,-5181.441594,-1685.410096,5699.585753
1353.156514,2960.823768,-306.438199,1036.288319
1353.156826,8808.450710,-306.438199,-3701.029710
1353.157122,9474.636058,306.438199,-7328.038826
1353.157434,6291.750507,0.000000,-8438.347739
1353.157745,-1776.494261,-1608.800546,-7105.977043
1353.158057,-9992.780217,-2221.676944,-3775.050304
1353.158368,-18653.189738,-2374.896044,370.102971
1353.158680,-24870.919651,-536.266849,4367.215058
1353.158991,-27609.681637,536.266849,6587.832884
1353.159303,-26277.310941,1991.848295,8734.430116
1353.159614,-19023.292709,2068.457845,8068.244768
1353.159926,-11029.068536,-536.266849,7179.997637
1353.160237,-1036.288319,-1455.581446,2072.576638
1353.160549,5699.585753,-536.266849,-1924.535449
1353.160860,9252.574275,-153.219100,-4737.318029
1353.161172,10510.924376,-306.438199,-8512.368333
1353.161483,4441.235652,-2221.676944,-8734.430116
1353.161795,-4515.256246,-4213.525239,-6439.791695
1353.162106,-13397.727550,-3677.258390,-2812.782580
1353.162418,-21910.095883,-1378.971896,888.247130
1353.162729,-27461.640448,919.314598,3997.112087
1353.163041,-28497.928767,2451.505594,7031.956449
1353.163352,-24352.775492,2757.943793,8142.265362
1353.163664,-16728.654289,2834.553343,6883.915261
1353.163975,-7476.080014,1378.971896,4145.153275
1353.164287,3182.885551,612.876398,-666.185348
1353.164598,9474.636058,919.314598,-3404.947333
1353.164910,9696.697840,306.438199,-7105.977043
1353.165221,6809.894666,-2221.676944,-8808.450710
1353.165533,444.123565,-612.876398,-8734.430116
1353.165844,-7994.224174,-766.095498,-5847.626942
1353.166156,-17690.922014,-612.876398,-1998.556043
1353.166467,-26795.455100,842.705048,2886.803174
1353.166779,-29386.175897,2681.334243,5181.441594
1353.167090,-26943.496289,3983.696590,8734.430116
1353.167402,-19097.313304,3370.820191,8438.347739
1353.167713,-10807.006753,2604.724693,7031.956449
1353.168024,-740.205942,229.828649,2738.761985
1353.168336,7624.121203,-229.828649,-1406.391290
1353.168647,8882.471304,-766.095498,-3923.091493
1353.168959,9030.512492,-536.266849,-7920.203579
1353.169270,3552.988522,-1225.752797,-8808.450710
1353.169582,-6365.771101,-3600.648841,-6291.750507
1353.169893,-13841.851115,-2987.772442,-3256.906145
1353.170205,-21688.034101,-1532.190996,1554.432478
1353.170516,-26129.269753,-612.876398,4737.318029
1353.170828,-27757.722825,1072.533697,8216.285956
1353.171139,-22872.363608,2681.334243,9696.697840
1353.171451,-15544.324782,2528.115143,8808.450710
1353.171762,-7254.018232,0.000000,7105.977043
1353.172074,2442.679609,-995.924147,2738.761985
1353.172385,8216.285956,-612.876398,-1332.370696
1353.172697,10807.006753,-306.438199,-5625.565159
1353.173008,7402.059420,-612.876398,-7476.080014
1353.173320,-370.102971,-2451.505594,-7179.997637
1353.173631,-7698.141797,-1838.629195,-3627.009116
1353.173943,-16876.695478,-2221.676944,-74.020594
1353.174254,-23908.651927,-383.047749,3034.844362
1353.174566,-28127.825796,2374.896044,5847.626942
1353.174877,-26795.455100,4673.182538,7105.977043
1353.175189,-19615.457463,4290.134789,7994.224174
1353.175500,-11547.212695,2911.162892,7402.059420
1353.175812,-1850.514855,689.485948,6143.709319
1353.176123,6291.750507,-1762.019645,1702.473667
1353.176435,11103.089130,-2681.334243,-2368.659014
1353.176746,9992.780217,-1608.800546,-6365.771101
1353.177058,5181.441594,-1149.143247,-8956.491898
1353.177369,-2664.741391,-1608.800546,-7476.080014
1353.177681,-12657.521608,-2911.162892,-4219.173869
1353.177992,-21391.951724,-2298.286494,740.205942
1353.178304,-27313.599260,-1762.019645,5107.421000
1353.178615,-29016.072926,-459.657299,7402.059420
1353.178926,-25537.104999,1532.190996,9104.533087
1353.179238,-17320.819043,2681.334243,8364.327145
1353.179549,-8290.306550,0.000000,6291.750507
1353.179861,592.164754,-842.705048,1924.535449
1353.180172,7550.100608,-689.485948,-1924.535449
1353.180484,10288.862594,0.000000,-5773.606348
1353.180795,7994.224174,0.000000,-8956.491898
1353.181107,1998.556043,-1838.629195,-8734.430116
1353.181418,-5847.626942,-2681.334243,-5403.503377
1353.181730,-15174.221811,-2451.505594,-2294.638420
1353.182041,-22354.219448,-612.876398,1628.453072
1353.182353,-27461.640448,1072.533697,3923.091493
1353.182664,-28497.928767,3447.429741,5403.503377
1353.182976,-23686.590144,5822.325785,6809.894666
1353.183287,-15248.242405,4903.011187,4737.318029
1353.183599,-5773.606348,2528.115143,3849.070898
1353.183910,4441.235652,0.000000,296.082377
1353.184222,9548.656652,-612.876398,-2516.700203
1353.184533,9918.759623,-1378.971896,-5773.606348
1353.184845,7698.141797,-2298.286494,-9104.533087
1353.185156,-666.185348,-2604.724693,-8142.265362
1353.185468,-11399.171507,-3524.039291,-5921.647536
1353.185779,-20429.683999,-1762.019645,-1776.494261
1353.186091,-28053.805202,306.438199,2812.782580
1353.186402,-30274.423028,2451.505594,6143.709319
1353.186714,-27683.702231,2221.676944,9548.656652
1353.187025,-20429.683999,1225.752797,9030.512492
1353.187337,-9696.697840,995.924147,7698.141797
1353.187648,1258.350101,-306.438199,4145.153275
1353.187960,8142.265362,-612.876398,-222.061783
1353.188271,11769.274478,-229.828649,-4737.318029
1353.188583,9474.636058,1915.238745,-9252.574275
1353.188894,2738.761985,-842.705048,-8512.368333
1353.189205,-5107.421000,-383.047749,-5329.482782
1353.189517,-15618.345376,-612.876398,-1258.350101
1353.189828,-22724.322419,-153.219100,2812.782580
1353.190140,-26499.372724,766.095498,5921.647536
1353.190451,-26425.352129,3447.429741,7254.018232
1353.190763,-21169.889941,5822.325785,8438.347739
1353.191074,-12879.583391,4290.134789,6957.935855
1353.191386,-3108.864956,1302.362347,6143.709319
1353.191697,3701.029710,-919.314598,1850.514855
1353.192009,9474.636058,-919.314598,-1850.514855
1353.192320,9992.780217,-306.438199,-4885.359217
1353.192632,6217.729913,-1378.971896,-6217.729913
1353.192943,-666.185348,-3753.867940,-6143.709319
1353.193255,-10140.821405,-3907.087040,-3701.029710
1353.193566,-18579.169144,-2528.115143,-0.000000
1353.193878,-24944.940245,-1455.581446,3701.029710
1353.194189,-27831.743419,689.485948,5551.544565
1353.194501,-26055.249158,2681.334243,7698.141797
1353.194812,-19837.519246,3600.648841,7846.182985
1353.195124,-10955.047942,1072.533697,8660.409521
1353.195435,-2738.761985,-1685.410096,5255.462188
1353.195747,5255.462188,-1455.581446,1628.453072
1353.196058,9326.594869,-1378.971896,-3627.009116
1353.196370,9104.533087,-536.266849,-7254.018232
1353.196681,4589.276840,-1915.238745,-9474.636058
1353.196993,-3627.009116,-1378.971896,-7476.080014
1353.197304,-11917.315666,-612.876398,-4071.132681
1353.197616,-20947.828159,-1378.971896,814.226536
1353.197927,-27239.578666,-919.314598,4885.359217
1353.198239,-29238.134709,1072.533697,7179.997637
1353.198550,-24796.899057,3677.258390,8734.430116
1353.198862,-17024.736666,2451.505594,7254.018232
1353.199173,-7698.141797,-1302.362347,5329.482782
1353.199485,518.144159,-1915.238745,592.164754
1353.199796,7105.977043,-1685.410096,-2960.823768
1353.200107,11177.109724,-459.657299,-6513.812290
1353.200419,9770.718434,-766.095498,-7920.203579
1353.200730,2294.638420,-3294.210641,-7994.224174
1353.201042,-6291.750507,-4673.182538,-4589.276840
1353.201353,-14582.057057,-3600.648841,-1036.288319
1353.201665,-23982.672521,-1302.362347,2294.638420
1353.201976,-29608.237680,919.314598,4367.215058
1353.202288,-28942.052332,2681.334243,6143.709319
1353.202599,-23760.610738,3907.087040,5477.523971
1353.202911,-15396.283594,2451.505594,5921.647536
1353.203222,-5255.462188,1072.533697,2368.659014
1353.203534,3849.070898,842.705048,-814.226536
1353.203845,8290.306550,-383.047749,-3701.029710
1353.204157,11251.130318,-1915.238745,-5403.503377
1353.204468,7772.162391,-1378.971896,-7846.182985
1353.204780,-1184.329507,-842.705048,-6735.874072
1353.205091,-10807.006753,-153.219100,-4959.379811
1353.205403,-20651.745782,229.828649,-1628.453072
1353.205714,-27017.516883,2911.162892,2368.659014
1353.206026,-29238.134709,4060.306139,5699.585753
1353.206337,-26203.290347,3753.867940,8290.306550
1353.206649,-19097.313304,1915.238745,9030.512492
1353.206960,-9696.697840,0.000000,7698.141797
1353.207272,-370.102971,-1762.019645,2368.659014
1353.207583,6957.935855,-536.266849,-1184.329507
1353.207895,11473.192101,1915.238745,-6143.709319
1353.208206,9474.636058,1762.019645,-8364.327145
1353.208518,3108.864956,-536.266849,-8586.388927
1353.208829,-5773.606348,-1225.752797,-5403.503377
1353.209141,-14211.954086,-842.705048,-1184.329507
1353.209452,-21688.034101,-306.438199,3775.050304
1353.209764,-26351.331535,536.266849,6439.791695
1353.210075,-25981.228564,1915.238745,8142.265362
1353.210387,-21836.075289,2451.505594,8808.450710
1353.210698,-12879.583391,1149.143247,7476.080014
1353.211009,-4663.297435,459.657299,5107.421000
1353.211321,2146.597232,0.000000,1110.308913
1353.211632,6809.894666,-1149.143247,-2368.659014
1353.211944,8956.491898,-229.828649,-5773.606348
1353.212255,6587.832884,76.609550,-6735.874072
1353.212567,592.164754,-1991.848295,-5995.668130
1353.212878,-7550.100608,-3370.820191,-3478.967927
1353.213190,-16654.633695,-2604.724693,-148.041188
1353.213501,-24944.940245,-1532.190996,3701.029710
1353.213813,-28423.908173,612.876398,7179.997637
1353.214124,-26795.455100,2528.115143,8734.430116
1353.214436,-21169.889941,2374.896044,8956.491898
1353.214747,-11325.150913,-995.924147,8734.430116
1353.215059,-2294.638420,-3830.477490,3552.988522
1353.215370,6069.688724,-2451.505594,-0.000000
1353.215682,10436.903782,-1532.190996,-4959.379811
1353.215993,10881.027347,1225.752797,-7476.080014
1353.216305,4885.359217,0.000000,-8512.368333
1353.216616,-3256.906145,-1302.362347,-6513.812290
1353.216928,-11843.295072,-1685.410096,-2368.659014
1353.217239,-20355.663405,-1915.238745,1702.473667
1353.217551,-26499.372724,-1149.143247,5255.462188
1353.217862,-28868.031738,-153.219100,7476.080014
1353.218174,-26943.496289,229.828649,8290.306550
1353.218485,-19467.416275,306.438199,7402.059420
1353.218797,-9548.656652,-1532.190996,5329.482782
1353.219108,-1776.494261,-1838.629195,518.144159
1353.219420,4663.297435,-2068.457845,-2886.803174
1353.219731,9030.512492,-1455.581446,-7328.038826
1353.220043,8438.347739,-306.438199,-8438.347739
1353.220354,3849.070898,229.828649,-8586.388927
1353.220666,-4441.235652,-612.876398,-5699.585753
1353.220977,-13915.871710,-1072.533697,-1776.494261
1353.221288,-22576.281231,-1685.410096,1406.391290
1353.221600,-27609.681637,2068.457845,4737.318029
1353.221911,-27757.722825,4136.915689,6957.935855
1353.222223,-22872.363608,3524.039291,6957.935855
1353.222534,-15026.180623,459.657299,5773.606348
1353.222846,-5699.585753,-689.485948,2368.659014
1353.223157,3552.988522,-459.657299,-1554.432478
1353.223469,9548.656652,-536.266849,-5329.482782
1353.223780,10510.924376,536.266849,-7846.182985
1353.224092,6957.935855,-459.657299,-8142.265362
1353.224403,148.041188,-1991.848295,-5847.626942
1353.224715,-9400.615463,-2757.943793,-2738.761985
1353.225026,-19023.292709,-1838.629195,962.267725
1353.225338,-26055.249158,383.047749,3923.091493
1353.225649,-28349.887579,2374.896044,6365.771101
1353.225961,-25759.166782,2757.943793,8290.306550
1353.226272,-18949.272115,1838.629195,7179.997637
1353.226584,-10214.842000,229.828649,5847.626942
1353.226895,-1184.329507,-383.047749,2220.617826
1353.227207,5255.462188,0.000000,-1406.391290
1353.227518,8956.491898,1608.800546,-5551.544565
1353.227830,8068.244768,2451.505594,-7550.100608
1353.228141,3108.864956,919.314598,-7402.059420
1353.228453,-5033.400406,229.828649,-4737.318029
1353.228764,-14137.933492,0.000000,-2072.576638
1353.229076,-21910.095883,612.876398,1628.453072
1353.229387,-26425.352129,2068.457845,5551.544565
1353.229699,-26943.496289,2451.505594,8512.368333
1353.230010,-21614.013506,2604.724693,10510.924376
1353.230322,-14285.974681,-689.485948,9252.574275
1353.230633,-5403.503377,-3983.696590,6587.832884
1353.230945,1924.535449,-3370.820191,1628.453072
1353.231256,7402.059420,-229.828649,-2442.679609
1353.231568,9474.636058,1378.971896,-5995.668130
1353.231879,5773.606348,-459.657299,-7179.997637
1353.232190,-222.061783,-2221.676944,-5625.565159
1353.232502,-9030.512492,-2221.676944,-3108.864956
1353.232813,-16728.654289,-1149.143247,222.061783
1353.233125,-23390.507767,-1149.143247,4219.173869
1353.233436,-27017.516883,-153.219100,6661.853478
1353.233748,-24796.899057,1072.533697,7994.224174
1353.234059,-18949.272115,1225.752797,8068.244768
1353.234371,-11103.089130,-536.266849,7624.121203
1353.234682,-3034.844362,-1838.629195,3701.029710
1353.234994,3330.926739,-995.924147,-370.102971
1353.235305,8512.368333,-459.657299,-4441.235652
1353.235617,9326.594869,612.876398,-7402.059420
1353.235928,5477.523971,459.657299,-8216.285956
1353.236240,-2146.597232,536.266849,-6291.750507
1353.236551,-10436.903782,-459.657299,-3108.864956
1353.236863,-19319.375086,-1762.019645,518.144159
1353.237174,-25685.146187,-1838.629195,4885.359217
1353.237486,-26943.496289,842.705048,7179.997637
1353.237797,-25167.002028,1302.362347,7920.203579
1353.238109,-17542.880825,-383.047749,7254.018232
1353.238420,-9326.594869,-1685.410096,5107.421000
1353.238732,-888.247130,-1991.848295,740.205942
1353.239043,6365.771101,-306.438199,-2442.679609
1353.239355,9844.739029,459.657299,-6143.709319
1353.239666,7920.203579,766.095498,-8438.347739
1353.239978,2516.700203,-2145.067394,-8438.347739
1353.240289,-5107.421000,-2757.943793,-6143.709319
1353.240601,-13471.748144,-2451.505594,-2368.659014
1353.240912,-22428.240043,-2145.067394,1702.473667
1353.241224,-28275.866984,-1225.752797,4811.338623
1353.241535,-28942.052332,-229.828649,7105.977043
1353.241847,-24574.837274,919.314598,8364.327145
1353.242158,-16950.716072,766.095498,7105.977043
1353.242470,-7476.080014,306.438199,3701.029710
1353.242781,2146.597232,0.000000,-1184.329507
1353.243092,8068.244768,459.657299,-5255.462188
1353.243404,9622.677246,1455.581446,-7846.182985
1353.243715,7772.162391,2451.505594,-9400.615463
1353.244027,-370.102971,1455.581446,-7402.059420
1353.244338,-9474.636058,-919.314598,-4293.194464
1353.244650,-18949.272115,-766.095498,-222.061783
1353.244961,-25981.228564,229.828649,4293.194464
1353.245273,-28794.011144,2681.334243,6883.915261
1353.245584,-26943.496289,2757.943793,8586.388927
1353.245896,-19763.498651,1455.581446,8216.285956
1353.246207,-9696.697840,612.876398,7179.997637
1353.246519,-740.205942,-1072.533697,2590.720797
1353.246830,6513.812290,-383.047749,-1258.350101
1353.247142,10362.883188,1838.629195,-5033.400406
1353.247453,9400.615463,2221.676944,-8142.265362
1353.247765,3997.112087,-229.828649,-7698.141797
1353.248076,-4515.256246,-1302.362347,-5625.565159
1353.248388,-13249.686362,-1225.752797,-1406.391290
1353.248699,-21095.869347,-1762.019645,2294.638420
1353.249011,-25907.207970,-842.705048,6291.750507
1353.249322,-26499.372724,1532.190996,9326.594869
1353.249634,-22946.384202,2068.457845,10584.944971
1353.249945,-14285.974681,229.828649,10140.821405
1353.250257,-5551.544565,-1225.752797,7179.997637
1353.250568,1776.494261,-1072.533697,1998.556043
1353.250880,8882.471304,306.438199,-2960.823768
1353.251191,11177.109724,2068.457845,-7254.018232
1353.251503,8068.244768,2451.505594,-8438.347739
1353.251814,1702.473667,612.876398,-7402.059420
1353.252126,-7476.080014,-2298.286494,-3552.988522
1353.252437,-17024.736666,-1608.800546,1110.308913
1353.252749,-25537.104999,-459.657299,4885.359217
1353.253060,-28423.908173,1072.533697,7772.162391
1353.253371,-27091.537477,2298.286494,8808.450710
1353.253683,-19985.560434,3370.820191,9252.574275
1353.253994,-11695.253884,1455.581446,5847.626942
1353.254306,-3034.844362,0.000000,3108.864956
1353.254617,4959.379811,689.485948,-2072.576638
1353.254929,9400.615463,1225.752797,-5921.647536
1353.255240,8808.450710,306.438199,-8364.327145
1353.255552,4737.318029,-2374.896044,-8512.368333
1353.255863,-3775.050304,-3907.087040,-6735.874072
1353.256175,-12065.356855,-4060.306139,-2516.700203
1353.256486,-20577.725188,-3677.258390,888.247130
1353.256798,-27461.640448,-3140.991542,4811.338623
1353.257110,-29460.196492,-536.266849,7994.224174
1353.257421,-25685.146187,0.000000,9770.718434
1353.257733,-18653.189738,-306.438199,8438.347739
1353.258044,-9622.677246,-766.095498,7105.977043
1353.258356,-740.205942,-842.705048,1850.514855
1353.258668,6957.935855,0.000000,-2442.679609
1353.258979,11399.171507,1915.238745,-7624.121203
1353.259291,10436.903782,1915.238745,-10066.800811
1353.259603,4515.256246,1762.019645,-9918.759623
1353.259914,-4959.379811,-919.314598,-6143.709319
1353.260226,-14730.098246,-2221.676944,-1850.514855
1353.260537,-23982.672521,-1685.410096,2664.741391
1353.260849,-30126.381839,383.047749,6735.874072
1353.261161,-29164.114115,1838.629195,9178.553681
1353.261472,-23538.548956,2298.286494,8364.327145
1353.261784,-13915.871710,1991.848295,5551.544565
1353.262096,-4663.297435,536.266849,2664.741391
1353.262407,4145.153275,306.438199,-1702.473667
1353.262719,10140.821405,689.485948,-4885.359217
1353.263030,11621.233289,1762.019645,-8068.244768
1353.263342,7624.121203,0.000000,-8290.306550
1353.263654,-814.226536,-1838.629195,-7624.121203
1353.263965,-10362.883188,-2145.067394,-3552.988522
1353.264277,-20429.683999,-612.876398,-814.226536
1353.264588,-28275.866984,229.828649,3330.926739
1353.264900,-30644.525999,2298.286494,7254.018232
1353.265212,-27461.640448,2528.115143,9844.739029
1353.265523,-19763.498651,995.924147,9770.718434
1353.265835,-9696.697840,-1685.410096,8882.471304
1353.266147,74.020594,-1685.410096,3330.926739
1353.266458,8808.450710,536.266849,-2072.576638
1353.266770,11621.233289,2145.067394,-7772.162391
1353.267081,10584.944971,2757.943793,-10066.800811
1353.267393,4219.173869,1838.629195,-9474.636058
1353.267705,-4811.338623,306.438199,-5773.606348
1353.268016,-14952.160028,-612.876398,-1554.432478
1353.268328,-23538.548956,-536.266849,3478.967927
1353.268640,-28053.805202,1302.362347,6883.915261
1353.268951,-27757.722825,2145.067394,9030.512492
1353.269263,-22576.281231,3294.210641,8956.491898
1353.269574,-14285.974681,1838.629195,8068.244768
1353.269886,-4441.235652,-306.438199,5773.606348
1353.270198,3256.906145,-1302.362347,592.164754
1353.270509,8660.409521,-689.485948,-2590.720797
1353.270821,10436.903782,689.485948,-6143.709319
1353.271133,7105.977043,-536.266849,-7698.141797
1353.271444,0.000000,-2604.724693,-7254.018232
1353.271756,-8586.388927,-3217.601092,-3108.864956
1353.272067,-16802.674883,-2374.896044,296.082377
1353.272379,-25241.022622,-2528.115143,4219.173869
1353.272691,-29164.114115,-1455.581446,8364.327145
1353.273002,-27091.537477,689.485948,9918.759623
1353.273314,-21614.013506,1608.800546,9104.533087
1353.273625,-12731.542202,383.047749,8512.368333
1353.273937,-2886.803174,-1762.019645,5033.400406
1353.274249,6217.729913,-1455.581446,-444.123565
1353.274560,10436.903782,-689.485948,-5033.400406
1353.274872,10362.883188,842.705048,-9326.594869
1353.275184,5847.626942,1302.362347,-10140.821405
1353.275495,-3404.947333,1225.752797,-7031.956449
1353.275807,-12065.356855,76.609550,-2960.823768
1353.276118,-21391.951724,-1915.238745,592.164754
1353.276430,-27831.743419,-689.485948,5847.626942
1353.276742,-28868.031738,995.924147,8882.471304
1353.277053,-25759.166782,2221.676944,8956.491898
1353.277365,-18209.066173,1225.752797,8142.265362
1353.277677,-8142.265362,-536.266849,6217.729913
1353.277988,1332.370696,-1532.190996,666.185348
1353.278300,8734.430116,-153.219100,-4145.153275
1353.278611,11473.192101,1149.143247,-8142.265362
1353.278923,10288.862594,76.609550,-10807.006753
1353.279235,3330.926739,-1915.238745,-9474.636058
1353.279546,-6587.832884,-3140.991542,-4959.379811
1353.279858,-15914.427753,-3217.601092,-1332.370696
1353.280170,-25241.022622,-2681.334243,3034.844362
1353.280481,-30718.546593,-1225.752797,7105.977043
1353.280793,-29756.278868,1532.190996,8660.409521
1353.281104,-23760.610738,1915.238745,8142.265362
1353.281416,-14211.954086,1149.143247,6291.750507
1353.281728,-4737.318029,-612.876398,3923.091493
1353.282039,4219.173869,-919.314598,-1258.350101
1353.282351,11103.089130,153.219100,-5773.606348
1353.282662,13027.624579,1378.971896,-9548.656652
1353.282974,8216.285956,459.657299,-10510.924376
1353.283286,-1036.288319,0.000000,-7624.121203
1353.283597,-12139.377449,-459.657299,-4071.132681
1353.283909,-22058.137072,-842.705048,-0.000000
1353.284221,-29238.134709,383.047749,5477.523971
1353.284532,-30940.608376,2068.457845,7994.224174
1353.284844,-27683.702231,3370.820191,8142.265362
1353.285155,-19245.354492,2528.115143,7254.018232
1353.285467,-8512.368333,459.657299,6069.688724
1353.285779,1554.432478,-1072.533697,2146.597232
1353.286090,8956.491898,-459.657299,-2146.597232
1353.286402,11843.295072,76.609550,-6217.729913
1353.286714,10658.965565,-306.438199,-8142.265362
1353.287025,4145.153275,-842.705048,-8512.368333
1353.287337,-5625.565159,-842.705048,-5107.421000
1353.287648,-16284.530724,-919.314598,-1850.514855
1353.287960,-24796.899057,-842.705048,2886.803174
1353.288272,-29238.134709,536.266849,7476.080014
1353.288583,-28571.949361,995.924147,9548.656652
1353.288895,-24130.713709,1762.019645,10881.027347
1353.289207,-14730.098246,229.828649,10066.800811
1353.289518,-4663.297435,-1762.019645,6661.853478
1353.289830,4885.359217,-995.924147,1036.288319
1353.290141,10881.027347,766.095498,-4737.318029
1353.290453,13027.624579,2604.724693,-8956.491898
1353.290765,9400.615463,1532.190996,-9918.759623
1353.291076,740.205942,383.047749,-7772.162391
1353.291388,-10510.924376,-919.314598,-3182.885551
1353.291699,-19985.560434,-1378.971896,1924.535449
1353.292011,-27017.516883,-1378.971896,7105.977043
1353.292323,-29164.114115,0.000000,9474.636058
1353.292634,-25907.207970,1149.143247,10066.800811
1353.292946,-18875.251521,1915.238745,8216.285956
1353.293258,-8956.491898,536.266849,6883.915261
1353.293569,-148.041188,-766.095498,2072.576638
1353.293881,6513.812290,0.000000,-1924.535449
1353.294192,10362.883188,153.219100,-5551.544565
1353.294504,10066.800811,-919.314598,-7772.162391
1353.294816,5255.462188,-2451.505594,-7698.141797
1353.295127,-3478.967927,-2987.772442,-5477.523971
1353.295439,-13693.809927,-1838.629195,-2812.782580
1353.295751,-22576.281231,-1532.190996,1702.473667
1353.296062,-28497.928767,-1149.143247,5625.565159
1353.296374,-29164.114115,842.705048,8142.265362
1353.296685,-25833.187376,1072.533697,8512.368333
1353.296997,-17542.880825,-459.657299,6809.894666
1353.297309,-7772.162391,-1915.238745,4663.297435
1353.297620,1110.308913,-1762.019645,-740.205942
1353.297932,7550.100608,-1378.971896,-4441.235652
1353.298244,11843.295072,-842.705048,-8290.306550
1353.298555,10584.944971,-995.924147,-9622.677246
1353.298867,3701.029710,-1685.410096,-8290.306550
1353.299178,-6735.874072,-2451.505594,-4959.379811
1353.299490,-17987.004391,-2834.553343,-740.205942
1353.299802,-27387.619854,-2068.457845,3997.112087
1353.300113,-31162.670158,76.609550,7846.182985
1353.300425,-29978.340651,2604.724693,9326.594869
1353.300736,-24500.816680,2604.724693,7328.038826
1353.301048,-14804.118840,766.095498,5995.668130
1353.301360,-2960.823768,0.000000,1480.411884
1353.301671,5477.523971,1991.848295,-2516.700203
1353.301983,10881.027347,2528.115143,-6365.771101
1353.302295,13027.624579,2681.334243,-9474.636058
1353.302606,9104.533087,0.000000,-9252.574275
1353.302918,-222.061783,-1378.971896,-6513.812290
1353.303229,-11473.192101,-995.924147,-3627.009116
1353.303541,-22872.363608,-1149.143247,1332.370696
1353.303853,-30126.381839,76.609550,6069.688724
1353.304164,-31088.649564,995.924147,9622.677246
1353.304476,-26499.372724,1378.971896,10362.883188
1353.304788,-17690.922014,0.000000,8734.430116
1353.305099,-8216.285956,-2374.896044,6735.874072
1353.305411,2220.617826,-1685.410096,296.082377
1353.305722,9622.677246,1608.800546,-4219.173869
1353.306034,11769.274478,4136.915689,-8512.368333
1353.306346,9252.574275,2298.286494,-8882.471304
1353.306657,1924.535449,612.876398,-7772.162391
1353.306969,-7328.038826,459.657299,-4219.173869
1353.307280,-16358.551318,536.266849,-222.061783
1353.307592,-24426.796086,0.000000,4737.318029
1353.307904,-27979.784608,1072.533697,7698.141797
1353.308215,-25315.043216,1991.848295,9548.656652
1353.308527,-19467.416275,1608.800546,9400.615463
1353.308839,-10288.862594,842.705048,7179.997637
1353.309150,-2664.741391,153.219100,3849.070898
1353.309462,4441.235652,536.266849,-1036.288319
1353.309773,9104.533087,2221.676944,-4145.153275
1353.310085,9770.718434,1762.019645,-7105.977043
1353.310397,5773.606348,-153.219100,-7624.121203
1353.310708,-1628.453072,-2298.286494,-6587.832884
1353.311020,-10658.965565,-2834.553343,-3478.967927
1353.311332,-19245.354492,-2451.505594,814.226536
1353.311643,-26055.249158,-2298.286494,5255.462188
1353.311955,-29460.196492,-842.705048,8586.388927
1353.312266,-26795.455100,0.000000,10362.883188
1353.312578,-19837.519246,-1608.800546,9400.615463
1353.312890,-10436.903782,-3370.820191,7994.224174
1353.313201,-1776.494261,-2757.943793,3182.885551
1353.313513,6809.894666,-459.657299,-962.267725
1353.313825,11029.068536,612.876398,-6661.853478
1353.314136,10436.903782,995.924147,-9548.656652
1353.314448,4219.173869,229.828649,-9178.553681
1353.314759,-4663.297435,0.000000,-5921.647536
1353.315071,-14434.015869,-689.485948,-2442.679609
1353.315383,-23464.528361,-1685.410096,2294.638420
1353.315694,-28645.969955,-2298.286494,6809.894666
1353.316006,-28423.908173,-842.705048,9326.594869
1353.316317,-24278.754898,229.828649,8882.471304
1353.316629,-16062.468941,-153.219100,6587.832884
1353.316941,-6661.853478,-1072.533697,3923.091493
1353.317252,1258.350101,229.828649,-592.164754
1353.317564,8808.450710,1149.143247,-3997.112087
1353.317876,11621.233289,689.485948,-7624.121203
1353.318187,8882.471304,-459.657299,-8216.285956
1353.318499,1924.535449,-1608.800546,-7846.182985
1353.318810,-8142.265362,-1532.190996,-5477.523971
1353.319122,-17098.757260,-612.876398,-1406.391290
1353.319434,-25167.002028,-919.314598,2368.659014
1353.319745,-29756.278868,229.828649,6735.874072
1353.320057,-28719.990550,689.485948,8956.491898
1353.320369,-22650.301825,459.657299,8142.265362
1353.320680,-13323.706956,612.876398,6291.750507
1353.320992,-3849.070898,76.609550,3108.864956
1353.321303,5477.523971,612.876398,-1480.411884
1353.321615,11695.253884,1302.362347,-6217.729913
1353.321927,11843.295072,1455.581446,-8956.491898
1353.322238,5847.626942,1455.581446,-9548.656652
1353.322550,-3108.864956,919.314598,-7105.977043
1353.322862,-13693.809927,76.609550,-3775.050304
1353.323173,-22724.322419,-383.047749,962.267725
1353.323485,-27609.681637,689.485948,5551.544565
1353.323796,-28053.805202,1915.238745,8216.285956
1353.324108,-23686.590144,2528.115143,9030.512492
1353.324420,-14359.995275,1072.533697,8290.306550
1353.324731,-4589.276840,153.219100,5847.626942
1353.325043,1776.494261,-153.219100,666.185348
1353.325354,7105.977043,1762.019645,-3108.864956
1353.325666,8882.471304,2451.505594,-7031.956449
1353.325978,6513.812290,2221.676944,-8808.450710
1353.326289,1184.329507,229.828649,-7624.121203
1353.326601,-7328.038826,-919.314598,-4515.256246
1353.326913,-15692.365970,-2145.067394,-370.102971
1353.327224,-23020.404796,-2757.943793,3775.050304
1353.327536,-27017.516883,-2451.505594,7624.121203
1353.327847,-26943.496289,76.609550,9548.656652
1353.328159,-22354.219448,1149.143247,9030.512492
1353.328471,-13767.830521,1072.533697,7179.997637
1353.328782,-3923.091493,-612.876398,5403.503377
1353.329094,3627.009116,-229.828649,222.061783
1353.329406,8586.388927,536.266849,-3256.906145
1353.329717,10214.842000,1685.410096,-7105.977043
1353.330029,6439.791695,842.705048,-8142.265362
1353.330340,-1702.473667,-536.266849,-5995.668130
1353.330652,-10732.986159,-1532.190996,-2886.803174
1353.330964,-19689.478057,-1532.190996,370.102971
1353.331275,-25463.084405,-383.047749,5181.441594
1353.331587,-27535.661042,459.657299,8586.388927
1353.331899,-25389.063811,766.095498,9844.739029
1353.332210,-18875.251521,689.485948,8882.471304
1353.332522,-9178.553681,-1302.362347,7105.977043
1353.332833,-444.123565,-1915.238745,3775.050304
1353.333145,6513.812290,0.000000,-1776.494261
1353.333457,9696.697840,2068.457845,-6735.874072
1353.333768,10436.903782,1762.019645,-9104.533087
1353.334080,4145.153275,153.219100,-8956.491898
1353.334391,-4071.132681,-919.314598,-5699.585753
1353.334703,-13693.809927,-2911.162892,-1776.494261
1353.335015,-22428.240043,-3830.477490,3034.844362
1353.335326,-27905.764013,-2528.115143,6957.935855
1353.335638,-27905.764013,76.609550,9030.512492
1353.335950,-23242.466579,919.314598,8956.491898
1353.336261,-15766.386565,-383.047749,6661.853478
1353.336573,-6365.771101,-1072.533697,4367.215058
1353.336884,1628.453072,-229.828649,-962.267725
1353.337196,7624.121203,1455.581446,-5181.441594
1353.337508,9918.759623,2374.896044,-8290.306550
1353.337819,7179.997637,1532.190996,-9326.594869
1353.338131,962.267725,383.047749,-8068.244768
1353.338443,-8512.368333,-919.314598,-4589.276840
1353.338754,-17024.736666,-1838.629195,-1406.391290
1353.339066,-24722.878463,-1378.971896,2886.803174
1353.339377,-28868.031738,766.095498,6217.729913
1353.339689,-26647.413912,2068.457845,7328.038826
1353.340001,-20873.807564,1455.581446,6883.915261
1353.340312,-12361.439231,-1378.971896,5255.462188
1353.340624,-2886.803174,-2528.115143,3256.906145
1353.340936,3923.091493,-995.924147,-2072.576638
1353.341247,9178.553681,689.485948,-5403.503377
1353.341559,8882.471304,1685.410096,-8512.368333
1353.341870,4589.276840,0.000000,-7920.203579
1353.342182,-2812.782580,-1225.752797,-5847.626942
1353.342494,-12583.501014,-1608.800546,-2664.741391
1353.342805,-21614.013506,-1225.752797,1258.350101
1353.343117,-27535.661042,-536.266849,5551.544565
1353.343428,-28275.866984,1149.143247,8290.306550
1353.343740,-24056.693115,1378.971896,9474.636058
1353.344052,-16432.571912,153.219100,8142.265362
1353.344363,-7031.956449,-229.828649,4811.338623
1353.344675,1184.329507,306.438199,888.247130
1353.344987,7550.100608,1991.848295,-3997.112087
1353.345298,9918.759623,2528.115143,-6735.874072
1353.345610,8216.285956,1378.971896,-8290.306550
1353.345921,1406.391290,0.000000,-6809.894666
1353.346233,-6661.853478,-919.314598,-3627.009116
1353.346545,-15174.221811,-1072.533697,-296.082377
1353.346856,-22798.343014,-1225.752797,4219.173869
1353.347168,-26869.475695,-536.266849,7772.162391
1353.347480,-25981.228564,1608.800546,9474.636058
1353.347791,-20281.642811,1762.019645,9252.574275
1353.348103,-11547.212695,153.219100,7402.059420
1353.348414,-3256.906145,-842.705048,4219.173869
1353.348726,3330.926739,-383.047749,-518.144159
1353.349038,8512.368333,1608.800546,-4293.194464
1353.349349,9548.656652,2374.896044,-7105.977043
1353.349661,5699.585753,689.485948,-7550.100608
1353.349973,-1628.453072,-1685.410096,-5403.503377
1353.350284,-10658.965565,-2451.505594,-2368.659014
1353.350596,-18949.272115,-2451.505594,1184.329507
1353.350907,-25167.002028,-1378.971896,5477.523971
1353.351219,-26499.372724,0.000000,8364.327145
1353.351531,-23908.651927,1532.190996,9992.780217
1353.351842,-18431.127956,0.000000,9178.553681
1353.352154,-9696.697840,-1149.143247,5403.503377
1353.352465,-1850.514855,-383.047749,1776.494261
1353.352777,5107.421000,1991.848295,-3034.844362
1353.353089,9030.512492,2528.115143,-6439.791695
1353.353400,8586.388927,536.266849,-8216.285956
1353.353712,2812.782580,-766.095498,-7550.100608
1353.354024,-5181.441594,-1608.800546,-4737.318029
1353.354335,-14211.954086,-1608.800546,-1554.432478
1353.354647,-23094.425390,-2374.896044,2368.659014
1353.354958,-27905.764013,-1685.410096,6069.688724
1353.355270,-27831.743419,383.047749,7476.080014
1353.355582,-22724.322419,1072.533697,8142.265362
1353.355893,-14359.995275,0.000000,6439.791695
1353.356205,-6513.812290,-459.657299,2516.700203
1353.356517,592.164754,-536.266849,-444.123565
1353.356828,7402.059420,995.924147,-4071.132681
1353.357140,10510.924376,1455.581446,-7476.080014
1353.357451,8142.265362,612.876398,-8956.491898
1353.357763,1924.535449,-1149.143247,-7550.100608
1353.358075,-7179.997637,-2911.162892,-4737.318029
1353.358386,-16876.695478,-2757.943793,-1480.411884
1353.358698,-25833.187376,-2298.286494,3330.926739
1353.359010,-29682.258274,-536.266849,7772.162391
1353.359321,-28645.969955,306.438199,9252.574275
1353.359633,-22798.343014,0.000000,9030.512492
1353.359944,-12657.521608,-1378.971896,6143.709319
1353.360256,-3627.009116,-1225.752797,2590.720797
1353.360567,4959.379811,536.266849,-2220.617826
1353.360879,11103.089130,2298.286494,-6513.812290
1353.361190,11325.150913,1608.800546,-8882.471304
1353.361502,6513.812290,229.828649,-8290.306550
1353.361813,-2368.659014,-1302.362347,-6217.729913
1353.362125,-12583.501014,-1225.752797,-2590.720797
1353.362436,-21465.972318,-459.657299,1554.432478
1353.362748,-28349.887579,536.266849,5033.400406
1353.363059,-28645.969955,2145.067394,7994.224174
1353.363371,-24130.713709,2911.162892,8808.450710
1353.363682,-16654.633695,1608.800546,7476.080014
1353.363994,-7105.977043,-459.657299,4367.215058
1353.364305,1998.556043,-689.485948,1480.411884
1353.364617,8512.368333,1225.752797,-3182.885551
1353.364928,11547.212695,1685.410096,-6069.688724
1353.365240,8882.471304,76.609550,-7254.018232
1353.365551,2368.659014,-2374.896044,-6661.853478
1353.365863,-7328.038826,-2068.457845,-4589.276840
1353.366174,-16284.530724,-1532.190996,-1554.432478
1353.366486,-24500.816680,-1149.143247,2738.761985
1353.366797,-28868.031738,153.219100,6809.894666
1353.367109,-27831.743419,1608.800546,9696.697840
1353.367420,-23020.404796,459.657299,9844.739029
1353.367732,-14211.954086,153.219100,8586.388927
1353.368043,-4367.215058,689.485948,5329.482782
1353.368355,4071.132681,76.609550,518.144159
1353.368666,10955.047942,1532.190996,-4145.153275
1353.368978,12287.418637,1685.410096,-7772.162391
1353.369289,7402.059420,689.485948,-9400.615463
1353.369601,-1628.453072,-306.438199,-7105.977043
1353.369912,-11251.130318,-1225.752797,-3923.091493
1353.370224,-20281.642811,-766.095498,296.082377
1353.370535,-27461.640448,-995.924147,5699.585753
1353.370847,-30274.423028,-153.219100,8956.491898
1353.371158,-26277.310941,229.828649,9918.759623
1353.371470,-19097.313304,536.266849,9400.615463
1353.371781,-9326.594869,-459.657299,7402.059420
1353.372093,0.000000,-1149.143247,2664.741391
1353.372404,7624.121203,-229.828649,-2294.638420
1353.372716,12435.459826,689.485948,-6439.791695
1353.373027,11843.295072,383.047749,-8512.368333
1353.373339,3849.070898,-1378.971896,-9030.512492
1353.373650,-6291.750507,-2528.115143,-5477.523971
1353.373962,-15840.407159,-2834.553343,-1924.535449
1353.374273,-24278.754898,-1991.848295,2812.782580
1353.374585,-30052.361245,-995.924147,7105.977043
1353.374896,-29608.237680,0.000000,9178.553681
1353.375208,-23612.569550,0.000000,8956.491898
1353.375519,-14359.995275,-229.828649,7772.162391
1353.375831,-4663.297435,0.000000,3849.070898
1353.376142,4071.132681,0.000000,518.144159
1353.376454,9178.553681,919.314598,-5181.441594
1353.376765,11695.253884,689.485948,-7772.162391
1353.377077,8808.450710,0.000000,-10584.944971
1353.377388,1628.453072,76.609550,-8660.409521
1353.377700,-9326.594869,-1685.410096,-5181.441594
1353.378011,-18579.169144,-2528.115143,-888.247130
1353.378323,-26869.475695,-2068.457845,4441.235652
1353.378634,-31014.628970,-306.438199,8216.285956
1353.378946,-28719.990550,1378.971896,9992.780217
1353.379257,-22354.219448,306.438199,9104.533087
1353.379569,-12139.377449,-229.828649,6513.812290
1353.379880,-1702.473667,689.485948,814.226536
1353.380192,8734.430116,1838.629195,-3256.906145
1353.380503,12213.398043,2681.334243,-8660.409521
1353.380815,12361.439231,1225.752797,-9992.780217
1353.381126,6513.812290,-766.095498,-10140.821405
1353.381438,-3997.112087,-2757.943793,-6365.771101
1353.381749,-14582.057057,-3370.820191,-1924.535449
1353.382061,-24648.857869,-1915.238745,2516.700203
1353.382372,-31014.628970,-1225.752797,7031.956449
1353.382684,-30274.423028,383.047749,9770.718434
1353.382995,-25463.084405,919.314598,8734.430116
1353.383307,-17024.736666,1455.581446,7328.038826
1353.383618,-5921.647536,1991.848295,3923.091493
1353.383930,3775.050304,1685.410096,-0.000000
1353.384241,9548.656652,1149.143247,-4441.235652
1353.384553,12287.418637,2145.067394,-7402.059420
1353.384864,9030.512492,459.657299,-8586.388927
1353.385175,888.247130,-153.219100,-7105.977043
1353.385487,-8882.471304,-919.314598,-3627.009116
1353.385798,-19171.333898,0.000000,-444.123565
1353.386110,-26795.455100,229.828649,4515.256246
1353.386421,-29608.237680,612.876398,8364.327145
1353.386733,-27017.516883,2374.896044,10436.903782
1353.387044,-19245.354492,2681.334243,9918.759623
1353.387356,-10658.965565,1685.410096,7920.203579
1353.387667,-592.164754,-229.828649,3478.967927
1353.387979,6809.894666,1455.581446,-1332.370696
1353.388290,11177.109724,2987.772442,-5551.544565
1353.388602,11991.336260,2451.505594,-7846.182985
1353.388913,7254.018232,-919.314598,-7550.100608
1353.389225,-1554.432478,-3370.820191,-5551.544565
1353.389536,-11473.192101,-3524.039291,-2220.617826
1353.389848,-20873.807564,-3294.210641,2294.638420
1353.390159,-27387.619854,-1225.752797,6587.832884
1353.390471,-29312.155303,-612.876398,9844.739029
1353.390782,-26351.331535,612.876398,10584.944971
1353.391094,-19097.313304,383.047749,9326.594869
1353.391405,-9400.615463,766.095498,6587.832884
1353.391717,888.247130,919.314598,962.267725
1353.392028,7920.203579,1762.019645,-2590.720797
1353.392340,12287.418637,2298.286494,-7254.018232
1353.392651,11843.295072,0.000000,-8512.368333
1353.392963,4737.318029,-1302.362347,-8660.409521
1353.393274,-4959.379811,-1915.238745,-4441.235652
1353.393586,-15618.345376,-2298.286494,-962.267725
1353.393897,-26055.249158,-2528.115143,3404.947333
1353.394209,-30866.587781,-612.876398,7105.977043
1353.394520,-28868.031738,1455.581446,8734.430116
1353.394832,-23168.445985,1608.800546,8956.491898
1353.395143,-14508.036463,0.000000,7105.977043
1353.395455,-5847.626942,-1608.800546,2442.679609
1353.395766,2960.823768,-229.828649,-2664.741391
1353.396078,9696.697840,1149.143247,-5773.606348
1353.396389,12435.459826,1302.362347,-8512.368333
1353.396701,9104.533087,-1915.238745,-9474.636058
1353.397012,740.205942,-5592.497135,-7476.080014
1353.397324,-8956.491898,-4673.182538,-3627.009116
1353.397635,-19245.354492,-2987.772442,-592.164754
1353.397947,-29312.155303,-1685.410096,4663.297435
1353.398258,-32643.082042,306.438199,7994.224174
1353.398570,-29608.237680,1072.533697,9252.574275
1353.398881,-21984.116477,1149.143247,8438.347739
1353.399193,-11843.295072,995.924147,4959.379811
1353.399504,-1628.453072,1762.019645,-740.205942
1353.399816,7920.203579,2374.896044,-3627.009116
1353.400127,11547.212695,2757.943793,-8068.244768
1353.400439,11917.315666,1302.362347,-9178.553681
1353.400750,5181.441594,-689.485948,-9252.574275
1353.401062,-3923.091493,-1225.752797,-5921.647536
1353.401373,-13915.871710,-842.705048,-2590.720797
1353.401685,-24870.919651,153.219100,2442.679609
1353.401996,-30570.505405,1685.410096,6809.894666
1353.402308,-30792.567187,1455.581446,8882.471304
1353.402619,-24204.734303,1685.410096,10362.883188
1353.402931,-14656.077652,459.657299,8290.306550
1353.403242,-5551.544565,0.000000,3923.091493
1353.403554,4367.215058,689.485948,-1332.370696
1353.403865,11399.171507,1608.800546,-4737.318029
1353.404177,12879.583391,2451.505594,-7402.059420
1353.404488,9178.553681,229.828649,-7328.038826
1353.404800,444.123565,-1991.848295,-6587.832884
1353.405111,-9474.636058,-2681.334243,-2368.659014
1353.405423,-17690.922014,-1608.800546,1036.288319
1353.405734,-25167.002028,-459.657299,5107.421000
1353.406046,-28275.866984,459.657299,8290.306550
1353.406357,-25981.228564,995.924147,9474.636058
1353.406669,-20133.601622,1915.238745,9474.636058
1353.406980,-10214.842000,1455.581446,7698.141797
1353.407292,-1110.308913,995.924147,2738.761985
1353.407603,5477.523971,1685.410096,-888.247130
1353.407915,9326.594869,1072.533697,-4959.379811
1353.408226,10955.047942,1072.533697,-7031.956449
1353.408538,6735.874072,-766.095498,-7550.100608
1353.408849,-2442.679609,-2145.067394,-5329.482782
1353.409161,-12065.356855,-2528.115143,-1998.556043
1353.409472,-21614.013506,-2145.067394,1998.556043
1353.409784,-27905.764013,-689.485948,6439.791695
1353.410095,-29460.196492,0.000000,9474.636058
1353.410407,-25907.207970,536.266849,10214.842000
1353.410718,-18135.045579,0.000000,8586.388927
1353.411030,-8216.285956,689.485948,5403.503377
1353.411341,444.123565,459.657299,222.061783
1353.411653,7994.224174,383.047749,-3478.967927
1353.411964,11325.150913,1532.190996,-7624.121203
1353.412276,11103.089130,153.219100,-7402.059420
1353.412587,3775.050304,-2068.457845,-7698.141797
1353.412899,-6143.709319,-2757.943793,-4293.194464
1353.413210,-16210.510130,-2528.115143,-888.247130
1353.413522,-25463.084405,-1915.238745,3108.864956
1353.413833,-29460.196492,153.219100,6291.750507
1353.414145,-28349.887579,1149.143247,8216.285956
1353.414456,-22798.343014,459.657299,8438.347739
1353.414768,-15026.180623,-1378.971896,6587.832884
1353.415079,-6217.729913,-1302.362347,1850.514855
1353.415391,2590.720797,995.924147,-1924.535449
1353.415702,8290.306550,1991.848295,-5551.544565
1353.416014,10807.006753,842.705048,-7698.141797
1353.416325,8512.368333,-1072.533697,-8290.306550
1353.416637,1036.288319,-2528.115143,-6957.935855
1353.416948,-8142.265362,-1608.800546,-3478.967927
1353.417260,-19541.436869,-766.095498,-296.082377
1353.417571,-27239.578666,766.095498,4145.153275
1353.417883,-30496.484810,1762.019645,6217.729913
1353.418194,-26203.290347,2145.067394,8586.388927
1353.418506,-18431.127956,1302.362347,7476.080014
1353.418817,-10066.800811,0.000000,4441.235652
1353.419129,-1184.329507,-229.828649,-740.205942
1353.419440,6291.750507,689.485948,-3182.885551
1353.419752,10584.944971,1762.019645,-7179.997637
1353.420063,10066.800811,536.266849,-7920.203579
1353.420375,4737.318029,-2221.676944,-7772.162391
1353.420686,-3997.112087,-3907.087040,-4959.379811
1353.420998,-12805.562797,-2987.772442,-1110.308913
1353.421309,-22946.384202,-2298.286494,2294.638420
1353.421621,-29534.217086,229.828649,5773.606348
1353.421932,-30718.546593,2374.896044,8068.244768
1353.422244,-25018.960840,3447.429741,8808.450710
1353.422555,-15840.407159,2374.896044,7402.059420
1353.422867,-5403.503377,1762.019645,3701.029710
1353.423178,2886.803174,306.438199,-222.061783
1353.423490,8364.327145,1072.533697,-5181.441594
1353.423801,11547.212695,2221.676944,-7402.059420
1353.424113,8290.306550,2451.505594,-8586.388927
1353.424424,148.041188,-919.314598,-6957.935855
1353.424736,-9326.594869,-3064.381992,-2738.761985
1353.425047,-17616.901420,-2451.505594,592.164754
1353.425359,-25241.022622,-1455.581446,4811.338623
1353.425670,-28497.928767,689.485948,7994.224174
1353.425982,-26721.434506,1838.629195,9474.636058
1353.426293,-20651.745782,1225.752797,8660.409521
1353.426605,-10362.883188,0.000000,8068.244768
1353.426916,-1998.556043,-383.047749,2812.782580
1353.427228,5477.523971,766.095498,-222.061783
1353.427539,9622.677246,2834.553343,-4441.235652
1353.427851,10658.965565,1072.533697,-5921.647536
1353.428162,6217.729913,-536.266849,-6809.894666
1353.428474,-2664.741391,-1915.238745,-4589.276840
1353.428785,-11769.274478,-1991.848295,-2368.659014
1353.429097,-20355.663405,-1455.581446,1850.514855
1353.429408,-26647.413912,-536.266849,5255.462188
1353.429720,-27831.743419,229.828649,8216.285956
1353.430031,-23834.631332,612.876398,9696.697840
1353.430343,-17172.777854,-689.485948,9548.656652
1353.430654,-8364.327145,-1991.848295,7031.956449
1353.430966,0.000000,-919.314598,1628.453072
1353.431277,6069.688724,229.828649,-2812.782580
1353.431589,10732.986159,2145.067394,-5995.668130
1353.431900,10066.800811,1378.971896,-8364.327145
1353.432212,3775.050304,-689.485948,-7328.038826
1353.432523,-6217.729913,-1991.848295,-4737.318029
1353.432835,-15692.365970,-1608.800546,-1480.411884
1353.433146,-24944.940245,766.095498,2442.679609
1353.433458,-30052.361245,2681.334243,5921.647536
1353.433769,-28423.908173,2068.457845,8364.327145
1353.434081,-21539.992912,1455.581446,8438.347739
1353.434392,-12361.439231,306.438199,6513.812290
1353.434704,-3552.988522,-383.047749,1406.391290
1353.435015,4071.132681,-383.047749,-1998.556043
1353.435327,8364.327145,229.828649,-6439.791695
1353.435638,9770.718434,0.000000,-8290.306550
1353.435950,5625.565159,-1838.629195,-8290.306550
1353.436261,-1554.432478,-3447.429741,-6291.750507
1353.436573,-9992.780217,-5362.668486,-3108.864956
1353.436884,-17690.922014,-4596.572988,666.185348
1353.437196,-24870.919651,-2911.162892,3997.112087
1353.437507,-28571.949361,-229.828649,6883.915261
1353.437819,-27017.516883,1838.629195,8216.285956
1353.438130,-21095.869347,1685.410096,7179.997637
1353.438442,-11769.274478,1225.752797,4737.318029
1353.438753,-3108.864956,1225.752797,-0.000000
1353.439065,4441.235652,1302.362347,-3997.112087
1353.439376,8882.471304,919.314598,-7550.100608
1353.439688,9992.780217,689.485948,-8364.327145
1353.439999,4367.215058,-153.219100,-8364.327145
1353.440311,-4663.297435,-2374.896044,-5329.482782
1353.440622,-14434.015869,-1991.848295,-2368.659014
1353.440934,-22872.363608,-1072.533697,2368.659014
1353.441245,-27461.640448,842.705048,5995.668130
1353.441557,-27757.722825,2374.896044,8660.409521
1353.441868,-21688.034101,2298.286494,8290.306550
1353.442180,-14285.974681,536.266849,6957.935855
1353.442491,-5551.544565,0.000000,3182.885551
1353.442803,3182.885551,306.438199,-666.185348
1353.443114,7031.956449,2298.286494,-4959.379811
1353.443426,9696.697840,1685.410096,-5403.503377
1353.443737,5921.647536,-536.266849,-6957.935855
1353.444049,-1036.288319,-2987.772442,-4885.359217
1353.444360,-9252.574275,-3064.381992,-1554.432478
1353.444672,-18061.024985,-2298.286494,740.205942
1353.444983,-23390.507767,-229.828649,4145.153275
1353.445295,-26573.393318,1302.362347,6587.832884
1353.445606,-24130.713709,2834.553343,8438.347739
1353.445918,-17320.819043,2298.286494,8660.409521
1353.446229,-10066.800811,1072.533697,7402.059420
1353.446541,-1406.391290,383.047749,3627.009116
1353.446852,5403.503377,842.705048,-814.226536
1353.447164,8808.450710,1685.410096,-4811.338623
1353.447475,8808.450710,1762.019645,-6143.709319
1353.447787,3701.029710,536.266849,-6513.812290
1353.448098,-3775.050304,-2451.505594,-3997.112087
1353.448410,-12509.480420,-2451.505594,-1850.514855
1353.448721,-21095.869347,-1455.581446,2294.638420
1353.449033,-25981.228564,766.095498,6143.709319
1353.449344,-27313.599260,2298.286494,8142.265362
1353.449656,-23464.528361,2298.286494,8660.409521
1353.449967,-14211.954086,1915.238745,8068.244768
1353.450279,-7031.956449,-383.047749,4515.256246
1353.450590,888.247130,-1149.143247,1702.473667
1353.450902,6735.874072,766.095498,-3108.864956
1353.451213,9178.553681,689.485948,-5551.544565
1353.451525,7402.059420,-1149.143247,-6365.771101
1353.451836,1406.391290,-3830.477490,-6439.791695
1353.452148,-6735.874072,-4673.182538,-3997.112087
1353.452459,-14878.139434,-3677.258390,-888.247130
1353.452771,-22354.219448,-2451.505594,1702.473667
1353.453082,-27757.722825,76.609550,4811.338623
1353.453394,-27683.702231,2757.943793,7624.121203
1353.453705,-22132.157666,1608.800546,7476.080014
1353.454017,-14211.954086,919.314598,6809.894666
1353.454328,-5551.544565,459.657299,2590.720797
1353.454640,2738.761985,-229.828649,-296.082377
1353.454951,8068.244768,-842.705048,-5107.421000
1353.455263,9326.594869,-1225.752797,-7550.100608
1353.455574,6735.874072,-1762.019645,-8660.409521
1353.455886,-1480.411884,-2681.334243,-6809.894666
1353.456197,-10881.027347,-2834.553343,-3997.112087
1353.456509,-19763.498651,-1838.629195,-148.041188
1353.456820,-26351.331535,229.828649,3404.947333
1353.457132,-28571.949361,2145.067394,6587.832884
1353.457443,-25981.228564,2451.505594,7772.162391
1353.457755,-18579.169144,1915.238745,6439.791695
1353.458066,-9474.636058,919.314598,3923.091493
1353.458378,-592.164754,919.314598,518.144159
1353.458689,6069.688724,459.657299,-3701.029710
1353.459001,9770.718434,995.924147,-5847.626942
1353.459312,9030.512492,-689.485948,-7698.141797
1353.459624,3478.967927,-3294.210641,-7179.997637
1353.459935,-6143.709319,-3677.258390,-4885.359217
1353.460247,-15248.242405,-2528.115143,-1924.535449
1353.460558,-23020.404796,-1225.752797,1702.473667
1353.460870,-27905.764013,612.876398,5403.503377
1353.461181,-28201.846390,2528.115143,7624.121203
1353.461493,-22576.281231,2911.162892,7994.224174
1353.461804,-14434.015869,2298.286494,7846.182985
1353.462116,-4589.276840,76.609550,3552.988522
1353.462427,3997.112087,-459.657299,1184.329507
1353.462739,9474.636058,0.000000,-3923.091493
1353.463050,9992.780217,459.657299,-6069.688724
1353.463362,5625.565159,153.219100,-8216.285956
1353.463674,-2220.617826,-459.657299,-5995.668130
1353.463985,-10436.903782,-919.314598,-2886.803174
1353.464297,-18431.127956,-459.657299,814.226536
1353.464608,-24722.878463,459.657299,4219.173869
1353.464920,-26647.413912,2298.286494,6513.812290
1353.465231,-23834.631332,3524.039291,7624.121203
1353.465543,-17246.798449,3370.820191,8364.327145
1353.465854,-8808.450710,2145.067394,7179.997637
1353.466166,-148.041188,842.705048,3330.926739
1353.466477,5773.606348,229.828649,-592.164754
1353.466789,9252.574275,919.314598,-4589.276840
1353.467100,7772.162391,383.047749,-7105.977043
1353.467412,3108.864956,-1225.752797,-7105.977043
1353.467723,-4737.318029,-3830.477490,-4811.338623
1353.468035,-12583.501014,-4213.525239,-888.247130
1353.468346,-20651.745782,-3983.696590,2516.700203
1353.468658,-27387.619854,-2451.505594,5995.668130
1353.468969,-28349.887579,842.705048,8216.285956
1353.469281,-24204.734303,3064.381992,8512.368333
1353.469593,-16580.613101,2374.896044,8216.285956
1353.469904,-6365.771101,1225.752797,5181.441594
1353.470216,2072.576638,-995.924147,3034.844362
1353.470527,7994.224174,-689.485948,-2442.679609
1353.470839,11029.068536,153.219100,-5107.421000
1353.471150,8586.388927,842.705048,-8290.306550
1353.471462,1480.411884,76.609550,-6735.874072
1353.471773,-7920.203579,-2221.676944,-3923.091493
1353.472085,-16580.613101,-1455.581446,-370.102971
1353.472396,-24056.693115,-229.828649,2368.659014
1353.472708,-28423.908173,1762.019645,4737.318029
1353.473019,-27757.722825,2911.162892,6957.935855
1353.473331,-20281.642811,2528.115143,7105.977043
1353.473642,-12435.459826,383.047749,5773.606348
1353.473954,-3849.070898,-842.705048,3701.029710
1353.474265,4293.194464,-1762.019645,296.082377
1353.474577,7550.100608,-1378.971896,-5033.400406
1353.474888,10066.800811,-1991.848295,-6735.874072
1353.475200,6143.709319,-3294.210641,-7846.182985
1353.475512,-1036.288319,-4519.963438,-6587.832884
1353.475823,-10362.883188,-4596.572988,-3404.947333
1353.476135,-19837.519246,-2451.505594,-518.144159
1353.476446,-26277.310941,383.047749,2886.803174
1353.476758,-30052.361245,2221.676944,5921.647536
1353.477069,-27535.661042,3447.429741,6957.935855
1353.477381,-19319.375086,2911.162892,7179.997637
1353.477692,-10214.842000,1838.629195,4663.297435
1353.478004,-518.144159,919.314598,1850.514855
1353.478315,6735.874072,306.438199,-3330.926739
1353.478627,10807.006753,153.219100,-6513.812290
1353.478938,10732.986159,153.219100,-8438.347739
1353.479250,3997.112087,-1455.581446,-8216.285956
1353.479561,-5625.565159,-2604.724693,-4959.379811
1353.479873,-15914.427753,-1532.190996,-1924.535449
1353.480184,-23242.466579,229.828649,1850.514855
1353.480496,-28868.031738,2298.286494,4515.256246
1353.480807,-28868.031738,3907.087040,7031.956449
1353.481119,-22650.301825,3830.477490,6735.874072
1353.481431,-14211.954086,3600.648841,6809.894666
1353.481742,-4811.338623,1685.410096,3552.988522
1353.482054,4367.215058,-766.095498,1554.432478
1353.482365,8512.368333,-1149.143247,-3330.926739
1353.482677,10658.965565,-1072.533697,-4737.318029
1353.482988,6587.832884,-1762.019645,-7179.997637
1353.483300,-1110.308913,-3294.210641,-5995.668130
1353.483611,-9770.718434,-3677.258390,-2590.720797
1353.483923,-19097.313304,-2451.505594,-0.000000
1353.484234,-24722.878463,383.047749,3849.070898
1353.484546,-27979.784608,1991.848295,5921.647536
1353.484857,-26129.269753,3217.601092,7698.141797
1353.485169,-19393.395680,3140.991542,7920.203579
1353.485480,-10066.800811,1455.581446,7328.038826
1353.485792,-1332.370696,-536.266849,4293.194464
1353.486103,5995.668130,-153.219100,444.123565
1353.486415,10881.027347,153.219100,-3701.029710
1353.486726,11769.274478,-306.438199,-5847.626942
1353.487038,5773.606348,-1991.848295,-6513.812290
1353.487350,-2886.803174,-2604.724693,-4367.215058
1353.487661,-13471.748144,-2298.286494,-1924.535449
1353.487973,-21984.116477,0.000000,1406.391290
1353.488284,-28201.846390,1991.848295,4515.256246
1353.488596,-29682.258274,3600.648841,6735.874072
1353.488907,-24426.796086,4749.792088,7624.121203
1353.489219,-15914.427753,3677.258390,7402.059420
1353.489530,-6365.771101,153.219100,5773.606348
1353.489842,2442.679609,-1378.971896,3775.050304
1353.490153,8586.388927,-1608.800546,-1554.432478
1353.490465,11547.212695,-1685.410096,-4219.173869
1353.490776,8882.471304,-2068.457845,-7254.018232
1353.491088,1924.535449,-2068.457845,-7105.977043
1353.491399,-6957.935855,-2451.505594,-4515.256246
1353.491711,-16950.716072,-2911.162892,-1258.350101
1353.492022,-25167.002028,-1225.752797,2368.659014
1353.492334,-29756.278868,1149.143247,4885.359217
1353.492645,-28497.928767,2757.943793,7476.080014
1353.492957,-22576.281231,1838.629195,7624.121203
1353.493269,-13693.809927,-229.828649,6883.915261
1353.493580,-3182.885551,-689.485948,3256.906145
1353.493892,5921.647536,0.000000,-74.020594
1353.494203,10881.027347,-1378.971896,-4367.215058
1353.494515,11399.171507,-1608.800546,-6513.812290
1353.494826,6735.874072,-2145.067394,-8068.244768
1353.495138,-2072.576638,-3294.210641,-6439.791695
1353.495449,-11843.295072,-2604.724693,-3627.009116
1353.495761,-20873.807564,0.000000,222.061783
1353.496072,-26943.496289,766.095498,3256.906145
1353.496384,-29608.237680,1991.848295,5255.462188
1353.496695,-26573.393318,3064.381992,6217.729913
1353.497007,-18653.189738,3830.477490,5699.585753
1353.497318,-9622.677246,1608.800546,3256.906145
1353.497630,-1258.350101,0.000000,814.226536
1353.497941,5847.626942,-536.266849,-2072.576638
1353.498253,10510.924376,-1608.800546,-5181.441594
1353.498564,10955.047942,-1302.362347,-6587.832884
1353.498876,6217.729913,-3064.381992,-7328.038826
1353.499188,-4145.153275,-3753.867940,-5773.606348
1353.499499,-14730.098246,-2911.162892,-2738.761985
1353.499811,-24796.899057,-612.876398,-0.000000
1353.500122,-31384.731941,2145.067394,4219.173869
1353.500434,-32495.040854,3370.820191,7179.997637
1353.500745,-26573.393318,2221.676944,7402.059420
1353.501057,-16580.613101,-229.828649,7772.162391
1353.501368,-6217.729913,-2604.724693,5403.503377
1353.501680,4737.318029,-2757.943793,1406.391290
1353.501991,10881.027347,-1608.800546,-3552.988522
1353.502303,12657.521608,-612.876398,-5255.462188
1353.502614,9326.594869,-842.705048,-7179.997637
1353.502926,370.102971,-1455.581446,-5995.668130
1353.503237,-10288.862594,-229.828649,-3330.926739
1353.503549,-19689.478057,842.705048,518.144159
1353.503860,-26055.249158,2374.896044,3997.112087
1353.504172,-28423.908173,4749.792088,6587.832884
1353.504483,-24722.878463,5209.449386,6957.935855
1353.504795,-17320.819043,4366.744339,5699.585753
1353.505107,-9622.677246,1838.629195,5699.585753
1353.505418,814.226536,1685.410096,2516.700203
1353.505730,7476.080014,0.000000,-814.226536
1353.506041,10362.883188,0.000000,-2442.679609
1353.506353,8882.471304,-2221.676944,-4737.318029
1353.506664,4367.215058,-3600.648841,-6143.709319
1353.506976,-4071.132681,-3907.087040,-3775.050304
1353.507287,-13767.830521,-3447.429741,-1554.432478
1353.507599,-22502.260637,-2068.457845,1850.514855
1353.507910,-28942.052332,306.438199,4293.194464
1353.508222,-29090.093521,2681.334243,7328.038826
1353.508533,-23834.631332,3140.991542,8364.327145
1353.508845,-15840.407159,1225.752797,8586.388927
1353.509156,-5847.626942,-229.828649,5181.441594
1353.509468,2960.823768,-1455.581446,1406.391290
1353.509779,9844.739029,153.219100,-3108.864956
1353.510091,11177.109724,995.924147,-5921.647536
1353.510402,7698.141797,842.705048,-8216.285956
1353.510714,0.000000,-1685.410096,-6217.729913
1353.511026,-8364.327145,-1915.238745,-3256.906145
1353.511337,-17987.004391,-995.924147,-0.000000
1353.511649,-24870.919651,-229.828649,3478.967927
1353.511960,-28275.866984,766.095498,5403.503377
1353.512272,-26055.249158,1915.238745,6587.832884
1353.512583,-19097.313304,2221.676944,6069.688724
1353.512895,-11029.068536,1302.362347,5181.441594
1353.513206,-4737.318029,-689.485948,2812.782580
1353.513518,2442.679609,-1915.238745,592.164754
1353.513829,7846.182985,-1072.533697,-2442.679609
1353.514141,8956.491898,-766.095498,-5329.482782
1353.514452,5847.626942,-1762.019645,-6883.915261
1353.514764,-1110.308913,-2834.553343,-5995.668130
1353.515075,-9474.636058,-3217.601092,-4071.132681
1353.515387,-18949.272115,-2374.896044,-1258.350101
1353.515698,-27091.537477,-689.485948,3330.926739
1353.516010,-29756.278868,1378.971896,7105.977043
1353.516321,-27165.558071,842.705048,8734.430116
1353.516633,-19911.539840,-1302.362347,8216.285956
1353.516945,-10510.924376,-2221.676944,5033.400406
1353.517256,-1036.288319,-1225.752797,1036.288319
1353.517568,6291.750507,1608.800546,-4071.132681
1353.517879,11473.192101,2068.457845,-7105.977043
1353.518191,10584.944971,1225.752797,-9400.615463
1353.518502,3404.947333,-229.828649,-7179.997637
1353.518814,-5773.606348,-1149.143247,-4885.359217
1353.519125,-15692.365970,-612.876398,-1480.411884
1353.519437,-23908.651927,1378.971896,2368.659014
1353.519748,-28423.908173,2451.505594,5181.441594
1353.520060,-27831.743419,2757.943793,7179.997637
1353.520371,-21762.054695,919.314598,7328.038826
1353.520683,-12657.521608,536.266849,6809.894666
1353.520994,-3404.947333,-536.266849,2738.761985
1353.521306,3404.947333,-1225.752797,-666.185348
1353.521617,7476.080014,76.609550,-4515.256246
1353.521929,8290.306550,842.705048,-6587.832884
1353.522240,5773.606348,0.000000,-7179.997637
1353.522552,-2368.659014,-1532.190996,-5699.585753
1353.522864,-10288.862594,-1532.190996,-3034.844362
1353.523175,-17912.983796,-612.876398,370.102971
1353.523487,-24426.796086,153.219100,3627.009116
1353.523798,-26277.310941,2145.067394,6439.791695
1353.524110,-23908.651927,3370.820191,7772.162391
1353.524421,-17246.798449,1991.848295,8364.327145
1353.524733,-8438.347739,-612.876398,6069.688724
1353.525044,-444.123565,-1532.190996,3256.906145
1353.525356,4811.338623,0.000000,-2294.638420
1353.525667,8956.491898,1149.143247,-4737.318029
1353.525979,7402.059420,-153.219100,-6883.915261
1353.526290,1924.535449,-1608.800546,-6439.791695
1353.526602,-6217.729913,-2221.676944,-3552.988522
1353.526913,-14285.974681,-2068.457845,-592.164754
1353.527225,-20799.786970,-689.485948,2960.823768
1353.527536,-25833.187376,229.828649,5329.482782
1353.527848,-26129.269753,1302.362347,7179.997637
1353.528159,-21243.910535,2068.457845,7402.059420
1353.528471,-14137.933492,1072.533697,6809.894666
1353.528783,-5625.565159,459.657299,4737.318029
1353.529094,1184.329507,-1532.190996,2220.617826
1353.529406,5773.606348,-1532.190996,-1998.556043
1353.529717,7846.182985,-612.876398,-4663.297435
1353.530029,5995.668130,383.047749,-6587.832884
1353.530340,148.041188,0.000000,-5995.668130
1353.530652,-8512.368333,-1532.190996,-4367.215058
1353.530963,-16432.571912,-1915.238745,-888.247130
1353.531275,-23390.507767,-459.657299,2146.597232
1353.531586,-27165.558071,995.924147,5625.565159
1353.531898,-26425.352129,2068.457845,7994.224174
1353.532209,-20873.807564,612.876398,8660.409521
1353.532521,-12583.501014,-1762.019645,6735.874072
1353.532832,-3182.885551,-2068.457845,4737.318029
1353.533144,4219.173869,-1608.800546,-296.082377
1353.533455,9696.697840,-536.266849,-4145.153275
1353.533767,9770.718434,-306.438199,-6957.935855
1353.534078,4515.256246,-1149.143247,-8290.306550
1353.534390,-3552.988522,-1378.971896,-6143.709319
1353.534702,-11991.336260,-612.876398,-3182.885551
1353.535013,-19171.333898,229.828649,-148.041188
1353.535325,-25315.043216,689.485948,3478.967927
1353.535636,-26277.310941,1685.410096,6365.771101
1353.535948,-22872.363608,2451.505594,6809.894666
1353.536259,-16432.571912,1915.238745,5921.647536
1353.536571,-7550.100608,306.438199,3997.112087
1353.536882,666.185348,-229.828649,1258.350101
1353.537194,5921.647536,919.314598,-3108.864956
1353.537505,9696.697840,689.485948,-5329.482782
1353.537817,6957.935855,-536.266849,-8068.244768
1353.538128,592.164754,-919.314598,-7179.997637
1353.538440,-7179.997637,-1532.190996,-4663.297435
1353.538751,-16728.654289,-2145.067394,-1998.556043
1353.539063,-23908.651927,-612.876398,1480.411884
1353.539374,-28201.846390,919.314598,4589.276840
1353.539686,-27091.537477,2528.115143,6217.729913
1353.539997,-22724.322419,2374.896044,6809.894666
1353.540309,-14063.912898,1302.362347,5995.668130
1353.540621,-5551.544565,-306.438199,4293.194464
1353.540932,2294.638420,-995.924147,370.102971
1353.541244,8808.450710,0.000000,-3108.864956
1353.541555,9696.697840,0.000000,-6069.688724
1353.541867,5403.503377,-459.657299,-7402.059420
1353.542178,-1850.514855,-2987.772442,-5921.647536
1353.542490,-10807.006753,-842.705048,-3478.967927
1353.542801,-18431.127956,842.705048,-0.000000
1353.543113,-24944.940245,689.485948,3552.988522
1353.543424,-27905.764013,1532.190996,6513.812290
1353.543736,-24500.816680,2451.505594,7772.162391
1353.544047,-16950.716072,2451.505594,7846.182985
1353.544359,-8660.409521,-153.219100,6883.915261
1353.544670,74.020594,-2068.457845,4959.379811
1353.544982,6809.894666,-842.705048,-592.164754
1353.545293,10066.800811,-306.438199,-4737.318029
1353.545605,9178.553681,536.266849,-6883.915261
1353.545916,4071.132681,-306.438199,-7105.977043
1353.546228,-4885.359217,-1991.848295,-4441.235652
1353.546540,-13989.892304,-2834.553343,-518.144159
1353.546851,-22058.137072,-1532.190996,2368.659014
1353.547163,-27387.619854,229.828649,6291.750507
1353.547474,-27091.537477,1915.238745,8068.244768
1353.547786,-22354.219448,1532.190996,7698.141797
1353.548097,-15174.221811,459.657299,7105.977043
1353.548409,-5995.668130,76.609550,4737.318029
1353.548720,2590.720797,-459.657299,2146.597232
1353.549032,8956.491898,383.047749,-2368.659014
1353.549343,9918.759623,0.000000,-4885.359217
1353.549655,6513.812290,-689.485948,-6809.894666
1353.549966,-1554.432478,-766.095498,-6217.729913
1353.550278,-9770.718434,0.000000,-3849.070898
1353.550589,-17987.004391,0.000000,-518.144159
1353.550901,-24796.899057,-536.266849,2442.679609
1353.551212,-27461.640448,536.266849,5403.503377
1353.551524,-25389.063811,1225.752797,6661.853478
1353.551836,-18801.230927,1455.581446,6809.894666
1353.552147,-10214.842000,-1072.533697,6513.812290
1353.552459,-2294.638420,-2221.676944,4737.318029
1353.552770,5181.441594,-2451.505594,888.247130
1353.553082,9178.553681,-1149.143247,-3478.967927
1353.553393,8956.491898,-919.314598,-6735.874072
1353.553705,4737.318029,-459.657299,-8142.265362
1353.554016,-2886.803174,-612.876398,-6143.709319
1353.554328,-12213.398043,-1225.752797,-4367.215058
1353.554639,-21243.910535,-689.485948,-518.144159
1353.554951,-27905.764013,229.828649,3775.050304
1353.555262,-28942.052332,1378.971896,7402.059420
1353.555574,-25389.063811,842.705048,8290.306550
1353.555885,-18061.024985,612.876398,7031.956449
1353.556197,-8364.327145,383.047749,4219.173869
1353.556508,1036.288319,0.000000,1480.411884
1353.556820,7254.018232,383.047749,-3552.988522
1353.557131,10881.027347,0.000000,-6217.729913
1353.557443,7698.141797,-383.047749,-8882.471304
1353.557755,1406.391290,-842.705048,-7179.997637
1353.558066,-7402.059420,-842.705048,-4811.338623
1353.558378,-17024.736666,-919.314598,-1702.473667
1353.558689,-24648.857869,76.609550,1850.514855
1353.559001,-29164.114115,919.314598,5255.462188
1353.559312,-27905.764013,2757.943793,7179.997637
1353.559624,-21169.889941,3677.258390,6809.894666
1353.559935,-12065.356855,1685.410096,6365.771101
1353.560247,-2368.659014,-842.705048,3997.112087
1353.560559,5181.441594,-1608.800546,148.041188
1353.560870,9844.739029,0.000000,-4145.153275
1353.561182,9326.594869,306.438199,-7105.977043
1353.561493,5107.421000,153.219100,-8068.244768
1353.561805,-3034.844362,-1225.752797,-6661.853478
1353.562117,-11843.295072,-2145.067394,-2812.782580
1353.562428,-19837.519246,-2451.505594,962.267725
1353.562740,-25759.166782,-1685.410096,5107.421000
1353.563051,-27461.640448,612.876398,8068.244768
1353.563363,-23686.590144,2221.676944,8364.327145
1353.563675,-16876.695478,2145.067394,7994.224174
1353.563986,-7550.100608,-1149.143247,6069.688724
1353.564298,1776.494261,-1685.410096,3330.926739
1353.564609,6439.791695,76.609550,-2886.803174
1353.564921,9622.677246,1378.971896,-5477.523971
1353.565233,7698.141797,842.705048,-7772.162391
1353.565544,1850.514855,-612.876398,-6809.894666
1353.565856,-7031.956449,-1378.971896,-3849.070898
1353.566167,-16284.530724,-2451.505594,-0.000000
1353.566479,-23686.590144,-1455.581446,3108.864956
1353.566791,-27535.661042,1991.848295,6439.791695
1353.567102,-26055.249158,2834.553343,7994.224174
1353.567414,-20133.601622,2451.505594,7476.080014
1353.567725,-12435.459826,459.657299,7105.977043
1353.568037,-2960.823768,-995.924147,4441.235652
1353.568348,4737.318029,-2068.457845,1110.308913
1353.568660,9252.574275,0.000000,-3108.864956
1353.568972,8512.368333,306.438199,-6069.688724
1353.569283,4663.297435,-1608.800546,-7772.162391
1353.569595,-2738.761985,-2221.676944,-5847.626942
1353.569906,-11621.233289,-2221.676944,-2960.823768
1353.570218,-19689.478057,-2221.676944,296.082377
1353.570530,-26055.249158,-1838.629195,3849.070898
1353.570841,-28053.805202,-536.266849,6735.874072
1353.571153,-24648.857869,1532.190996,8068.244768
1353.571464,-18061.024985,1149.143247,7772.162391
1353.571776,-9104.533087,-383.047749,6587.832884
1353.572088,-592.164754,-995.924147,3775.050304
1353.572399,5181.441594,-306.438199,-1702.473667
1353.572711,9474.636058,842.705048,-5995.668130
1353.573022,9030.512492,842.705048,-9030.512492
1353.573334,3552.988522,229.828649,-8364.327145
1353.573646,-3849.070898,-1302.362347,-5033.400406
1353.573957,-14285.974681,-1762.019645,-3478.967927
1353.574269,-22206.178260,-842.705048,666.185348
1353.574580,-27387.619854,919.314598,4811.338623
1353.574892,-27757.722825,2987.772442,7179.997637
1353.575204,-22280.198854,3830.477490,7105.977043
1353.575515,-14359.995275,2757.943793,6069.688724
1353.575827,-4737.318029,0.000000,3478.967927
1353.576138,5181.441594,-842.705048,1258.350101
1353.576450,8512.368333,536.266849,-4737.318029
1353.576761,9178.553681,-153.219100,-6957.935855
1353.577073,5403.503377,-919.314598,-8956.491898
1353.577385,-2516.700203,-1455.581446,-7550.100608
1353.577696,-10881.027347,-2068.457845,-4145.153275
1353.578008,-19245.354492,-2145.067394,-518.144159
1353.578319,-26351.331535,-1608.800546,2960.823768
1353.578631,-28053.805202,-229.828649,7105.977043
1353.578943,-25685.146187,1838.629195,8364.327145
1353.579254,-19171.333898,1532.190996,8142.265362
1353.579566,-9622.677246,842.705048,7328.038826
1353.579877,-666.185348,0.000000,4071.132681
1353.580189,5773.606348,0.000000,-1554.432478
1353.580501,9400.615463,919.314598,-5551.544565
1353.580812,8512.368333,689.485948,-8216.285956
1353.581124,2738.761985,229.828649,-8068.244768
1353.581435,-4959.379811,-229.828649,-4811.338623
1353.581747,-15026.180623,-1685.410096,-1850.514855
1353.582059,-22798.343014,-1608.800546,1776.494261
1353.582370,-26647.413912,536.266849,5625.565159
1353.582682,-26277.310941,2987.772442,7698.141797
1353.582993,-20725.766376,3677.258390,7550.100608
1353.583305,-12731.542202,1608.800546,7105.977043
1353.583617,-4293.194464,-1302.362347,5181.441594
1353.583928,3256.906145,-1608.800546,3182.885551
1353.584240,7550.100608,-689.485948,-1776.494261
1353.584551,8882.471304,-153.219100,-4663.297435
1353.584863,5477.523971,-1455.581446,-6661.853478
1353.585174,-814.226536,-2221.676944,-5773.606348
1353.585486,-8734.430116,-2221.676944,-3330.926739
1353.585798,-16802.674883,-3294.210641,222.061783
1353.586109,-23834.631332,-2374.896044,2738.761985
1353.586421,-27979.784608,-459.657299,5921.647536
1353.586732,-26055.249158,2298.286494,7920.203579
1353.587044,-19615.457463,2451.505594,7402.059420
1353.587356,-11917.315666,1149.143247,7105.977043
1353.587667,-2368.659014,-536.266849,4589.276840
1353.587979,5033.400406,-1532.190996,444.123565
1353.588290,9030.512492,-536.266849,-3849.070898
1353.588602,9104.533087,459.657299,-6883.915261
1353.588914,3923.091493,0.000000,-8438.347739
1353.589225,-4071.132681,-459.657299,-5255.462188
1353.589537,-12879.583391,-1608.800546,-2738.761985
1353.589848,-21169.889941,-1685.410096,592.164754
1353.590160,-25685.146187,-689.485948,3997.112087
1353.590472,-27091.537477,1838.629195,6587.832884
1353.590783,-23538.548956,2757.943793,6439.791695
1353.591095,-15692.365970,1532.190996,5551.544565
1353.591406,-7550.100608,-536.266849,4441.235652
1353.591718,222.061783,-766.095498,1702.473667
1353.592030,6883.915261,-306.438199,-2072.576638
1353.592341,9474.636058,306.438199,-5921.647536
1353.592653,8290.306550,-383.047749,-7179.997637
1353.592964,1702.473667,-2298.286494,-7254.018232
1353.593276,-7772.162391,-2987.772442,-5033.400406
1353.593588,-16284.530724,-2221.676944,-1554.432478
1353.593899,-23686.590144,-1838.629195,1258.350101
1353.594211,-27831.743419,-383.047749,4589.276840
1353.594522,-27091.537477,1532.190996,6587.832884
1353.594834,-20947.828159,2145.067394,6365.771101
1353.595145,-13101.645173,76.609550,5625.565159
1353.595457,-4811.338623,-536.266849,3256.906145
1353.595769,3923.091493,0.000000,592.164754
1353.596080,7402.059420,1072.533697,-3775.050304
1353.596392,7846.182985,766.095498,-5847.626942
1353.596703,4737.318029,0.000000,-7698.141797
1353.597015,-2368.659014,-536.266849,-6439.791695
1353.597327,-12213.398043,383.047749,-4737.318029
1353.597638,-20133.601622,612.876398,-74.020594
1353.597950,-26203.290347,1762.019645,2664.741391
1353.598261,-28423.908173,2604.724693,6217.729913
1353.598573,-25315.043216,2987.772442,7846.182985
1353.598885,-17024.736666,1915.238745,7698.141797
1353.599196,-7920.203579,76.609550,6217.729913
1353.599508,740.205942,-842.705048,2960.823768
1353.599819,6883.915261,-383.047749,-1406.391290
1353.600131,9770.718434,1762.019645,-5995.668130
1353.600443,8068.244768,1149.143247,-7105.977043
1353.600754,2442.679609,-229.828649,-6661.853478
1353.601066,-5995.668130,-1685.410096,-4367.215058
1353.601377,-14656.077652,-2221.676944,-814.226536
1353.601689,-21021.848753,-2681.334243,3034.844362
1353.602001,-25611.125593,-2298.286494,5921.647536
1353.602312,-25389.063811,-612.876398,8290.306550
1353.602624,-20873.807564,-306.438199,8068.244768
1353.602935,-13471.748144,-2145.067394,7105.977043
1353.603247,-5551.544565,-2604.724693,4219.173869
1353.603558,1702.473667,-2834.553343,962.267725
1353.603870,7476.080014,-2374.896044,-2812.782580
1353.604182,9030.512492,-2604.724693,-4589.276840
1353.604493,6661.853478,-2987.772442,-5847.626942
1353.604805,-148.041188,-3140.991542,-4515.256246
1353.605116,-8882.471304,-2604.724693,-2738.761985
1353.605428,-16432.571912,-2528.115143,592.164754
1353.605740,-22798.343014,-2757.943793,3404.947333
1353.606051,-25241.022622,-1455.581446,6661.853478
1353.606363,-23908.651927,76.609550,6957.935855
1353.606674,-19319.375086,-153.219100,6291.750507
1353.606986,-12213.398043,-1149.143247,4367.215058
1353.607298,-4959.379811,-1302.362347,1110.308913
1353.607609,1776.494261,-1608.800546,-2516.700203
1353.607921,6809.894666,-2451.505594,-4293.194464
1353.608232,6883.915261,-3983.696590,-6143.709319
1353.608544,3404.947333,-4366.744339,-5625.565159
1353.608856,-2886.803174,-3830.477490,-3849.070898
1353.609167,-10510.924376,-4290.134789,-1184.329507
1353.609479,-17172.777854,-5669.106685,1924.535449
1353.609790,-22428.240043,-5975.544884,4737.318029
1353.610102,-23464.528361,-6128.763984,7105.977043
1353.610414,-21095.869347,-6281.983084,6587.832884
1353.610725,-16580.613101,-4366.744339,4737.318029
1353.611037,-11103.089130,-3294.210641,1406.391290
1353.611348,-5699.585753,-2834.553343,-888.247130
1353.611660,-592.164754,-2374.896044,-3108.864956
1353.611972,2664.741391,-2221.676944,-3627.009116
1353.612283,2146.597232,-3677.258390,-4441.235652
1353.612595,-592.164754,-4060.306139,-3701.029710
1353.612906,-5551.544565,-3524.039291,-2368.659014
1353.613218,-10955.047942,-1991.848295,-888.247130
1353.613529,-14952.160028,-1838.629195,1184.329507
1353.613841,-18209.066173,-1378.971896,3330.926739
1353.614153,-18875.251521,-1762.019645,3997.112087
1353.614464,-17468.860231,-1608.800546,3849.070898
1353.614776,-11917.315666,-1762.019645,1850.514855
1353.615087,-7105.977043,-2911.162892,-370.102971
1353.615399,-2146.597232,-3217.601092,-2294.638420
1353.615711,0.000000,-3447.429741,-4293.194464
1353.616022,0.000000,-3140.991542,-4811.338623
1353.616334,-3404.947333,-2451.505594,-3701.029710
1353.616645,-8068.244768,-2528.115143,-1406.391290
1353.616957,-12731.542202,-3140.991542,1258.350101
1353.617269,-15470.304188,-4136.915689,3849.070898
1353.617580,-16062.468941,-5132.839837,4589.276840
1353.617892,-14656.077652,-4443.353888,5033.400406
1353.618203,-12065.356855,-3064.381992,4219.173869
1353.618515,-9104.533087,-2757.943793,1998.556043
1353.618827,-6513.812290,-3140.991542,1036.288319
1353.619138,-3997.112087,-1991.848295,-1184.329507
1353.619450,-3552.988522,-919.314598,-1924.535449
1353.619761,-3478.967927,-153.219100,-2294.638420
1353.620073,-4663.297435,-459.657299,-2442.679609
1353.620385,-6809.894666,-1455.581446,-1776.494261
1353.620696,-9474.636058,-1991.848295,-444.123565
1353.621008,-11399.171507,-2298.286494,1258.350101
1353.621319,-12213.398043,-2834.553343,2664.741391
1353.621631,-12287.418637,-3217.601092,3627.009116
1353.621942,-11399.171507,-4903.011187,4293.194464
1353.622254,-9474.636058,-5745.716235,3849.070898
1353.622566,-8068.244768,-6205.373534,2812.782580
1353.622877,-6809.894666,-5515.887586,1702.473667
1353.623189,-6513.812290,-4596.572988,-0.000000
1353.623500,-6957.935855,-2681.334243,-1406.391290
1353.623812,-7402.059420,-689.485948,-2072.576638
1353.624124,-7328.038826,995.924147,-1776.494261
1353.624435,-8660.409521,1455.581446,-740.205942
1353.624747,-9918.759623,766.095498,1110.308913
1353.625058,-10436.903782,0.000000,2294.638420
1353.625370,-11029.068536,-1225.752797,3182.885551
1353.625682,-10140.821405,-2145.067394,3330.926739
1353.625993,-9400.615463,-3447.429741,2886.803174
1353.626305,-8290.306550,-4136.915689,1258.350101
1353.626616,-7254.018232,-4443.353888,-0.000000
1353.626928,-6069.688724,-4903.011187,-1406.391290
1353.627240,-6735.874072,-4060.306139,-1998.556043
1353.627551,-7846.182985,-4443.353888,-1776.494261
1353.627863,-8364.327145,-4443.353888,-740.205942
1353.628174,-9326.594869,-4519.963438,814.226536
1353.628486,-9770.718434,-3907.087040,2146.597232
1353.628798,-10214.842000,-2911.162892,2590.720797
1353.629109,-9696.697840,-2451.505594,2590.720797
1353.629421,-9918.759623,-1838.629195,2368.659014
1353.629732,-8956.491898,-1455.581446,1702.473667
1353.630044,-8438.347739,-2298.286494,222.061783
1353.630356,-7846.182985,-2757.943793,-666.185348
1353.630667,-7920.203579,-3447.429741,-1850.514855
1353.630979,-8142.265362,-2604.724693,-2590.720797
1353.631290,-8512.368333,-1838.629195,-3478.967927
1353.631602,-7328.038826,-1991.848295,-2072.576638
1353.631913,-10436.903782,-3753.867940,-1702.473667
1353.632225,-10140.821405,-3524.039291,888.247130
1353.632537,-9770.718434,-3753.867940,1480.411884
1353.632848,-9992.780217,-4443.353888,3034.844362
1353.633160,-11621.233289,-5898.935335,3849.070898
1353.633471,-12435.459826,-5515.887586,2812.782580
1353.633783,-10436.903782,-3140.991542,2220.617826
1353.634095,-9326.594869,-1225.752797,1258.350101
1353.634406,-8068.244768,-2604.724693,-222.061783
1353.634718,-8290.306550,-3447.429741,-1554.432478
1353.635029,-7698.141797,-3140.991542,-1110.308913
1353.635341,-7698.141797,-2451.505594,-370.102971
1353.635653,-9770.718434,-2068.457845,962.267725
1353.635964,-12657.521608,-383.047749,1702.473667
1353.636276,-12213.398043,-766.095498,3552.988522
1353.636587,-10658.965565,-2451.505594,3775.050304
1353.636899,-7698.141797,-1915.238745,5033.400406
1353.637211,-7179.997637,-1378.971896,3552.988522
1353.637522,-5773.606348,-2757.943793,3627.009116
1353.637834,-5847.626942,-3983.696590,3108.864956
1353.638145,-6069.688724,-2374.896044,2368.659014
1353.638457,-6439.791695,1225.752797,3108.864956
1353.638769,-10288.862594,229.828649,1924.535449
1353.639080,-9770.718434,383.047749,3627.009116
1353.639392,-8660.409521,0.000000,2590.720797
1353.639703,-8734.430116,1532.190996,3849.070898
1353.640015,-8512.368333,1225.752797,4293.194464
1353.640326,-9030.512492,-995.924147,4663.297435
1353.640638,-9252.574275,-1532.190996,5995.668130
1353.640950,-6291.750507,-612.876398,6809.894666
1353.641261,-8956.491898,-1762.019645,5107.421000
1353.641573,-8586.388927,-689.485948,6809.894666
1353.641884,-7920.203579,-229.828649,5403.503377
1353.642196,-7179.997637,-306.438199,4737.318029
1353.642508,-7254.018232,689.485948,3849.070898
1353.642819,-8142.265362,1455.581446,2812.782580
1353.643131,-7772.162391,1991.848295,3404.947333
1353.643442,-7550.100608,1455.581446,3330.926739
1353.643754,-7402.059420,919.314598,5107.421000
1353.644066,-9918.759623,1072.533697,4885.359217
1353.644377,-10140.821405,536.266849,6957.935855
1353.644689,-9474.636058,-383.047749,6365.771101
1353.645000,-7772.162391,-842.705048,6291.750507
1353.645312,-7179.997637,-919.314598,5477.523971
1353.645624,-7476.080014,-1378.971896,4811.338623
1353.645935,-7920.203579,-1685.410096,3849.070898
1353.646247,-7772.162391,842.705048,3849.070898
1353.646558,-8290.306550,1608.800546,2812.782580
1353.646870,-9400.615463,1455.581446,2516.700203
1353.647182,-10584.944971,842.705048,2886.803174
1353.647493,-9622.677246,1991.848295,3849.070898
1353.647805,-9622.677246,995.924147,4219.173869
1353.648116,-9326.594869,0.000000,4885.359217
1353.648428,-7920.203579,-1608.800546,4367.215058
1353.648739,-6957.935855,-1532.190996,3627.009116
1353.649051,-5773.606348,-1149.143247,2664.741391
1353.649363,-6291.750507,-1149.143247,1850.514855
1353.649674,-7772.162391,-383.047749,1554.432478
1353.649986,-9030.512492,0.000000,1110.308913
1353.650297,-9474.636058,536.266849,1628.453072
1353.650609,-10140.821405,536.266849,2220.617826
1353.650921,-11251.130318,-229.828649,2294.638420
1353.651232,-11103.089130,306.438199,2220.617826
1353.651544,-9770.718434,459.657299,2368.659014
1353.651855,-9030.512492,383.047749,2516.700203
1353.652167,-9474.636058,0.000000,2664.741391
1353.652479,-9992.780217,-1302.362347,3330.926739
1353.652790,-9622.677246,-1991.848295,3330.926739
1353.653102,-9992.780217,-1608.800546,3256.906145
1353.653413,-8808.450710,-1225.752797,3404.947333
1353.653725,-9104.533087,-1225.752797,2294.638420
1353.654037,-8512.368333,-1225.752797,1406.391290
1353.654348,-6883.915261,-536.266849,962.267725
1353.654660,-6809.894666,229.828649,-0.000000
1353.654971,-8068.244768,0.000000,444.123565
1353.655283,-9622.677246,153.219100,1332.370696
1353.655595,-11621.233289,-76.609550,2368.659014
1353.655906,-12657.521608,383.047749,3997.112087
1353.656218,-13471.748144,76.609550,4885.359217
1353.656529,-12879.583391,229.828649,5033.400406
1353.656841,-10658.965565,-689.485948,4737.318029
1353.657153,-7031.956449,-1608.800546,2812.782580
1353.657464,-3923.091493,-1532.190996,1258.350101
1353.657776,-2368.659014,-1072.533697,-148.041188
1353.658087,-3182.885551,0.000000,-148.041188
1353.658399,-7105.977043,76.609550,1406.391290
1353.658710,-10807.006753,-76.609550,4293.194464
1353.659022,-14434.015869,459.657299,6439.791695
1353.659334,-15914.427753,76.609550,7920.203579
1353.659645,-13619.789333,0.000000,7772.162391
1353.659957,-9326.594869,229.828649,6143.709319
1353.660268,-5699.585753,459.657299,3552.988522
1353.660580,-2664.741391,76.609550,1924.535449
1353.660892,-1702.473667,1991.848295,370.102971
1353.661203,-2664.741391,1685.410096,-0.000000
1353.661515,-6513.812290,1685.410096,1480.411884
1353.661826,-10732.986159,1149.143247,3552.988522
1353.662138,-13915.871710,766.095498,5107.421000
1353.662450,-13545.768739,0.000000,6587.832884
1353.662761,-11251.130318,-1149.143247,6587.832884
1353.663073,-9474.636058,-2757.943793,5773.606348
1353.663384,-6883.915261,-1915.238745,4811.338623
1353.663696,-6291.750507,-689.485948,3997.112087
1353.664008,-7550.100608,383.047749,5033.400406
1353.664319,-9696.697840,1149.143247,5921.647536
1353.664631,-12065.356855,1532.190996,6883.915261
1353.664943,-11029.068536,1685.410096,6439.791695
1353.665254,-8512.368333,2221.676944,4811.338623
1353.665566,-5033.400406,2757.943793,2442.679609
1353.665877,-3182.885551,2757.943793,-0.000000
1353.666189,-3404.947333,2221.676944,-666.185348
1353.666501,-5699.585753,1532.190996,-0.000000
1353.666812,-9178.553681,1838.629195,2146.597232
1353.667124,-12509.480420,842.705048,4441.235652
1353.667435,-14804.118840,-1225.752797,6735.874072
1353.667747,-14063.912898,-2528.115143,8068.244768
1353.668059,-11177.109724,-3294.210641,7846.182985
1353.668370,-8142.265362,-2068.457845,6439.791695
1353.668682,-5773.606348,-689.485948,3997.112087
1353.668993,-4367.215058,229.828649,1850.514855
1353.669305,-3701.029710,1302.362347,-370.102971
1353.669617,-4589.276840,2757.943793,-1332.370696
1353.669928,-4441.235652,3140.991542,-1406.391290
1353.670240,-5255.462188,2068.457845,-1554.432478
1353.670551,-6365.771101,1149.143247,-296.082377
1353.670863,-8882.471304,76.609550,1332.370696
1353.671175,-11917.315666,-536.266849,2738.761985
1353.671486,-14508.036463,-919.314598,3627.009116
1353.671798,-15766.386565,-1072.533697,3256.906145
1353.672109,-13693.809927,-919.314598,2368.659014
1353.672421,-10288.862594,0.000000,962.267725
1353.672733,-8586.388927,229.828649,-0.000000
1353.673044,-5847.626942,306.438199,-296.082377
1353.673356,-4589.276840,-1378.971896,-962.267725
1353.673668,-4737.318029,-1149.143247,-370.102971
1353.673979,-5403.503377,-1532.190996,-888.247130
1353.674291,-7179.997637,-1378.971896,-1258.350101
1353.674602,-9696.697840,-689.485948,-1184.329507
1353.674914,-11769.274478,-229.828649,-1110.308913
1353.675226,-12805.562797,-1762.019645,-740.205942
1353.675537,-14359.995275,-2068.457845,-370.102971
1353.675849,-15026.180623,-1149.143247,518.144159
1353.676160,-15396.283594,-995.924147,1184.329507
1353.676472,-15396.283594,0.000000,1924.535449
1353.676784,-13989.892304,919.314598,1702.473667
1353.677095,-10658.965565,2374.896044,518.144159
1353.677407,-5699.585753,2221.676944,-1776.494261
1353.677718,-1110.308913,2374.896044,-3552.988522
1353.678030,1554.432478,1302.362347,-5181.441594
1353.678342,518.144159,1762.019645,-4885.359217
1353.678653,-4293.194464,1532.190996,-2886.803174
1353.678965,-10362.883188,76.609550,-296.082377
1353.679276,-14952.160028,-1149.143247,2812.782580
1353.679588,-18505.148550,-2068.457845,3849.070898
1353.679900,-17024.736666,-1991.848295,4515.256246
1353.680211,-13323.706956,-2068.457845,2738.761985
1353.680523,-9104.533087,-459.657299,1924.535449
1353.680835,-6217.729913,383.047749,1702.473667
1353.681146,-5033.400406,-612.876398,962.267725
1353.681458,-4071.132681,-842.705048,888.247130
1353.681769,-2368.659014,0.000000,-74.020594
1353.682081,-2368.659014,919.314598,-518.144159
1353.682393,-3108.864956,1302.362347,-1628.453072
1353.682704,-5329.482782,153.219100,-1702.473667
1353.683016,-8512.368333,-766.095498,-888.247130
1353.683327,-12213.398043,-766.095498,592.164754
1353.683639,-16210.510130,-842.705048,2886.803174
1353.683951,-18505.148550,-153.219100,4293.194464
1353.684262,-17468.860231,689.485948,4811.338623
1353.684574,-12879.583391,1455.581446,3849.070898
1353.684885,-7328.038826,1838.629195,2664.741391
1353.685197,-2368.659014,1838.629195,592.164754
1353.685509,666.185348,1532.190996,-1702.473667
1353.685820,888.247130,1455.581446,-3997.112087
1353.686132,-1184.329507,1838.629195,-4663.297435
1353.686443,-5181.441594,1915.238745,-4293.194464
1353.686755,-9770.718434,1838.629195,-3108.864956
1353.687067,-15174.221811,-306.438199,-296.082377
1353.687378,-18357.107362,-1608.800546,2220.617826
1353.687690,-20799.786970,-1532.190996,4515.256246
1353.688002,-19467.416275,-1378.971896,6217.729913
1353.688313,-16284.530724,-995.924147,6291.750507
1353.688625,-11325.150913,-842.705048,5551.544565
1353.688936,-5403.503377,-383.047749,2368.659014
1353.689248,666.185348,612.876398,-740.205942
1353.689560,4293.194464,2298.286494,-3256.906145
1353.689871,3775.050304,2604.724693,-4589.276840
1353.690183,0.000000,1608.800546,-4219.173869
1353.690494,-6365.771101,383.047749,-2664.741391
1353.690806,-12139.377449,-689.485948,-0.000000
1353.691118,-17690.922014,-1608.800546,2442.679609
1353.691429,-20725.766376,-2834.553343,4367.215058
1353.691741,-20281.642811,-2834.553343,5477.523971
1353.692052,-17838.963202,-1608.800546,5625.565159
1353.692364,-12805.562797,0.000000,5921.647536
1353.692676,-8290.306550,383.047749,3627.009116
1353.692987,-2960.823768,-306.438199,2368.659014
1353.693299,1998.556043,0.000000,-0.000000
1353.693610,4959.379811,612.876398,-2738.761985
1353.693922,5033.400406,459.657299,-4885.359217
1353.694234,222.061783,0.000000,-5625.565159
1353.694545,-5773.606348,0.000000,-4441.235652
1353.694857,-12583.501014,-459.657299,-518.144159
1353.695169,-19615.457463,-2068.457845,2220.617826
1353.695480,-23760.610738,-2298.286494,5033.400406
1353.695792,-23242.466579,-1149.143247,6291.750507
1353.696103,-18061.024985,-459.657299,5329.482782
1353.696415,-10510.924376,612.876398,3775.050304
1353.696727,-3478.967927,766.095498,-0.000000
1353.697038,2368.659014,1915.238745,-2368.659014
1353.697350,5403.503377,1991.848295,-5255.462188
1353.697661,4145.153275,1991.848295,-7179.997637
1353.697973,444.123565,1838.629195,-7846.182985
1353.698285,-5477.523971,1225.752797,-6735.874072
1353.698596,-11473.192101,-153.219100,-3478.967927
1353.698908,-17542.880825,-2604.724693,-0.000000
1353.699219,-23390.507767,-4060.306139,3256.906145
1353.699531,-25833.187376,-4443.353888,5773.606348
1353.699843,-24204.734303,-2604.724693,5773.606348
1353.700154,-18357.107362,-1072.533697,5107.421000
1353.700466,-10658.965565,383.047749,1924.535449
1353.700777,-2294.638420,383.047749,-1036.288319
1353.701089,4367.215058,1302.362347,-4737.318029
1353.701401,7550.100608,995.924147,-6957.935855
1353.701712,5921.647536,153.219100,-7994.224174
1353.702024,0.000000,612.876398,-6957.935855
1353.702335,-8882.471304,-306.438199,-4885.359217
1353.702647,-15470.304188,-1225.752797,-740.205942
1353.702959,-22206.178260,-2757.943793,2368.659014
1353.703270,-25463.084405,-3217.601092,5181.441594
1353.703582,-23538.548956,-2068.457845,6143.709319
1353.703894,-18727.210333,-1149.143247,5995.668130
1353.704205,-11769.274478,536.266849,4737.318029
1353.704517,-4589.276840,842.705048,962.267725
1353.704828,2220.617826,919.314598,-1480.411884
1353.705140,7476.080014,2145.067394,-4663.297435
1353.705452,8068.244768,2451.505594,-6587.832884
1353.705763,3478.967927,2681.334243,-7328.038826
1353.706075,-3849.070898,1915.238745,-5403.503377
1353.706386,-10658.965565,689.485948,-2220.617826
1353.706698,-18801.230927,-1149.143247,2072.576638
1353.707010,-24574.837274,-3064.381992,5847.626942
1353.707321,-25833.187376,-3447.429741,8216.285956
1353.707633,-21465.972318,-2374.896044,8364.327145
1353.707944,-13545.768739,-1378.971896,7476.080014
1353.708256,-5255.462188,-229.828649,3627.009116
1353.708568,962.267725,1532.190996,444.123565
1353.708879,4737.318029,2681.334243,-1776.494261
1353.709191,6661.853478,2298.286494,-3552.988522
1353.709502,3849.070898,2221.676944,-4663.297435
1353.709814,-888.247130,1072.533697,-4663.297435
1353.710126,-5847.626942,-459.657299,-3108.864956
1353.710437,-11991.336260,-2221.676944,-222.061783
1353.710749,-18505.148550,-3677.258390,2368.659014
1353.711061,-24204.734303,-4596.572988,5625.565159
1353.711372,-25611.125593,-3294.210641,8512.368333
1353.711684,-22650.301825,-1378.971896,8290.306550
1353.711995,-15914.427753,1072.533697,7328.038826
1353.712307,-7328.038826,2145.067394,4071.132681
1353.712619,518.144159,1608.800546,-0.000000
1353.712930,6809.894666,2528.115143,-4441.235652
1353.713242,9474.636058,3524.039291,-7920.203579
1353.713553,6439.791695,3524.039291,-9474.636058
1353.713865,-888.247130,2528.115143,-7772.162391
1353.714177,-10214.842000,0.000000,-4367.215058
1353.714488,-19097.313304,-2451.505594,962.267725
1353.714800,-25537.104999,-4749.792088,6143.709319
1353.715111,-28349.887579,-5669.106685,9400.615463
1353.715423,-25981.228564,-4903.011187,9252.574275
1353.715735,-19393.395680,-2145.067394,7402.059420
1353.716046,-9696.697840,383.047749,5551.544565
1353.716358,-1924.535449,1915.238745,222.061783
1353.716669,5033.400406,1915.238745,-3552.988522
1353.716981,9474.636058,2374.896044,-6291.750507
1353.717293,8882.471304,1838.629195,-7624.121203
1353.717604,3701.029710,1149.143247,-6809.894666
1353.717916,-4589.276840,-306.438199,-4441.235652
1353.718228,-13027.624579,-1762.019645,-222.061783
1353.718539,-21317.931130,-3830.477490,4367.215058
1353.718851,-26351.331535,-5975.544884,7254.018232
1353.719162,-25981.228564,-4366.744339,9178.553681
1353.719474,-19985.560434,-1685.410096,7402.059420
1353.719786,-11843.295072,-229.828649,5255.462188
1353.720097,-3330.926739,536.266849,1258.350101
1353.720409,2294.638420,1302.362347,-2368.659014
1353.720720,5995.668130,2374.896044,-5033.400406
1353.721032,6735.874072,3064.381992,-6809.894666
1353.721344,3256.906145,2681.334243,-7179.997637
1353.721655,-2294.638420,1455.581446,-6365.771101
1353.721967,-8734.430116,-459.657299,-3108.864956
1353.722278,-16136.489536,-2451.505594,666.185348
1353.722590,-22428.240043,-3753.867940,3997.112087
1353.722902,-26647.413912,-4060.306139,6883.915261
1353.723213,-25685.146187,-2221.676944,7624.121203
1353.723525,-20651.745782,1149.143247,6291.750507
1353.723836,-12731.542202,2374.896044,3923.091493
1353.724148,-4293.194464,4060.306139,-444.123565
1353.724460,2664.741391,4673.182538,-3849.070898
1353.724771,8142.265362,5209.449386,-7254.018232
1353.725083,8808.450710,3907.087040,-8808.450710
1353.725395,3849.070898,2374.896044,-8290.306550
1353.725706,-3701.029710,0.000000,-4737.318029
1353.726018,-11991.336260,-1915.238745,-1628.453072
1353.726329,-19689.478057,-3370.820191,3701.029710
1353.726641,-26277.310941,-4749.792088,6809.894666
1353.726953,-27905.764013,-4290.134789,9400.615463
1353.727264,-23316.487173,-2528.115143,9326.594869
1353.727576,-16136.489536,-1378.971896,7402.059420
1353.727887,-6957.935855,459.657299,3552.988522
1353.728199,222.061783,2145.067394,-740.205942
1353.728511,5329.482782,2987.772442,-4293.194464
1353.728822,9400.615463,2374.896044,-6365.771101
1353.729134,6587.832884,1608.800546,-6143.709319
1353.729445,-444.123565,0.000000,-4441.235652
1353.729757,-8290.306550,-1532.190996,-666.185348
1353.730069,-16580.613101,-3217.601092,3552.988522
1353.730380,-22872.363608,-4749.792088,7254.018232
1353.730692,-25907.207970,-4903.011187,9474.636058
1353.731003,-23316.487173,-3907.087040,9474.636058
1353.731315,-17098.757260,-766.095498,7254.018232
1353.731627,-10140.821405,2911.162892,4959.379811
1353.731938,-2664.741391,4366.744339,1480.411884
1353.732250,3330.926739,4443.353888,-444.123565
1353.732561,7550.100608,4519.963438,-2590.720797
1353.732873,9104.533087,3294.210641,-3404.947333
1353.733185,3404.947333,2221.676944,-5033.400406
1353.733496,-2146.597232,995.924147,-2590.720797
1353.733808,-9178.553681,229.828649,-1406.391290
1353.734120,-17246.798449,-1455.581446,3478.967927
1353.734431,-24574.837274,-2911.162892,6735.874072
1353.734743,-27683.702231,-3217.601092,9918.759623
1353.735054,-23908.651927,-1762.019645,10510.924376
1353.735366,-15766.386565,-1455.581446,8438.347739
1353.735678,-6513.812290,0.000000,4737.318029
1353.735989,666.185348,2145.067394,-0.000000
1353.736301,5995.668130,2528.115143,-2368.659014
1353.736612,8364.327145,2911.162892,-5477.523971
1353.736924,5181.441594,2834.553343,-5995.668130
1353.737236,-1036.288319,1685.410096,-4589.276840
1353.737547,-7920.203579,-1149.143247,-1850.514855
1353.737859,-14211.954086,-3677.258390,1332.370696
1353.738170,-20281.642811,-5056.230287,4367.215058
1353.738482,-24426.796086,-5286.058936,7105.977043
1353.738794,-24722.878463,-4443.353888,7402.059420
1353.739105,-21095.869347,-1455.581446,6587.832884
1353.739417,-14211.954086,1302.362347,4515.256246
1353.739728,-7031.956449,2604.724693,296.082377
1353.740040,-370.102971,3217.601092,-3034.844362
1353.740352,6513.812290,4290.134789,-6513.812290
1353.740663,8808.450710,3217.601092,-8586.388927
1353.740975,5551.544565,2374.896044,-9400.615463
1353.741287,-1554.432478,1302.362347,-7031.956449
1353.741598,-10881.027347,-229.828649,-3923.091493
1353.741910,-18801.230927,-2374.896044,1332.370696
1353.742221,-24870.919651,-3370.820191,4071.132681
1353.742533,-27165.558071,-3140.991542,5329.482782
