#time,accel_x,accel_y,accel_z
1183.242810,-9030.512492,76.609550,666.185348
1183.243122,-9030.512492,0.000000,444.123565
1183.243433,-8956.491898,0.000000,444.123565
1183.243744,-8882.471304,0.000000,518.144159
1183.244056,-9104.533087,-229.828649,444.123565
1183.244367,-8734.430116,459.657299,740.205942
1183.244678,-8882.471304,536.266849,222.061783
1183.244990,-8586.388927,-229.828649,592.164754
1183.245301,-8808.450710,-229.828649,444.123565
1183.245612,-8882.471304,-229.828649,666.185348
1183.245924,-9030.512492,-306.438199,518.144159
1183.246235,-8808.450710,0.000000,666.185348
1183.246546,-8882.471304,0.000000,592.164754
1183.246858,-9104.533087,229.828649,370.102971
1183.247169,-9030.512492,612.876398,592.164754
1183.247480,-8882.471304,0.000000,296.082377
1183.247792,-9252.574275,-153.219100,444.123565
1183.248103,-9104.533087,0.000000,444.123565
1183.248414,-8882.471304,0.000000,592.164754
1183.248726,-8660.409521,76.609550,666.185348
1183.249037,-8882.471304,0.000000,222.061783
1183.249348,-8882.471304,459.657299,444.123565
1183.249659,-8808.450710,0.000000,518.144159
1183.249971,-8882.471304,306.438199,592.164754
1183.250282,-8882.471304,0.000000,444.123565
1183.250593,-8956.491898,0.000000,740.205942
1183.250905,-8882.471304,76.609550,666.185348
1183.251216,-8882.471304,689.485948,518.144159
1183.251527,-8660.409521,0.000000,592.164754
1183.251839,-8882.471304,689.485948,592.164754
1183.252150,-8956.491898,0.000000,370.102971
1183.252461,-8956.491898,-153.219100,740.205942
1183.252773,-8734.430116,0.000000,666.185348
1183.253084,-8956.491898,76.609550,444.123565
1183.253395,-8808.450710,0.000000,666.185348
1183.253707,-8956.491898,153.219100,518.144159
1183.254018,-8512.368333,153.219100,592.164754
1183.254329,-8512.368333,0.000000,222.061783
1183.254641,-8882.471304,306.438199,296.082377
1183.254952,-9030.512492,-153.219100,444.123565
1183.255263,-8882.471304,0.000000,740.205942
1183.255575,-8956.491898,-229.828649,518.144159
1183.255886,-8956.491898,-229.828649,444.123565
1183.256197,-8734.430116,0.000000,740.205942
1183.256508,-8660.409521,-153.219100,740.205942
1183.256820,-8808.450710,383.047749,296.082377
1183.257131,-9030.512492,-459.657299,666.185348
1183.257442,-8956.491898,0.000000,592.164754
1183.257754,-9030.512492,0.000000,666.185348
1183.258065,-9104.533087,229.828649,444.123565
1183.258376,-9030.512492,0.000000,666.185348
1183.258688,-9030.512492,0.000000,444.123565
1183.258999,-9030.512492,-229.828649,296.082377
1183.259310,-8734.430116,0.000000,518.144159
1183.259622,-8660.409521,-306.438199,740.205942
1183.259933,-8660.409521,0.000000,592.164754
1183.260244,-8808.450710,0.000000,296.082377
1183.260556,-8734.430116,-76.609550,592.164754
1183.260867,-8956.491898,0.000000,592.164754
1183.261178,-8882.471304,0.000000,592.164754
1183.261490,-8882.471304,76.609550,444.123565
1183.261801,-8808.450710,0.000000,148.041188
1183.262112,-8882.471304,0.000000,740.205942
1183.262424,-9030.512492,0.000000,370.102971
1183.262735,-8882.471304,153.219100,518.144159
1183.263046,-8956.491898,0.000000,666.185348
1183.263357,-8956.491898,-536.266849,444.123565
1183.263669,-8660.409521,-229.828649,296.082377
1183.263980,-8808.450710,-153.219100,444.123565
1183.264291,-8808.450710,-229.828649,74.020594
1183.264603,-8882.471304,0.000000,222.061783
1183.264914,-8956.491898,-76.609550,592.164754
1183.265225,-8956.491898,0.000000,592.164754
1183.265537,-9030.512492,-229.828649,666.185348
1183.265848,-8882.471304,-153.219100,444.123565
1183.266159,-8882.471304,-229.828649,296.082377
1183.266471,-8586.388927,0.000000,444.123565
1183.266782,-8956.491898,0.000000,296.082377
1183.267093,-8882.471304,0.000000,592.164754
1183.267405,-8956.491898,-153.219100,740.205942
1183.267716,-9030.512492,0.000000,666.185348
1183.268027,-9104.533087,0.000000,518.144159
1183.268339,-8956.491898,306.438199,518.144159
1183.268650,-8734.430116,-689.485948,518.144159
1183.268961,-8586.388927,76.609550,592.164754
1183.269273,-8882.471304,383.047749,444.123565
1183.269584,-8586.388927,0.000000,592.164754
1183.269895,-8808.450710,0.000000,370.102971
1183.270206,-8956.491898,0.000000,518.144159
1183.270518,-8882.471304,0.000000,518.144159
1183.270829,-9104.533087,-229.828649,370.102971
1183.271140,-8586.388927,0.000000,592.164754
1183.271452,-9252.574275,-153.219100,444.123565
1183.271763,-9474.636058,153.219100,518.144159
1183.272074,-11547.212695,1455.581446,296.082377
1183.272386,-9770.718434,4136.915689,814.226536
1183.272697,-8142.265362,4979.620737,518.144159
1183.273008,-7105.977043,2528.115143,1036.288319
1183.273320,-6143.709319,0.000000,592.164754
1183.273631,-7254.018232,-1455.581446,-592.164754
1183.273942,-7031.956449,-689.485948,-0.000000
1183.274254,-9326.594869,-612.876398,-888.247130
1183.274565,-13175.665768,-612.876398,-1110.308913
1183.274876,-11399.171507,612.876398,444.123565
1183.275188,-9770.718434,459.657299,888.247130
1183.275499,-8438.347739,-766.095498,2442.679609
1183.275810,-10807.006753,-612.876398,2294.638420
1183.276122,-10510.924376,2604.724693,1776.494261
1183.276433,-5033.400406,5132.839837,2368.659014
1183.276744,-6069.688724,3983.696590,1332.370696
1183.277055,-8290.306550,2298.286494,-0.000000
1183.277367,-7179.997637,2834.553343,-1406.391290
1183.277678,-8512.368333,3064.381992,-1924.535449
1183.277989,-9474.636058,3753.867940,-222.061783
1183.278301,-10362.883188,3907.087040,-1406.391290
1183.278612,-14952.160028,76.609550,-370.102971
1183.278923,-10658.965565,-1302.362347,2664.741391
1183.279235,-9104.533087,-995.924147,1554.432478
1183.279546,-9844.739029,2834.553343,2220.617826
1183.279857,-6809.894666,6358.592633,2812.782580
1183.280169,-8216.285956,4213.525239,1258.350101
1183.280480,-6735.874072,3140.991542,3182.885551
1183.280791,-6439.791695,6128.763984,1036.288319
1183.281103,-8216.285956,6971.469032,-592.164754
1183.281414,-8290.306550,5439.278036,-1480.411884
1183.281725,-9992.780217,4136.915689,-1036.288319
1183.282037,-9770.718434,4290.134789,-1184.329507
1183.282348,-11399.171507,4366.744339,-148.041188
1183.282659,-11917.315666,3064.381992,444.123565
1183.282971,-9844.739029,2911.162892,2294.638420
1183.283282,-9178.553681,3600.648841,1998.556043
1183.283593,-6365.771101,3907.087040,2146.597232
1183.283904,-6439.791695,2604.724693,666.185348
1183.284216,-6587.832884,2911.162892,1332.370696
1183.284527,-5329.482782,3524.039291,-0.000000
1183.284838,-5699.585753,4290.134789,-1036.288319
1183.285150,-7031.956449,3140.991542,-1406.391290
1183.285461,-9696.697840,1762.019645,-666.185348
1183.285772,-9844.739029,306.438199,444.123565
1183.286084,-9844.739029,-459.657299,1036.288319
1183.286395,-10510.924376,-536.266849,2516.700203
1183.286706,-10658.965565,-1838.629195,1776.494261
1183.287018,-9992.780217,-536.266849,2146.597232
1183.287329,-8068.244768,0.000000,1850.514855
1183.287640,-6587.832884,919.314598,518.144159
1183.287952,-6587.832884,766.095498,-148.041188
1183.288263,-7994.224174,459.657299,-1110.308913
1183.288574,-7550.100608,229.828649,-1036.288319
1183.288886,-7179.997637,-919.314598,-962.267725
1183.289197,-8290.306550,-2911.162892,-148.041188
1183.289508,-9992.780217,-4519.963438,-0.000000
1183.289820,-10732.986159,-4596.572988,444.123565
1183.290131,-11621.233289,-3907.087040,1184.329507
1183.290442,-11917.315666,-3217.601092,1480.411884
1183.290753,-11769.274478,-2911.162892,1258.350101
1183.291065,-11399.171507,-1685.410096,518.144159
1183.291376,-9326.594869,-1149.143247,-0.000000
1183.291687,-7698.141797,-766.095498,-1406.391290
1183.291999,-7698.141797,0.000000,-666.185348
1183.292310,-8808.450710,306.438199,-962.267725
1183.292621,-10066.800811,229.828649,-370.102971
1183.292933,-10214.842000,-306.438199,-0.000000
1183.293244,-11325.150913,-612.876398,370.102971
1183.293555,-11843.295072,-689.485948,1110.308913
1183.293867,-11991.336260,-1072.533697,1184.329507
1183.294178,-11103.089130,-229.828649,1406.391290
1183.294489,-10510.924376,-229.828649,592.164754
1183.294801,-9474.636058,1302.362347,370.102971
1183.295112,-7772.162391,2451.505594,-518.144159
1183.295423,-6883.915261,2604.724693,-1036.288319
1183.295735,-6069.688724,2911.162892,-1554.432478
1183.296046,-6439.791695,1991.848295,-814.226536
1183.296357,-6291.750507,766.095498,-0.000000
1183.296669,-7031.956449,0.000000,962.267725
1183.296980,-8660.409521,-1072.533697,2294.638420
1183.297291,-9844.739029,-1532.190996,2886.803174
1183.297602,-10066.800811,-1608.800546,2516.700203
1183.297914,-9622.677246,-842.705048,2664.741391
1183.298225,-8808.450710,842.705048,2146.597232
1183.298536,-8364.327145,1608.800546,1702.473667
1183.298848,-7550.100608,2528.115143,518.144159
1183.299159,-6587.832884,3064.381992,-0.000000
1183.299470,-6069.688724,3677.258390,-0.000000
1183.299782,-5329.482782,3370.820191,-740.205942
1183.300093,-5551.544565,2987.772442,-592.164754
1183.300404,-6513.812290,1378.971896,222.061783
1183.300716,-7772.162391,76.609550,666.185348
1183.301027,-8438.347739,-536.266849,1480.411884
1183.301338,-9474.636058,-995.924147,1480.411884
1183.301650,-10288.862594,-1838.629195,1702.473667
1183.301961,-10881.027347,-1838.629195,1924.535449
1183.302272,-10066.800811,-2298.286494,1406.391290
1183.302584,-9770.718434,-1149.143247,1184.329507
1183.302895,-8882.471304,76.609550,444.123565
1183.303206,-8882.471304,0.000000,-0.000000
1183.303518,-8956.491898,0.000000,-370.102971
1183.303829,-8364.327145,-766.095498,-148.041188
1183.304140,-8882.471304,-1072.533697,-148.041188
1183.304451,-9696.697840,-1378.971896,148.041188
1183.304763,-10436.903782,-995.924147,518.144159
1183.305074,-11029.068536,-1149.143247,592.164754
1183.305385,-11695.253884,-612.876398,1184.329507
1183.305697,-11325.150913,-383.047749,1258.350101
1183.306008,-10658.965565,0.000000,666.185348
1183.306319,-10362.883188,153.219100,-222.061783
1183.306631,-9326.594869,306.438199,-444.123565
1183.306942,-8364.327145,995.924147,-962.267725
1183.307253,-7772.162391,766.095498,-1406.391290
1183.307565,-7994.224174,0.000000,-1110.308913
1183.307876,-8142.265362,-612.876398,-888.247130
1183.308187,-8290.306550,-842.705048,-148.041188
1183.308499,-8512.368333,-1532.190996,518.144159
1183.308810,-9178.553681,-1762.019645,740.205942
1183.309121,-9474.636058,-1762.019645,1110.308913
1183.309433,-9918.759623,-2221.676944,1110.308913
1183.309744,-9992.780217,0.000000,1110.308913
1183.310055,-10214.842000,229.828649,888.247130
1183.310367,-9622.677246,1225.752797,740.205942
1183.310678,-8808.450710,1608.800546,370.102971
1183.310989,-7476.080014,1378.971896,148.041188
1183.311300,-7105.977043,1149.143247,-74.020594
1183.311612,-6291.750507,1378.971896,-370.102971
1183.311923,-6069.688724,1608.800546,-740.205942
1183.312234,-6883.915261,1225.752797,-0.000000
1183.312546,-7402.059420,383.047749,518.144159
1183.312857,-8586.388927,153.219100,518.144159
1183.313168,-9548.656652,153.219100,888.247130
1183.313480,-9770.718434,0.000000,1332.370696
1183.313791,-9622.677246,-153.219100,1036.288319
1183.314102,-9104.533087,0.000000,518.144159
1183.314414,-8364.327145,-995.924147,296.082377
1183.314725,-8068.244768,-459.657299,148.041188
1183.315036,-7920.203579,-306.438199,592.164754
1183.315348,-7920.203579,-612.876398,740.205942
1183.315659,-8586.388927,-1072.533697,962.267725
1183.315970,-9030.512492,-1685.410096,1480.411884
1183.316282,-9992.780217,-1532.190996,1924.535449
1183.316593,-10658.965565,-536.266849,1850.514855
1183.316904,-10510.924376,76.609550,1628.453072
1183.317216,-11177.109724,1455.581446,962.267725
1183.317527,-10510.924376,1302.362347,666.185348
1183.317839,-9770.718434,1378.971896,222.061783
1183.318150,-8956.491898,1378.971896,-0.000000
1183.318462,-8216.285956,919.314598,-148.041188
1183.318773,-7846.182985,459.657299,-0.000000
1183.319085,-7476.080014,-536.266849,-0.000000
1183.319396,-7994.224174,-459.657299,296.082377
1183.319707,-8216.285956,-1838.629195,296.082377
1183.320019,-8808.450710,-1915.238745,1184.329507
1183.320330,-9918.759623,-2451.505594,1258.350101
1183.320642,-10288.862594,-2374.896044,1628.453072
1183.320953,-10584.944971,-1762.019645,1258.350101
1183.321265,-10140.821405,-459.657299,1184.329507
1183.321576,-9474.636058,-766.095498,814.226536
1183.321888,-8586.388927,229.828649,962.267725
1183.322199,-8142.265362,995.924147,148.041188
1183.322511,-8364.327145,995.924147,-0.000000
1183.322822,-7920.203579,1378.971896,370.102971
1183.323133,-8216.285956,995.924147,296.082377
1183.323445,-7772.162391,766.095498,-0.000000
1183.323756,-7402.059420,842.705048,-148.041188
1183.324068,-8290.306550,766.095498,-666.185348
1183.324379,-8586.388927,1608.800546,-296.082377
1183.324691,-8882.471304,1532.190996,-222.061783
1183.325002,-9474.636058,306.438199,-0.000000
1183.325314,-9622.677246,76.609550,222.061783
1183.325625,-9548.656652,536.266849,-0.000000
1183.325937,-9030.512492,842.705048,-0.000000
1183.326248,-8068.244768,689.485948,-74.020594
1183.326560,-7772.162391,383.047749,-0.000000
1183.326871,-8142.265362,-612.876398,-0.000000
1183.327182,-8290.306550,-689.485948,518.144159
1183.327494,-8956.491898,-383.047749,888.247130
1183.327805,-9918.759623,0.000000,814.226536
1183.328117,-10140.821405,229.828649,1036.288319
1183.328428,-10436.903782,153.219100,666.185348
1183.328740,-9918.759623,612.876398,962.267725
1183.329051,-9844.739029,919.314598,592.164754
1183.329363,-8808.450710,1532.190996,296.082377
1183.329674,-8882.471304,1532.190996,-74.020594
1183.329986,-8216.285956,766.095498,-74.020594
1183.330297,-7550.100608,383.047749,-0.000000
1183.330608,-7698.141797,0.000000,296.082377
1183.330920,-7476.080014,-612.876398,740.205942
1183.331231,-7698.141797,-1378.971896,740.205942
1183.331543,-8142.265362,-1838.629195,1110.308913
1183.331854,-8734.430116,-2374.896044,1776.494261
1183.332166,-8808.450710,-2604.724693,1554.432478
1183.332477,-9770.718434,-2221.676944,1406.391290
1183.332789,-9696.697840,-2145.067394,1258.350101
1183.333100,-9622.677246,-1838.629195,888.247130
1183.333412,-9622.677246,-766.095498,1036.288319
1183.333723,-9474.636058,-459.657299,666.185348
1183.334034,-8216.285956,229.828649,666.185348
1183.334346,-8734.430116,383.047749,814.226536
1183.334657,-8512.368333,-306.438199,962.267725
1183.334969,-8438.347739,0.000000,1036.288319
1183.335280,-8216.285956,383.047749,666.185348
1183.335592,-7994.224174,306.438199,148.041188
1183.335903,-7920.203579,229.828649,-0.000000
1183.336215,-7772.162391,0.000000,-148.041188
1183.336526,-8660.409521,-229.828649,-592.164754
1183.336838,-9474.636058,0.000000,-370.102971
1183.337149,-9918.759623,-459.657299,-0.000000
1183.337460,-9992.780217,-766.095498,296.082377
1183.337772,-9844.739029,-995.924147,370.102971
1183.338083,-9104.533087,-995.924147,518.144159
1183.338395,-9400.615463,-1225.752797,-0.000000
1183.338706,-8808.450710,-1072.533697,1258.350101
1183.339018,-9178.553681,-995.924147,740.205942
1183.339329,-9400.615463,-306.438199,740.205942
1183.339641,-9770.718434,76.609550,888.247130
1183.339952,-10066.800811,919.314598,296.082377
1183.340264,-9844.739029,1608.800546,-0.000000
1183.340575,-9770.718434,2068.457845,-518.144159
1183.340887,-9326.594869,2374.896044,-444.123565
1183.341198,-8586.388927,2604.724693,-296.082377
1183.341509,-8512.368333,1991.848295,-296.082377
1183.341821,-7846.182985,1532.190996,-0.000000
1183.342132,-7476.080014,1225.752797,222.061783
1183.342444,-7846.182985,459.657299,370.102971
1183.342755,-7698.141797,153.219100,666.185348
1183.343067,-8068.244768,-536.266849,814.226536
1183.343378,-8364.327145,-995.924147,888.247130
1183.343690,-8586.388927,-1915.238745,592.164754
1183.344001,-8956.491898,-689.485948,296.082377
1183.344313,-9770.718434,-766.095498,74.020594
1183.344624,-9400.615463,-459.657299,592.164754
1183.344935,-9326.594869,-536.266849,1110.308913
1183.345247,-9474.636058,-689.485948,1332.370696
1183.345558,-9400.615463,76.609550,1702.473667
1183.345870,-8216.285956,76.609550,1554.432478
1183.346181,-7772.162391,229.828649,1554.432478
1183.346493,-8142.265362,459.657299,1184.329507
1183.346804,-8142.265362,229.828649,740.205942
1183.347116,-8216.285956,612.876398,296.082377
1183.347427,-8438.347739,383.047749,-0.000000
1183.347739,-8586.388927,383.047749,-74.020594
1183.348050,-8660.409521,0.000000,-296.082377
1183.348361,-9252.574275,0.000000,-592.164754
1183.348673,-9252.574275,-383.047749,518.144159
1183.348984,-9252.574275,-536.266849,592.164754
1183.349296,-9400.615463,-766.095498,1258.350101
1183.349607,-9252.574275,-842.705048,1184.329507
1183.349919,-8882.471304,-919.314598,1480.411884
1183.350230,-8660.409521,-1149.143247,1406.391290
1183.350542,-9030.512492,-1225.752797,962.267725
1183.350853,-8956.491898,-1225.752797,1110.308913
1183.351165,-9326.594869,-995.924147,962.267725
1183.351476,-9918.759623,-383.047749,740.205942
1183.351788,-10288.862594,-306.438199,-0.000000
1183.352099,-9918.759623,229.828649,-74.020594
1183.352410,-9992.780217,919.314598,222.061783
1183.352722,-9104.533087,1532.190996,222.061783
1183.353033,-8660.409521,2298.286494,222.061783
1183.353345,-8586.388927,1455.581446,370.102971
1183.353656,-8216.285956,995.924147,296.082377
1183.353968,-7920.203579,919.314598,518.144159
1183.354279,-7402.059420,842.705048,592.164754
1183.354591,-7550.100608,306.438199,296.082377
1183.354902,-8216.285956,-1302.362347,296.082377
1183.355214,-8956.491898,-1991.848295,-148.041188
1183.355525,-8660.409521,-1455.581446,-0.000000
1183.355836,-8882.471304,-1302.362347,148.041188
1183.356148,-9548.656652,-1378.971896,296.082377
1183.356459,-9844.739029,-1991.848295,888.247130
1183.356771,-9474.636058,-1378.971896,1036.288319
1183.357082,-9326.594869,-842.705048,1258.350101
1183.357394,-8882.471304,229.828649,1480.411884
1183.357705,-9178.553681,1302.362347,740.205942
1183.358017,-8586.388927,1072.533697,592.164754
1183.358328,-7179.997637,1072.533697,444.123565
1183.358640,-7105.977043,1072.533697,-296.082377
1183.358951,-7402.059420,1072.533697,-518.144159
1183.359262,-8142.265362,612.876398,-1036.288319
1183.359574,-8438.347739,536.266849,-666.185348
1183.359885,-8956.491898,76.609550,-444.123565
1183.360197,-9696.697840,76.609550,-592.164754
1183.360508,-9992.780217,76.609550,-0.000000
1183.360820,-9548.656652,-153.219100,296.082377
1183.361131,-9252.574275,-1225.752797,888.247130
1183.361443,-9326.594869,-1455.581446,1184.329507
1183.361754,-9474.636058,-1455.581446,1332.370696
1183.362066,-9622.677246,-1378.971896,1258.350101
1183.362377,-9400.615463,-1302.362347,1406.391290
1183.362689,-9622.677246,-842.705048,740.205942
1183.363000,-9474.636058,-459.657299,1036.288319
1183.363311,-9770.718434,-612.876398,296.082377
1183.363623,-9918.759623,689.485948,-0.000000
1183.363934,-9992.780217,1455.581446,-0.000000
1183.364246,-10510.924376,1608.800546,518.144159
1183.364557,-10362.883188,1608.800546,592.164754
1183.364869,-9104.533087,2145.067394,592.164754
1183.365180,-8364.327145,1991.848295,666.185348
1183.365492,-7254.018232,1455.581446,1110.308913
1183.365803,-7179.997637,1762.019645,296.082377
1183.366115,-7550.100608,536.266849,296.082377
1183.366426,-7402.059420,-459.657299,814.226536
1183.366737,-8068.244768,-1302.362347,518.144159
1183.367049,-7994.224174,-1072.533697,370.102971
1183.367360,-8512.368333,-1149.143247,-0.000000
1183.367672,-9474.636058,-1378.971896,444.123565
1183.367983,-9326.594869,-842.705048,1110.308913
1183.368295,-9104.533087,153.219100,962.267725
1183.368606,-9030.512492,-306.438199,1628.453072
1183.368918,-8956.491898,0.000000,1628.453072
1183.369229,-8734.430116,842.705048,1258.350101
1183.369541,-8142.265362,1378.971896,1110.308913
1183.369852,-7550.100608,1378.971896,1184.329507
1183.370163,-7624.121203,689.485948,296.082377
1183.370475,-7476.080014,842.705048,-74.020594
1183.370786,-7105.977043,689.485948,-814.226536
1183.371098,-7772.162391,459.657299,-888.247130
1183.371409,-8734.430116,229.828649,-592.164754
1183.371721,-8882.471304,0.000000,-444.123565
1183.372032,-9548.656652,-306.438199,-0.000000
1183.372344,-9770.718434,0.000000,444.123565
1183.372655,-10584.944971,-229.828649,518.144159
1183.372967,-9844.739029,0.000000,1406.391290
1183.373278,-9178.553681,-459.657299,1036.288319
1183.373590,-8734.430116,-1072.533697,1036.288319
1183.373901,-9178.553681,-1608.800546,962.267725
1183.374212,-9252.574275,-1302.362347,444.123565
1183.374524,-9252.574275,-995.924147,296.082377
1183.374835,-9548.656652,-1685.410096,-0.000000
1183.375147,-10066.800811,-995.924147,148.041188
1183.375458,-10510.924376,153.219100,222.061783
1183.375770,-10362.883188,76.609550,370.102971
1183.376081,-10362.883188,612.876398,814.226536
1183.376393,-9622.677246,1225.752797,444.123565
1183.376704,-9104.533087,1149.143247,296.082377
1183.377016,-8290.306550,1149.143247,296.082377
1183.377327,-8068.244768,842.705048,222.061783
1183.377638,-7994.224174,919.314598,-0.000000
1183.377950,-7328.038826,689.485948,814.226536
1183.378261,-8290.306550,-766.095498,148.041188
1183.378573,-8438.347739,-1532.190996,296.082377
1183.378884,-8438.347739,-1915.238745,370.102971
1183.379196,-8512.368333,-1608.800546,148.041188
1183.379507,-9104.533087,-1762.019645,592.164754
1183.379819,-9770.718434,-1455.581446,814.226536
1183.380130,-9844.739029,-1532.190996,1332.370696
1183.380442,-9844.739029,-153.219100,1184.329507
1183.380753,-9548.656652,0.000000,1184.329507
1183.381064,-8438.347739,689.485948,1110.308913
1183.381376,-8142.265362,536.266849,814.226536
1183.381687,-7105.977043,689.485948,1036.288319
1183.381999,-7105.977043,995.924147,222.061783
1183.382310,-6957.935855,1149.143247,444.123565
1183.382622,-6883.915261,689.485948,-0.000000
1183.382933,-7550.100608,536.266849,-444.123565
1183.383245,-7698.141797,383.047749,-296.082377
1183.383556,-8660.409521,459.657299,-222.061783
1183.383868,-9918.759623,306.438199,-0.000000
1183.384179,-10214.842000,-306.438199,888.247130
1183.384490,-9992.780217,-229.828649,1110.308913
1183.384802,-9622.677246,-306.438199,888.247130
1183.385113,-8660.409521,-919.314598,1036.288319
1183.385425,-8808.450710,-766.095498,888.247130
1183.385736,-8512.368333,-766.095498,888.247130
1183.386048,-8586.388927,-383.047749,740.205942
1183.386359,-9104.533087,-153.219100,814.226536
1183.386671,-9474.636058,0.000000,592.164754
1183.386982,-10510.924376,612.876398,-0.000000
1183.387294,-10214.842000,1532.190996,592.164754
1183.387605,-9770.718434,1455.581446,148.041188
1183.387917,-10436.903782,1532.190996,296.082377
1183.388228,-9918.759623,2068.457845,444.123565
1183.388539,-9252.574275,1915.238745,370.102971
1183.388851,-8438.347739,1455.581446,370.102971
1183.389162,-7550.100608,1455.581446,592.164754
1183.389474,-7476.080014,689.485948,296.082377
1183.389785,-7254.018232,-612.876398,592.164754
1183.390097,-7179.997637,-1378.971896,592.164754
1183.390408,-8808.450710,-2298.286494,740.205942
1183.390720,-9252.574275,-2528.115143,888.247130
1183.391031,-9474.636058,-2374.896044,666.185348
1183.391343,-9178.553681,-1838.629195,888.247130
1183.391654,-9326.594869,-1532.190996,370.102971
1183.391965,-9474.636058,-1302.362347,1184.329507
1183.392277,-9326.594869,-842.705048,1554.432478
1183.392588,-8586.388927,-229.828649,1554.432478
1183.392900,-8586.388927,842.705048,1036.288319
1183.393211,-7846.182985,1302.362347,666.185348
1183.393523,-7698.141797,919.314598,592.164754
1183.393834,-7846.182985,306.438199,222.061783
1183.394146,-7476.080014,153.219100,-0.000000
1183.394457,-7698.141797,306.438199,-592.164754
1183.394769,-8068.244768,842.705048,-888.247130
1183.395080,-8734.430116,-153.219100,-814.226536
1183.395391,-9548.656652,-306.438199,-296.082377
1183.395703,-9918.759623,-766.095498,370.102971
1183.396014,-10214.842000,-995.924147,1184.329507
1183.396326,-10288.862594,-536.266849,1184.329507
1183.396637,-9548.656652,-306.438199,1554.432478
1183.396949,-8882.471304,-306.438199,592.164754
1183.397260,-8586.388927,-1302.362347,370.102971
1183.397572,-8586.388927,-1455.581446,592.164754
1183.397883,-8586.388927,-1072.533697,740.205942
1183.398195,-9622.677246,-612.876398,444.123565
1183.398506,-10066.800811,0.000000,370.102971
1183.398818,-10362.883188,76.609550,444.123565
1183.399129,-10436.903782,0.000000,148.041188
1183.399440,-10658.965565,689.485948,-0.000000
1183.399752,-10214.842000,1225.752797,296.082377
1183.400063,-9104.533087,2221.676944,666.185348
1183.400375,-8808.450710,1685.410096,222.061783
1183.400686,-8068.244768,1302.362347,296.082377
1183.400998,-7179.997637,1072.533697,-0.000000
1183.401309,-6957.935855,995.924147,148.041188
1183.401621,-7550.100608,76.609550,296.082377
1183.401932,-8364.327145,-612.876398,740.205942
1183.402244,-8364.327145,-2145.067394,444.123565
1183.402555,-8734.430116,-2068.457845,814.226536
1183.402866,-8808.450710,-1838.629195,666.185348
1183.403178,-9474.636058,-1762.019645,740.205942
1183.403489,-9770.718434,-1685.410096,1036.288319
1183.403801,-9622.677246,-1225.752797,1184.329507
1183.404112,-9400.615463,-689.485948,1184.329507
1183.404424,-9474.636058,0.000000,1184.329507
1183.404735,-8808.450710,1149.143247,1036.288319
1183.405047,-7846.182985,995.924147,888.247130
1183.405358,-6957.935855,1072.533697,740.205942
1183.405670,-6735.874072,1225.752797,370.102971
1183.405981,-6883.915261,766.095498,-0.000000
1183.406292,-7254.018232,0.000000,-74.020594
1183.406604,-8216.285956,0.000000,-444.123565
1183.406915,-8586.388927,153.219100,-0.000000
1183.407227,-9548.656652,0.000000,222.061783
1183.407538,-10066.800811,-689.485948,296.082377
1183.407850,-10436.903782,-919.314598,666.185348
1183.408161,-10214.842000,-995.924147,888.247130
1183.408473,-9474.636058,-1225.752797,1110.308913
1183.408784,-9326.594869,-842.705048,888.247130
1183.409096,-8882.471304,-1532.190996,1110.308913
1183.409407,-8512.368333,-995.924147,1406.391290
1183.409719,-8882.471304,-842.705048,666.185348
1183.410030,-9474.636058,-612.876398,740.205942
1183.410341,-9918.759623,0.000000,814.226536
1183.410653,-10140.821405,612.876398,296.082377
1183.410964,-10214.842000,1378.971896,-0.000000
1183.411276,-10140.821405,1685.410096,-0.000000
1183.411587,-9918.759623,2221.676944,74.020594
1183.411899,-9104.533087,2068.457845,-74.020594
1183.412210,-8586.388927,1685.410096,222.061783
1183.412522,-8142.265362,1378.971896,592.164754
1183.412833,-7476.080014,689.485948,444.123565
1183.413145,-7328.038826,0.000000,296.082377
1183.413456,-7328.038826,-995.924147,592.164754
1183.413767,-8216.285956,-1532.190996,-0.000000
1183.414079,-7920.203579,-1608.800546,888.247130
1183.414390,-9178.553681,-1915.238745,370.102971
1183.414702,-10140.821405,-2145.067394,814.226536
1183.415013,-9770.718434,-1915.238745,1110.308913
1183.415325,-9844.739029,-1532.190996,962.267725
1183.415636,-9252.574275,-995.924147,1036.288319
1183.415948,-8290.306550,-459.657299,888.247130
1183.416259,-8586.388927,383.047749,666.185348
1183.416571,-8364.327145,1149.143247,518.144159
1183.416882,-7920.203579,1685.410096,518.144159
1183.417193,-7846.182985,1072.533697,592.164754
1183.417505,-7624.121203,766.095498,-0.000000
1183.417816,-7476.080014,689.485948,-296.082377
1183.418128,-7994.224174,919.314598,-370.102971
1183.418439,-8290.306550,842.705048,-148.041188
1183.418751,-8882.471304,229.828649,-296.082377
1183.419062,-9844.739029,-383.047749,-148.041188
1183.419374,-9844.739029,-536.266849,222.061783
1183.419685,-9622.677246,0.000000,592.164754
1183.419997,-9474.636058,-306.438199,888.247130
1183.420308,-9474.636058,-306.438199,1110.308913
1183.420619,-9030.512492,-689.485948,962.267725
1183.420931,-9400.615463,-1378.971896,666.185348
1183.421242,-9178.553681,-306.438199,740.205942
1183.421554,-8956.491898,-306.438199,888.247130
1183.421865,-8956.491898,-766.095498,888.247130
1183.422176,-9770.718434,-842.705048,518.144159
1183.422488,-10436.903782,-383.047749,296.082377
1183.422799,-10140.821405,536.266849,888.247130
1183.423111,-10214.842000,1455.581446,370.102971
1183.423422,-9474.636058,1762.019645,-0.000000
1183.423734,-8364.327145,2068.457845,-0.000000
1183.424045,-8216.285956,1532.190996,-0.000000
1183.424356,-7476.080014,1532.190996,444.123565
1183.424668,-7698.141797,1072.533697,370.102971
1183.424979,-7772.162391,536.266849,444.123565
1183.425291,-7698.141797,-383.047749,592.164754
1183.425602,-7328.038826,-1378.971896,370.102971
1183.425913,-7846.182985,-1991.848295,666.185348
1183.426225,-8660.409521,-2298.286494,592.164754
1183.426536,-9252.574275,-2528.115143,666.185348
1183.426848,-9918.759623,-2221.676944,1110.308913
1183.427159,-9918.759623,-1608.800546,1332.370696
1183.427471,-9770.718434,-995.924147,1258.350101
1183.427782,-9696.697840,0.000000,962.267725
1183.428093,-8808.450710,689.485948,1036.288319
1183.428405,-8142.265362,842.705048,592.164754
1183.428716,-7550.100608,1302.362347,666.185348
1183.429028,-7105.977043,1532.190996,592.164754
1183.429339,-7328.038826,1149.143247,-0.000000
1183.429650,-7105.977043,919.314598,-74.020594
1183.429962,-7994.224174,229.828649,-370.102971
1183.430273,-8290.306550,612.876398,-518.144159
1183.430585,-9030.512492,0.000000,-518.144159
1183.430896,-10066.800811,-153.219100,-296.082377
1183.431208,-10362.883188,-383.047749,74.020594
1183.431519,-10214.842000,-689.485948,592.164754
1183.431830,-10214.842000,-995.924147,888.247130
1183.432142,-9474.636058,-995.924147,1184.329507
1183.432453,-9474.636058,-1225.752797,1110.308913
1183.432765,-9030.512492,-842.705048,1258.350101
1183.433076,-8660.409521,-383.047749,1036.288319
1183.433387,-8956.491898,-919.314598,814.226536
1183.433699,-9474.636058,-229.828649,666.185348
1183.434010,-10066.800811,306.438199,-0.000000
1183.434322,-10510.924376,1072.533697,-0.000000
1183.434633,-10362.883188,1685.410096,148.041188
1183.434945,-10658.965565,2145.067394,296.082377
1183.435256,-9104.533087,2451.505594,370.102971
1183.435567,-8216.285956,2145.067394,222.061783
1183.435879,-7550.100608,1455.581446,-0.000000
1183.436190,-7105.977043,995.924147,-0.000000
1183.436502,-7105.977043,766.095498,592.164754
1183.436813,-7550.100608,-229.828649,962.267725
1183.437125,-7698.141797,-1302.362347,962.267725
1183.437436,-8290.306550,-1608.800546,814.226536
1183.437747,-8438.347739,-1838.629195,962.267725
1183.438059,-9030.512492,-2528.115143,518.144159
1183.438370,-9178.553681,-1685.410096,740.205942
1183.438682,-9844.739029,-1378.971896,296.082377
1183.438993,-9474.636058,-536.266849,1480.411884
1183.439304,-9030.512492,-536.266849,1332.370696
1183.439616,-9104.533087,153.219100,1036.288319
1183.439927,-8586.388927,1072.533697,666.185348
1183.440239,-8068.244768,1302.362347,-0.000000
1183.440550,-7772.162391,1532.190996,1036.288319
1183.440862,-7846.182985,1072.533697,444.123565
1183.441173,-7328.038826,1072.533697,148.041188
1183.441484,-7772.162391,459.657299,-222.061783
1183.441796,-8216.285956,689.485948,-444.123565
1183.442107,-8586.388927,842.705048,-740.205942
1183.442419,-8956.491898,842.705048,-444.123565
1183.442730,-9844.739029,536.266849,-0.000000
1183.443041,-10510.924376,0.000000,592.164754
1183.443353,-10658.965565,-153.219100,962.267725
1183.443664,-9770.718434,229.828649,888.247130
1183.443976,-9178.553681,-383.047749,888.247130
1183.444287,-8660.409521,-919.314598,814.226536
1183.444599,-8808.450710,-1072.533697,592.164754
1183.444910,-8512.368333,-1149.143247,1036.288319
1183.445221,-9474.636058,-995.924147,592.164754
1183.445533,-10288.862594,-306.438199,666.185348
1183.445844,-10658.965565,0.000000,444.123565
1183.446156,-10584.944971,0.000000,-0.000000
1183.446467,-10140.821405,536.266849,370.102971
1183.446778,-9622.677246,1302.362347,592.164754
1183.447090,-9178.553681,1608.800546,-0.000000
1183.447401,-8586.388927,1149.143247,-296.082377
1183.447713,-7772.162391,1225.752797,-0.000000
1183.448024,-7402.059420,1685.410096,-0.000000
1183.448336,-7920.203579,612.876398,148.041188
1183.448647,-8068.244768,76.609550,814.226536
1183.448958,-8364.327145,-1378.971896,814.226536
1183.449270,-8142.265362,-1915.238745,962.267725
1183.449581,-8438.347739,-1532.190996,444.123565
1183.449893,-8734.430116,-1838.629195,518.144159
1183.450204,-8882.471304,-1915.238745,296.082377
1183.450515,-9844.739029,-1072.533697,370.102971
1183.450827,-9844.739029,-689.485948,740.205942
1183.451138,-9622.677246,-306.438199,1258.350101
1183.451450,-9548.656652,229.828649,1184.329507
1183.451761,-9030.512492,306.438199,1406.391290
1183.452073,-8068.244768,459.657299,1110.308913
1183.452384,-6735.874072,459.657299,1184.329507
1183.452695,-7550.100608,459.657299,-0.000000
1183.453007,-7402.059420,1302.362347,-148.041188
1183.453318,-7772.162391,536.266849,-592.164754
1183.453630,-8364.327145,0.000000,-592.164754
1183.453941,-8734.430116,0.000000,-444.123565
1183.454252,-9474.636058,0.000000,-444.123565
1183.454564,-9622.677246,-459.657299,-0.000000
1183.454875,-10140.821405,-995.924147,296.082377
1183.455187,-9918.759623,-1302.362347,740.205942
1183.455498,-9696.697840,-766.095498,1258.350101
1183.455810,-9548.656652,-995.924147,888.247130
1183.456121,-9178.553681,-995.924147,1036.288319
1183.456432,-8660.409521,-1072.533697,1110.308913
1183.456744,-8956.491898,-689.485948,962.267725
1183.457055,-9696.697840,-1072.533697,518.144159
1183.457367,-9400.615463,0.000000,444.123565
1183.457678,-9770.718434,383.047749,-0.000000
1183.457990,-9918.759623,689.485948,74.020594
1183.458301,-10436.903782,1149.143247,-0.000000
1183.458612,-10362.883188,1685.410096,-0.000000
1183.458924,-9474.636058,1991.848295,148.041188
1183.459235,-8956.491898,1762.019645,518.144159
1183.459547,-8068.244768,1072.533697,592.164754
1183.459858,-7105.977043,842.705048,444.123565
1183.460169,-7328.038826,612.876398,-0.000000
1183.460481,-7624.121203,-383.047749,592.164754
1183.460792,-8068.244768,-1302.362347,592.164754
1183.461104,-8586.388927,-1685.410096,740.205942
1183.461415,-8808.450710,-1838.629195,740.205942
1183.461727,-9474.636058,-766.095498,814.226536
1183.462038,-9474.636058,-689.485948,814.226536
1183.462349,-9178.553681,-766.095498,296.082377
1183.462661,-8882.471304,0.000000,888.247130
1183.462972,-8808.450710,-229.828649,1332.370696
1183.463284,-8956.491898,459.657299,1406.391290
1183.463595,-8660.409521,1149.143247,962.267725
1183.463906,-7550.100608,1378.971896,1184.329507
1183.464218,-7698.141797,1225.752797,740.205942
1183.464529,-7698.141797,1149.143247,370.102971
1183.464841,-7105.977043,1072.533697,-370.102971
1183.465152,-7846.182985,919.314598,-666.185348
1183.465464,-8216.285956,536.266849,-148.041188
1183.465775,-8808.450710,76.609550,-222.061783
1183.466086,-9252.574275,-229.828649,-296.082377
1183.466398,-9474.636058,-459.657299,-0.000000
1183.466709,-9918.759623,-459.657299,370.102971
1183.467021,-9844.739029,-536.266849,740.205942
1183.467332,-9696.697840,-1149.143247,962.267725
1183.467643,-9474.636058,-612.876398,1110.308913
1183.467955,-9178.553681,-612.876398,888.247130
1183.468266,-9474.636058,-842.705048,592.164754
1183.468578,-9104.533087,-1072.533697,666.185348
1183.468889,-9474.636058,-689.485948,444.123565
1183.469201,-9548.656652,76.609550,518.144159
1183.469512,-10510.924376,536.266849,-0.000000
1183.469823,-10066.800811,383.047749,148.041188
1183.470135,-9696.697840,1149.143247,-222.061783
1183.470446,-9178.553681,1608.800546,148.041188
1183.470758,-8660.409521,1302.362347,-0.000000
1183.471069,-8364.327145,766.095498,296.082377
1183.471380,-7994.224174,536.266849,814.226536
1183.471692,-7772.162391,766.095498,888.247130
1183.472003,-8142.265362,-1149.143247,1406.391290
1183.472315,-7772.162391,-766.095498,1258.350101
1183.472626,-7920.203579,-1532.190996,370.102971
1183.472938,-8364.327145,-2221.676944,518.144159
1183.473249,-8734.430116,-2298.286494,740.205942
1183.473560,-9326.594869,-2374.896044,888.247130
1183.473872,-9770.718434,-1915.238745,962.267725
1183.474183,-9696.697840,-1915.238745,1110.308913
1183.474495,-9400.615463,-766.095498,1184.329507
1183.474806,-8882.471304,0.000000,1480.411884
1183.475118,-8216.285956,459.657299,1480.411884
1183.475429,-8438.347739,229.828649,1036.288319
1183.475740,-7772.162391,689.485948,1258.350101
1183.476052,-6957.935855,1225.752797,1110.308913
1183.476363,-6883.915261,612.876398,592.164754
1183.476675,-6587.832884,689.485948,148.041188
1183.476986,-7031.956449,383.047749,-444.123565
1183.477297,-7920.203579,229.828649,-444.123565
1183.477609,-8586.388927,229.828649,-296.082377
1183.477920,-9992.780217,-153.219100,-370.102971
1183.478232,-10658.965565,-153.219100,-0.000000
1183.478543,-10288.862594,-229.828649,592.164754
1183.478855,-9844.739029,-383.047749,666.185348
1183.479166,-9548.656652,-612.876398,888.247130
1183.479477,-9474.636058,-919.314598,1702.473667
1183.479789,-9474.636058,-842.705048,1184.329507
1183.480100,-8882.471304,-383.047749,1480.411884
1183.480412,-8734.430116,-612.876398,962.267725
1183.480723,-9030.512492,-536.266849,666.185348
1183.481034,-9400.615463,0.000000,-0.000000
1183.481346,-9548.656652,995.924147,-444.123565
1183.481657,-9770.718434,1915.238745,-222.061783
1183.481969,-10362.883188,2298.286494,-370.102971
1183.482280,-9992.780217,1991.848295,-0.000000
1183.482592,-9474.636058,1608.800546,-0.000000
1183.482903,-9030.512492,1378.971896,666.185348
1183.483214,-8290.306550,842.705048,814.226536
1183.483526,-7920.203579,306.438199,740.205942
1183.483837,-7698.141797,-689.485948,518.144159
1183.484149,-7846.182985,-995.924147,518.144159
1183.484460,-7994.224174,-1762.019645,370.102971
1183.484771,-8586.388927,-1762.019645,370.102971
1183.485083,-9326.594869,-2221.676944,222.061783
1183.485394,-9770.718434,-1685.410096,888.247130
1183.485706,-9844.739029,-1532.190996,888.247130
1183.486017,-9474.636058,-689.485948,1258.350101
1183.486329,-8956.491898,-1378.971896,1332.370696
1183.486640,-8512.368333,0.000000,1184.329507
1183.486951,-8216.285956,842.705048,666.185348
1183.487263,-7846.182985,1302.362347,740.205942
1183.487574,-7772.162391,1532.190996,962.267725
1183.487886,-7550.100608,842.705048,740.205942
1183.488197,-7179.997637,689.485948,148.041188
1183.488508,-7105.977043,383.047749,-592.164754
1183.488820,-7772.162391,306.438199,-592.164754
1183.489131,-8808.450710,-459.657299,-888.247130
1183.489443,-9030.512492,-689.485948,-740.205942
1183.489754,-9918.759623,-995.924147,-148.041188
1183.490066,-10658.965565,-1608.800546,444.123565
1183.490377,-10658.965565,-1149.143247,740.205942
1183.490688,-10214.842000,-1072.533697,1036.288319
1183.491000,-9770.718434,-842.705048,1258.350101
1183.491311,-9104.533087,-1762.019645,1554.432478
1183.491623,-8808.450710,-1838.629195,888.247130
1183.491934,-9030.512492,-995.924147,814.226536
1183.492245,-8808.450710,-612.876398,592.164754
1183.492557,-9178.553681,0.000000,-0.000000
1183.492868,-9844.739029,153.219100,-148.041188
1183.493180,-10436.903782,842.705048,-444.123565
1183.493491,-10658.965565,919.314598,-0.000000
1183.493803,-10732.986159,2221.676944,592.164754
1183.494114,-10288.862594,2298.286494,296.082377
1183.494425,-9474.636058,1915.238745,370.102971
1183.494737,-8364.327145,1455.581446,740.205942
1183.495048,-7105.977043,1378.971896,444.123565
1183.495360,-6735.874072,842.705048,592.164754
1183.495671,-7402.059420,306.438199,740.205942
1183.495983,-7846.182985,-995.924147,740.205942
1183.496294,-8438.347739,-1072.533697,370.102971
1183.496605,-8364.327145,-1302.362347,592.164754
1183.496917,-8956.491898,-1762.019645,518.144159
1183.497228,-9696.697840,-1838.629195,222.061783
1183.497540,-9770.718434,-1762.019645,962.267725
1183.497851,-9474.636058,-1378.971896,1406.391290
1183.498162,-9474.636058,-229.828649,1628.453072
1183.498474,-8808.450710,153.219100,1998.556043
1183.498785,-9104.533087,766.095498,962.267725
1183.499097,-7624.121203,919.314598,1332.370696
1183.499408,-7031.956449,1225.752797,1036.288319
1183.499720,-6735.874072,1302.362347,296.082377
1183.500031,-6809.894666,919.314598,-148.041188
1183.500342,-7105.977043,229.828649,-296.082377
1183.500654,-7550.100608,-153.219100,-370.102971
1183.500965,-8586.388927,0.000000,-370.102971
1183.501277,-9696.697840,306.438199,-518.144159
1183.501588,-10807.006753,-459.657299,-74.020594
1183.501899,-10881.027347,-536.266849,740.205942
1183.502211,-10732.986159,-842.705048,962.267725
1183.502522,-9918.759623,-306.438199,1110.308913
1183.502834,-8956.491898,-459.657299,962.267725
1183.503145,-8734.430116,-229.828649,666.185348
1183.503457,-8586.388927,-1072.533697,740.205942
1183.503768,-8808.450710,76.609550,518.144159
1183.504079,-9474.636058,-612.876398,740.205942
1183.504391,-9770.718434,76.609550,148.041188
1183.504702,-9918.759623,842.705048,-0.000000
1183.505014,-10288.862594,842.705048,-222.061783
1183.505325,-10214.842000,1225.752797,-0.000000
1183.505636,-10436.903782,1455.581446,-0.000000
1183.505948,-9474.636058,1762.019645,666.185348
1183.506259,-9030.512492,1225.752797,444.123565
1183.506571,-8142.265362,842.705048,888.247130
1183.506882,-7328.038826,612.876398,666.185348
1183.507194,-7698.141797,0.000000,296.082377
1183.507505,-7328.038826,-536.266849,296.082377
1183.507816,-7846.182985,-842.705048,-74.020594
1183.508128,-8438.347739,-1762.019645,-0.000000
1183.508439,-8882.471304,-2451.505594,592.164754
1183.508751,-9400.615463,-2451.505594,740.205942
1183.509062,-9696.697840,-1532.190996,592.164754
1183.509373,-9622.677246,-1149.143247,1036.288319
1183.509685,-9400.615463,-689.485948,1406.391290
1183.509996,-9030.512492,-153.219100,1406.391290
1183.510308,-8882.471304,842.705048,1628.453072
1183.510619,-8364.327145,995.924147,814.226536
1183.510931,-7105.977043,2221.676944,740.205942
1183.511242,-7179.997637,1608.800546,-0.000000
1183.511553,-7402.059420,1225.752797,-0.000000
1183.511865,-7328.038826,919.314598,-370.102971
1183.512176,-7772.162391,612.876398,-370.102971
1183.512488,-7920.203579,612.876398,-444.123565
1183.512799,-8956.491898,0.000000,-592.164754
1183.513111,-9474.636058,229.828649,-518.144159
1183.513422,-10066.800811,-1302.362347,-0.000000
1183.513733,-9992.780217,-383.047749,666.185348
1183.514045,-9992.780217,-919.314598,1110.308913
1183.514356,-9622.677246,-536.266849,1480.411884
1183.514668,-8808.450710,-842.705048,814.226536
1183.514979,-8364.327145,-1225.752797,962.267725
1183.515290,-8660.409521,-766.095498,962.267725
1183.515602,-9326.594869,-766.095498,592.164754
1183.515913,-9030.512492,-612.876398,370.102971
1183.516225,-10066.800811,-612.876398,592.164754
1183.516536,-10288.862594,-153.219100,444.123565
1183.516848,-10510.924376,459.657299,444.123565
1183.517159,-10510.924376,919.314598,296.082377
1183.517470,-10362.883188,1991.848295,-0.000000
1183.517782,-9474.636058,2221.676944,222.061783
1183.518093,-8808.450710,1685.410096,592.164754
1183.518405,-8142.265362,1225.752797,592.164754
1183.518716,-7254.018232,995.924147,518.144159
1183.519027,-7254.018232,1149.143247,296.082377
1183.519339,-7476.080014,76.609550,444.123565
1183.519651,-7994.224174,-1072.533697,-0.000000
1183.519962,-8142.265362,-2221.676944,148.041188
1183.520274,-8364.327145,-1685.410096,370.102971
1183.520585,-9326.594869,-2451.505594,740.205942
1183.520897,-10214.842000,-2451.505594,592.164754
1183.521208,-9992.780217,-1762.019645,1258.350101
1183.521520,-9696.697840,-1302.362347,1406.391290
1183.521831,-9474.636058,-306.438199,1184.329507
1183.522143,-9326.594869,612.876398,1110.308913
1183.522454,-8290.306550,995.924147,814.226536
1183.522766,-7846.182985,459.657299,1036.288319
1183.523077,-7476.080014,612.876398,888.247130
1183.523389,-7105.977043,1455.581446,222.061783
1183.523700,-7328.038826,766.095498,-74.020594
1183.524012,-7772.162391,76.609550,-518.144159
1183.524324,-7994.224174,459.657299,-518.144159
1183.524635,-8660.409521,-153.219100,-666.185348
1183.524947,-9474.636058,-383.047749,-148.041188
1183.525258,-9770.718434,-612.876398,296.082377
1183.525570,-10288.862594,-689.485948,666.185348
1183.525881,-9918.759623,-153.219100,1036.288319
1183.526193,-9326.594869,-612.876398,1184.329507
1183.526504,-9178.553681,-919.314598,1184.329507
1183.526816,-8734.430116,-919.314598,1110.308913
1183.527127,-8290.306550,-919.314598,1036.288319
1183.527439,-8216.285956,-536.266849,740.205942
1183.527750,-9400.615463,-459.657299,592.164754
1183.528062,-9622.677246,0.000000,370.102971
1183.528373,-11029.068536,306.438199,-222.061783
1183.528685,-10510.924376,842.705048,518.144159
1183.528997,-10362.883188,1072.533697,296.082377
1183.529308,-10066.800811,1532.190996,-0.000000
1183.529620,-9178.553681,2068.457845,444.123565
1183.529931,-8364.327145,1838.629195,222.061783
1183.530243,-7179.997637,1762.019645,592.164754
1183.530554,-7328.038826,459.657299,666.185348
1183.530866,-6957.935855,229.828649,592.164754
1183.531177,-7328.038826,-919.314598,592.164754
1183.531489,-7994.224174,-1685.410096,370.102971
1183.531800,-8512.368333,-1762.019645,592.164754
1183.532112,-9400.615463,-2221.676944,814.226536
1183.532423,-9992.780217,-2068.457845,962.267725
1183.532735,-10288.862594,-2145.067394,1258.350101
1183.533046,-9992.780217,-1072.533697,1258.350101
1183.533358,-9474.636058,-689.485948,1480.411884
1183.533670,-8956.491898,-459.657299,1332.370696
1183.533981,-9104.533087,459.657299,1110.308913
1183.534293,-8216.285956,1225.752797,1110.308913
1183.534604,-7772.162391,1455.581446,1036.288319
1183.534916,-7179.997637,1532.190996,518.144159
1183.535227,-7179.997637,1225.752797,-0.000000
1183.535539,-7254.018232,1225.752797,-592.164754
1183.535850,-7550.100608,536.266849,-592.164754
1183.536162,-8142.265362,612.876398,-444.123565
1183.536473,-9104.533087,0.000000,-222.061783
1183.536785,-9696.697840,0.000000,-0.000000
1183.537096,-9474.636058,-536.266849,592.164754
1183.537408,-9548.656652,-459.657299,222.061783
1183.537720,-9252.574275,-536.266849,1110.308913
1183.538031,-9326.594869,-306.438199,518.144159
1183.538343,-8586.388927,-1225.752797,740.205942
1183.538654,-8882.471304,-1991.848295,1110.308913
1183.538966,-8882.471304,-1762.019645,1258.350101
1183.539277,-9030.512492,-1608.800546,888.247130
1183.539589,-9770.718434,-842.705048,518.144159
1183.539900,-10584.944971,-689.485948,-0.000000
1183.540212,-10658.965565,0.000000,-0.000000
1183.540523,-10436.903782,689.485948,-0.000000
1183.540835,-9918.759623,1378.971896,222.061783
1183.541146,-8882.471304,1762.019645,148.041188
1183.541458,-8586.388927,1532.190996,-148.041188
1183.541769,-8142.265362,1838.629195,-0.000000
1183.542081,-7698.141797,1455.581446,-0.000000
1183.542393,-8660.409521,612.876398,222.061783
1183.542704,-7772.162391,459.657299,814.226536
1183.543016,-8068.244768,-689.485948,296.082377
1183.543327,-8290.306550,-1762.019645,444.123565
1183.543639,-8956.491898,-2298.286494,666.185348
1183.543950,-9030.512492,-1991.848295,666.185348
1183.544262,-9844.739029,-1608.800546,518.144159
1183.544573,-10288.862594,-1991.848295,888.247130
1183.544885,-9918.759623,-842.705048,666.185348
1183.545196,-9696.697840,-459.657299,1406.391290
1183.545508,-9400.615463,306.438199,888.247130
1183.545819,-8808.450710,995.924147,814.226536
1183.546131,-8216.285956,919.314598,592.164754
1183.546442,-7476.080014,1149.143247,1184.329507
1183.546754,-7105.977043,612.876398,444.123565
1183.547066,-7105.977043,612.876398,444.123565
1183.547377,-7328.038826,229.828649,-148.041188
1183.547689,-7476.080014,306.438199,-592.164754
1183.548000,-7846.182985,0.000000,-370.102971
1183.548312,-8956.491898,-229.828649,-370.102971
1183.548623,-9992.780217,-459.657299,-0.000000
1183.548935,-9992.780217,-689.485948,518.144159
1183.549246,-9474.636058,-995.924147,1110.308913
1183.549558,-9400.615463,-612.876398,1036.288319
1183.549869,-9326.594869,-306.438199,1184.329507
1183.550181,-8882.471304,-1225.752797,1406.391290
1183.550492,-8586.388927,-1378.971896,1554.432478
1183.550804,-8734.430116,-1072.533697,1406.391290
1183.551115,-9326.594869,-995.924147,1184.329507
1183.551427,-9474.636058,-612.876398,888.247130
1183.551739,-9474.636058,306.438199,74.020594
1183.552050,-9770.718434,-306.438199,148.041188
1183.552362,-9918.759623,1225.752797,-0.000000
1183.552673,-10066.800811,1915.238745,296.082377
1183.552985,-9474.636058,1991.848295,-0.000000
1183.553296,-8808.450710,2221.676944,592.164754
1183.553608,-7994.224174,1838.629195,666.185348
1183.553919,-7550.100608,1302.362347,74.020594
1183.554231,-7328.038826,76.609550,296.082377
1183.554542,-7105.977043,-536.266849,296.082377
1183.554854,-7846.182985,-1072.533697,444.123565
1183.555165,-9030.512492,-1378.971896,444.123565
1183.555477,-9474.636058,-1915.238745,666.185348
1183.555789,-9770.718434,-2145.067394,666.185348
1183.556100,-9696.697840,-1762.019645,518.144159
1183.556412,-9474.636058,-1378.971896,592.164754
1183.556723,-9696.697840,-612.876398,814.226536
1183.557035,-9400.615463,-306.438199,1406.391290
1183.557346,-9030.512492,0.000000,1332.370696
1183.557658,-8290.306550,1608.800546,1036.288319
1183.557969,-7698.141797,1762.019645,1110.308913
1183.558281,-7476.080014,1455.581446,888.247130
1183.558592,-7698.141797,1225.752797,296.082377
1183.558904,-7105.977043,689.485948,-296.082377
1183.559215,-7846.182985,1149.143247,-814.226536
1183.559527,-8290.306550,1072.533697,-888.247130
1183.559838,-8956.491898,612.876398,-370.102971
1183.560150,-9696.697840,76.609550,-740.205942
1183.560462,-9400.615463,-383.047749,-0.000000
1183.560773,-9696.697840,-842.705048,740.205942
1183.561085,-9696.697840,-1072.533697,1184.329507
1183.561396,-9622.677246,0.000000,1184.329507
1183.561708,-8586.388927,-842.705048,1184.329507
1183.562019,-8290.306550,-1072.533697,1554.432478
1183.562331,-8808.450710,-995.924147,740.205942
1183.562642,-9030.512492,-919.314598,888.247130
1183.562954,-9326.594869,-536.266849,444.123565
1183.563265,-9622.677246,0.000000,518.144159
1183.563577,-9770.718434,76.609550,296.082377
1183.563888,-9992.780217,689.485948,-0.000000
1183.564200,-9992.780217,919.314598,370.102971
1183.564511,-9622.677246,1608.800546,222.061783
1183.564823,-9548.656652,1915.238745,222.061783
1183.565135,-8882.471304,1838.629195,-0.000000
1183.565446,-7846.182985,1685.410096,444.123565
1183.565758,-7254.018232,689.485948,518.144159
1183.566069,-7105.977043,76.609550,296.082377
1183.566381,-6883.915261,-383.047749,444.123565
1183.566692,-8438.347739,-1532.190996,-0.000000
1183.567004,-8660.409521,-2068.457845,814.226536
1183.567315,-9030.512492,-2145.067394,1036.288319
1183.567627,-9178.553681,-1915.238745,814.226536
1183.567938,-9622.677246,-1991.848295,444.123565
1183.568250,-9696.697840,-1915.238745,962.267725
1183.568561,-9474.636058,-229.828649,1184.329507
1183.568873,-9548.656652,-766.095498,1184.329507
1183.569184,-9326.594869,153.219100,1702.473667
1183.569496,-9178.553681,153.219100,1184.329507
1183.569808,-8364.327145,689.485948,1258.350101
1183.570119,-7254.018232,842.705048,814.226536
1183.570431,-7328.038826,995.924147,-0.000000
1183.570742,-7328.038826,1378.971896,-370.102971
1183.571054,-7698.141797,383.047749,-814.226536
1183.571365,-8216.285956,229.828649,-666.185348
1183.571677,-8216.285956,536.266849,-518.144159
1183.571988,-9178.553681,76.609550,-370.102971
1183.572300,-9918.759623,-306.438199,-0.000000
1183.572611,-9918.759623,-229.828649,370.102971
1183.572923,-10066.800811,-689.485948,888.247130
1183.573234,-9252.574275,-1149.143247,1258.350101
1183.573546,-9992.780217,-1225.752797,1036.288319
1183.573857,-9178.553681,-1302.362347,1036.288319
1183.574169,-8808.450710,-766.095498,962.267725
1183.574481,-8956.491898,-1532.190996,740.205942
1183.574792,-9474.636058,-1225.752797,740.205942
1183.575104,-9918.759623,-689.485948,592.164754
1183.575415,-10214.842000,229.828649,-0.000000
1183.575727,-10066.800811,689.485948,-0.000000
1183.576038,-10140.821405,1762.019645,-0.000000
1183.576350,-9696.697840,1838.629195,-296.082377
1183.576661,-8660.409521,1838.629195,370.102971
1183.576973,-8364.327145,1378.971896,666.185348
1183.577284,-7846.182985,1225.752797,740.205942
1183.577596,-7476.080014,995.924147,666.185348
1183.577907,-7476.080014,0.000000,592.164754
1183.578219,-7105.977043,-383.047749,592.164754
1183.578531,-7920.203579,-766.095498,222.061783
1183.578842,-8660.409521,-1378.971896,518.144159
1183.579154,-9178.553681,-1915.238745,296.082377
1183.579465,-9918.759623,-1685.410096,814.226536
1183.579777,-9696.697840,-1225.752797,888.247130
1183.580088,-9622.677246,-689.485948,1184.329507
1183.580400,-9252.574275,-612.876398,1554.432478
1183.580711,-9400.615463,-229.828649,1258.350101
1183.581023,-9030.512492,-383.047749,1036.288319
1183.581334,-7846.182985,1302.362347,1332.370696
1183.581646,-7920.203579,1685.410096,1036.288319
1183.581957,-7994.224174,1149.143247,740.205942
1183.582269,-7476.080014,919.314598,444.123565
1183.582580,-7402.059420,842.705048,-444.123565
1183.582892,-7846.182985,766.095498,-222.061783
1183.583204,-8438.347739,995.924147,-592.164754
1183.583515,-8882.471304,459.657299,-444.123565
1183.583827,-9548.656652,-536.266849,-222.061783
1183.584138,-9474.636058,-1378.971896,444.123565
1183.584450,-9992.780217,-766.095498,666.185348
1183.584761,-9992.780217,-766.095498,666.185348
1183.585073,-9770.718434,-536.266849,888.247130
1183.585384,-9030.512492,-689.485948,740.205942
1183.585696,-9104.533087,-1225.752797,962.267725
1183.586007,-9104.533087,-1225.752797,1036.288319
1183.586319,-8808.450710,-689.485948,814.226536
1183.586630,-9326.594869,-229.828649,-0.000000
1183.586942,-9844.739029,0.000000,-0.000000
1183.587253,-10214.842000,76.609550,-74.020594
1183.587565,-10436.903782,689.485948,-0.000000
1183.587877,-9992.780217,842.705048,-0.000000
1183.588188,-9622.677246,1915.238745,296.082377
1183.588500,-9178.553681,1302.362347,370.102971
1183.588811,-8586.388927,1378.971896,370.102971
1183.589123,-8290.306550,842.705048,666.185348
1183.589434,-7772.162391,306.438199,740.205942
1183.589746,-7179.997637,306.438199,444.123565
1183.590057,-7328.038826,-153.219100,222.061783
1183.590369,-7402.059420,-1378.971896,-0.000000
1183.590680,-8216.285956,-1762.019645,-0.000000
1183.590992,-8808.450710,-1225.752797,296.082377
1183.591303,-9548.656652,-2068.457845,814.226536
1183.591615,-10214.842000,-2451.505594,1036.288319
1183.591926,-10436.903782,-1915.238745,1110.308913
1183.592238,-9992.780217,-842.705048,1332.370696
1183.592550,-9548.656652,0.000000,1332.370696
1183.592861,-8808.450710,76.609550,1554.432478
1183.593173,-8216.285956,612.876398,1332.370696
1183.593484,-7402.059420,1225.752797,666.185348
1183.593796,-7105.977043,919.314598,592.164754
1183.594107,-7254.018232,1225.752797,-0.000000
1183.594419,-7179.997637,1072.533697,-296.082377
1183.594730,-8068.244768,383.047749,-666.185348
1183.595042,-8438.347739,306.438199,-444.123565
1183.595353,-9252.574275,0.000000,-592.164754
1183.595665,-10066.800811,383.047749,148.041188
1183.595976,-9918.759623,-536.266849,518.144159
1183.596288,-10584.944971,-995.924147,666.185348
1183.596600,-9548.656652,-536.266849,1110.308913
1183.596911,-8586.388927,-383.047749,1036.288319
1183.597223,-9030.512492,-919.314598,962.267725
1183.597534,-8068.244768,-842.705048,1480.411884
1183.597846,-8290.306550,-766.095498,1258.350101
1183.598157,-8660.409521,-536.266849,592.164754
1183.598469,-8882.471304,-612.876398,1036.288319
1183.598780,-9918.759623,-306.438199,148.041188
1183.599092,-10362.883188,306.438199,296.082377
1183.599403,-10436.903782,536.266849,370.102971
1183.599715,-10732.986159,536.266849,444.123565
1183.600026,-9918.759623,1302.362347,888.247130
1183.600338,-9178.553681,919.314598,592.164754
1183.600649,-8364.327145,1302.362347,740.205942
1183.600961,-8216.285956,536.266849,444.123565
1183.601273,-7328.038826,766.095498,370.102971
1183.601584,-6957.935855,229.828649,222.061783
1183.601896,-7105.977043,-459.657299,-0.000000
1183.602207,-7994.224174,-766.095498,148.041188
1183.602519,-8734.430116,-842.705048,-74.020594
1183.602830,-9252.574275,-995.924147,-0.000000
1183.603142,-9918.759623,-995.924147,444.123565
1183.603453,-10214.842000,-766.095498,740.205942
1183.603765,-9770.718434,-766.095498,1554.432478
1183.604076,-9252.574275,-689.485948,1776.494261
1183.604388,-8512.368333,0.000000,1702.473667
1183.604699,-7846.182985,612.876398,1332.370696
1183.605011,-7698.141797,1915.238745,1110.308913
1183.605322,-7476.080014,1149.143247,592.164754
1183.605634,-8364.327145,306.438199,370.102971
1183.605946,-7994.224174,459.657299,-0.000000
1183.606257,-8142.265362,612.876398,-296.082377
1183.606569,-8660.409521,153.219100,-296.082377
1183.606880,-9104.533087,0.000000,-74.020594
1183.607192,-9400.615463,-459.657299,-148.041188
1183.607503,-9252.574275,-383.047749,370.102971
1183.607815,-9400.615463,-153.219100,962.267725
1183.608126,-9030.512492,-459.657299,592.164754
1183.608438,-8956.491898,-229.828649,740.205942
1183.608749,-8216.285956,-76.609550,666.185348
1183.609061,-7920.203579,-842.705048,592.164754
1183.609372,-8882.471304,-1225.752797,518.144159
1183.609684,-9326.594869,-459.657299,518.144159
1183.609995,-9474.636058,-995.924147,592.164754
1183.610307,-10288.862594,-1532.190996,370.102971
1183.610619,-10510.924376,-689.485948,518.144159
1183.610930,-11029.068536,-229.828649,-0.000000
1183.611242,-10214.842000,383.047749,592.164754
1183.611553,-10288.862594,689.485948,814.226536
1183.611865,-9474.636058,1225.752797,1184.329507
1183.612176,-8290.306550,1225.752797,814.226536
1183.612488,-7994.224174,1302.362347,370.102971
1183.612799,-7031.956449,1838.629195,592.164754
1183.613111,-7328.038826,689.485948,-296.082377
1183.613422,-7402.059420,459.657299,-296.082377
1183.613734,-7772.162391,-612.876398,-0.000000
1183.614045,-8660.409521,-1225.752797,-0.000000
1183.614357,-9178.553681,-1378.971896,518.144159
1183.614669,-9252.574275,-1762.019645,740.205942
1183.614980,-9622.677246,-1378.971896,888.247130
1183.615292,-9474.636058,-1149.143247,1258.350101
1183.615603,-9474.636058,-766.095498,962.267725
1183.615915,-9178.553681,-153.219100,1258.350101
1183.616226,-9030.512492,459.657299,1554.432478
1183.616538,-8734.430116,689.485948,1184.329507
1183.616849,-8216.285956,1149.143247,814.226536
1183.617161,-7772.162391,1149.143247,814.226536
1183.617472,-8734.430116,919.314598,-444.123565
1183.617784,-7772.162391,689.485948,-370.102971
1183.618095,-7994.224174,842.705048,-444.123565
1183.618407,-8068.244768,306.438199,-444.123565
1183.618718,-8512.368333,0.000000,-444.123565
1183.619030,-9252.574275,229.828649,-148.041188
1183.619342,-9918.759623,689.485948,444.123565
1183.619653,-9696.697840,-153.219100,740.205942
1183.619965,-9474.636058,0.000000,666.185348
1183.620276,-8364.327145,-383.047749,962.267725
1183.620588,-7994.224174,-919.314598,888.247130
1183.620899,-8512.368333,-689.485948,814.226536
1183.621211,-8438.347739,-536.266849,740.205942
1183.621522,-8734.430116,-995.924147,370.102971
1183.621834,-9474.636058,-995.924147,888.247130
1183.622145,-9770.718434,-1072.533697,814.226536
1183.622457,-10658.965565,153.219100,-0.000000
1183.622769,-10584.944971,995.924147,592.164754
1183.623080,-10066.800811,919.314598,814.226536
1183.623392,-9992.780217,1532.190996,666.185348
1183.623703,-9030.512492,1991.848295,666.185348
1183.624015,-8660.409521,1838.629195,444.123565
1183.624326,-7550.100608,766.095498,592.164754
1183.624638,-7179.997637,1378.971896,370.102971
1183.624950,-7846.182985,153.219100,-0.000000
1183.625261,-7402.059420,-383.047749,296.082377
1183.625573,-8438.347739,-1302.362347,-74.020594
1183.625884,-8808.450710,-1608.800546,814.226536
1183.626196,-9474.636058,-1915.238745,592.164754
1183.626507,-10066.800811,-1532.190996,1036.288319
1183.626819,-9770.718434,-919.314598,888.247130
1183.627131,-9474.636058,-919.314598,1110.308913
1183.627442,-8808.450710,-459.657299,1554.432478
1183.627754,-9030.512492,0.000000,1110.308913
1183.628065,-9030.512492,229.828649,1110.308913
1183.628377,-8512.368333,766.095498,1036.288319
1183.628689,-7920.203579,995.924147,962.267725
1183.629000,-7698.141797,536.266849,666.185348
1183.629312,-8586.388927,153.219100,-0.000000
1183.629623,-8216.285956,612.876398,-444.123565
1183.629935,-8142.265362,306.438199,-962.267725
1183.630246,-8142.265362,689.485948,-222.061783
1183.630558,-8660.409521,153.219100,-296.082377
1183.630870,-8882.471304,-153.219100,-74.020594
1183.631181,-8882.471304,-229.828649,222.061783
1183.631493,-9474.636058,-306.438199,-0.000000
1183.631804,-9252.574275,-306.438199,962.267725
1183.632116,-9178.553681,0.000000,1184.329507
1183.632427,-8364.327145,-995.924147,814.226536
1183.632739,-8438.347739,-1532.190996,814.226536
1183.633051,-8512.368333,-1378.971896,518.144159
1183.633362,-9030.512492,-766.095498,148.041188
1183.633674,-10066.800811,-536.266849,296.082377
1183.633985,-10288.862594,-306.438199,814.226536
1183.634297,-10658.965565,0.000000,222.061783
1183.634609,-10658.965565,1225.752797,222.061783
1183.634920,-10066.800811,1149.143247,74.020594
1183.635232,-9474.636058,1991.848295,148.041188
1183.635543,-8660.409521,1762.019645,-0.000000
1183.635855,-8512.368333,1149.143247,148.041188
1183.636166,-8216.285956,919.314598,740.205942
1183.636478,-7624.121203,689.485948,666.185348
1183.636790,-7105.977043,612.876398,444.123565
1183.637101,-7846.182985,-689.485948,518.144159
1183.637413,-8364.327145,-1455.581446,518.144159
1183.637724,-8882.471304,-1685.410096,814.226536
1183.638036,-8882.471304,-1455.581446,518.144159
1183.638348,-9474.636058,-1378.971896,740.205942
1183.638659,-9474.636058,-1302.362347,888.247130
1183.638971,-10066.800811,-1149.143247,740.205942
1183.639282,-9178.553681,0.000000,962.267725
1183.639594,-8956.491898,0.000000,1258.350101
1183.639905,-9400.615463,-306.438199,1406.391290
1183.640217,-8660.409521,76.609550,1332.370696
1183.640529,-7698.141797,536.266849,1258.350101
1183.640840,-7402.059420,689.485948,1258.350101
1183.641152,-7179.997637,459.657299,592.164754
1183.641463,-7254.018232,0.000000,-0.000000
1183.641775,-8068.244768,383.047749,-222.061783
1183.642086,-7846.182985,536.266849,-444.123565
1183.642398,-8660.409521,536.266849,-370.102971
1183.642710,-9696.697840,612.876398,-222.061783
1183.643021,-9400.615463,153.219100,444.123565
1183.643333,-9178.553681,-612.876398,592.164754
1183.643644,-9548.656652,-459.657299,666.185348
1183.643956,-8882.471304,-612.876398,1036.288319
1183.644268,-9252.574275,-536.266849,666.185348
1183.644579,-9622.677246,-1149.143247,1110.308913
1183.644891,-8364.327145,-766.095498,1110.308913
1183.645202,-8882.471304,-1302.362347,592.164754
1183.645514,-9770.718434,-689.485948,814.226536
1183.645825,-10140.821405,0.000000,518.144159
1183.646137,-10510.924376,0.000000,-296.082377
1183.646449,-10214.842000,1072.533697,444.123565
1183.646760,-9696.697840,842.705048,444.123565
1183.647072,-9252.574275,1225.752797,296.082377
1183.647383,-8512.368333,1378.971896,222.061783
1183.647695,-7772.162391,1762.019645,370.102971
1183.648006,-7550.100608,1225.752797,444.123565
1183.648318,-7994.224174,842.705048,148.041188
1183.648630,-8364.327145,536.266849,888.247130
1183.648941,-8512.368333,-383.047749,148.041188
1183.649253,-8734.430116,0.000000,-0.000000
1183.649564,-8586.388927,-766.095498,148.041188
1183.649876,-9178.553681,-1455.581446,-0.000000
1183.650188,-9474.636058,-1685.410096,518.144159
1183.650499,-9474.636058,-1378.971896,740.205942
1183.650811,-9474.636058,-689.485948,666.185348
1183.651122,-9326.594869,-383.047749,1332.370696
1183.651434,-8586.388927,-306.438199,1776.494261
1183.651745,-8586.388927,459.657299,1036.288319
1183.652057,-8438.347739,0.000000,1036.288319
1183.652369,-8068.244768,153.219100,888.247130
1183.652680,-8216.285956,459.657299,444.123565
1183.652992,-8142.265362,383.047749,-0.000000
1183.653303,-7994.224174,536.266849,-0.000000
1183.653615,-8142.265362,0.000000,-592.164754
1183.653926,-8734.430116,306.438199,-148.041188
1183.654238,-9178.553681,0.000000,-0.000000
1183.654550,-9178.553681,0.000000,296.082377
1183.654861,-9326.594869,-383.047749,888.247130
1183.655173,-9326.594869,-689.485948,740.205942
1183.655484,-9178.553681,-689.485948,888.247130
1183.655796,-9178.553681,-612.876398,740.205942
1183.656108,-8734.430116,-766.095498,1258.350101
1183.656419,-9252.574275,-689.485948,518.144159
1183.656731,-9622.677246,-995.924147,962.267725
1183.657042,-9770.718434,-1072.533697,1036.288319
1183.657354,-9770.718434,-689.485948,740.205942
1183.657665,-9770.718434,-306.438199,592.164754
1183.657977,-10362.883188,459.657299,222.061783
1183.658289,-9844.739029,1149.143247,296.082377
1183.658600,-9770.718434,1762.019645,592.164754
1183.658912,-8956.491898,1378.971896,370.102971
1183.659223,-8808.450710,1608.800546,-0.000000
1183.659535,-8364.327145,1302.362347,518.144159
1183.659846,-7624.121203,1149.143247,296.082377
1183.660158,-7402.059420,842.705048,222.061783
1183.660470,-7105.977043,229.828649,222.061783
1183.660781,-8068.244768,-689.485948,-0.000000
1183.661093,-8068.244768,-1072.533697,148.041188
1183.661404,-7624.121203,-1915.238745,740.205942
1183.661716,-8660.409521,-1378.971896,592.164754
1183.662028,-8956.491898,-1608.800546,592.164754
1183.662339,-9548.656652,-1838.629195,666.185348
1183.662651,-9992.780217,-1455.581446,1110.308913
1183.662962,-9696.697840,-995.924147,1110.308913
1183.663274,-10066.800811,0.000000,1702.473667
1183.663585,-9474.636058,-459.657299,1036.288319
1183.663897,-8512.368333,383.047749,518.144159
1183.664209,-7920.203579,612.876398,444.123565
1183.664520,-7698.141797,766.095498,222.061783
1183.664832,-7624.121203,1149.143247,-148.041188
1183.665143,-7846.182985,995.924147,-222.061783
1183.665455,-8068.244768,766.095498,-370.102971
1183.665766,-8142.265362,459.657299,-444.123565
1183.666078,-8882.471304,459.657299,-592.164754
1183.666390,-9770.718434,229.828649,-74.020594
1183.666701,-9844.739029,0.000000,296.082377
1183.667013,-9770.718434,-306.438199,666.185348
1183.667324,-9770.718434,-383.047749,962.267725
1183.667636,-9400.615463,-1149.143247,1036.288319
1183.667948,-8808.450710,-1685.410096,1036.288319
1183.668259,-8660.409521,-1149.143247,666.185348
1183.668571,-8512.368333,-995.924147,962.267725
1183.668882,-9622.677246,-1225.752797,888.247130
1183.669194,-9992.780217,-842.705048,740.205942
1183.669505,-10140.821405,0.000000,370.102971
1183.669817,-9548.656652,383.047749,-0.000000
1183.670129,-9770.718434,1149.143247,-148.041188
1183.670440,-9474.636058,1149.143247,666.185348
1183.670752,-9030.512492,1685.410096,666.185348
1183.671063,-8660.409521,995.924147,1258.350101
1183.671375,-7994.224174,919.314598,962.267725
1183.671687,-7254.018232,919.314598,740.205942
1183.671998,-7402.059420,766.095498,222.061783
1183.672310,-7254.018232,153.219100,-0.000000
1183.672621,-7105.977043,-383.047749,296.082377
1183.672933,-7698.141797,-689.485948,148.041188
1183.673244,-9030.512492,-842.705048,-0.000000
1183.673556,-9474.636058,-995.924147,222.061783
1183.673868,-9696.697840,-995.924147,962.267725
1183.674179,-9770.718434,-995.924147,1184.329507
1183.674491,-9474.636058,-1149.143247,1480.411884
1183.674802,-9474.636058,-842.705048,1628.453072
1183.675114,-8956.491898,229.828649,1776.494261
1183.675425,-8586.388927,842.705048,814.226536
1183.675737,-7994.224174,306.438199,1332.370696
1183.676049,-8364.327145,0.000000,296.082377
1183.676360,-8364.327145,612.876398,-0.000000
1183.676672,-8142.265362,995.924147,-148.041188
1183.676983,-8364.327145,842.705048,-666.185348
1183.677295,-8364.327145,689.485948,-518.144159
1183.677607,-8364.327145,536.266849,-666.185348
1183.677918,-8882.471304,459.657299,-296.082377
1183.678230,-8808.450710,383.047749,-74.020594
1183.678541,-9548.656652,-383.047749,592.164754
1183.678853,-9474.636058,-383.047749,814.226536
1183.679164,-9252.574275,-689.485948,1036.288319
1183.679476,-9326.594869,-995.924147,1036.288319
1183.679788,-8808.450710,-689.485948,814.226536
1183.680099,-8956.491898,-1225.752797,666.185348
1183.680411,-9104.533087,-1455.581446,-0.000000
1183.680722,-9400.615463,-1072.533697,518.144159
1183.681034,-9770.718434,0.000000,296.082377
1183.681345,-10214.842000,229.828649,296.082377
1183.681657,-9770.718434,306.438199,666.185348
1183.681969,-9696.697840,536.266849,814.226536
1183.682280,-9326.594869,1378.971896,740.205942
1183.682592,-8808.450710,1302.362347,370.102971
1183.682903,-9178.553681,1225.752797,-222.061783
1183.683215,-8216.285956,919.314598,296.082377
1183.683527,-7550.100608,842.705048,222.061783
1183.683838,-7476.080014,842.705048,-0.000000
1183.684150,-7920.203579,-229.828649,222.061783
1183.684461,-8364.327145,-842.705048,-0.000000
1183.684773,-8216.285956,-1302.362347,-0.000000
1183.685084,-8882.471304,-1762.019645,666.185348
1183.685396,-8734.430116,-1378.971896,962.267725
1183.685708,-9474.636058,-1762.019645,888.247130
1183.686019,-9474.636058,-1302.362347,962.267725
1183.686331,-9474.636058,-995.924147,1110.308913
1183.686642,-9326.594869,-383.047749,1258.350101
1183.686954,-9474.636058,0.000000,1184.329507
1183.687265,-9030.512492,153.219100,888.247130
1183.687577,-8216.285956,689.485948,962.267725
1183.687889,-7698.141797,1072.533697,518.144159
1183.688200,-7772.162391,842.705048,-0.000000
1183.688512,-7698.141797,842.705048,-370.102971
1183.688823,-8142.265362,459.657299,-592.164754
1183.689135,-7994.224174,689.485948,-296.082377
1183.689447,-8438.347739,76.609550,-444.123565
1183.689758,-9696.697840,306.438199,-0.000000
1183.690070,-9622.677246,459.657299,-0.000000
1183.690381,-9918.759623,0.000000,888.247130
1183.690693,-9548.656652,-995.924147,962.267725
1183.691004,-9474.636058,-1072.533697,888.247130
1183.691316,-9030.512492,-1302.362347,962.267725
1183.691628,-9178.553681,-1072.533697,740.205942
1183.691939,-8808.450710,-612.876398,888.247130
1183.692251,-8956.491898,-612.876398,666.185348
1183.692562,-8956.491898,-1302.362347,518.144159
1183.692874,-9622.677246,-383.047749,148.041188
1183.693185,-9918.759623,383.047749,370.102971
1183.693497,-9770.718434,766.095498,518.144159
1183.693809,-10066.800811,1149.143247,592.164754
1183.694120,-9474.636058,1685.410096,666.185348
1183.694432,-8956.491898,1608.800546,370.102971
1183.694743,-8734.430116,1532.190996,592.164754
1183.695055,-7476.080014,1072.533697,518.144159
1183.695367,-7476.080014,459.657299,444.123565
1183.695678,-7476.080014,0.000000,222.061783
1183.695990,-7920.203579,-383.047749,370.102971
1183.696301,-8512.368333,-766.095498,148.041188
1183.696613,-9178.553681,-1455.581446,370.102971
1183.696924,-9696.697840,-1608.800546,370.102971
1183.697236,-9252.574275,-2374.896044,1036.288319
1183.697548,-9326.594869,-1991.848295,1406.391290
1183.697859,-9178.553681,-612.876398,1406.391290
1183.698171,-9400.615463,-536.266849,1332.370696
1183.698482,-8882.471304,0.000000,1776.494261
1183.698794,-8438.347739,612.876398,1110.308913
1183.699105,-8586.388927,1149.143247,814.226536
1183.699417,-8364.327145,1149.143247,444.123565
1183.699729,-8290.306550,1149.143247,518.144159
1183.700040,-7994.224174,842.705048,-148.041188
1183.700352,-7920.203579,919.314598,-518.144159
1183.700663,-8142.265362,689.485948,-518.144159
1183.700975,-8586.388927,459.657299,-444.123565
1183.701287,-9104.533087,153.219100,-0.000000
1183.701598,-9326.594869,-689.485948,370.102971
1183.701910,-9474.636058,-459.657299,666.185348
1183.702221,-9548.656652,-612.876398,740.205942
1183.702533,-9400.615463,-306.438199,1406.391290
1183.702844,-9252.574275,-1072.533697,1036.288319
1183.703156,-8882.471304,-995.924147,1036.288319
1183.703468,-9178.553681,-919.314598,518.144159
1183.703779,-9104.533087,-459.657299,666.185348
1183.704091,-9326.594869,-612.876398,296.082377
1183.704402,-9400.615463,-689.485948,444.123565
1183.704714,-9400.615463,-383.047749,592.164754
1183.705025,-9844.739029,-383.047749,-0.000000
1183.705337,-9992.780217,919.314598,592.164754
1183.705649,-9992.780217,919.314598,666.185348
1183.705960,-9474.636058,995.924147,518.144159
1183.706272,-8808.450710,842.705048,592.164754
1183.706583,-8882.471304,1225.752797,518.144159
1183.706895,-7550.100608,919.314598,518.144159
1183.707207,-7846.182985,766.095498,-296.082377
1183.707518,-7476.080014,0.000000,148.041188
1183.707830,-7920.203579,-919.314598,296.082377
1183.708141,-8142.265362,-1608.800546,592.164754
1183.708453,-8364.327145,-1685.410096,222.061783
1183.708764,-8808.450710,-1685.410096,296.082377
1183.709076,-9400.615463,-1685.410096,518.144159
1183.709388,-9918.759623,-2068.457845,740.205942
1183.709699,-9622.677246,-1302.362347,1258.350101
1183.710011,-10066.800811,-919.314598,1332.370696
1183.710322,-9622.677246,-229.828649,1554.432478
1183.710634,-9400.615463,153.219100,1258.350101
1183.710946,-8512.368333,459.657299,888.247130
1183.711257,-7328.038826,689.485948,592.164754
1183.711569,-7328.038826,919.314598,148.041188
1183.711880,-6883.915261,919.314598,-222.061783
1183.712192,-7550.100608,1762.019645,-518.144159
1183.712503,-8808.450710,459.657299,-518.144159
1183.712815,-9030.512492,459.657299,-74.020594
1183.713127,-9918.759623,0.000000,-296.082377
1183.713438,-10214.842000,76.609550,-0.000000
1183.713750,-10140.821405,153.219100,148.041188
1183.714061,-9622.677246,76.609550,444.123565
1183.714373,-9104.533087,-306.438199,814.226536
1183.714684,-8660.409521,-1072.533697,1110.308913
1183.714996,-8734.430116,-1225.752797,1036.288319
1183.715308,-8808.450710,-1149.143247,1332.370696
1183.715619,-8734.430116,-842.705048,1184.329507
1183.715931,-9104.533087,-842.705048,962.267725
1183.716242,-9178.553681,-842.705048,592.164754
1183.716554,-9548.656652,0.000000,148.041188
1183.716866,-10066.800811,153.219100,-222.061783
1183.717177,-10066.800811,459.657299,370.102971
1183.717489,-10066.800811,1149.143247,666.185348
1183.717800,-9326.594869,1455.581446,888.247130
1183.718112,-8808.450710,1225.752797,740.205942
1183.718423,-8068.244768,1149.143247,888.247130
1183.718735,-7772.162391,1149.143247,592.164754
1183.719047,-7105.977043,689.485948,-148.041188
1183.719358,-7179.997637,76.609550,148.041188
1183.719670,-7920.203579,-612.876398,-0.000000
1183.719981,-8956.491898,-1225.752797,296.082377
1183.720293,-9178.553681,-1455.581446,444.123565
1183.720604,-9696.697840,-1378.971896,444.123565
1183.720916,-9622.677246,-1302.362347,666.185348
1183.721228,-9474.636058,-1225.752797,592.164754
1183.721539,-8956.491898,-1455.581446,1258.350101
1183.721851,-8882.471304,-919.314598,1628.453072
1183.722162,-8808.450710,0.000000,1480.411884
1183.722474,-8290.306550,459.657299,1110.308913
1183.722785,-8068.244768,766.095498,740.205942
1183.723097,-8142.265362,459.657299,370.102971
1183.723408,-8512.368333,306.438199,-0.000000
1183.723720,-7624.121203,919.314598,-518.144159
1183.724032,-8364.327145,383.047749,-814.226536
1183.724343,-8808.450710,459.657299,-740.205942
1183.724655,-9030.512492,0.000000,-370.102971
1183.724966,-9400.615463,-153.219100,-0.000000
1183.725278,-9178.553681,-383.047749,370.102971
1183.725589,-9400.615463,-306.438199,740.205942
1183.725901,-9400.615463,-153.219100,740.205942
1183.726212,-8882.471304,0.000000,740.205942
1183.726524,-8808.450710,-536.266849,814.226536
1183.726835,-9400.615463,-153.219100,370.102971
1183.727147,-9696.697840,-689.485948,592.164754
1183.727458,-9474.636058,-689.485948,370.102971
1183.727770,-9474.636058,-459.657299,296.082377
1183.728082,-9622.677246,-153.219100,370.102971
1183.728393,-9622.677246,0.000000,444.123565
1183.728705,-10214.842000,459.657299,148.041188
1183.729016,-9992.780217,689.485948,888.247130
1183.729328,-9474.636058,1532.190996,962.267725
1183.729639,-9030.512492,1685.410096,592.164754
1183.729951,-8808.450710,1149.143247,518.144159
1183.730262,-8216.285956,766.095498,370.102971
1183.730574,-7254.018232,766.095498,370.102971
1183.730885,-6957.935855,919.314598,-0.000000
1183.731197,-7254.018232,-383.047749,444.123565
1183.731508,-8142.265362,-1302.362347,222.061783
1183.731820,-8512.368333,-2451.505594,666.185348
1183.732132,-8364.327145,-2145.067394,740.205942
1183.732443,-8586.388927,-1532.190996,592.164754
1183.732755,-9400.615463,-1532.190996,814.226536
1183.733066,-10066.800811,-1608.800546,518.144159
1183.733378,-9252.574275,-1072.533697,1184.329507
1183.733689,-9252.574275,0.000000,1554.432478
1183.734001,-9030.512492,229.828649,1924.535449
1183.734312,-9030.512492,383.047749,1258.350101
1183.734624,-8512.368333,612.876398,740.205942
1183.734935,-7402.059420,842.705048,740.205942
1183.735247,-7550.100608,459.657299,370.102971
1183.735558,-7846.182985,0.000000,-0.000000
1183.735870,-8734.430116,536.266849,-666.185348
1183.736182,-8808.450710,459.657299,-148.041188
1183.736493,-8660.409521,76.609550,-518.144159
1183.736805,-9918.759623,0.000000,74.020594
1183.737116,-10214.842000,-153.219100,370.102971
1183.737428,-9918.759623,-229.828649,444.123565
1183.737739,-9622.677246,-229.828649,814.226536
1183.738051,-9400.615463,0.000000,740.205942
1183.738362,-9326.594869,-1149.143247,740.205942
1183.738674,-9030.512492,-1225.752797,370.102971
1183.738985,-8586.388927,-536.266849,888.247130
1183.739297,-8734.430116,-842.705048,518.144159
1183.739609,-9252.574275,-842.705048,518.144159
1183.739920,-10066.800811,-229.828649,518.144159
1183.740232,-10436.903782,766.095498,370.102971
1183.740543,-9844.739029,1072.533697,222.061783
1183.740855,-9918.759623,842.705048,370.102971
1183.741166,-9474.636058,2145.067394,-0.000000
1183.741478,-8586.388927,1532.190996,740.205942
1183.741789,-8068.244768,995.924147,592.164754
1183.742101,-7698.141797,995.924147,740.205942
1183.742412,-7698.141797,383.047749,370.102971
1183.742724,-7772.162391,306.438199,1184.329507
1183.743035,-8142.265362,-459.657299,296.082377
1183.743347,-8142.265362,-842.705048,-0.000000
1183.743659,-8290.306550,-766.095498,-74.020594
1183.743970,-8808.450710,-1072.533697,-0.000000
1183.744282,-8956.491898,-1149.143247,518.144159
1183.744593,-8808.450710,-766.095498,814.226536
1183.744905,-9030.512492,-536.266849,1110.308913
1183.745216,-8660.409521,-306.438199,1184.329507
1183.745528,-8882.471304,0.000000,1332.370696
1183.745839,-8142.265362,383.047749,1184.329507
1183.746151,-8290.306550,-383.047749,740.205942
1183.746462,-8438.347739,153.219100,888.247130
1183.746774,-8068.244768,76.609550,592.164754
1183.747085,-8512.368333,0.000000,370.102971
1183.747397,-8290.306550,536.266849,-0.000000
1183.747709,-8808.450710,76.609550,-148.041188
1183.748020,-8586.388927,-306.438199,-148.041188
1183.748332,-8882.471304,0.000000,-444.123565
1183.748643,-9252.574275,0.000000,-0.000000
1183.748955,-9622.677246,-383.047749,444.123565
1183.749266,-10140.821405,-306.438199,888.247130
1183.749578,-9696.697840,-229.828649,888.247130
1183.749889,-9400.615463,383.047749,814.226536
1183.750201,-9178.553681,-1225.752797,592.164754
1183.750512,-8882.471304,-919.314598,518.144159
1183.750824,-9030.512492,-306.438199,296.082377
1183.751135,-9178.553681,-536.266849,592.164754
1183.751447,-9770.718434,-536.266849,518.144159
1183.751759,-10362.883188,0.000000,814.226536
1183.752070,-10436.903782,76.609550,444.123565
1183.752382,-9918.759623,919.314598,518.144159
1183.752693,-9252.574275,1532.190996,666.185348
1183.753005,-8808.450710,1532.190996,222.061783
1183.753316,-8290.306550,1149.143247,370.102971
1183.753628,-8808.450710,689.485948,148.041188
1183.753939,-8142.265362,995.924147,592.164754
1183.754251,-8142.265362,612.876398,296.082377
1183.754562,-8290.306550,0.000000,592.164754
1183.754874,-8216.285956,-919.314598,666.185348
1183.755186,-7476.080014,-1608.800546,444.123565
1183.755497,-7772.162391,-1915.238745,370.102971
1183.755809,-7994.224174,-612.876398,-0.000000
1183.756120,-8438.347739,-1302.362347,296.082377
1183.756432,-8956.491898,-1072.533697,444.123565
1183.756743,-9548.656652,-919.314598,888.247130
1183.757055,-9474.636058,-229.828649,1036.288319
1183.757366,-9548.656652,76.609550,1258.350101
1183.757678,-9178.553681,689.485948,962.267725
1183.757989,-8586.388927,766.095498,444.123565
1183.758301,-7846.182985,536.266849,592.164754
1183.758612,-7994.224174,766.095498,592.164754
1183.758924,-7846.182985,536.266849,444.123565
1183.759236,-8290.306550,229.828649,-148.041188
1183.759547,-8364.327145,0.000000,-296.082377
1183.759859,-8068.244768,459.657299,-518.144159
1183.760170,-9104.533087,0.000000,-592.164754
1183.760482,-9844.739029,76.609550,-444.123565
1183.760793,-10214.842000,0.000000,296.082377
1183.761105,-10140.821405,-612.876398,888.247130
1183.761416,-9622.677246,-919.314598,1110.308913
1183.761728,-9030.512492,-995.924147,1110.308913
1183.762039,-8660.409521,-1225.752797,666.185348
1183.762351,-8586.388927,-459.657299,1406.391290
1183.762662,-8734.430116,-536.266849,592.164754
1183.762974,-9326.594869,-612.876398,518.144159
1183.763286,-9326.594869,-536.266849,666.185348
1183.763597,-9770.718434,-459.657299,296.082377
1183.763909,-9918.759623,153.219100,-0.000000
1183.764220,-9992.780217,1072.533697,148.041188
1183.764532,-9844.739029,612.876398,296.082377
1183.764843,-9770.718434,1302.362347,592.164754
1183.765155,-9252.574275,1072.533697,592.164754
1183.765466,-8586.388927,612.876398,962.267725
1183.765778,-7994.224174,383.047749,814.226536
1183.766089,-7846.182985,306.438199,518.144159
1183.766401,-7476.080014,-153.219100,592.164754
1183.766712,-7772.162391,-689.485948,370.102971
1183.767024,-7698.141797,-1532.190996,444.123565
1183.767336,-8364.327145,-919.314598,-0.000000
1183.767647,-9178.553681,-919.314598,370.102971
1183.767959,-9178.553681,-612.876398,-0.000000
1183.768270,-9400.615463,-153.219100,814.226536
1183.768582,-9104.533087,-689.485948,1258.350101
1183.768893,-8808.450710,-689.485948,1480.411884
1183.769205,-8364.327145,-229.828649,1480.411884
1183.769516,-8586.388927,459.657299,666.185348
1183.769828,-8512.368333,612.876398,962.267725
1183.770139,-8216.285956,536.266849,370.102971
1183.770451,-8438.347739,383.047749,148.041188
1183.770763,-8142.265362,919.314598,-0.000000
1183.771074,-8142.265362,536.266849,-222.061783
1183.771386,-8586.388927,0.000000,-518.144159
1183.771697,-8660.409521,306.438199,-74.020594
1183.772009,-9178.553681,-229.828649,-0.000000
1183.772320,-8808.450710,-459.657299,444.123565
1183.772632,-9622.677246,-842.705048,740.205942
1183.772943,-10066.800811,-766.095498,1036.288319
1183.773255,-9178.553681,-229.828649,1036.288319
1183.773566,-9326.594869,0.000000,740.205942
1183.773878,-9030.512492,0.000000,962.267725
1183.774189,-9252.574275,-536.266849,370.102971
1183.774501,-9104.533087,-766.095498,1036.288319
1183.774813,-9252.574275,-766.095498,888.247130
1183.775124,-9474.636058,-612.876398,666.185348
1183.775436,-10140.821405,-153.219100,222.061783
1183.775747,-10140.821405,229.828649,296.082377
1183.776059,-9474.636058,229.828649,370.102971
1183.776370,-9326.594869,459.657299,740.205942
1183.776682,-8882.471304,1225.752797,740.205942
1183.776993,-8882.471304,995.924147,518.144159
1183.777305,-8068.244768,383.047749,1036.288319
1183.777616,-7624.121203,229.828649,814.226536
1183.777928,-7254.018232,76.609550,592.164754
1183.778239,-7328.038826,-306.438199,222.061783
1183.778551,-7698.141797,-995.924147,148.041188
1183.778863,-7920.203579,-1455.581446,222.061783
1183.779174,-8438.347739,-1378.971896,-0.000000
1183.779486,-9178.553681,-1455.581446,222.061783
1183.779797,-10140.821405,-1532.190996,444.123565
1183.780109,-9622.677246,-1685.410096,1036.288319
1183.780420,-9474.636058,-1072.533697,1036.288319
1183.780732,-9474.636058,-612.876398,1406.391290
1183.781043,-9770.718434,306.438199,1332.370696
1183.781355,-9474.636058,919.314598,1480.411884
1183.781666,-8068.244768,1149.143247,962.267725
1183.781978,-7994.224174,689.485948,444.123565
1183.782289,-7698.141797,919.314598,-0.000000
1183.782601,-7772.162391,1072.533697,-814.226536
1183.782913,-8290.306550,919.314598,-962.267725
1183.783224,-8438.347739,766.095498,-888.247130
1183.783536,-9030.512492,383.047749,-592.164754
1183.783847,-9474.636058,459.657299,-296.082377
1183.784159,-10362.883188,383.047749,-222.061783
1183.784470,-9992.780217,0.000000,888.247130
1183.784782,-9622.677246,0.000000,666.185348
1183.785093,-9400.615463,-459.657299,1036.288319
1183.785405,-8660.409521,-459.657299,1184.329507
1183.785716,-8364.327145,-766.095498,1184.329507
1183.786028,-8586.388927,-689.485948,740.205942
1183.786340,-8808.450710,-689.485948,148.041188
1183.786651,-8586.388927,-689.485948,222.061783
1183.786963,-9770.718434,-153.219100,296.082377
1183.787274,-9992.780217,153.219100,-0.000000
1183.787586,-9770.718434,689.485948,222.061783
1183.787897,-10214.842000,766.095498,370.102971
1183.788209,-9622.677246,1225.752797,740.205942
1183.788520,-9252.574275,1608.800546,962.267725
1183.788832,-8586.388927,766.095498,1036.288319
1183.789143,-8290.306550,919.314598,888.247130
1183.789455,-7105.977043,536.266849,592.164754
1183.789766,-7254.018232,919.314598,296.082377
1183.790078,-7402.059420,0.000000,444.123565
1183.790390,-7994.224174,-842.705048,222.061783
1183.790701,-7920.203579,-1225.752797,518.144159
1183.791013,-8882.471304,-995.924147,518.144159
1183.791324,-9252.574275,-1608.800546,888.247130
1183.791636,-9474.636058,-995.924147,1110.308913
1183.791947,-9474.636058,-842.705048,1036.288319
1183.792259,-9104.533087,-612.876398,1554.432478
1183.792570,-9326.594869,-306.438199,1554.432478
1183.792882,-8956.491898,0.000000,1184.329507
1183.793193,-8586.388927,459.657299,962.267725
1183.793505,-8364.327145,536.266849,1184.329507
1183.793816,-8438.347739,536.266849,-0.000000
1183.794128,-8512.368333,919.314598,-0.000000
1183.794440,-8364.327145,612.876398,-370.102971
1183.794751,-8586.388927,536.266849,-296.082377
1183.795063,-8586.388927,229.828649,-518.144159
1183.795374,-8956.491898,383.047749,-222.061783
1183.795686,-9400.615463,153.219100,148.041188
1183.795997,-9696.697840,-306.438199,444.123565
1183.796309,-9326.594869,-306.438199,740.205942
1183.796620,-9474.636058,153.219100,296.082377
1183.796932,-9252.574275,-612.876398,962.267725
1183.797243,-8808.450710,-766.095498,814.226536
1183.797555,-8882.471304,-612.876398,592.164754
1183.797866,-8882.471304,-229.828649,370.102971
1183.798178,-9252.574275,-306.438199,296.082377
1183.798490,-9548.656652,-766.095498,444.123565
1183.798801,-9622.677246,-229.828649,222.061783
1183.799113,-10214.842000,612.876398,222.061783
1183.799424,-9696.697840,689.485948,444.123565
1183.799736,-9622.677246,766.095498,740.205942
1183.800047,-9104.533087,1302.362347,592.164754
1183.800359,-8660.409521,1149.143247,370.102971
1183.800670,-8364.327145,919.314598,370.102971
1183.800982,-7254.018232,1532.190996,222.061783
1183.801293,-7105.977043,995.924147,-0.000000
1183.801605,-7476.080014,229.828649,-0.000000
1183.801917,-7846.182985,-766.095498,740.205942
1183.802228,-8364.327145,-1455.581446,518.144159
1183.802540,-8290.306550,-1608.800546,592.164754
1183.802851,-8882.471304,-1685.410096,518.144159
1183.803163,-9474.636058,-1915.238745,666.185348
1183.803474,-9918.759623,-1532.190996,592.164754
1183.803786,-9844.739029,-995.924147,888.247130
1183.804097,-9548.656652,-1378.971896,1258.350101
1183.804409,-9548.656652,-1072.533697,1406.391290
1183.804720,-9400.615463,0.000000,1258.350101
1183.805032,-9178.553681,459.657299,962.267725
1183.805343,-8068.244768,459.657299,666.185348
1183.805655,-7550.100608,612.876398,148.041188
1183.805967,-7624.121203,689.485948,-148.041188
1183.806278,-7994.224174,229.828649,-148.041188
1183.806590,-8142.265362,229.828649,-444.123565
1183.806901,-8660.409521,689.485948,-296.082377
1183.807213,-9548.656652,76.609550,-370.102971
1183.807524,-10362.883188,0.000000,-0.000000
1183.807836,-10807.006753,-306.438199,444.123565
1183.808147,-9696.697840,0.000000,666.185348
1183.808459,-9474.636058,-995.924147,370.102971
1183.808770,-8734.430116,-842.705048,814.226536
1183.809082,-9030.512492,-1225.752797,518.144159
1183.809393,-8660.409521,-1378.971896,962.267725
1183.809705,-8290.306550,-1225.752797,962.267725
1183.810017,-8882.471304,-995.924147,888.247130
1183.810328,-9400.615463,-459.657299,666.185348
1183.810640,-9918.759623,-153.219100,-0.000000
1183.810951,-9844.739029,1225.752797,370.102971
1183.811263,-9918.759623,1532.190996,-0.000000
1183.811574,-9770.718434,1378.971896,444.123565
1183.811886,-9252.574275,1608.800546,592.164754
1183.812197,-8734.430116,1455.581446,666.185348
1183.812509,-7994.224174,1532.190996,666.185348
1183.812820,-7254.018232,1532.190996,518.144159
1183.813132,-7698.141797,842.705048,222.061783
1183.813443,-7105.977043,612.876398,666.185348
1183.813755,-7476.080014,-612.876398,444.123565
1183.814067,-8068.244768,-536.266849,592.164754
1183.814378,-8660.409521,-842.705048,666.185348
1183.814690,-9474.636058,-995.924147,296.082377
1183.815001,-9104.533087,-919.314598,888.247130
1183.815313,-9326.594869,-383.047749,814.226536
1183.815624,-8808.450710,-536.266849,1258.350101
1183.815936,-9104.533087,-612.876398,1480.411884
1183.816247,-8660.409521,153.219100,1554.432478
1183.816559,-8512.368333,76.609550,888.247130
1183.816870,-8512.368333,383.047749,740.205942
1183.817182,-8142.265362,842.705048,666.185348
1183.817494,-8364.327145,612.876398,148.041188
1183.817805,-8290.306550,689.485948,-0.000000
1183.818117,-8142.265362,536.266849,-444.123565
1183.818428,-8808.450710,153.219100,-296.082377
1183.818740,-9178.553681,383.047749,-148.041188
1183.819051,-9548.656652,-229.828649,-74.020594
1183.819363,-9770.718434,-229.828649,148.041188
1183.819674,-9474.636058,-612.876398,740.205942
1183.819986,-9252.574275,-612.876398,592.164754
1183.820297,-9474.636058,-1072.533697,592.164754
1183.820609,-9326.594869,-1532.190996,666.185348
1183.820920,-8364.327145,-1225.752797,444.123565
1183.821232,-9104.533087,-1685.410096,1184.329507
1183.821544,-9400.615463,-1455.581446,888.247130
1183.821856,-9474.636058,-1302.362347,592.164754
1183.822167,-9844.739029,-995.924147,518.144159
1183.822478,-9696.697840,-1225.752797,592.164754
1183.822790,-9474.636058,-153.219100,148.041188
1183.823101,-9178.553681,306.438199,592.164754
1183.823413,-9622.677246,229.828649,296.082377
1183.823724,-8808.450710,1302.362347,518.144159
1183.824035,-8956.491898,689.485948,148.041188
1183.824347,-8364.327145,919.314598,296.082377
1183.824658,-7772.162391,919.314598,296.082377
1183.824969,-8068.244768,306.438199,222.061783
1183.825281,-8142.265362,-229.828649,-0.000000
1183.825592,-7846.182985,-689.485948,222.061783
1183.825904,-7698.141797,-1532.190996,740.205942
1183.826215,-8512.368333,-1378.971896,222.061783
1183.826526,-8660.409521,-1532.190996,444.123565
1183.826838,-8660.409521,-1225.752797,888.247130
1183.827149,-9178.553681,-1225.752797,666.185348
1183.827460,-9252.574275,-536.266849,962.267725
1183.827772,-9474.636058,0.000000,666.185348
1183.828083,-9326.594869,383.047749,1184.329507
1183.828395,-9252.574275,536.266849,518.144159
1183.828706,-8290.306550,1072.533697,1258.350101
1183.829017,-8216.285956,919.314598,592.164754
1183.829329,-8438.347739,459.657299,370.102971
1183.829640,-8216.285956,536.266849,-74.020594
1183.829951,-8660.409521,459.657299,-222.061783
1183.830263,-8586.388927,612.876398,-74.020594
1183.830574,-8882.471304,0.000000,-148.041188
1183.830886,-9030.512492,153.219100,148.041188
1183.831197,-9474.636058,0.000000,-0.000000
1183.831508,-9252.574275,0.000000,296.082377
1183.831820,-9178.553681,0.000000,814.226536
1183.832131,-8956.491898,-153.219100,1036.288319
1183.832442,-8734.430116,-995.924147,814.226536
1183.832754,-8660.409521,-995.924147,814.226536
1183.833065,-8808.450710,-995.924147,1110.308913
1183.833377,-9030.512492,-842.705048,740.205942
1183.833688,-9696.697840,-1072.533697,888.247130
1183.833999,-9474.636058,-383.047749,666.185348
1183.834311,-9696.697840,-153.219100,222.061783
1183.834622,-9548.656652,306.438199,370.102971
1183.834933,-9770.718434,536.266849,-0.000000
1183.835245,-9252.574275,1302.362347,592.164754
1183.835556,-9104.533087,229.828649,518.144159
1183.835868,-8364.327145,1149.143247,814.226536
1183.836179,-7994.224174,536.266849,666.185348
1183.836490,-7476.080014,383.047749,740.205942
1183.836802,-7920.203579,0.000000,444.123565
1183.837113,-7846.182985,-459.657299,444.123565
1183.837424,-8290.306550,-995.924147,-0.000000
1183.837736,-9104.533087,-1532.190996,370.102971
1183.838047,-9400.615463,-1532.190996,222.061783
1183.838359,-9400.615463,-1455.581446,296.082377
1183.838670,-9622.677246,-1072.533697,592.164754
1183.838981,-9622.677246,-766.095498,666.185348
1183.839293,-9474.636058,-689.485948,888.247130
1183.839604,-9326.594869,-536.266849,1036.288319
1183.839915,-8882.471304,-229.828649,1110.308913
1183.840227,-8586.388927,459.657299,962.267725
1183.840538,-8660.409521,919.314598,444.123565
1183.840849,-8438.347739,689.485948,518.144159
1183.841161,-8068.244768,689.485948,-0.000000
1183.841472,-7994.224174,842.705048,-148.041188
1183.841784,-8438.347739,612.876398,-962.267725
1183.842095,-8216.285956,689.485948,-370.102971
1183.842406,-8586.388927,766.095498,-666.185348
1183.842718,-8734.430116,229.828649,148.041188
1183.843029,-9326.594869,-459.657299,-74.020594
1183.843340,-9474.636058,0.000000,518.144159
1183.843652,-9918.759623,-229.828649,518.144159
1183.843963,-9696.697840,-153.219100,666.185348
1183.844275,-9178.553681,-383.047749,740.205942
1183.844586,-9252.574275,-306.438199,1184.329507
1183.844897,-8660.409521,-995.924147,518.144159
1183.845209,-9178.553681,-1072.533697,370.102971
1183.845520,-8956.491898,-383.047749,888.247130
1183.845831,-9474.636058,-383.047749,740.205942
1183.846143,-9696.697840,-383.047749,592.164754
1183.846454,-9548.656652,383.047749,666.185348
1183.846766,-9252.574275,689.485948,814.226536
1183.847077,-8882.471304,842.705048,518.144159
1183.847388,-9178.553681,995.924147,-0.000000
1183.847700,-8512.368333,1225.752797,370.102971
1183.848011,-8364.327145,536.266849,592.164754
1183.848322,-8142.265362,536.266849,592.164754
1183.848634,-8068.244768,0.000000,740.205942
1183.848945,-7920.203579,-306.438199,814.226536
1183.849257,-7994.224174,-1378.971896,814.226536
1183.849568,-8290.306550,-1685.410096,666.185348
1183.849879,-8290.306550,-1608.800546,592.164754
1183.850191,-9104.533087,-919.314598,444.123565
1183.850502,-9178.553681,-1302.362347,1184.329507
1183.850813,-9474.636058,-1072.533697,888.247130
1183.851125,-9326.594869,-612.876398,962.267725
1183.851436,-9400.615463,-306.438199,1332.370696
1183.851748,-9622.677246,0.000000,1480.411884
1183.852059,-9178.553681,383.047749,1184.329507
1183.852370,-8142.265362,689.485948,1554.432478
1183.852682,-8068.244768,229.828649,518.144159
1183.852993,-8068.244768,766.095498,370.102971
1183.853304,-8068.244768,766.095498,-370.102971
1183.853616,-8586.388927,919.314598,-592.164754
1183.853927,-8364.327145,1149.143247,-740.205942
1183.854239,-8956.491898,766.095498,-370.102971
1183.854550,-9104.533087,0.000000,-0.000000
1183.854861,-9992.780217,-612.876398,370.102971
1183.855173,-9992.780217,-842.705048,740.205942
1183.855484,-9548.656652,-842.705048,814.226536
1183.855795,-9178.553681,-919.314598,962.267725
1183.856107,-9030.512492,-1072.533697,814.226536
1183.856418,-9178.553681,-1532.190996,888.247130
1183.856730,-8586.388927,-459.657299,888.247130
1183.857041,-9178.553681,-766.095498,370.102971
1183.857352,-9178.553681,-383.047749,518.144159
1183.857664,-9474.636058,-306.438199,370.102971
1183.857975,-9844.739029,383.047749,-0.000000
1183.858286,-9622.677246,1302.362347,-0.000000
1183.858598,-9770.718434,1608.800546,296.082377
1183.858909,-9252.574275,1532.190996,296.082377
1183.859221,-8808.450710,1455.581446,296.082377
1183.859532,-8882.471304,1149.143247,222.061783
1183.859843,-7698.141797,1149.143247,888.247130
1183.860155,-7772.162391,459.657299,370.102971
1183.860466,-7772.162391,0.000000,666.185348
1183.860777,-8142.265362,-459.657299,592.164754
1183.861089,-8586.388927,-1072.533697,518.144159
1183.861400,-8364.327145,-1149.143247,370.102971
1183.861711,-8808.450710,-1149.143247,-74.020594
1183.862023,-8808.450710,-1302.362347,444.123565
1183.862334,-9400.615463,-1149.143247,518.144159
1183.862646,-9474.636058,-1072.533697,1258.350101
1183.862957,-9400.615463,-536.266849,1406.391290
1183.863268,-9326.594869,-612.876398,1776.494261
1183.863580,-9104.533087,-229.828649,1332.370696
1183.863891,-9326.594869,153.219100,666.185348
1183.864202,-8438.347739,842.705048,666.185348
1183.864514,-8290.306550,459.657299,370.102971
1183.864825,-7550.100608,689.485948,-0.000000
1183.865137,-7920.203579,536.266849,-296.082377
1183.865448,-8216.285956,459.657299,-592.164754
1183.865759,-7846.182985,536.266849,-222.061783
1183.866071,-8586.388927,306.438199,-148.041188
1183.866382,-9474.636058,229.828649,-0.000000
1183.866693,-9696.697840,-306.438199,888.247130
1183.867005,-9770.718434,-459.657299,1258.350101
1183.867316,-9992.780217,-153.219100,962.267725
1183.867628,-9474.636058,-842.705048,888.247130
1183.867939,-8808.450710,-1072.533697,814.226536
1183.868250,-8808.450710,-995.924147,592.164754
1183.868562,-9178.553681,0.000000,666.185348
1183.868873,-9030.512492,-1608.800546,1036.288319
1183.869184,-9030.512492,-536.266849,666.185348
1183.869496,-9548.656652,0.000000,518.144159
1183.869807,-9548.656652,-229.828649,-222.061783
1183.870119,-9548.656652,306.438199,296.082377
1183.870430,-9548.656652,919.314598,592.164754
1183.870741,-9030.512492,1072.533697,518.144159
1183.871053,-8956.491898,1072.533697,296.082377
1183.871364,-8438.347739,995.924147,814.226536
1183.871675,-7476.080014,689.485948,370.102971
1183.871987,-7624.121203,383.047749,296.082377
1183.872298,-7550.100608,383.047749,444.123565
1183.872610,-7846.182985,0.000000,592.164754
1183.872921,-7920.203579,-995.924147,592.164754
1183.873232,-8142.265362,-1149.143247,370.102971
1183.873544,-8660.409521,-1302.362347,296.082377
1183.873855,-9030.512492,-1149.143247,148.041188
1183.874166,-9548.656652,-1455.581446,222.061783
1183.874478,-9696.697840,-612.876398,444.123565
1183.874789,-9918.759623,-689.485948,1332.370696
1183.875101,-9918.759623,-536.266849,1554.432478
1183.875412,-9400.615463,-153.219100,1184.329507
1183.875723,-8660.409521,383.047749,962.267725
1183.876035,-7994.224174,766.095498,740.205942
1183.876346,-7920.203579,766.095498,-0.000000
1183.876657,-7698.141797,766.095498,-296.082377
1183.876969,-7624.121203,766.095498,-592.164754
1183.877280,-8068.244768,459.657299,-444.123565
1183.877592,-8290.306550,536.266849,-518.144159
1183.877903,-9622.677246,306.438199,-592.164754
1183.878214,-10362.883188,0.000000,-0.000000
1183.878526,-9918.759623,-689.485948,444.123565
1183.878837,-9548.656652,-612.876398,518.144159
1183.879148,-9030.512492,-689.485948,740.205942
1183.879460,-8882.471304,-1378.971896,740.205942
1183.879771,-9252.574275,-1532.190996,814.226536
1183.880083,-8586.388927,-1302.362347,888.247130
1183.880394,-8512.368333,-1225.752797,666.185348
1183.880705,-9104.533087,-1149.143247,666.185348
1183.881017,-9474.636058,-459.657299,518.144159
1183.881328,-9696.697840,766.095498,-0.000000
1183.881639,-9548.656652,689.485948,296.082377
1183.881951,-9474.636058,1225.752797,370.102971
1183.882262,-9622.677246,1455.581446,370.102971
1183.882573,-8956.491898,1455.581446,888.247130
1183.882885,-9326.594869,1149.143247,814.226536
1183.883196,-8438.347739,995.924147,1036.288319
1183.883508,-7328.038826,1455.581446,1110.308913
1183.883819,-7920.203579,842.705048,-0.000000
1183.884130,-7846.182985,229.828649,-0.000000
1183.884442,-8142.265362,-919.314598,-74.020594
1183.884753,-8216.285956,-995.924147,296.082377
1183.885064,-8660.409521,-995.924147,518.144159
1183.885376,-9326.594869,-1225.752797,740.205942
1183.885687,-9178.553681,-1302.362347,1110.308913
1183.885999,-9474.636058,-1072.533697,666.185348
1183.886310,-9474.636058,-995.924147,740.205942
1183.886621,-9252.574275,-306.438199,1406.391290
1183.886933,-9030.512492,0.000000,1702.473667
1183.887244,-8586.388927,459.657299,888.247130
1183.887555,-8512.368333,536.266849,888.247130
1183.887867,-8290.306550,536.266849,592.164754
1183.888178,-8290.306550,766.095498,-148.041188
1183.888490,-8068.244768,1072.533697,-296.082377
1183.888801,-8068.244768,612.876398,-518.144159
1183.889112,-8438.347739,383.047749,-296.082377
1183.889424,-8290.306550,383.047749,-0.000000
1183.889735,-8734.430116,153.219100,-0.000000
1183.890046,-9326.594869,0.000000,666.185348
1183.890358,-9548.656652,0.000000,814.226536
1183.890669,-9622.677246,0.000000,740.205942
1183.890981,-8808.450710,-383.047749,888.247130
1183.891292,-8734.430116,-383.047749,740.205942
1183.891603,-9030.512492,-612.876398,370.102971
1183.891915,-9252.574275,-766.095498,444.123565
1183.892226,-9326.594869,-689.485948,370.102971
1183.892537,-9696.697840,-536.266849,518.144159
1183.892849,-10288.862594,-306.438199,370.102971
1183.893160,-9474.636058,-306.438199,962.267725
1183.893472,-9622.677246,383.047749,370.102971
1183.893783,-9770.718434,459.657299,296.082377
1183.894094,-9252.574275,995.924147,592.164754
1183.894406,-8882.471304,1149.143247,444.123565
1183.894717,-9030.512492,536.266849,222.061783
1183.895028,-8586.388927,306.438199,444.123565
1183.895340,-7846.182985,919.314598,-0.000000
1183.895651,-7624.121203,0.000000,-0.000000
1183.895963,-8068.244768,-153.219100,-0.000000
1183.896274,-8142.265362,-1838.629195,370.102971
1183.896585,-8586.388927,-2068.457845,296.082377
1183.896897,-8660.409521,-1378.971896,222.061783
1183.897208,-8956.491898,-1378.971896,444.123565
1183.897519,-9474.636058,-1225.752797,592.164754
1183.897831,-9400.615463,-1302.362347,666.185348
1183.898142,-9178.553681,-1378.971896,962.267725
1183.898454,-9104.533087,-766.095498,814.226536
1183.898765,-9326.594869,153.219100,1110.308913
1183.899076,-9326.594869,229.828649,962.267725
1183.899388,-8660.409521,306.438199,888.247130
1183.899699,-7994.224174,459.657299,666.185348
1183.900010,-7550.100608,689.485948,296.082377
1183.900322,-7920.203579,612.876398,-518.144159
1183.900633,-8290.306550,612.876398,-444.123565
1183.900944,-7994.224174,229.828649,-222.061783
1183.901256,-8660.409521,306.438199,-592.164754
1183.901567,-9622.677246,0.000000,-0.000000
1183.901879,-9918.759623,0.000000,296.082377
1183.902190,-9474.636058,0.000000,814.226536
1183.902501,-9474.636058,-536.266849,962.267725
1183.902813,-9326.594869,-919.314598,962.267725
1183.903124,-8586.388927,-612.876398,888.247130
1183.903435,-9178.553681,-766.095498,888.247130
1183.903747,-8734.430116,-689.485948,1110.308913
1183.904058,-8956.491898,-766.095498,518.144159
1183.904370,-9474.636058,-459.657299,740.205942
1183.904681,-9622.677246,0.000000,740.205942
1183.904992,-9918.759623,612.876398,-0.000000
1183.905304,-9844.739029,1685.410096,814.226536
1183.905615,-9474.636058,1838.629195,740.205942
1183.905926,-8660.409521,1532.190996,518.144159
1183.906238,-8512.368333,1532.190996,444.123565
1183.906549,-8216.285956,1762.019645,592.164754
1183.906861,-7476.080014,1149.143247,814.226536
1183.907172,-7846.182985,689.485948,666.185348
1183.907483,-7698.141797,-153.219100,666.185348
1183.907795,-7846.182985,-842.705048,370.102971
1183.908106,-8364.327145,-1455.581446,666.185348
1183.908417,-8142.265362,-1532.190996,370.102971
1183.908729,-9030.512492,-1532.190996,222.061783
1183.909040,-9030.512492,-1455.581446,740.205942
1183.909352,-9622.677246,-689.485948,666.185348
1183.909663,-9400.615463,-919.314598,1184.329507
1183.909974,-8734.430116,-1225.752797,1184.329507
1183.910286,-9178.553681,0.000000,962.267725
1183.910597,-8512.368333,842.705048,962.267725
1183.910908,-8734.430116,536.266849,444.123565
1183.911220,-8364.327145,766.095498,740.205942
1183.911531,-8660.409521,766.095498,296.082377
1183.911843,-8438.347739,689.485948,-222.061783
1183.912154,-8586.388927,842.705048,-666.185348
1183.912465,-8808.450710,383.047749,-740.205942
1183.912777,-8512.368333,1455.581446,-222.061783
1183.913088,-9400.615463,-153.219100,-740.205942
1183.913399,-9622.677246,-229.828649,-74.020594
1183.913711,-9992.780217,-383.047749,444.123565
1183.914022,-9918.759623,-536.266849,740.205942
1183.914334,-9474.636058,0.000000,518.144159
1183.914645,-9474.636058,-306.438199,592.164754
1183.914956,-9104.533087,-153.219100,370.102971
1183.915268,-9696.697840,-1149.143247,148.041188
1183.915579,-9474.636058,-689.485948,518.144159
1183.915890,-9474.636058,-1072.533697,740.205942
1183.916202,-9844.739029,-842.705048,888.247130
1183.916513,-9770.718434,-459.657299,740.205942
1183.916825,-9844.739029,-229.828649,370.102971
1183.917136,-9252.574275,459.657299,888.247130
1183.917447,-9252.574275,1072.533697,370.102971
1183.917759,-8438.347739,2528.115143,296.082377
1183.918070,-8364.327145,1685.410096,-148.041188
1183.918381,-7994.224174,1302.362347,296.082377
1183.918693,-7328.038826,1225.752797,370.102971
1183.919004,-7328.038826,1225.752797,370.102971
1183.919316,-7698.141797,306.438199,666.185348
1183.919627,-8438.347739,-536.266849,814.226536
1183.919938,-8586.388927,-536.266849,518.144159
1183.920250,-8290.306550,-1225.752797,740.205942
1183.920561,-7920.203579,-1225.752797,740.205942
1183.920872,-8364.327145,-1608.800546,740.205942
1183.921184,-8956.491898,-1608.800546,740.205942
1183.921495,-9104.533087,-1149.143247,1110.308913
1183.921806,-9474.636058,-766.095498,1406.391290
1183.922118,-9770.718434,-306.438199,1184.329507
1183.922429,-9178.553681,-153.219100,1406.391290
1183.922741,-8586.388927,536.266849,962.267725
1183.923052,-8068.244768,459.657299,222.061783
1183.923363,-8364.327145,536.266849,296.082377
1183.923675,-8290.306550,536.266849,-0.000000
1183.923986,-8586.388927,76.609550,-148.041188
1183.924297,-8438.347739,0.000000,-0.000000
1183.924609,-8586.388927,0.000000,-222.061783
1183.924920,-8956.491898,0.000000,-0.000000
1183.925232,-9918.759623,76.609550,-222.061783
1183.925543,-9918.759623,-459.657299,148.041188
1183.925854,-9844.739029,-459.657299,518.144159
1183.926166,-9696.697840,-612.876398,1036.288319
1183.926477,-9252.574275,-1378.971896,1036.288319
1183.926788,-9326.594869,-1838.629195,962.267725
1183.927100,-8734.430116,-1225.752797,666.185348
1183.927411,-9548.656652,-689.485948,444.123565
1183.927722,-9474.636058,-536.266849,814.226536
1183.928034,-10066.800811,-383.047749,444.123565
1183.928345,-10066.800811,76.609550,222.061783
1183.928656,-9770.718434,766.095498,-74.020594
1183.928968,-9622.677246,1532.190996,148.041188
1183.929279,-9622.677246,1685.410096,-148.041188
1183.929590,-9252.574275,1838.629195,296.082377
1183.929902,-8882.471304,1149.143247,592.164754
1183.930213,-7994.224174,1149.143247,814.226536
1183.930524,-7550.100608,766.095498,962.267725
1183.930836,-7846.182985,459.657299,666.185348
1183.931147,-7624.121203,0.000000,592.164754
1183.931459,-7994.224174,-766.095498,370.102971
1183.931770,-7624.121203,-1302.362347,592.164754
1183.932081,-7920.203579,-383.047749,740.205942
1183.932393,-8660.409521,-1072.533697,-0.000000
1183.932704,-9104.533087,-1608.800546,370.102971
1183.933015,-9030.512492,-689.485948,592.164754
1183.933327,-9104.533087,-306.438199,1258.350101
1183.933638,-9326.594869,-153.219100,1554.432478
1183.933949,-9252.574275,306.438199,1554.432478
1183.934261,-9104.533087,689.485948,1110.308913
1183.934572,-8660.409521,766.095498,666.185348
1183.934883,-8068.244768,689.485948,666.185348
1183.935195,-8290.306550,536.266849,-0.000000
1183.935506,-8216.285956,689.485948,74.020594
1183.935817,-8068.244768,536.266849,-222.061783
1183.936129,-8216.285956,383.047749,-444.123565
1183.936440,-7994.224174,842.705048,-296.082377
1183.936752,-8216.285956,612.876398,-0.000000
1183.937063,-8956.491898,-536.266849,-0.000000
1183.937374,-9030.512492,-229.828649,814.226536
1183.937686,-9548.656652,-766.095498,1258.350101
1183.937997,-9696.697840,-536.266849,1258.350101
1183.938308,-9696.697840,-842.705048,1036.288319
1183.938620,-9474.636058,-1225.752797,962.267725
1183.938931,-9252.574275,-995.924147,592.164754
1183.939242,-9252.574275,-1149.143247,370.102971
1183.939554,-9400.615463,-919.314598,370.102971
1183.939865,-9474.636058,-1149.143247,740.205942
1183.940176,-9844.739029,-383.047749,666.185348
1183.940488,-9844.739029,-229.828649,518.144159
1183.940799,-9548.656652,306.438199,296.082377
1183.941110,-9030.512492,919.314598,444.123565
1183.941422,-8586.388927,1455.581446,-0.000000
1183.941733,-9104.533087,919.314598,444.123565
1183.942045,-8882.471304,459.657299,592.164754
1183.942356,-7698.141797,536.266849,888.247130
1183.942667,-8068.244768,612.876398,592.164754
1183.942979,-7846.182985,0.000000,518.144159
1183.943290,-7994.224174,-1149.143247,-0.000000
1183.943601,-8142.265362,-1072.533697,222.061783
1183.943913,-8364.327145,-1302.362347,-0.000000
1183.944224,-7994.224174,-1072.533697,444.123565
1183.944535,-9104.533087,-919.314598,296.082377
1183.944847,-9918.759623,-1608.800546,296.082377
1183.945158,-9326.594869,-1378.971896,962.267725
1183.945469,-9252.574275,-766.095498,1110.308913
1183.945781,-9400.615463,0.000000,1480.411884
1183.946092,-9326.594869,153.219100,1036.288319
1183.946403,-8586.388927,0.000000,1406.391290
1183.946715,-7550.100608,383.047749,814.226536
1183.947026,-7698.141797,919.314598,222.061783
1183.947337,-7476.080014,919.314598,-370.102971
1183.947649,-8216.285956,612.876398,-592.164754
1183.947960,-8068.244768,612.876398,-666.185348
1183.948272,-8290.306550,229.828649,-518.144159
1183.948583,-9104.533087,76.609550,-222.061783
1183.948894,-9992.780217,536.266849,-0.000000
1183.949206,-10066.800811,-612.876398,518.144159
1183.949517,-9326.594869,-383.047749,888.247130
1183.949828,-9178.553681,-689.485948,1184.329507
1183.950140,-9104.533087,-1072.533697,962.267725
1183.950451,-9030.512492,-995.924147,1036.288319
1183.950762,-8586.388927,-612.876398,1110.308913
1183.951074,-8586.388927,-536.266849,962.267725
1183.951385,-9178.553681,-689.485948,-0.000000
1183.951696,-9548.656652,-536.266849,370.102971
1183.952008,-9844.739029,153.219100,-0.000000
1183.952319,-9770.718434,1072.533697,370.102971
1183.952630,-9918.759623,1225.752797,370.102971
1183.952942,-9622.677246,1149.143247,666.185348
1183.953253,-9474.636058,995.924147,666.185348
1183.953565,-8808.450710,1302.362347,1110.308913
1183.953876,-7772.162391,919.314598,1406.391290
1183.954187,-7698.141797,995.924147,814.226536
1183.954499,-8216.285956,689.485948,518.144159
1183.954810,-7920.203579,0.000000,222.061783
1183.955121,-8216.285956,-536.266849,-0.000000
1183.955433,-8438.347739,-536.266849,296.082377
1183.955744,-8956.491898,-995.924147,-0.000000
1183.956055,-8882.471304,-1532.190996,370.102971
1183.956367,-8512.368333,-842.705048,592.164754
1183.956678,-9104.533087,-1072.533697,1036.288319
1183.956989,-8956.491898,-995.924147,1184.329507
1183.957301,-9030.512492,-612.876398,1554.432478
1183.957612,-8956.491898,-153.219100,1554.432478
1183.957923,-8956.491898,153.219100,1184.329507
1183.958235,-8734.430116,459.657299,1258.350101
1183.958546,-8660.409521,689.485948,814.226536
1183.958858,-8290.306550,1149.143247,-0.000000
1183.959169,-7402.059420,842.705048,-518.144159
1183.959480,-7846.182985,612.876398,-1110.308913
1183.959792,-7846.182985,536.266849,-666.185348
1183.960103,-8364.327145,536.266849,-148.041188
1183.960414,-9104.533087,229.828649,296.082377
1183.960726,-9326.594869,229.828649,888.247130
1183.961037,-9474.636058,-153.219100,1036.288319
1183.961348,-9326.594869,0.000000,518.144159
1183.961660,-9030.512492,76.609550,740.205942
1183.961971,-8956.491898,-842.705048,370.102971
1183.962282,-9178.553681,-766.095498,444.123565
1183.962594,-9252.574275,-766.095498,296.082377
1183.962905,-9252.574275,-1225.752797,444.123565
1183.963216,-9696.697840,-1378.971896,296.082377
1183.963528,-9696.697840,-536.266849,296.082377
1183.963839,-9770.718434,-153.219100,-0.000000
1183.964151,-10214.842000,153.219100,-148.041188
1183.964462,-9918.759623,689.485948,444.123565
1183.964773,-9474.636058,1302.362347,518.144159
1183.965085,-9474.636058,995.924147,444.123565
1183.965396,-9400.615463,612.876398,740.205942
1183.965707,-8956.491898,536.266849,518.144159
1183.966019,-8364.327145,766.095498,148.041188
1183.966330,-8216.285956,459.657299,-0.000000
1183.966641,-7920.203579,-229.828649,740.205942
1183.966953,-8068.244768,-995.924147,370.102971
1183.967264,-7772.162391,-1225.752797,370.102971
1183.967575,-8068.244768,-1302.362347,370.102971
1183.967887,-8660.409521,-1532.190996,222.061783
1183.968198,-9252.574275,-1072.533697,444.123565
1183.968509,-10066.800811,-995.924147,148.041188
1183.968821,-9400.615463,-612.876398,1406.391290
1183.969132,-9474.636058,-229.828649,1258.350101
1183.969443,-9400.615463,229.828649,1258.350101
1183.969755,-8808.450710,306.438199,962.267725
1183.970066,-8364.327145,153.219100,1036.288319
1183.970378,-7846.182985,459.657299,962.267725
1183.970689,-7254.018232,536.266849,444.123565
1183.971000,-7328.038826,306.438199,-0.000000
1183.971312,-8142.265362,536.266849,-666.185348
1183.971623,-7994.224174,689.485948,-518.144159
1183.971934,-8660.409521,536.266849,-592.164754
1183.972246,-9474.636058,306.438199,-74.020594
1183.972557,-10140.821405,229.828649,148.041188
1183.972868,-10288.862594,76.609550,518.144159
1183.973180,-9770.718434,306.438199,1110.308913
1183.973491,-9030.512492,-612.876398,814.226536
1183.973802,-9252.574275,-919.314598,666.185348
1183.974114,-8808.450710,-919.314598,962.267725
1183.974425,-8660.409521,-766.095498,814.226536
1183.974736,-9178.553681,-842.705048,666.185348
1183.975048,-9474.636058,-536.266849,592.164754
1183.975359,-9622.677246,-306.438199,-0.000000
1183.975671,-9992.780217,612.876398,-296.082377
1183.975982,-9696.697840,766.095498,-0.000000
1183.976293,-9474.636058,766.095498,296.082377
1183.976605,-9474.636058,1532.190996,518.144159
1183.976916,-9252.574275,1149.143247,962.267725
1183.977227,-8216.285956,1072.533697,1184.329507
1183.977539,-7846.182985,1072.533697,888.247130
1183.977850,-7994.224174,459.657299,148.041188
1183.978161,-7254.018232,-383.047749,592.164754
1183.978473,-7846.182985,-383.047749,222.061783
1183.978784,-8142.265362,-1225.752797,-0.000000
1183.979095,-8438.347739,-1149.143247,296.082377
1183.979407,-9104.533087,-1225.752797,148.041188
1183.979718,-9178.553681,-995.924147,592.164754
1183.980029,-9252.574275,-459.657299,740.205942
1183.980341,-9030.512492,-766.095498,1258.350101
1183.980652,-8956.491898,229.828649,1258.350101
1183.980964,-9252.574275,-383.047749,1702.473667
1183.981275,-8512.368333,229.828649,1332.370696
1183.981586,-8512.368333,229.828649,1184.329507
1183.981898,-8216.285956,536.266849,814.226536
1183.982209,-8438.347739,229.828649,370.102971
1183.982520,-8216.285956,612.876398,-0.000000
1183.982832,-7994.224174,0.000000,-370.102971
1183.983143,-8364.327145,612.876398,-666.185348
1183.983454,-8438.347739,612.876398,-740.205942
1183.983766,-9252.574275,459.657299,-444.123565
1183.984077,-9696.697840,0.000000,-0.000000
1183.984388,-9992.780217,-383.047749,814.226536
1183.984700,-9992.780217,-383.047749,1036.288319
1183.985011,-9400.615463,383.047749,962.267725
1183.985322,-9030.512492,-229.828649,740.205942
1183.985634,-8438.347739,-1072.533697,666.185348
1183.985945,-8216.285956,-919.314598,666.185348
1183.986256,-8808.450710,-919.314598,518.144159
1183.986568,-9252.574275,-1072.533697,666.185348
1183.986879,-9992.780217,-995.924147,592.164754
1183.987191,-10288.862594,-153.219100,518.144159
1183.987502,-10140.821405,0.000000,-0.000000
1183.987813,-9400.615463,842.705048,444.123565
1183.988125,-9178.553681,919.314598,592.164754
1183.988436,-8882.471304,612.876398,296.082377
1183.988747,-8734.430116,689.485948,518.144159
1183.989059,-8512.368333,919.314598,814.226536
1183.989370,-7846.182985,1149.143247,518.144159
1183.989681,-7920.203579,995.924147,222.061783
1183.989993,-7772.162391,0.000000,518.144159
1183.990304,-7698.141797,-919.314598,-0.000000
1183.990615,-7920.203579,-1455.581446,-0.000000
1183.990927,-8364.327145,-1149.143247,222.061783
1183.991238,-8660.409521,-1455.581446,222.061783
1183.991549,-9252.574275,-1762.019645,370.102971
1183.991861,-9474.636058,-1685.410096,666.185348
1183.992172,-9400.615463,-536.266849,962.267725
1183.992484,-9474.636058,-612.876398,1036.288319
1183.992795,-9030.512492,0.000000,1702.473667
1183.993106,-9252.574275,153.219100,1184.329507
1183.993418,-8364.327145,0.000000,1406.391290
1183.993729,-8068.244768,229.828649,888.247130
1183.994040,-7920.203579,306.438199,444.123565
1183.994352,-7920.203579,229.828649,-0.000000
1183.994663,-8438.347739,0.000000,-370.102971
1183.994974,-8142.265362,229.828649,-592.164754
1183.995286,-8438.347739,766.095498,-296.082377
1183.995597,-9252.574275,459.657299,-0.000000
1183.995908,-10066.800811,76.609550,296.082377
1183.996220,-10436.903782,0.000000,518.144159
1183.996531,-9918.759623,-383.047749,888.247130
1183.996842,-9326.594869,-459.657299,1258.350101
1183.997154,-8660.409521,-229.828649,1110.308913
1183.997465,-8734.430116,-536.266849,592.164754
1183.997777,-8586.388927,-995.924147,814.226536
1183.998088,-8734.430116,0.000000,444.123565
1183.998399,-9252.574275,-536.266849,814.226536
1183.998711,-9696.697840,-536.266849,592.164754
1183.999022,-9918.759623,0.000000,370.102971
1183.999333,-9474.636058,766.095498,518.144159
1183.999645,-9622.677246,1685.410096,444.123565
1183.999956,-9400.615463,1455.581446,1036.288319
1184.000267,-9474.636058,1302.362347,666.185348
1184.000579,-9178.553681,995.924147,814.226536
1184.000890,-8216.285956,766.095498,1332.370696
1184.001201,-7476.080014,459.657299,1184.329507
1184.001513,-7402.059420,153.219100,740.205942
1184.001824,-7105.977043,-153.219100,518.144159
1184.002135,-7328.038826,-995.924147,-0.000000
1184.002447,-6883.915261,-919.314598,444.123565
1184.002758,-8808.450710,-919.314598,222.061783
1184.003069,-9030.512492,-1072.533697,370.102971
1184.003381,-9252.574275,-612.876398,740.205942
1184.003692,-9474.636058,-459.657299,888.247130
1184.004004,-9326.594869,-306.438199,962.267725
1184.004315,-9178.553681,-229.828649,888.247130
1184.004626,-9104.533087,306.438199,1110.308913
1184.004938,-8882.471304,383.047749,962.267725
1184.005249,-8068.244768,689.485948,666.185348
1184.005560,-8438.347739,536.266849,592.164754
1184.005872,-8438.347739,0.000000,-0.000000
1184.006183,-7920.203579,153.219100,-296.082377
1184.006494,-8586.388927,76.609550,-518.144159
1184.006806,-8586.388927,0.000000,-740.205942
1184.007117,-9030.512492,306.438199,-444.123565
1184.007428,-9992.780217,229.828649,-296.082377
1184.007740,-9844.739029,-229.828649,296.082377
1184.008051,-10066.800811,-766.095498,592.164754
1184.008362,-9992.780217,-306.438199,444.123565
1184.008674,-9474.636058,-229.828649,666.185348
1184.008985,-8808.450710,-842.705048,518.144159
1184.009297,-8438.347739,-1532.190996,518.144159
1184.009608,-9104.533087,-1149.143247,444.123565
1184.009919,-9252.574275,-1455.581446,666.185348
1184.010231,-9918.759623,-842.705048,-0.000000
1184.010542,-10140.821405,-459.657299,296.082377
1184.010853,-10066.800811,-229.828649,148.041188
1184.011165,-9548.656652,0.000000,222.061783
1184.011476,-9548.656652,383.047749,518.144159
1184.011787,-9252.574275,995.924147,518.144159
1184.012099,-9474.636058,1072.533697,-74.020594
1184.012410,-8808.450710,1225.752797,740.205942
1184.012721,-8216.285956,1072.533697,666.185348
1184.013033,-7846.182985,842.705048,518.144159
1184.013344,-7328.038826,612.876398,666.185348
1184.013655,-7402.059420,0.000000,666.185348
1184.013967,-8512.368333,-689.485948,370.102971
1184.014278,-8068.244768,-1072.533697,370.102971
1184.014590,-7698.141797,-1225.752797,592.164754
1184.014901,-8734.430116,-1685.410096,222.061783
1184.015212,-9400.615463,-1685.410096,888.247130
1184.015524,-9474.636058,-1762.019645,1184.329507
1184.015835,-9178.553681,-995.924147,1480.411884
1184.016146,-9252.574275,-306.438199,1702.473667
1184.016458,-9474.636058,0.000000,962.267725
1184.016769,-8586.388927,153.219100,1258.350101
1184.017080,-7772.162391,-229.828649,962.267725
1184.017392,-7624.121203,459.657299,222.061783
1184.017703,-7624.121203,459.657299,370.102971
1184.018014,-7920.203579,383.047749,-296.082377
1184.018326,-8364.327145,229.828649,-222.061783
1184.018637,-8586.388927,153.219100,-222.061783
1184.018948,-8956.491898,536.266849,-518.144159
1184.019260,-9918.759623,0.000000,-0.000000
1184.019571,-10288.862594,-306.438199,-0.000000
1184.019883,-10140.821405,-306.438199,370.102971
1184.020194,-9474.636058,-153.219100,740.205942
1184.020505,-9030.512492,-536.266849,888.247130
1184.020817,-9252.574275,-766.095498,592.164754
1184.021128,-9326.594869,-536.266849,814.226536
1184.021439,-9104.533087,-995.924147,666.185348
1184.021751,-9178.553681,-766.095498,814.226536
1184.022062,-9548.656652,-229.828649,370.102971
1184.022373,-9918.759623,-229.828649,222.061783
1184.022685,-10140.821405,153.219100,-0.000000
