#time,accel_x,accel_y,accel_z
1359.815819,-9104.533087,-306.438199,592.164754
1359.816130,-9104.533087,-153.219100,518.144159
1359.816441,-8882.471304,0.000000,370.102971
1359.816753,-8586.388927,-229.828649,518.144159
1359.817064,-9030.512492,0.000000,592.164754
1359.817375,-8808.450710,153.219100,370.102971
1359.817687,-8882.471304,0.000000,518.144159
1359.817998,-9252.574275,0.000000,592.164754
1359.818309,-8956.491898,0.000000,592.164754
1359.818621,-8808.450710,306.438199,592.164754
1359.818932,-9104.533087,-383.047749,518.144159
1359.819243,-8512.368333,0.000000,370.102971
1359.819555,-8956.491898,153.219100,-0.000000
1359.819866,-8808.450710,76.609550,370.102971
1359.820177,-8882.471304,-153.219100,592.164754
1359.820489,-9030.512492,0.000000,444.123565
1359.820800,-8956.491898,0.000000,518.144159
1359.821111,-8956.491898,306.438199,518.144159
1359.821423,-9178.553681,-306.438199,296.082377
1359.821734,-9030.512492,0.000000,-0.000000
1359.822045,-8734.430116,-306.438199,370.102971
1359.822356,-9104.533087,0.000000,518.144159
1359.822668,-9178.553681,0.000000,592.164754
1359.822979,-8956.491898,0.000000,666.185348
1359.823290,-9104.533087,0.000000,518.144159
1359.823602,-8956.491898,76.609550,370.102971
1359.823913,-8660.409521,76.609550,296.082377
1359.824224,-8660.409521,229.828649,444.123565
1359.824536,-8660.409521,0.000000,370.102971
1359.824847,-8808.450710,153.219100,740.205942
1359.825158,-8882.471304,0.000000,518.144159
1359.825470,-9030.512492,-306.438199,666.185348
1359.825781,-8660.409521,-229.828649,592.164754
1359.826092,-9104.533087,-612.876398,222.061783
1359.826404,-8512.368333,306.438199,888.247130
1359.826715,-8882.471304,229.828649,518.144159
1359.827026,-9178.553681,229.828649,740.205942
1359.827338,-9030.512492,-229.828649,518.144159
1359.827649,-8956.491898,0.000000,518.144159
1359.827960,-9030.512492,0.000000,444.123565
1359.828272,-8882.471304,459.657299,370.102971
1359.828583,-8956.491898,0.000000,370.102971
1359.828894,-8956.491898,689.485948,518.144159
1359.829206,-8734.430116,153.219100,518.144159
1359.829517,-8956.491898,0.000000,444.123565
1359.829828,-8956.491898,0.000000,518.144159
1359.830140,-8882.471304,0.000000,666.185348
1359.830451,-8956.491898,0.000000,518.144159
1359.830762,-8512.368333,76.609550,444.123565
1359.831074,-9030.512492,229.828649,296.082377
1359.831385,-9178.553681,0.000000,814.226536
1359.831696,-9104.533087,-459.657299,592.164754
1359.832008,-8882.471304,-229.828649,740.205942
1359.832319,-8882.471304,76.609550,518.144159
1359.832630,-9030.512492,153.219100,518.144159
1359.832942,-8956.491898,-383.047749,518.144159
1359.833253,-9252.574275,153.219100,296.082377
1359.833564,-9030.512492,0.000000,296.082377
1359.833875,-8438.347739,-153.219100,740.205942
1359.834187,-8734.430116,0.000000,888.247130
1359.834498,-8956.491898,-229.828649,444.123565
1359.834809,-8882.471304,0.000000,518.144159
1359.835121,-8734.430116,-229.828649,592.164754
1359.835432,-8882.471304,-689.485948,740.205942
1359.835743,-8734.430116,-689.485948,518.144159
1359.836055,-9030.512492,0.000000,592.164754
1359.836366,-8734.430116,0.000000,740.205942
1359.836677,-8734.430116,-459.657299,666.185348
1359.836989,-8882.471304,0.000000,592.164754
1359.837300,-9030.512492,76.609550,518.144159
1359.837611,-9030.512492,0.000000,592.164754
1359.837923,-9030.512492,-459.657299,592.164754
1359.838234,-8882.471304,0.000000,370.102971
1359.838545,-9326.594869,383.047749,-0.000000
1359.838857,-8808.450710,0.000000,370.102971
1359.839168,-8882.471304,0.000000,370.102971
1359.839479,-9252.574275,0.000000,370.102971
1359.839791,-8956.491898,-306.438199,666.185348
1359.840102,-9104.533087,0.000000,592.164754
1359.840413,-8364.327145,0.000000,370.102971
1359.840725,-8438.347739,0.000000,666.185348
1359.841036,-8808.450710,0.000000,-222.061783
1359.841347,-8586.388927,0.000000,592.164754
1359.841659,-9030.512492,0.000000,518.144159
1359.841970,-8882.471304,0.000000,592.164754
1359.842281,-9178.553681,0.000000,592.164754
1359.842593,-9030.512492,0.000000,444.123565
1359.842904,-9178.553681,-229.828649,222.061783
1359.843215,-8438.347739,76.609550,444.123565
1359.843527,-8808.450710,0.000000,740.205942
1359.843838,-8512.368333,-153.219100,370.102971
1359.844149,-8956.491898,76.609550,370.102971
1359.844461,-8956.491898,0.000000,518.144159
1359.844772,-8956.491898,0.000000,666.185348
1359.845083,-8956.491898,0.000000,518.144159
1359.845395,-9104.533087,-229.828649,666.185348
1359.845706,-8734.430116,766.095498,370.102971
1359.846017,-8882.471304,0.000000,296.082377
1359.846328,-9104.533087,0.000000,-0.000000
1359.846640,-9030.512492,-153.219100,592.164754
1359.846951,-8882.471304,0.000000,444.123565
1359.847262,-8956.491898,0.000000,592.164754
1359.847574,-9030.512492,-383.047749,518.144159
1359.847885,-8734.430116,0.000000,814.226536
1359.848196,-10214.842000,306.438199,-0.000000
1359.848508,-11547.212695,1455.581446,296.082377
1359.848819,-9844.739029,3983.696590,740.205942
1359.849130,-7994.224174,4366.744339,740.205942
1359.849442,-7105.977043,2374.896044,1332.370696
1359.849753,-6217.729913,-612.876398,1036.288319
1359.850064,-7179.997637,-1608.800546,-518.144159
1359.850376,-6661.853478,-689.485948,-148.041188
1359.850687,-9622.677246,-842.705048,-1110.308913
1359.850998,-12657.521608,-919.314598,-592.164754
1359.851310,-11103.089130,612.876398,518.144159
1359.851621,-9474.636058,229.828649,962.267725
1359.851932,-8734.430116,-766.095498,2886.803174
1359.852244,-11251.130318,-459.657299,1998.556043
1359.852555,-10584.944971,2987.772442,2294.638420
1359.852866,-5773.606348,5515.887586,2738.761985
1359.853178,-6069.688724,3753.867940,1554.432478
1359.853489,-7698.141797,2911.162892,-0.000000
1359.853800,-6957.935855,3524.039291,-1924.535449
1359.854112,-8882.471304,3677.258390,-1998.556043
1359.854423,-9178.553681,4366.744339,-222.061783
1359.854734,-10214.842000,3677.258390,-1258.350101
1359.855046,-14730.098246,0.000000,-0.000000
1359.855357,-10066.800811,-383.047749,2516.700203
1359.855668,-9622.677246,459.657299,1110.308913
1359.855980,-9548.656652,4979.620737,1628.453072
1359.856291,-7550.100608,7584.345430,2368.659014
1359.856602,-8142.265362,4060.306139,1924.535449
1359.856914,-5847.626942,3753.867940,2516.700203
1359.857225,-6365.771101,6358.592633,740.205942
1359.857536,-8438.347739,7737.564530,-1184.329507
1359.857848,-8882.471304,7124.688131,-1406.391290
1359.858159,-9696.697840,4979.620737,-1480.411884
1359.858470,-9474.636058,4903.011187,-1998.556043
1359.858781,-10881.027347,4903.011187,-0.000000
1359.859093,-11991.336260,4290.134789,962.267725
1359.859404,-11621.233289,3217.601092,2442.679609
1359.859715,-9400.615463,3907.087040,2590.720797
1359.860027,-7476.080014,4443.353888,1998.556043
1359.860338,-5403.503377,4826.401637,962.267725
1359.860649,-5921.647536,4366.744339,666.185348
1359.860961,-5181.441594,4826.401637,-0.000000
1359.861272,-5477.523971,4443.353888,-814.226536
1359.861583,-7105.977043,4366.744339,-370.102971
1359.861895,-8808.450710,2834.553343,-888.247130
1359.862206,-9622.677246,2221.676944,-222.061783
1359.862517,-10362.883188,383.047749,444.123565
1359.862829,-10658.965565,0.000000,1776.494261
1359.863140,-11547.212695,153.219100,1406.391290
1359.863451,-11547.212695,2374.896044,1998.556043
1359.863763,-9548.656652,2834.553343,1998.556043
1359.864074,-7328.038826,3140.991542,740.205942
1359.864385,-6661.853478,2757.943793,-0.000000
1359.864697,-6217.729913,2987.772442,-1184.329507
1359.865008,-6143.709319,3600.648841,-1258.350101
1359.865319,-6439.791695,2911.162892,-1628.453072
1359.865631,-8142.265362,0.000000,-370.102971
1359.865942,-10436.903782,-2604.724693,-296.082377
1359.866253,-12213.398043,-2451.505594,1110.308913
1359.866565,-13619.789333,-1685.410096,1628.453072
1359.866876,-13767.830521,-1149.143247,1702.473667
1359.867187,-13915.871710,459.657299,1406.391290
1359.867499,-12139.377449,2911.162892,518.144159
1359.867810,-9178.553681,4443.353888,-0.000000
1359.868121,-7179.997637,4443.353888,-444.123565
1359.868433,-6365.771101,5515.887586,222.061783
1359.868744,-6069.688724,5362.668486,-0.000000
1359.869055,-7105.977043,3983.696590,-0.000000
1359.869367,-9474.636058,2834.553343,-740.205942
1359.869678,-10436.903782,2451.505594,-0.000000
1359.869989,-12287.418637,1225.752797,-444.123565
1359.870300,-13027.624579,459.657299,-0.000000
1359.870612,-13619.789333,536.266849,518.144159
1359.870923,-12435.459826,2451.505594,888.247130
1359.871234,-10140.821405,4060.306139,2072.576638
1359.871546,-8364.327145,4136.915689,2072.576638
1359.871857,-4071.132681,4979.620737,2072.576638
1359.872168,-1924.535449,6128.763984,296.082377
1359.872480,-962.267725,6588.421283,-0.000000
1359.872791,-1480.411884,5592.497135,-1702.473667
1359.873102,-5255.462188,3753.867940,-1628.453072
1359.873414,-9178.553681,2757.943793,-1036.288319
1359.873725,-12879.583391,2834.553343,370.102971
1359.874036,-15248.242405,3140.991542,1628.453072
1359.874348,-15692.365970,3370.820191,3404.947333
1359.874659,-13545.768739,2221.676944,3997.112087
1359.874970,-9326.594869,1991.848295,3182.885551
1359.875282,-4737.318029,3294.210641,1924.535449
1359.875593,-2220.617826,4749.792088,370.102971
1359.875904,-2368.659014,5975.544884,-888.247130
1359.876216,-2664.741391,6281.983084,-2146.597232
1359.876527,-5181.441594,5745.716235,-2294.638420
1359.876838,-8068.244768,3907.087040,-1110.308913
1359.877150,-10140.821405,1915.238745,-222.061783
1359.877461,-11473.192101,-689.485948,592.164754
1359.877772,-12805.562797,-3217.601092,1776.494261
1359.878084,-13101.645173,-3600.648841,2146.597232
1359.878395,-13767.830521,-1762.019645,1332.370696
1359.878706,-13471.748144,1225.752797,1406.391290
1359.879018,-12213.398043,3370.820191,1628.453072
1359.879329,-10807.006753,5286.058936,1850.514855
1359.879640,-7846.182985,6358.592633,1924.535449
1359.879952,-6809.894666,4596.572988,296.082377
1359.880263,-5773.606348,3447.429741,-148.041188
1359.880574,-5995.668130,3524.039291,-1554.432478
1359.880886,-7624.121203,4290.134789,-2960.823768
1359.881197,-9252.574275,4673.182538,-2960.823768
1359.881508,-10881.027347,4213.525239,-1776.494261
1359.881820,-11843.295072,2451.505594,-518.144159
1359.882131,-11769.274478,536.266849,1554.432478
1359.882442,-12435.459826,-842.705048,2146.597232
1359.882753,-12287.418637,1149.143247,2072.576638
1359.883065,-10732.986159,3294.210641,1184.329507
1359.883376,-8660.409521,4443.353888,-0.000000
1359.883687,-6661.853478,4136.915689,-148.041188
1359.883999,-6587.832884,2298.286494,-1258.350101
1359.884310,-5847.626942,1608.800546,-74.020594
1359.884621,-5477.523971,1532.190996,-0.000000
1359.884933,-7402.059420,766.095498,296.082377
1359.885244,-8586.388927,-229.828649,1258.350101
1359.885555,-7328.038826,-1532.190996,1998.556043
1359.885867,-6439.791695,-2834.553343,1628.453072
1359.886178,-6735.874072,-2298.286494,1554.432478
1359.886489,-7772.162391,-153.219100,518.144159
1359.886801,-9992.780217,2987.772442,-222.061783
1359.887112,-11251.130318,5745.716235,-666.185348
1359.887423,-11325.150913,6281.983084,-370.102971
1359.887735,-10807.006753,4903.011187,592.164754
1359.888046,-9252.574275,2757.943793,1184.329507
1359.888357,-7476.080014,766.095498,1924.535449
1359.888669,-6291.750507,459.657299,2738.761985
1359.888980,-5329.482782,-1149.143247,3182.885551
1359.889291,-4293.194464,-2528.115143,1628.453072
1359.889603,-4737.318029,-3753.867940,592.164754
1359.889914,-5625.565159,-2757.943793,-814.226536
1359.890225,-8142.265362,-1991.848295,-1776.494261
1359.890537,-11843.295072,-612.876398,-2072.576638
1359.890848,-14730.098246,1378.971896,-1554.432478
1359.891160,-17098.757260,2987.772442,-0.000000
1359.891471,-17394.839637,1532.190996,2220.617826
1359.891783,-14434.015869,612.876398,3478.967927
1359.892094,-11547.212695,-1302.362347,2590.720797
1359.892406,-7698.141797,-1455.581446,2516.700203
1359.892718,-4293.194464,-2298.286494,2146.597232
1359.893029,-1776.494261,-3524.039291,1406.391290
1359.893341,-2812.782580,-4136.915689,962.267725
1359.893652,-4737.318029,-5132.839837,962.267725
1359.893964,-5107.421000,-3753.867940,-1924.535449
1359.894276,-9548.656652,0.000000,-2886.803174
1359.894587,-13027.624579,1838.629195,-4071.132681
1359.894899,-16506.592507,2757.943793,-2960.823768
1359.895210,-16802.674883,2757.943793,592.164754
1359.895522,-15100.201217,842.705048,2886.803174
1359.895833,-13767.830521,-1762.019645,4885.359217
1359.896145,-9918.759623,-2834.553343,4441.235652
1359.896457,-6957.935855,-1762.019645,3108.864956
1359.896768,-1850.514855,-383.047749,1924.535449
1359.897080,518.144159,0.000000,592.164754
1359.897391,0.000000,-2068.457845,-592.164754
1359.897703,-1480.411884,-1762.019645,-3997.112087
1359.898014,-5255.462188,766.095498,-4071.132681
1359.898326,-10066.800811,4596.572988,-4145.153275
1359.898638,-15840.407159,5822.325785,-3108.864956
1359.898949,-18875.251521,4749.792088,-74.020594
1359.899261,-18431.127956,2987.772442,2294.638420
1359.899572,-15248.242405,766.095498,4071.132681
1359.899884,-11769.274478,-306.438199,4367.215058
1359.900196,-6883.915261,-1532.190996,4589.276840
1359.900507,0.000000,-1991.848295,3478.967927
1359.900819,1258.350101,-2528.115143,1480.411884
1359.901130,1110.308913,-4060.306139,-814.226536
1359.901442,-666.185348,-3064.381992,-4737.318029
1359.901753,-5477.523971,536.266849,-5773.606348
1359.902065,-10288.862594,4290.134789,-5847.626942
1359.902377,-17172.777854,5745.716235,-3034.844362
1359.902688,-21317.931130,4443.353888,518.144159
1359.903000,-21614.013506,2068.457845,4737.318029
1359.903311,-18875.251521,-612.876398,6957.935855
1359.903623,-13767.830521,-689.485948,6069.688724
1359.903934,-7031.956449,1225.752797,4145.153275
1359.904246,2442.679609,2068.457845,1998.556043
1359.904558,4367.215058,-306.438199,-444.123565
1359.904869,4071.132681,-3983.696590,-814.226536
1359.905181,2146.597232,-3064.381992,-5329.482782
1359.905492,-5107.421000,995.924147,-3108.864956
1359.905804,-11325.150913,2681.334243,-3552.988522
1359.906116,-18357.107362,3140.991542,-1924.535449
1359.906427,-22576.281231,3524.039291,740.205942
1359.906739,-20799.786970,1762.019645,3997.112087
1359.907050,-17987.004391,-229.828649,6365.771101
1359.907362,-15174.221811,-1302.362347,5625.565159
1359.907673,-9178.553681,-536.266849,4663.297435
1359.907985,-740.205942,-2451.505594,3552.988522
1359.908297,1850.514855,-3830.477490,2516.700203
1359.908608,4737.318029,-5592.497135,2072.576638
1359.908920,4737.318029,-5056.230287,-4737.318029
1359.909231,-444.123565,-3217.601092,-3182.885551
1359.909543,-7105.977043,-919.314598,-4737.318029
1359.909854,-14952.160028,2068.457845,-3256.906145
1359.910166,-21984.116477,2451.505594,-0.000000
1359.910478,-23760.610738,306.438199,4367.215058
1359.910789,-22354.219448,-2374.896044,8438.347739
1359.911101,-18801.230927,-3217.601092,7920.203579
1359.911412,-12435.459826,-1302.362347,6291.750507
1359.911724,-1628.453072,-1762.019645,3034.844362
1359.912036,2294.638420,-766.095498,1184.329507
1359.912347,5329.482782,-1532.190996,-370.102971
1359.912659,7105.977043,-2145.067394,-6069.688724
1359.912970,2368.659014,306.438199,-5699.585753
1359.913282,-3552.988522,3524.039291,-6587.832884
1359.913593,-12435.459826,3907.087040,-5403.503377
1359.913905,-21095.869347,3064.381992,-1998.556043
1359.914217,-24648.857869,1608.800546,2368.659014
1359.914528,-23834.631332,-306.438199,7105.977043
1359.914840,-20429.683999,-2451.505594,7105.977043
1359.915151,-16062.468941,-2145.067394,5995.668130
1359.915463,-5847.626942,-1991.848295,2664.741391
1359.915774,3404.947333,-1455.581446,1776.494261
1359.916086,5773.606348,-2451.505594,-1480.411884
1359.916398,7402.059420,-4749.792088,-3997.112087
1359.916709,4367.215058,-2451.505594,-7846.182985
1359.917021,-2516.700203,-766.095498,-7476.080014
1359.917332,-11547.212695,2374.896044,-6809.894666
1359.917644,-21984.116477,4213.525239,-2516.700203
1359.917956,-26351.331535,3600.648841,2220.617826
1359.918267,-26795.455100,229.828649,7254.018232
1359.918579,-23390.507767,-2757.943793,8364.327145
1359.918890,-16728.654289,-995.924147,6883.915261
1359.919202,-7328.038826,1532.190996,4219.173869
1359.919513,5181.441594,459.657299,888.247130
1359.919825,7550.100608,-689.485948,-2146.597232
1359.920137,6143.709319,-1225.752797,-3627.009116
1359.920448,5181.441594,-153.219100,-9252.574275
1359.920760,-2664.741391,4519.963438,-7105.977043
1359.921071,-10436.903782,4826.401637,-7031.956449
1359.921383,-19689.478057,5362.668486,-3108.864956
1359.921694,-25611.125593,3140.991542,1924.535449
1359.922006,-25241.022622,0.000000,6661.853478
1359.922318,-22576.281231,-1838.629195,10214.842000
1359.922629,-16358.551318,-2528.115143,8882.471304
1359.922941,-7624.121203,-383.047749,6217.729913
1359.923252,0.000000,-459.657299,3701.029710
1359.923564,5773.606348,-3677.258390,2294.638420
1359.923876,9770.718434,-4213.525239,-4071.132681
1359.924187,5847.626942,-2145.067394,-6809.894666
1359.924499,-2072.576638,-459.657299,-8290.306550
1359.924810,-8216.285956,2757.943793,-7254.018232
1359.925122,-16580.613101,6052.154434,-2960.823768
1359.925433,-23316.487173,2987.772442,1850.514855
1359.925745,-24278.754898,-1532.190996,8438.347739
1359.926057,-23390.507767,-3064.381992,10214.842000
1359.926368,-18283.086767,-689.485948,9696.697840
1359.926680,-10881.027347,0.000000,7254.018232
1359.926991,0.000000,-306.438199,4737.318029
1359.927303,9104.533087,-842.705048,1332.370696
1359.927614,11103.089130,-2451.505594,-5033.400406
1359.927926,7476.080014,-2221.676944,-6217.729913
1359.928238,296.082377,1072.533697,-8216.285956
1359.928549,-6957.935855,5056.230287,-6291.750507
1359.928861,-16506.592507,3830.477490,-4071.132681
1359.929172,-24130.713709,2145.067394,1110.308913
1359.929484,-25907.207970,-536.266849,6883.915261
1359.929796,-23612.569550,-3600.648841,9178.553681
1359.930107,-19615.457463,-3294.210641,9770.718434
1359.930419,-13471.748144,-842.705048,8734.430116
1359.930730,-3627.009116,-1149.143247,5329.482782
1359.931042,4293.194464,-2145.067394,1702.473667
1359.931353,8142.265362,-2681.334243,-3849.070898
1359.931665,8142.265362,-1455.581446,-6883.915261
1359.931977,4071.132681,766.095498,-9992.780217
1359.932288,-5033.400406,2221.676944,-8956.491898
1359.932600,-14878.139434,3370.820191,-5773.606348
1359.932911,-22650.301825,3064.381992,888.247130
1359.933223,-26795.455100,-1149.143247,6217.729913
1359.933534,-26943.496289,-4903.011187,9992.780217
1359.933846,-22428.240043,-4290.134789,10066.800811
1359.934158,-12657.521608,-1225.752797,7476.080014
1359.934469,-4071.132681,-842.705048,3627.009116
1359.934781,2294.638420,-1149.143247,444.123565
1359.935092,7476.080014,-3217.601092,-3923.091493
1359.935404,9474.636058,-1378.971896,-8364.327145
1359.935716,5403.503377,995.924147,-9030.512492
1359.936027,-3478.967927,2604.724693,-9770.718434
1359.936339,-13619.789333,3217.601092,-6513.812290
1359.936650,-20355.663405,3370.820191,-740.205942
1359.936962,-24500.816680,-612.876398,4515.256246
1359.937273,-24944.940245,-3524.039291,9548.656652
1359.937585,-23168.445985,-1455.581446,9326.594869
1359.937897,-17764.942608,459.657299,6957.935855
1359.938208,-5921.647536,153.219100,3330.926739
1359.938520,1184.329507,766.095498,518.144159
1359.938831,6069.688724,-689.485948,-1258.350101
1359.939143,10214.842000,-1302.362347,-8512.368333
1359.939454,5625.565159,0.000000,-9030.512492
1359.939766,-2072.576638,2681.334243,-10140.821405
1359.940078,-12065.356855,5132.839837,-7254.018232
1359.940389,-19911.539840,4826.401637,-1776.494261
1359.940701,-26425.352129,1072.533697,3849.070898
1359.941012,-27757.722825,-3217.601092,10362.883188
1359.941324,-24278.754898,-3983.696590,10362.883188
1359.941636,-17542.880825,-612.876398,8586.388927
1359.941947,-6661.853478,-229.828649,5921.647536
1359.942259,3256.906145,-459.657299,2886.803174
1359.942570,6957.935855,-2528.115143,-1480.411884
1359.942882,9696.697840,0.000000,-7550.100608
1359.943193,4367.215058,2681.334243,-7254.018232
1359.943505,-2368.659014,4979.620737,-9474.636058
1359.943817,-11547.212695,6205.373534,-6513.812290
1359.944128,-18653.189738,4979.620737,-2590.720797
1359.944440,-22280.198854,1455.581446,3775.050304
1359.944751,-24130.713709,-2145.067394,8290.306550
1359.945063,-22576.281231,-1915.238745,9992.780217
1359.945374,-15026.180623,-536.266849,9770.718434
1359.945686,-8216.285956,-306.438199,7698.141797
1359.945998,-1628.453072,-1838.629195,5255.462188
1359.946309,7846.182985,-153.219100,666.185348
1359.946621,9770.718434,-1915.238745,-5403.503377
1359.946932,7550.100608,-1762.019645,-6809.894666
1359.947244,1110.308913,1685.410096,-8956.491898
1359.947556,-7550.100608,3600.648841,-7476.080014
1359.947867,-16728.654289,2987.772442,-2146.597232
1359.948179,-23686.590144,383.047749,4885.359217
1359.948490,-26055.249158,-2604.724693,8438.347739
1359.948802,-25167.002028,-4979.620737,11325.150913
1359.949113,-18431.127956,-3983.696590,11029.068536
1359.949425,-10362.883188,-306.438199,7550.100608
1359.949737,-2368.659014,459.657299,3404.947333
1359.950048,6217.729913,229.828649,-74.020594
1359.950360,9474.636058,-1302.362347,-4811.338623
1359.950671,8142.265362,-536.266849,-6735.874072
1359.950983,1332.370696,2604.724693,-8586.388927
1359.951294,-6661.853478,3217.601092,-7328.038826
1359.951606,-15618.345376,3677.258390,-3478.967927
1359.951918,-21465.972318,1915.238745,2368.659014
1359.952229,-24648.857869,-2298.286494,6513.812290
1359.952541,-24426.796086,-5669.106685,9400.615463
1359.952852,-20577.725188,-2834.553343,9548.656652
1359.953164,-12731.542202,-766.095498,7179.997637
1359.953476,-6291.750507,-2374.896044,3256.906145
1359.953787,1850.514855,-1455.581446,-0.000000
1359.954099,7698.141797,-612.876398,-4589.276840
1359.954410,9104.533087,-1915.238745,-8142.265362
1359.954722,3849.070898,229.828649,-9548.656652
1359.955033,-4589.276840,2681.334243,-9400.615463
1359.955345,-13693.809927,3140.991542,-5773.606348
1359.955657,-21391.951724,1378.971896,814.226536
1359.955968,-26129.269753,-2068.457845,5773.606348
1359.956280,-27313.599260,-3830.477490,9400.615463
1359.956591,-22502.260637,-1762.019645,9030.512492
1359.956903,-15248.242405,689.485948,6069.688724
1359.957214,-4959.379811,1225.752797,2146.597232
1359.957526,2960.823768,1685.410096,-74.020594
1359.957838,6143.709319,0.000000,-3627.009116
1359.958149,8956.491898,-229.828649,-8512.368333
1359.958461,3775.050304,3677.258390,-9696.697840
1359.958772,-3923.091493,5669.106685,-10214.842000
1359.959084,-12509.480420,5592.497135,-6957.935855
1359.959396,-19837.519246,4060.306139,222.061783
1359.959707,-25167.002028,-229.828649,4885.359217
1359.960019,-27091.537477,-4060.306139,9770.718434
1359.960330,-23242.466579,-2451.505594,10584.944971
1359.960642,-15618.345376,995.924147,7254.018232
1359.960953,-6587.832884,689.485948,4663.297435
1359.961265,3182.885551,-1072.533697,2368.659014
1359.961577,9844.739029,-1455.581446,-3182.885551
1359.961888,10214.842000,-1302.362347,-7920.203579
1359.962200,3330.926739,766.095498,-7994.224174
1359.962511,-4589.276840,4213.525239,-9474.636058
1359.962823,-12953.603985,5745.716235,-4885.359217
1359.963134,-20059.581028,3064.381992,-0.000000
1359.963446,-23612.569550,-1991.848295,6291.750507
1359.963758,-23982.672521,-4673.182538,9622.677246
1359.964069,-21984.116477,-2451.505594,10436.903782
1359.964381,-15396.283594,612.876398,9030.512492
1359.964692,-8142.265362,-459.657299,6513.812290
1359.965004,2590.720797,919.314598,3849.070898
1359.965315,7476.080014,306.438199,-1406.391290
1359.965627,8438.347739,-1762.019645,-5477.523971
1359.965939,5033.400406,536.266849,-6365.771101
1359.966250,-1184.329507,4213.525239,-9474.636058
1359.966562,-10288.862594,3753.867940,-6439.791695
1359.966873,-18209.066173,2451.505594,-1628.453072
1359.967185,-23464.528361,76.609550,3701.029710
1359.967497,-25537.104999,-3294.210641,8438.347739
1359.967808,-22798.343014,-5056.230287,11473.192101
1359.968120,-15692.365970,-3753.867940,9844.739029
1359.968431,-9770.718434,-2068.457845,7846.182985
1359.968743,-444.123565,-995.924147,4293.194464
1359.969054,7402.059420,-1532.190996,-148.041188
1359.969366,9918.759623,-2374.896044,-5181.441594
1359.969678,6587.832884,-1608.800546,-7179.997637
1359.969989,-1110.308913,1608.800546,-9326.594869
1359.970301,-9622.677246,3600.648841,-7179.997637
1359.970612,-18357.107362,3370.820191,-2146.597232
1359.970924,-24130.713709,-536.266849,3849.070898
1359.971235,-26351.331535,-4749.792088,7179.997637
1359.971547,-23834.631332,-4979.620737,9992.780217
1359.971859,-17616.901420,-2221.676944,8808.450710
1359.972170,-9400.615463,-1072.533697,6291.750507
1359.972482,-1554.432478,-1072.533697,2738.761985
1359.972793,5625.565159,-1225.752797,-444.123565
1359.973105,8734.430116,-1685.410096,-5921.647536
1359.973417,6587.832884,-919.314598,-7624.121203
1359.973728,-370.102971,3600.648841,-10881.027347
1359.974040,-7402.059420,4979.620737,-9178.553681
1359.974351,-15692.365970,4519.963438,-4885.359217
1359.974663,-22280.198854,1072.533697,1776.494261
1359.974974,-25759.166782,-2681.334243,6587.832884
1359.975286,-24130.713709,-4136.915689,9474.636058
1359.975598,-19541.436869,-1762.019645,8808.450710
1359.975909,-12657.521608,-229.828649,5847.626942
1359.976221,-2960.823768,459.657299,2368.659014
1359.976532,5181.441594,-1072.533697,-1554.432478
1359.976844,8216.285956,-995.924147,-6735.874072
1359.977155,7105.977043,-842.705048,-9104.533087
1359.977467,0.000000,2451.505594,-10140.821405
1359.977779,-8586.388927,5056.230287,-8882.471304
1359.978090,-16432.571912,4749.792088,-4515.256246
1359.978402,-23242.466579,1762.019645,2590.720797
1359.978713,-26425.352129,-3217.601092,7254.018232
1359.979025,-25537.104999,-4136.915689,10362.883188
1359.979337,-18875.251521,-383.047749,9918.759623
1359.979648,-11843.295072,1762.019645,6883.915261
1359.979960,-3256.906145,612.876398,3627.009116
1359.980271,6587.832884,-1455.581446,-74.020594
1359.980583,7402.059420,306.438199,-7105.977043
1359.980894,6291.750507,689.485948,-8660.409521
1359.981206,-296.082377,4060.306139,-9326.594869
1359.981518,-7624.121203,5898.935335,-8956.491898
1359.981829,-14656.077652,2834.553343,-3849.070898
1359.982141,-19689.478057,-612.876398,3552.988522
1359.982452,-21391.951724,-4290.134789,7994.224174
1359.982764,-22650.301825,-5286.058936,10955.047942
1359.983075,-20355.663405,-3294.210641,11991.336260
1359.983387,-15174.221811,-459.657299,8142.265362
1359.983699,-4737.318029,153.219100,4885.359217
1359.984010,6735.874072,995.924147,296.082377
1359.984322,7920.203579,-459.657299,-5181.441594
1359.984633,7476.080014,-1378.971896,-8660.409521
1359.984945,2220.617826,2068.457845,-8882.471304
1359.985257,-5107.421000,4366.744339,-8216.285956
1359.985568,-14508.036463,2987.772442,-3330.926739
1359.985880,-21910.095883,0.000000,3108.864956
1359.986191,-24426.796086,-3830.477490,8142.265362
1359.986503,-23982.672521,-6435.202183,11029.068536
1359.986814,-20429.683999,-4519.963438,12139.377449
1359.987126,-13249.686362,-536.266849,8882.471304
1359.987438,-5329.482782,-919.314598,5107.421000
1359.987749,5329.482782,-2374.896044,1036.288319
1359.988061,7105.977043,-2221.676944,-4441.235652
1359.988372,6883.915261,-536.266849,-7846.182985
1359.988684,1924.535449,3140.991542,-8586.388927
1359.988995,-5847.626942,4749.792088,-8808.450710
1359.989307,-14211.954086,3753.867940,-4219.173869
1359.989619,-20651.745782,1532.190996,1332.370696
1359.989930,-23390.507767,-2604.724693,6883.915261
1359.990242,-23982.672521,-5286.058936,9844.739029
1359.990553,-20207.622217,-3447.429741,10510.924376
1359.990865,-11325.150913,0.000000,7550.100608
1359.991177,-6217.729913,-1149.143247,4811.338623
1359.991488,2738.761985,-689.485948,814.226536
1359.991800,8364.327145,-612.876398,-3182.885551
1359.992112,7179.997637,-2528.115143,-8734.430116
1359.992423,2664.741391,0.000000,-8438.347739
1359.992735,-5329.482782,3140.991542,-9622.677246
1359.993047,-12879.583391,3370.820191,-4959.379811
1359.993358,-19763.498651,1685.410096,518.144159
1359.993670,-23464.528361,-3217.601092,5847.626942
1359.993982,-25389.063811,-4519.963438,8364.327145
1359.994293,-21984.116477,-2298.286494,9252.574275
1359.994605,-12139.377449,842.705048,6513.812290
1359.994917,-6661.853478,1915.238745,4219.173869
1359.995228,-666.185348,1608.800546,740.205942
1359.995540,6143.709319,-842.705048,-4589.276840
1359.995852,7994.224174,-306.438199,-9696.697840
1359.996163,4663.297435,1991.848295,-9770.718434
1359.996475,-2886.803174,4519.963438,-10510.924376
1359.996787,-11991.336260,3677.258390,-6143.709319
1359.997098,-19467.416275,2298.286494,-296.082377
1359.997410,-23834.631332,-1838.629195,6735.874072
1359.997722,-25167.002028,-5286.058936,10066.800811
1359.998033,-22724.322419,-3677.258390,10955.047942
1359.998345,-13175.665768,-919.314598,7476.080014
1359.998657,-6291.750507,842.705048,3627.009116
1359.998968,148.041188,383.047749,1332.370696
1359.999280,8882.471304,306.438199,-4145.153275
1359.999592,9474.636058,-612.876398,-8068.244768
1359.999903,3182.885551,-1072.533697,-7179.997637
1360.000215,-3775.050304,1455.581446,-7846.182985
1360.000527,-13397.727550,3140.991542,-4441.235652
1360.000838,-20725.766376,1838.629195,592.164754
1360.001150,-23760.610738,-2068.457845,6957.935855
1360.001462,-24944.940245,-4749.792088,8882.471304
1360.001773,-21095.869347,-2298.286494,10214.842000
1360.002085,-14137.933492,1378.971896,7254.018232
1360.002397,-7624.121203,383.047749,5699.585753
1360.002708,2368.659014,-229.828649,2516.700203
1360.003020,6883.915261,153.219100,-2886.803174
1360.003332,7624.121203,-1608.800546,-5995.668130
1360.003643,3701.029710,0.000000,-6957.935855
1360.003955,-2294.638420,3677.258390,-7402.059420
1360.004267,-10807.006753,2987.772442,-4737.318029
1360.004578,-18061.024985,1302.362347,1184.329507
1360.004890,-21317.931130,-919.314598,5995.668130
1360.005202,-24352.775492,-4136.915689,9030.512492
1360.005513,-22650.301825,-4519.963438,11621.233289
1360.005825,-15988.448347,-306.438199,9104.533087
1360.006137,-8290.306550,1378.971896,6291.750507
1360.006448,1998.556043,0.000000,2664.741391
1360.006760,6735.874072,-995.924147,-2072.576638
1360.007072,8216.285956,-1149.143247,-6513.812290
1360.007383,5107.421000,229.828649,-7476.080014
1360.007695,-814.226536,2145.067394,-8882.471304
1360.008007,-10362.883188,3217.601092,-5995.668130
1360.008318,-18431.127956,3217.601092,-1110.308913
1360.008630,-21762.054695,-766.095498,4589.276840
1360.008942,-23908.651927,-5209.449386,8660.409521
1360.009253,-23168.445985,-4596.572988,10658.965565
1360.009565,-16284.530724,-536.266849,8586.388927
1360.009877,-9622.677246,-229.828649,5625.565159
1360.010188,0.000000,459.657299,2812.782580
1360.010500,4885.359217,-842.705048,-2072.576638
1360.010811,7254.018232,-2068.457845,-7328.038826
1360.011123,4959.379811,0.000000,-8364.327145
1360.011435,-1184.329507,3064.381992,-10140.821405
1360.011746,-9918.759623,4290.134789,-7402.059420
1360.012058,-17172.777854,4290.134789,-2738.761985
1360.012370,-21910.095883,1608.800546,3330.926739
1360.012681,-25463.084405,-1991.848295,7031.956449
1360.012993,-23686.590144,-3524.039291,9696.697840
1360.013305,-17987.004391,-1072.533697,7994.224174
1360.013616,-8142.265362,1608.800546,4737.318029
1360.013928,-2368.659014,1455.581446,222.061783
1360.014240,3775.050304,-536.266849,-962.267725
1360.014551,9178.553681,-1608.800546,-8364.327145
1360.014863,6217.729913,-766.095498,-8364.327145
1360.015175,-592.164754,1608.800546,-9400.615463
1360.015486,-9104.533087,2068.457845,-7402.059420
1360.015798,-18357.107362,2528.115143,-2442.679609
1360.016110,-23908.651927,-306.438199,3404.947333
1360.016421,-25759.166782,-3064.381992,7698.141797
1360.016733,-23908.651927,-2604.724693,9696.697840
1360.017045,-16136.489536,76.609550,8216.285956
1360.017356,-9326.594869,306.438199,5699.585753
1360.017668,-3849.070898,-1072.533697,3108.864956
1360.017980,5847.626942,-612.876398,-444.123565
1360.018291,9178.553681,306.438199,-5625.565159
1360.018603,5921.647536,-229.828649,-6957.935855
1360.018915,-962.267725,1838.629195,-8882.471304
1360.019226,-8290.306550,3830.477490,-6513.812290
1360.019538,-15322.262999,5822.325785,-2590.720797
1360.019850,-21762.054695,2528.115143,3775.050304
1360.020161,-24130.713709,-2145.067394,7179.997637
1360.020473,-22872.363608,-3447.429741,10658.965565
1360.020785,-17838.963202,-2221.676944,10658.965565
1360.021096,-8068.244768,153.219100,8068.244768
1360.021408,-962.267725,0.000000,2812.782580
1360.021720,5329.482782,-1149.143247,-0.000000
1360.022031,8660.409521,-2911.162892,-4515.256246
1360.022343,6661.853478,-1685.410096,-6365.771101
1360.022655,-296.082377,1991.848295,-7328.038826
1360.022966,-8882.471304,2221.676944,-5921.647536
1360.023278,-16506.592507,1685.410096,-2220.617826
1360.023590,-21836.075289,995.924147,3849.070898
1360.023901,-23982.672521,-2221.676944,7698.141797
1360.024213,-22280.198854,-4366.744339,10658.965565
1360.024525,-18949.272115,-1991.848295,10510.924376
1360.024836,-11177.109724,383.047749,8364.327145
1360.025148,-2886.803174,-459.657299,3182.885551
1360.025460,2590.720797,76.609550,-296.082377
1360.025771,6809.894666,383.047749,-4885.359217
1360.026083,5847.626942,229.828649,-7846.182985
1360.026395,888.247130,2528.115143,-8808.450710
1360.026706,-6883.915261,3830.477490,-7772.162391
1360.027018,-14730.098246,3677.258390,-4071.132681
1360.027330,-19541.436869,1762.019645,2072.576638
1360.027641,-22798.343014,-2528.115143,6291.750507
1360.027953,-22354.219448,-4903.011187,9548.656652
1360.028265,-19467.416275,-3064.381992,8882.471304
1360.028576,-14508.036463,-612.876398,6143.709319
1360.028888,-4367.215058,-536.266849,2072.576638
1360.029200,2960.823768,0.000000,-444.123565
1360.029511,5625.565159,-2451.505594,-4959.379811
1360.029823,5847.626942,-3294.210641,-7105.977043
1360.030135,1998.556043,-383.047749,-8290.306550
1360.030446,-5551.544565,1838.629195,-8068.244768
1360.030758,-13101.645173,2604.724693,-4663.297435
1360.031070,-19689.478057,1685.410096,-74.020594
1360.031381,-24130.713709,-689.485948,4367.215058
1360.031693,-24056.693115,-2757.943793,9030.512492
1360.032005,-21317.931130,-1685.410096,8660.409521
1360.032316,-16432.571912,1608.800546,6069.688724
1360.032628,-7772.162391,2298.286494,2664.741391
1360.032940,1702.473667,612.876398,-0.000000
1360.033251,5403.503377,995.924147,-5403.503377
1360.033563,7105.977043,0.000000,-8956.491898
1360.033874,2664.741391,1685.410096,-9844.739029
1360.034186,-4071.132681,3753.867940,-9548.656652
1360.034498,-12287.418637,4749.792088,-5847.626942
1360.034809,-19319.375086,2604.724693,-74.020594
1360.035121,-23686.590144,-2221.676944,5625.565159
1360.035433,-24722.878463,-5592.497135,9992.780217
1360.035744,-21021.848753,-4290.134789,10584.944971
1360.036056,-17320.819043,-919.314598,6957.935855
1360.036368,-7772.162391,612.876398,3775.050304
1360.036679,3552.988522,1838.629195,148.041188
1360.036991,6069.688724,1225.752797,-4663.297435
1360.037303,7476.080014,-306.438199,-7105.977043
1360.037614,3330.926739,229.828649,-7994.224174
1360.037926,-3997.112087,3140.991542,-7476.080014
1360.038238,-11177.109724,3447.429741,-3627.009116
1360.038549,-18505.148550,1762.019645,740.205942
1360.038861,-21984.116477,-1302.362347,5107.421000
1360.039173,-23464.528361,-3753.867940,9400.615463
1360.039484,-21169.889941,-2987.772442,10807.006753
1360.039796,-16654.633695,229.828649,8808.450710
1360.040108,-8882.471304,1225.752797,5477.523971
1360.040419,1776.494261,-229.828649,2886.803174
1360.040731,5033.400406,-919.314598,-1628.453072
1360.041043,7772.162391,-536.266849,-5181.441594
1360.041354,5847.626942,1915.238745,-6439.791695
1360.041666,-1036.288319,2911.162892,-7846.182985
1360.041978,-9696.697840,2911.162892,-4515.256246
1360.042289,-17542.880825,2681.334243,148.041188
1360.042601,-21317.931130,-229.828649,5329.482782
1360.042913,-23834.631332,-4596.572988,9770.718434
1360.043224,-23316.487173,-4979.620737,11325.150913
1360.043536,-16728.654289,-1225.752797,9030.512492
1360.043848,-9474.636058,689.485948,5403.503377
1360.044159,1554.432478,0.000000,2294.638420
1360.044471,6143.709319,-306.438199,-1850.514855
1360.044783,8364.327145,-1455.581446,-5625.565159
1360.045094,5921.647536,-459.657299,-6291.750507
1360.045406,-592.164754,919.314598,-7846.182985
1360.045718,-8882.471304,1608.800546,-4737.318029
1360.046029,-16284.530724,2221.676944,-814.226536
1360.046341,-21391.951724,0.000000,3701.029710
1360.046653,-24056.693115,-3830.477490,6957.935855
1360.046964,-23982.672521,-3524.039291,8808.450710
1360.047276,-20947.828159,-383.047749,7105.977043
1360.047588,-12657.521608,612.876398,4589.276840
1360.047899,-2738.761985,-306.438199,888.247130
1360.048211,1998.556043,-689.485948,-3108.864956
1360.048523,6439.791695,-612.876398,-7402.059420
1360.048834,5921.647536,-229.828649,-8734.430116
1360.049146,1036.288319,919.314598,-9696.697840
1360.049458,-7254.018232,1762.019645,-7179.997637
1360.049769,-15174.221811,1532.190996,-3034.844362
1360.050081,-20947.828159,306.438199,1702.473667
1360.050393,-25611.125593,-2451.505594,5921.647536
1360.050704,-24574.837274,-2911.162892,8438.347739
1360.051016,-20429.683999,-919.314598,6883.915261
1360.051328,-13397.727550,459.657299,5033.400406
1360.051639,-1924.535449,1225.752797,740.205942
1360.051951,3849.070898,536.266849,-3182.885551
1360.052263,7846.182985,-1149.143247,-6291.750507
1360.052574,6883.915261,-1072.533697,-7402.059420
1360.052886,1628.453072,919.314598,-9178.553681
1360.053198,-6735.874072,2221.676944,-6365.771101
1360.053509,-14804.118840,2374.896044,-2664.741391
1360.053821,-21317.931130,459.657299,1998.556043
1360.054133,-24944.940245,-2221.676944,6513.812290
1360.054444,-24278.754898,-2911.162892,9474.636058
1360.054756,-21243.910535,-1302.362347,8068.244768
1360.055068,-12583.501014,995.924147,6439.791695
1360.055379,-2516.700203,919.314598,2442.679609
1360.055691,4071.132681,-383.047749,-666.185348
1360.056002,8364.327145,-229.828649,-4589.276840
1360.056314,6661.853478,306.438199,-6513.812290
1360.056626,1406.391290,1225.752797,-7476.080014
1360.056937,-6365.771101,2451.505594,-5181.441594
1360.057249,-14285.974681,2757.943793,-1924.535449
1360.057561,-19615.457463,1991.848295,2812.782580
1360.057872,-23168.445985,-1378.971896,7476.080014
1360.058184,-22946.384202,-4519.963438,10658.965565
1360.058496,-19467.416275,-2298.286494,9400.615463
1360.058807,-12731.542202,612.876398,7105.977043
1360.059119,-2960.823768,1685.410096,4145.153275
1360.059431,2886.803174,459.657299,1702.473667
1360.059742,7031.956449,-1378.971896,-2664.741391
1360.060054,6957.935855,-1762.019645,-4663.297435
1360.060366,2812.782580,229.828649,-6957.935855
1360.060677,-4737.318029,1608.800546,-5551.544565
1360.060989,-12509.480420,2757.943793,-3256.906145
1360.061301,-18949.272115,1302.362347,1332.370696
1360.061612,-23242.466579,-1762.019645,5699.585753
1360.061924,-24574.837274,-3983.696590,9030.512492
1360.062236,-21910.095883,-2451.505594,9622.677246
1360.062547,-15248.242405,-995.924147,8068.244768
1360.062859,-5329.482782,-689.485948,5773.606348
1360.063171,2220.617826,-1685.410096,2146.597232
1360.063482,7254.018232,-1532.190996,-3108.864956
1360.063794,6291.750507,-1302.362347,-6439.791695
1360.064106,2812.782580,1838.629195,-8882.471304
1360.064417,-4515.256246,3600.648841,-7624.121203
1360.064729,-13249.686362,4060.306139,-5477.523971
1360.065041,-19171.333898,2987.772442,-296.082377
1360.065352,-22946.384202,229.828649,3849.070898
1360.065664,-23020.404796,-4136.915689,7698.141797
1360.065976,-20133.601622,-4060.306139,8290.306550
1360.066287,-12953.603985,-1149.143247,5995.668130
1360.066599,-6809.894666,612.876398,3108.864956
1360.066911,1406.391290,842.705048,1554.432478
1360.067222,7105.977043,-2068.457845,-2738.761985
1360.067534,8142.265362,-2374.896044,-5773.606348
1360.067846,2886.803174,-689.485948,-8068.244768
1360.068157,-3627.009116,2068.457845,-9030.512492
1360.068469,-11843.295072,2987.772442,-6439.791695
1360.068781,-19467.416275,2298.286494,-2220.617826
1360.069092,-24056.693115,-1455.581446,2738.761985
1360.069404,-25537.104999,-5439.278036,6809.894666
1360.069716,-23464.528361,-5286.058936,8734.430116
1360.070027,-17690.922014,-1915.238745,6735.874072
1360.070339,-10214.842000,459.657299,4293.194464
1360.070651,-2220.617826,1455.581446,1332.370696
1360.070962,5033.400406,-1532.190996,-2368.659014
1360.071274,8586.388927,-229.828649,-5921.647536
1360.071586,4663.297435,1532.190996,-7994.224174
1360.071897,-2146.597232,3600.648841,-8882.471304
1360.072209,-10288.862594,5439.278036,-6069.688724
1360.072521,-18209.066173,5056.230287,-2738.761985
1360.072832,-22724.322419,1608.800546,2886.803174
1360.073144,-23168.445985,-2451.505594,6957.935855
1360.073456,-22502.260637,-3064.381992,8068.244768
1360.073767,-18801.230927,0.000000,7031.956449
1360.074079,-11325.150913,1455.581446,5551.544565
1360.074391,-444.123565,0.000000,3034.844362
1360.074702,5033.400406,-383.047749,-222.061783
1360.075014,6291.750507,-1915.238745,-3997.112087
1360.075326,4737.318029,-1072.533697,-6069.688724
1360.075637,0.000000,2451.505594,-8068.244768
1360.075949,-7550.100608,3600.648841,-5181.441594
1360.076261,-15544.324782,1991.848295,-1332.370696
1360.076572,-20281.642811,-1149.143247,4663.297435
1360.076884,-23094.425390,-3983.696590,8660.409521
1360.077196,-22798.343014,-4903.011187,11547.212695
1360.077507,-18801.230927,-3064.381992,10066.800811
1360.077819,-10732.986159,0.000000,6439.791695
1360.078131,-222.061783,2451.505594,2220.617826
1360.078442,5847.626942,1762.019645,-1036.288319
1360.078754,8438.347739,1455.581446,-5773.606348
1360.079065,6439.791695,2757.943793,-7476.080014
1360.079377,1036.288319,4136.915689,-8364.327145
1360.079689,-7105.977043,4290.134789,-5329.482782
1360.080000,-15544.324782,3907.087040,-1628.453072
1360.080312,-21243.910535,229.828649,3849.070898
1360.080624,-23908.651927,-4979.620737,7920.203579
1360.080935,-22576.281231,-7507.735880,10807.006753
1360.081247,-18949.272115,-3140.991542,9992.780217
1360.081559,-11251.130318,-1532.190996,7402.059420
1360.081870,-1258.350101,-1915.238745,4145.153275
1360.082182,3182.885551,-3600.648841,148.041188
1360.082494,6587.832884,-2834.553343,-4737.318029
1360.082805,4885.359217,0.000000,-7179.997637
1360.083117,444.123565,3217.601092,-9252.574275
1360.083429,-7179.997637,4060.306139,-6957.935855
1360.083740,-14878.139434,2834.553343,-3552.988522
1360.084052,-20281.642811,536.266849,2146.597232
1360.084364,-24352.775492,-2374.896044,6809.894666
1360.084675,-24944.940245,-3524.039291,8808.450710
1360.084987,-19689.478057,-2451.505594,8586.388927
1360.085299,-12731.542202,0.000000,5181.441594
1360.085610,-4589.276840,1838.629195,1998.556043
1360.085922,4737.318029,995.924147,-518.144159
1360.086234,8142.265362,0.000000,-6143.709319
1360.086545,6661.853478,0.000000,-7105.977043
1360.086857,296.082377,1762.019645,-9178.553681
1360.087169,-6883.915261,3600.648841,-7550.100608
1360.087480,-15396.283594,3907.087040,-4663.297435
1360.087792,-21539.992912,1762.019645,888.247130
1360.088104,-24796.899057,-2068.457845,4219.173869
1360.088415,-24056.693115,-4826.401637,7698.141797
1360.088727,-18801.230927,-2604.724693,8438.347739
1360.089039,-13397.727550,0.000000,6883.915261
1360.089350,-6513.812290,229.828649,4441.235652
1360.089662,2886.803174,-306.438199,1406.391290
1360.089974,7179.997637,-1685.410096,-4441.235652
1360.090285,8142.265362,0.000000,-7105.977043
1360.090597,2590.720797,2604.724693,-10214.842000
1360.090909,-4367.215058,4979.620737,-9178.553681
1360.091221,-12879.583391,4903.011187,-5181.441594
1360.091532,-20429.683999,2298.286494,1110.308913
1360.091844,-24352.775492,-1072.533697,5625.565159
1360.092156,-24574.837274,-3753.867940,9400.615463
1360.092468,-21095.869347,-1838.629195,10066.800811
1360.092779,-13249.686362,-612.876398,7254.018232
1360.093091,-3627.009116,459.657299,3404.947333
1360.093403,3775.050304,766.095498,148.041188
1360.093715,8142.265362,-383.047749,-3701.029710
1360.094026,7179.997637,383.047749,-6661.853478
1360.094338,1184.329507,2987.772442,-7179.997637
1360.094650,-6957.935855,4060.306139,-7031.956449
1360.094962,-13767.830521,3447.429741,-3849.070898
1360.095273,-19319.375086,1991.848295,1406.391290
1360.095585,-22502.260637,-2757.943793,5921.647536
1360.095897,-23242.466579,-6588.421283,9326.594869
1360.096208,-20651.745782,-3294.210641,9918.759623
1360.096520,-15174.221811,-612.876398,7476.080014
1360.096832,-6143.709319,-689.485948,5921.647536
1360.097144,1702.473667,-1838.629195,2442.679609
1360.097455,6513.812290,-2604.724693,-1406.391290
1360.097767,8734.430116,-2451.505594,-5033.400406
1360.098079,4441.235652,229.828649,-6957.935855
1360.098391,-3775.050304,2834.553343,-7550.100608
1360.098702,-12361.439231,3753.867940,-4145.153275
1360.099014,-19615.457463,1915.238745,518.144159
1360.099326,-24352.775492,-1532.190996,4515.256246
1360.099638,-25315.043216,-3677.258390,9030.512492
1360.099949,-23020.404796,-2451.505594,9474.636058
1360.100261,-17246.798449,-612.876398,7402.059420
1360.100573,-7254.018232,76.609550,5551.544565
1360.100885,2664.741391,-995.924147,2368.659014
1360.101196,6217.729913,-1149.143247,-2368.659014
1360.101508,7920.203579,-306.438199,-5477.523971
1360.101820,5255.462188,2451.505594,-7476.080014
1360.102132,-2368.659014,3140.991542,-9178.553681
1360.102443,-10214.842000,4596.572988,-5847.626942
1360.102755,-18209.066173,3217.601092,-1628.453072
1360.103067,-22502.260637,0.000000,3330.926739
1360.103379,-24648.857869,-3217.601092,7698.141797
1360.103690,-23168.445985,-3447.429741,9622.677246
1360.104002,-16136.489536,-995.924147,7772.162391
1360.104314,-8734.430116,-536.266849,5847.626942
1360.104626,1998.556043,-842.705048,2368.659014
1360.104937,7624.121203,-766.095498,-2146.597232
1360.105249,8512.368333,-2068.457845,-7402.059420
1360.105561,5107.421000,-306.438199,-8734.430116
1360.105872,-1702.473667,2911.162892,-9918.759623
1360.106184,-10584.944971,3907.087040,-6735.874072
1360.106496,-19097.313304,3294.210641,-2220.617826
1360.106808,-24722.878463,-383.047749,3330.926739
1360.107119,-26351.331535,-2911.162892,7846.182985
1360.107431,-23316.487173,-3294.210641,9474.636058
1360.107743,-15248.242405,-1072.533697,7698.141797
1360.108055,-8734.430116,0.000000,5403.503377
1360.108366,148.041188,459.657299,1406.391290
1360.108678,7698.141797,306.438199,-2146.597232
1360.108990,8956.491898,229.828649,-7105.977043
1360.109302,4071.132681,1685.410096,-8068.244768
1360.109613,-3182.885551,4136.915689,-8956.491898
1360.109925,-11103.089130,5898.935335,-6735.874072
1360.110237,-18949.272115,4596.572988,-2368.659014
1360.110549,-23908.651927,995.924147,3256.906145
1360.110860,-25241.022622,-3217.601092,6513.812290
1360.111172,-22502.260637,-3830.477490,8956.491898
1360.111484,-16210.510130,-1302.362347,8364.327145
1360.111796,-8068.244768,0.000000,6513.812290
1360.112107,-518.144159,-766.095498,3478.967927
1360.112419,6735.874072,-2451.505594,1554.432478
1360.112731,8290.306550,-3524.039291,-3923.091493
1360.113043,4811.338623,-1455.581446,-6069.688724
1360.113354,-2368.659014,2757.943793,-8882.471304
1360.113666,-9548.656652,4596.572988,-6291.750507
1360.113978,-16580.613101,3907.087040,-2738.761985
1360.114289,-22502.260637,689.485948,3256.906145
1360.114601,-23538.548956,-3447.429741,7105.977043
1360.114913,-22872.363608,-4749.792088,10362.883188
1360.115225,-18431.127956,-1608.800546,9770.718434
1360.115536,-9622.677246,1149.143247,7328.038826
1360.115848,-1998.556043,0.000000,3701.029710
1360.116160,4441.235652,-1532.190996,814.226536
1360.116472,7402.059420,-2145.067394,-4367.215058
1360.116783,7031.956449,0.000000,-6439.791695
1360.117095,2072.576638,3370.820191,-7920.203579
1360.117407,-5699.585753,3447.429741,-5477.523971
1360.117719,-14063.912898,2374.896044,-1998.556043
1360.118030,-20873.807564,-919.314598,3108.864956
1360.118342,-24130.713709,-3370.820191,6587.832884
1360.118654,-24204.734303,-3600.648841,9030.512492
1360.118966,-20207.622217,919.314598,7920.203579
1360.119277,-13397.727550,1838.629195,5551.544565
1360.119589,-3404.947333,0.000000,3404.947333
1360.119901,4219.173869,-2757.943793,1850.514855
1360.120213,8142.265362,-4596.572988,-3256.906145
1360.120524,7624.121203,-3600.648841,-6217.729913
1360.120836,1554.432478,1532.190996,-8882.471304
1360.121148,-6291.750507,4749.792088,-9030.512492
1360.121460,-15026.180623,4443.353888,-5107.421000
1360.121771,-22058.137072,1532.190996,592.164754
1360.122083,-25389.063811,-2911.162892,4959.379811
1360.122395,-24500.816680,-5209.449386,8660.409521
1360.122707,-21614.013506,-3524.039291,8216.285956
1360.123018,-14434.015869,-1762.019645,6365.771101
1360.123330,-4293.194464,-1302.362347,2960.823768
1360.123642,3256.906145,-1455.581446,-222.061783
1360.123953,8364.327145,-1762.019645,-4219.173869
1360.124265,7624.121203,-1378.971896,-7772.162391
1360.124577,1924.535449,1532.190996,-8808.450710
1360.124889,-7031.956449,3677.258390,-8142.265362
1360.125200,-15544.324782,4136.915689,-4367.215058
1360.125512,-22650.301825,2987.772442,814.226536
1360.125824,-26351.331535,-459.657299,5477.523971
1360.126136,-25389.063811,-2221.676944,7550.100608
1360.126447,-19615.457463,-919.314598,7624.121203
1360.126759,-15470.304188,2145.067394,5625.565159
1360.127071,-5921.647536,2145.067394,4145.153275
1360.127383,5403.503377,0.000000,1332.370696
1360.127694,8660.409521,-842.705048,-3108.864956
1360.128006,9104.533087,-1072.533697,-6809.894666
1360.128318,4367.215058,2451.505594,-9252.574275
1360.128630,-4515.256246,4979.620737,-9696.697840
1360.128941,-13915.871710,4979.620737,-5403.503377
1360.129253,-21762.054695,1915.238745,-74.020594
1360.129565,-25537.104999,-1915.238745,5699.585753
1360.129877,-26129.269753,-4060.306139,9252.574275
1360.130188,-22502.260637,-3677.258390,10807.006753
1360.130500,-15322.262999,-2451.505594,7698.141797
1360.130812,-3034.844362,0.000000,5107.421000
1360.131124,5847.626942,-766.095498,1110.308913
1360.131435,8068.244768,-2451.505594,-2146.597232
1360.131747,6661.853478,-766.095498,-6217.729913
1360.132059,888.247130,2834.553343,-7254.018232
1360.132370,-5995.668130,4979.620737,-7846.182985
1360.132682,-12657.521608,5362.668486,-4367.215058
1360.132994,-18727.210333,3753.867940,-444.123565
1360.133306,-20799.786970,-766.095498,4441.235652
1360.133617,-21317.931130,-4903.011187,7772.162391
1360.133929,-19689.478057,-2911.162892,9326.594869
1360.134241,-12805.562797,995.924147,7994.224174
1360.134553,-7698.141797,459.657299,5847.626942
1360.134864,1258.350101,-1685.410096,4071.132681
1360.135176,7105.977043,-2757.943793,-296.082377
1360.135488,7994.224174,-2451.505594,-5551.544565
1360.135800,4589.276840,-612.876398,-7105.977043
1360.136111,-2294.638420,2451.505594,-8956.491898
1360.136423,-10732.986159,2834.553343,-5699.585753
1360.136735,-19171.333898,459.657299,-666.185348
1360.137047,-24500.816680,-2221.676944,4515.256246
1360.137358,-26203.290347,-4826.401637,7698.141797
1360.137670,-23834.631332,-5362.668486,9770.718434
1360.137982,-17172.777854,-2604.724693,8290.306550
1360.138294,-9844.739029,-1608.800546,5477.523971
1360.138605,1332.370696,-1149.143247,3627.009116
1360.138917,7031.956449,-2145.067394,-74.020594
1360.139229,8142.265362,-2834.553343,-5033.400406
1360.139541,4293.194464,-383.047749,-6883.915261
1360.139852,-1406.391290,3447.429741,-9030.512492
1360.140164,-8956.491898,4826.401637,-6809.894666
1360.140476,-16876.695478,3983.696590,-3256.906145
1360.140788,-22354.219448,0.000000,2072.576638
1360.141099,-24278.754898,-3983.696590,5773.606348
1360.141411,-23242.466579,-4213.525239,8808.450710
1360.141723,-17690.922014,-2068.457845,8660.409521
1360.142034,-11103.089130,-306.438199,6291.750507
1360.142346,-2590.720797,-842.705048,3775.050304
1360.142658,6217.729913,-1608.800546,444.123565
1360.142970,9326.594869,-2451.505594,-4737.318029
1360.143281,7476.080014,306.438199,-7846.182985
1360.143593,444.123565,3907.087040,-9548.656652
1360.143905,-7698.141797,5745.716235,-8438.347739
1360.144217,-16654.633695,4903.011187,-3775.050304
1360.144528,-23020.404796,1915.238745,1998.556043
1360.144840,-25537.104999,-2298.286494,6291.750507
1360.145152,-24130.713709,-4060.306139,9326.594869
1360.145464,-20429.683999,-995.924147,8142.265362
1360.145775,-11547.212695,1378.971896,5329.482782
1360.146087,-666.185348,995.924147,2516.700203
1360.146399,5107.421000,-153.219100,-814.226536
1360.146711,8068.244768,0.000000,-4811.338623
1360.147022,5921.647536,1455.581446,-7920.203579
1360.147334,-370.102971,4673.182538,-9326.594869
1360.147646,-8364.327145,6281.983084,-7550.100608
1360.147958,-15840.407159,5056.230287,-3923.091493
1360.148269,-21391.951724,2528.115143,1406.391290
1360.148581,-24426.796086,-2451.505594,5847.626942
1360.148893,-23390.507767,-4903.011187,9178.553681
1360.149205,-18653.189738,-1838.629195,9400.615463
1360.149516,-11399.171507,0.000000,7476.080014
1360.149828,-1480.411884,-1532.190996,3997.112087
1360.150140,4219.173869,-2451.505594,-148.041188
1360.150451,6439.791695,-2068.457845,-4367.215058
1360.150763,5625.565159,0.000000,-7550.100608
1360.151075,222.061783,3294.210641,-7920.203579
1360.151387,-7402.059420,4060.306139,-7105.977043
1360.151698,-14359.995275,2911.162892,-3478.967927
1360.152010,-19689.478057,76.609550,2294.638420
1360.152322,-23020.404796,-3370.820191,6587.832884
1360.152634,-22724.322419,-4519.963438,9326.594869
1360.152945,-19171.333898,-1608.800546,8438.347739
1360.153257,-15100.201217,842.705048,5773.606348
1360.153569,-5403.503377,459.657299,3701.029710
1360.153881,3256.906145,-766.095498,1924.535449
1360.154192,5107.421000,-1608.800546,-2072.576638
1360.154504,5329.482782,-1455.581446,-4811.338623
1360.154816,444.123565,1685.410096,-6513.812290
1360.155128,-5255.462188,3907.087040,-7402.059420
1360.155439,-11843.295072,3524.039291,-4737.318029
1360.155751,-17246.798449,383.047749,-148.041188
1360.156063,-20947.828159,-3447.429741,4293.194464
1360.156375,-23094.425390,-5975.544884,8290.306550
1360.156686,-21910.095883,-4443.353888,10362.883188
1360.156998,-17172.777854,-2528.115143,8882.471304
1360.157310,-7920.203579,-2145.067394,7179.997637
1360.157622,1184.329507,-2221.676944,3552.988522
1360.157933,6513.812290,-2757.943793,-1702.473667
1360.158245,7624.121203,-995.924147,-7476.080014
1360.158557,4589.276840,2604.724693,-9548.656652
1360.158869,-1776.494261,5515.887586,-9918.759623
1360.159180,-10362.883188,4673.182538,-5551.544565
1360.159492,-19245.354492,919.314598,-518.144159
1360.159804,-23908.651927,-2374.896044,5033.400406
1360.160115,-25092.981434,-4366.744339,8512.368333
1360.160427,-22058.137072,-3140.991542,9548.656652
1360.160739,-14582.057057,-383.047749,7105.977043
1360.161051,-8216.285956,459.657299,5033.400406
1360.161362,1480.411884,1225.752797,1850.514855
1360.161674,8290.306550,1685.410096,-2442.679609
1360.161986,7402.059420,995.924147,-8216.285956
1360.162298,2442.679609,3217.601092,-9030.512492
1360.162609,-2294.638420,6128.763984,-10140.821405
1360.162921,-10288.862594,5362.668486,-7105.977043
1360.163233,-18431.127956,3140.991542,-2368.659014
1360.163545,-22724.322419,-1072.533697,3552.988522
1360.163856,-25611.125593,-4979.620737,6735.874072
1360.164168,-23242.466579,-4519.963438,9992.780217
1360.164480,-15248.242405,-1838.629195,8586.388927
1360.164792,-9030.512492,-842.705048,5773.606348
1360.165103,-148.041188,-1532.190996,3256.906145
1360.165415,7254.018232,-2221.676944,-666.185348
1360.165727,8586.388927,-1302.362347,-7031.956449
1360.166039,4959.379811,2528.115143,-7994.224174
1360.166350,-2664.741391,5592.497135,-9474.636058
1360.166662,-10955.047942,4979.620737,-6513.812290
1360.166974,-19097.313304,2604.724693,-1258.350101
1360.167286,-23242.466579,306.438199,4515.256246
1360.167597,-25018.960840,-3524.039291,7031.956449
1360.167909,-21539.992912,-3447.429741,9770.718434
1360.168221,-16136.489536,-306.438199,7994.224174
1360.168532,-7179.997637,995.924147,5477.523971
1360.168844,296.082377,0.000000,2368.659014
1360.169156,4959.379811,-1072.533697,-0.000000
1360.169468,6883.915261,-766.095498,-4441.235652
1360.169779,4145.153275,383.047749,-5921.647536
1360.170091,-1850.514855,3677.258390,-7994.224174
1360.170403,-8216.285956,4213.525239,-6217.729913
1360.170715,-15470.304188,2068.457845,-2442.679609
1360.171026,-20503.704593,-1608.800546,3552.988522
1360.171338,-23094.425390,-4519.963438,7105.977043
1360.171650,-22798.343014,-4826.401637,10140.821405
1360.171962,-19023.292709,-1685.410096,9474.636058
1360.172273,-11251.130318,-229.828649,6957.935855
1360.172585,-2886.803174,-842.705048,3701.029710
1360.172897,4515.256246,-1149.143247,814.226536
1360.173209,8438.347739,-1302.362347,-4589.276840
1360.173520,6661.853478,689.485948,-7550.100608
1360.173832,222.061783,3830.477490,-8586.388927
1360.174144,-7402.059420,4366.744339,-7105.977043
1360.174456,-14730.098246,2374.896044,-2516.700203
1360.174767,-21614.013506,-689.485948,3108.864956
1360.175079,-24796.899057,-4443.353888,6957.935855
1360.175391,-23168.445985,-4903.011187,10510.924376
1360.175703,-19245.354492,-1762.019645,9770.718434
1360.176014,-11473.192101,-306.438199,7105.977043
1360.176326,-2664.741391,-1762.019645,3330.926739
1360.176638,3404.947333,-1532.190996,-0.000000
1360.176949,6883.915261,-842.705048,-4885.359217
1360.177261,6439.791695,1991.848295,-7698.141797
1360.177573,1406.391290,4673.182538,-9548.656652
1360.177885,-6143.709319,4826.401637,-7994.224174
1360.178196,-14137.933492,2451.505594,-3997.112087
1360.178508,-21762.054695,-689.485948,2072.576638
1360.178820,-24500.816680,-2681.334243,6661.853478
1360.179132,-24352.775492,-3217.601092,9104.533087
1360.179443,-20059.581028,-995.924147,8808.450710
1360.179755,-14285.974681,689.485948,5625.565159
1360.180067,-2812.782580,0.000000,1998.556043
1360.180379,6365.771101,0.000000,-1036.288319
1360.180690,7402.059420,-306.438199,-5403.503377
1360.181002,6513.812290,229.828649,-7994.224174
1360.181314,740.205942,2911.162892,-8586.388927
1360.181626,-7105.977043,3753.867940,-8364.327145
1360.181937,-15026.180623,1838.629195,-3849.070898
1360.182249,-22206.178260,229.828649,1184.329507
1360.182561,-25537.104999,-2911.162892,5107.421000
1360.182873,-24796.899057,-4903.011187,8882.471304
1360.183184,-21762.054695,-2298.286494,9030.512492
1360.183496,-14508.036463,-459.657299,6957.935855
1360.183808,-4367.215058,-1225.752797,3108.864956
1360.184120,2664.741391,-1838.629195,-0.000000
1360.184431,7105.977043,-1378.971896,-3923.091493
1360.184743,6661.853478,76.609550,-7698.141797
1360.185055,1776.494261,3907.087040,-8808.450710
1360.185367,-5255.462188,5362.668486,-8290.306550
1360.185678,-13397.727550,3677.258390,-4737.318029
1360.185990,-20059.581028,1838.629195,592.164754
1360.186302,-23390.507767,-995.924147,5329.482782
1360.186613,-23464.528361,-2987.772442,8586.388927
1360.186925,-20355.663405,-2374.896044,9696.697840
1360.187237,-14656.077652,383.047749,7772.162391
1360.187549,-5329.482782,306.438199,4959.379811
1360.187860,4885.359217,-306.438199,1924.535449
1360.188172,7328.038826,-842.705048,-3182.885551
1360.188484,7772.162391,-459.657299,-6809.894666
1360.188796,2664.741391,1225.752797,-8290.306550
1360.189107,-3627.009116,3447.429741,-8660.409521
1360.189419,-13101.645173,2911.162892,-5477.523971
1360.189731,-19615.457463,1072.533697,518.144159
1360.190043,-23612.569550,-2298.286494,5551.544565
1360.190354,-25241.022622,-5132.839837,9918.759623
1360.190666,-21688.034101,-3753.867940,11769.274478
1360.190978,-15914.427753,-383.047749,9178.553681
1360.191290,-6513.812290,-919.314598,6809.894666
1360.191601,4589.276840,-536.266849,2146.597232
1360.191913,7994.224174,-1072.533697,-3478.967927
1360.192225,8808.450710,-995.924147,-7920.203579
1360.192537,3775.050304,3064.381992,-8882.471304
1360.192848,-3775.050304,5132.839837,-8808.450710
1360.193161,-13027.624579,4136.915689,-4663.297435
1360.193473,-20873.807564,1608.800546,592.164754
1360.193784,-23908.651927,-2145.067394,6069.688724
1360.194096,-25907.207970,-5286.058936,9104.533087
1360.194408,-21614.013506,-3447.429741,10066.800811
1360.194719,-12657.521608,-919.314598,8364.327145
1360.195031,-6661.853478,-919.314598,6291.750507
1360.195343,1924.535449,-1149.143247,2960.823768
1360.195654,7179.997637,-2145.067394,-1998.556043
1360.195966,8142.265362,-2145.067394,-6661.853478
1360.196278,4441.235652,229.828649,-7105.977043
1360.196589,-3034.844362,2528.115143,-8660.409521
1360.196901,-11621.233289,3064.381992,-5403.503377
1360.197212,-19763.498651,1685.410096,-888.247130
1360.197524,-23390.507767,-1838.629195,4885.359217
1360.197836,-24426.796086,-4596.572988,7550.100608
1360.198147,-22132.157666,-3294.210641,9474.636058
1360.198459,-14878.139434,-1532.190996,7846.182985
1360.198771,-7105.977043,-766.095498,5403.503377
1360.199082,-814.226536,-536.266849,1406.391290
1360.199394,6143.709319,-995.924147,-1628.453072
1360.199706,8142.265362,-766.095498,-7179.997637
1360.200017,4959.379811,459.657299,-8290.306550
1360.200329,-2368.659014,2834.553343,-9918.759623
1360.200641,-9474.636058,3217.601092,-6883.915261
1360.200952,-17098.757260,1838.629195,-2146.597232
1360.201264,-23464.528361,-2145.067394,4293.194464
1360.201576,-25907.207970,-4903.011187,7476.080014
1360.201887,-24648.857869,-4749.792088,10288.862594
1360.202199,-17172.777854,-1532.190996,8734.430116
1360.202510,-8734.430116,306.438199,5699.585753
1360.202822,-518.144159,612.876398,1036.288319
1360.203134,7772.162391,689.485948,-2442.679609
1360.203445,9844.739029,0.000000,-8364.327145
1360.203757,6513.812290,919.314598,-9696.697840
1360.204069,-2294.638420,3907.087040,-11251.130318
1360.204380,-10658.965565,5132.839837,-7031.956449
1360.204692,-19467.416275,3370.820191,-1776.494261
1360.205004,-25537.104999,-612.876398,4959.379811
1360.205315,-26795.455100,-4213.525239,8512.368333
1360.205627,-23612.569550,-4366.744339,11399.171507
1360.205939,-16580.613101,-1225.752797,9252.574275
1360.206250,-7550.100608,153.219100,6513.812290
1360.206562,370.102971,919.314598,1480.411884
1360.206874,6735.874072,612.876398,-1776.494261
1360.207185,8734.430116,842.705048,-6957.935855
1360.207497,5033.400406,2604.724693,-7994.224174
1360.207808,-2442.679609,5592.497135,-9104.533087
1360.208120,-10066.800811,5515.887586,-6365.771101
1360.208432,-17616.901420,4290.134789,-1332.370696
1360.208743,-22576.281231,0.000000,4589.276840
1360.209055,-24426.796086,-4673.182538,8808.450710
1360.209367,-22576.281231,-5132.839837,11547.212695
1360.209678,-17764.942608,-2068.457845,9622.677246
1360.209990,-8068.244768,229.828649,6809.894666
1360.210302,666.185348,-766.095498,2442.679609
1360.210613,6735.874072,-1762.019645,-0.000000
1360.210925,9326.594869,-1991.848295,-5255.462188
1360.211237,6513.812290,-1072.533697,-6883.915261
1360.211548,-592.164754,1608.800546,-8142.265362
1360.211860,-8290.306550,3447.429741,-6143.709319
1360.212172,-16876.695478,2374.896044,-1924.535449
1360.212483,-22872.363608,-536.266849,4367.215058
1360.212795,-25167.002028,-3447.429741,7920.203579
1360.213106,-23834.631332,-2911.162892,10510.924376
1360.213418,-19023.292709,306.438199,9474.636058
1360.213730,-12731.542202,459.657299,6809.894666
1360.214041,-1850.514855,-306.438199,2368.659014
1360.214353,5551.544565,-919.314598,-592.164754
1360.214665,8660.409521,-1378.971896,-5403.503377
1360.214976,8068.244768,-153.219100,-7550.100608
1360.215288,1628.453072,3217.601092,-8956.491898
1360.215600,-7402.059420,2987.772442,-7920.203579
1360.215911,-15766.386565,1915.238745,-3108.864956
1360.216223,-21762.054695,-153.219100,2738.761985
1360.216535,-25241.022622,-4060.306139,6735.874072
1360.216846,-23982.672521,-6128.763984,10510.924376
1360.217158,-20503.704593,-4060.306139,9252.574275
1360.217470,-13545.768739,-1608.800546,6217.729913
1360.217781,-3552.988522,-229.828649,1776.494261
1360.218093,4885.359217,-383.047749,-1406.391290
1360.218404,7920.203579,-919.314598,-6513.812290
1360.218716,7105.977043,-1378.971896,-8808.450710
1360.219028,1480.411884,1302.362347,-9992.780217
1360.219339,-7402.059420,3600.648841,-8956.491898
1360.219651,-15248.242405,4443.353888,-4515.256246
1360.219963,-22798.343014,2451.505594,2368.659014
1360.220274,-26277.310941,-2221.676944,6587.832884
1360.220586,-25611.125593,-3447.429741,9696.697840
1360.220898,-20799.786970,-1302.362347,9696.697840
1360.221209,-14582.057057,2145.067394,5329.482782
1360.221521,-4441.235652,2987.772442,1036.288319
1360.221833,5921.647536,1455.581446,-1776.494261
1360.222144,7846.182985,995.924147,-6661.853478
1360.222456,6587.832884,842.705048,-9104.533087
1360.222768,370.102971,3983.696590,-9030.512492
1360.223079,-7698.141797,5439.278036,-8068.244768
1360.223391,-15470.304188,3907.087040,-3108.864956
1360.223702,-21317.931130,1685.410096,2368.659014
1360.224014,-24130.713709,-2298.286494,6217.729913
1360.224326,-23908.651927,-4749.792088,9918.759623
1360.224637,-18949.272115,-2681.334243,9918.759623
1360.224949,-13471.748144,-306.438199,6513.812290
1360.225261,-3034.844362,536.266849,3330.926739
1360.225572,6217.729913,0.000000,814.226536
1360.225884,5995.668130,-1378.971896,-3775.050304
1360.226196,5921.647536,-1302.362347,-6217.729913
1360.226507,1924.535449,1302.362347,-7105.977043
1360.226819,-4885.359217,3907.087040,-6957.935855
1360.227131,-13175.665768,3064.381992,-3108.864956
1360.227442,-19023.292709,766.095498,1924.535449
1360.227754,-21688.034101,-2068.457845,6365.771101
1360.228066,-22502.260637,-3600.648841,10214.842000
1360.228377,-19615.457463,-2145.067394,10955.047942
1360.228689,-15840.407159,383.047749,7550.100608
1360.229000,-6365.771101,1455.581446,4589.276840
1360.229312,3256.906145,229.828649,1332.370696
1360.229624,6217.729913,-842.705048,-3034.844362
1360.229935,7105.977043,-1225.752797,-6809.894666
1360.230247,3627.009116,1225.752797,-6735.874072
1360.230559,-3627.009116,2911.162892,-7179.997637
1360.230870,-11177.109724,1455.581446,-3256.906145
1360.231182,-18875.251521,-536.266849,1036.288319
1360.231494,-23168.445985,-3677.258390,6069.688724
1360.231805,-24426.796086,-5669.106685,9326.594869
1360.232117,-23020.404796,-3677.258390,10288.862594
1360.232429,-18135.045579,-1072.533697,7624.121203
1360.232740,-7994.224174,-536.266849,4367.215058
1360.233052,1554.432478,-306.438199,1110.308913
1360.233364,6365.771101,-612.876398,-2812.782580
1360.233675,8660.409521,-1225.752797,-6735.874072
1360.233987,4663.297435,1302.362347,-7994.224174
1360.234298,-3256.906145,3140.991542,-8734.430116
1360.234610,-11251.130318,3217.601092,-5477.523971
1360.234922,-18949.272115,1762.019645,-888.247130
1360.235233,-23982.672521,-1072.533697,3849.070898
1360.235545,-25907.207970,-4136.915689,8216.285956
1360.235857,-23020.404796,-3447.429741,9622.677246
1360.236168,-18283.086767,-306.438199,7328.038826
1360.236480,-8660.409521,1149.143247,4589.276840
1360.236792,2368.659014,459.657299,666.185348
1360.237103,5625.565159,-383.047749,-3330.926739
1360.237415,8216.285956,536.266849,-6809.894666
1360.237727,4959.379811,2298.286494,-9252.574275
1360.238038,-1776.494261,4136.915689,-9992.780217
1360.238350,-9992.780217,4366.744339,-6365.771101
1360.238662,-17838.963202,2681.334243,-1998.556043
1360.238973,-22576.281231,-153.219100,3330.926739
1360.239285,-25389.063811,-3140.991542,7476.080014
1360.239596,-22872.363608,-3830.477490,10066.800811
1360.239908,-16062.468941,-766.095498,7846.182985
1360.240220,-9770.718434,842.705048,5847.626942
1360.240531,-148.041188,2298.286494,888.247130
1360.240843,6735.874072,1685.410096,-2886.803174
1360.241155,9104.533087,-306.438199,-7402.059420
1360.241466,6957.935855,0.000000,-7328.038826
1360.241778,-518.144159,1225.752797,-9474.636058
1360.242090,-9178.553681,2604.724693,-5773.606348
1360.242401,-18727.210333,2221.676944,-1628.453072
1360.242713,-23908.651927,459.657299,4663.297435
1360.243025,-26943.496289,-2451.505594,7402.059420
1360.243336,-24426.796086,-3140.991542,9696.697840
1360.243648,-17616.901420,-229.828649,8142.265362
1360.243960,-10362.883188,766.095498,6143.709319
1360.244271,0.000000,1762.019645,2516.700203
1360.244583,7105.977043,0.000000,-1332.370696
1360.244894,9474.636058,-689.485948,-5699.585753
1360.245206,5773.606348,-536.266849,-6661.853478
1360.245518,-444.123565,1762.019645,-8290.306550
1360.245829,-9178.553681,2528.115143,-5773.606348
1360.246141,-16358.551318,2145.067394,-962.267725
1360.246453,-20799.786970,-766.095498,4219.173869
1360.246764,-24648.857869,-5132.839837,8068.244768
1360.247076,-24204.734303,-6205.373534,10658.965565
1360.247388,-19097.313304,-1838.629195,9178.553681
1360.247699,-12361.439231,1532.190996,6661.853478
1360.248011,-962.267725,2374.896044,4071.132681
1360.248323,5773.606348,995.924147,740.205942
1360.248634,9474.636058,-1149.143247,-4145.153275
1360.248946,8142.265362,-1072.533697,-5329.482782
1360.249258,2664.741391,1991.848295,-8290.306550
1360.249569,-5773.606348,3753.867940,-6291.750507
1360.249881,-15396.283594,2528.115143,-3034.844362
1360.250192,-21391.951724,-612.876398,2368.659014
1360.250504,-25018.960840,-4213.525239,7402.059420
1360.250816,-25315.043216,-5898.935335,10732.986159
1360.251127,-19393.395680,-2757.943793,10288.862594
1360.251439,-14211.954086,-1378.971896,7624.121203
1360.251751,-3552.988522,0.000000,5181.441594
1360.252062,5033.400406,0.000000,888.247130
1360.252374,9326.594869,-995.924147,-4737.318029
1360.252686,8956.491898,153.219100,-6661.853478
1360.252997,3108.864956,3064.381992,-9474.636058
1360.253309,-4885.359217,5056.230287,-8216.285956
1360.253621,-14063.912898,4903.011187,-4515.256246
1360.253932,-20947.828159,2145.067394,1702.473667
1360.254244,-24648.857869,-1991.848295,6439.791695
1360.254556,-25611.125593,-5286.058936,8956.491898
1360.254867,-21836.075289,-3064.381992,9400.615463
1360.255179,-13915.871710,229.828649,5403.503377
1360.255490,-5329.482782,1378.971896,2220.617826
1360.255802,2442.679609,689.485948,-740.205942
1360.256114,8734.430116,-1991.848295,-4885.359217
1360.256425,9104.533087,-2451.505594,-7105.977043
1360.256737,4515.256246,-459.657299,-9178.553681
1360.257049,-3478.967927,1149.143247,-8364.327145
1360.257360,-11917.315666,1991.848295,-4811.338623
1360.257672,-21095.869347,-306.438199,592.164754
1360.257984,-26351.331535,-3370.820191,5551.544565
1360.258295,-27535.661042,-5209.449386,9178.553681
1360.258607,-24500.816680,-2221.676944,9474.636058
1360.258919,-16580.613101,1762.019645,5847.626942
1360.259230,-8364.327145,2451.505594,1776.494261
1360.259542,1480.411884,1915.238745,-518.144159
1360.259854,8438.347739,536.266849,-4885.359217
1360.260165,10362.883188,536.266849,-7031.956449
1360.260477,4959.379811,2145.067394,-8068.244768
1360.260789,-3108.864956,2911.162892,-8438.347739
1360.261100,-12139.377449,2834.553343,-4959.379811
1360.261412,-20577.725188,1225.752797,296.082377
1360.261723,-24278.754898,-689.485948,4441.235652
1360.262035,-25537.104999,-4136.915689,8660.409521
1360.262347,-23686.590144,-3064.381992,10214.842000
1360.262658,-16802.674883,-919.314598,7624.121203
1360.262970,-7550.100608,383.047749,4441.235652
1360.263282,1554.432478,842.705048,2738.761985
1360.263593,8290.306550,-766.095498,-2146.597232
1360.263905,9326.594869,-2145.067394,-5551.544565
1360.264217,5477.523971,153.219100,-6661.853478
1360.264528,-1998.556043,2834.553343,-8512.368333
1360.264840,-10436.903782,3064.381992,-5181.441594
1360.265152,-18653.189738,3217.601092,-74.020594
1360.265463,-23686.590144,-995.924147,5477.523971
1360.265775,-26055.249158,-5286.058936,9770.718434
1360.266087,-23834.631332,-3677.258390,11621.233289
1360.266398,-16728.654289,153.219100,8734.430116
1360.266710,-7624.121203,1685.410096,4737.318029
1360.267021,1702.473667,2451.505594,1258.350101
1360.267333,9326.594869,306.438199,-2590.720797
1360.267645,10955.047942,0.000000,-5551.544565
1360.267956,6883.915261,2298.286494,-6735.874072
1360.268268,-1628.453072,3907.087040,-7772.162391
1360.268580,-9992.780217,4673.182538,-4737.318029
1360.268891,-17987.004391,2987.772442,-74.020594
1360.269203,-23168.445985,-1608.800546,4885.359217
1360.269515,-25833.187376,-5209.449386,8512.368333
1360.269826,-24426.796086,-4673.182538,10510.924376
1360.270138,-18727.210333,-1762.019645,8586.388927
1360.270450,-10881.027347,-1532.190996,5995.668130
1360.270761,-1850.514855,-459.657299,2590.720797
1360.271073,6439.791695,-1378.971896,-1110.308913
1360.271385,9622.677246,-1608.800546,-5847.626942
1360.271696,7920.203579,-766.095498,-7402.059420
1360.272008,1406.391290,1608.800546,-9252.574275
1360.272319,-7402.059420,2451.505594,-6513.812290
1360.272631,-16284.530724,1991.848295,-2368.659014
1360.272943,-23538.548956,-612.876398,3404.947333
1360.273254,-27165.558071,-3447.429741,8216.285956
1360.273566,-26425.352129,-3907.087040,9474.636058
1360.273878,-21836.075289,-1608.800546,7994.224174
1360.274189,-12435.459826,842.705048,4737.318029
1360.274501,-1480.411884,689.485948,1332.370696
1360.274813,5551.544565,76.609550,-2960.823768
1360.275124,8882.471304,-1225.752797,-6809.894666
1360.275436,7476.080014,0.000000,-7846.182985
1360.275748,1480.411884,2374.896044,-9178.553681
1360.276059,-7698.141797,3677.258390,-7105.977043
1360.276371,-16062.468941,2451.505594,-3775.050304
1360.276683,-22576.281231,-383.047749,2294.638420
1360.276994,-26203.290347,-3907.087040,7328.038826
1360.277306,-26055.249158,-4213.525239,9844.739029
1360.277617,-21688.034101,-1225.752797,8364.327145
1360.277929,-13767.830521,0.000000,5921.647536
1360.278241,-1332.370696,1455.581446,2146.597232
1360.278552,6217.729913,1225.752797,-2220.617826
1360.278864,9474.636058,-1072.533697,-7179.997637
1360.279176,9178.553681,0.000000,-7772.162391
1360.279487,2664.741391,995.924147,-10658.965565
1360.279799,-6661.853478,3064.381992,-7476.080014
1360.280111,-16358.551318,2757.943793,-2886.803174
1360.280422,-23612.569550,919.314598,3108.864956
1360.280734,-27831.743419,-1915.238745,8290.306550
1360.281046,-27017.516883,-4366.744339,10732.986159
1360.281357,-18283.086767,-1915.238745,9992.780217
1360.281669,-11621.233289,76.609550,6809.894666
1360.281981,-1480.411884,1685.410096,3182.885551
1360.282292,7105.977043,536.266849,-1406.391290
1360.282604,9696.697840,0.000000,-5921.647536
1360.282915,8142.265362,842.705048,-6735.874072
1360.283227,2294.638420,3294.210641,-8734.430116
1360.283539,-6809.894666,4290.134789,-5995.668130
1360.283850,-15914.427753,2834.553343,-2368.659014
1360.284162,-21169.889941,76.609550,3701.029710
1360.284474,-24648.857869,-3294.210641,7624.121203
1360.284785,-24426.796086,-4903.011187,10658.965565
1360.285097,-19023.292709,-2834.553343,9918.759623
1360.285409,-11769.274478,536.266849,7920.203579
1360.285720,-3330.926739,1762.019645,3478.967927
1360.286032,5033.400406,1608.800546,-0.000000
1360.286344,9622.677246,-383.047749,-5329.482782
1360.286655,9844.739029,-1302.362347,-6809.894666
1360.286967,4071.132681,229.828649,-7624.121203
1360.287279,-5329.482782,1608.800546,-6809.894666
1360.287590,-14952.160028,1991.848295,-2516.700203
1360.287902,-22502.260637,-229.828649,3627.009116
1360.288213,-26647.413912,-4519.963438,7846.182985
1360.288525,-26943.496289,-7507.735880,11251.130318
1360.288837,-20947.828159,-3524.039291,10658.965565
1360.289148,-14285.974681,-306.438199,7179.997637
1360.289460,-4737.318029,1455.581446,4367.215058
1360.289772,5403.503377,1072.533697,962.267725
1360.290083,9400.615463,229.828649,-4367.215058
1360.290395,10140.821405,0.000000,-5847.626942
1360.290707,4441.235652,1915.238745,-8660.409521
1360.291018,-3997.112087,4136.915689,-7254.018232
1360.291330,-13471.748144,4213.525239,-4737.318029
1360.291642,-20207.622217,1608.800546,888.247130
1360.291953,-24870.919651,-2451.505594,5033.400406
1360.292265,-26055.249158,-4903.011187,8586.388927
1360.292577,-23390.507767,-2911.162892,9770.718434
1360.292888,-14952.160028,-153.219100,7698.141797
1360.293200,-7328.038826,-766.095498,4145.153275
1360.293511,1702.473667,-536.266849,666.185348
1360.293823,8660.409521,-1149.143247,-4219.173869
1360.294135,10066.800811,-1838.629195,-6957.935855
1360.294446,5773.606348,229.828649,-9030.512492
1360.294758,-2886.803174,2068.457845,-9474.636058
1360.295069,-11769.274478,3830.477490,-5995.668130
1360.295381,-21021.848753,2451.505594,-518.144159
1360.295693,-26499.372724,-1149.143247,5403.503377
1360.296004,-28349.887579,-3753.867940,8882.471304
1360.296316,-25463.084405,-2221.676944,9400.615463
1360.296628,-18579.169144,1378.971896,6661.853478
1360.296939,-6883.915261,1991.848295,1998.556043
1360.297251,3849.070898,2145.067394,-1332.370696
1360.297562,9030.512492,536.266849,-5625.565159
1360.297874,10658.965565,-766.095498,-8512.368333
1360.298186,6513.812290,1838.629195,-8586.388927
1360.298497,-2738.761985,3140.991542,-8660.409521
1360.298809,-12213.398043,3294.210641,-4959.379811
1360.299121,-20429.683999,1532.190996,222.061783
1360.299432,-25315.043216,-1225.752797,5033.400406
1360.299744,-26573.393318,-3677.258390,8512.368333
1360.300055,-24426.796086,-1685.410096,9474.636058
1360.300367,-17912.983796,-153.219100,7550.100608
1360.300679,-8438.347739,-76.609550,3404.947333
1360.300990,1702.473667,76.609550,444.123565
1360.301302,7550.100608,-229.828649,-2368.659014
1360.301613,9844.739029,-1455.581446,-5329.482782
1360.301925,6661.853478,-383.047749,-6365.771101
1360.302237,-2590.720797,612.876398,-8438.347739
1360.302548,-11399.171507,3677.258390,-4663.297435
1360.302860,-19245.354492,3830.477490,-0.000000
1360.303172,-24944.940245,1225.752797,4737.318029
1360.303483,-26647.413912,-3370.820191,8882.471304
1360.303795,-24130.713709,-4136.915689,10362.883188
1360.304106,-17912.983796,-1991.848295,8142.265362
1360.304418,-7476.080014,383.047749,5477.523971
1360.304730,2220.617826,766.095498,1776.494261
1360.305041,7624.121203,-306.438199,-2220.617826
1360.305353,9992.780217,-1532.190996,-5107.421000
1360.305665,7328.038826,0.000000,-6069.688724
1360.305976,-666.185348,1685.410096,-7550.100608
1360.306288,-9622.677246,2834.553343,-4293.194464
1360.306599,-17838.963202,2298.286494,-222.061783
1360.306911,-23612.569550,-536.266849,4367.215058
1360.307223,-25907.207970,-3524.039291,8512.368333
1360.307534,-24574.837274,-3600.648841,10214.842000
1360.307846,-19319.375086,-1072.533697,8438.347739
1360.308157,-9474.636058,459.657299,7105.977043
1360.308469,-592.164754,689.485948,1998.556043
1360.308781,6217.729913,612.876398,-1258.350101
1360.309092,10584.944971,459.657299,-5403.503377
1360.309404,9252.574275,919.314598,-7476.080014
1360.309716,1628.453072,1991.848295,-9400.615463
1360.310027,-7920.203579,3907.087040,-6439.791695
1360.310339,-16432.571912,2451.505594,-2072.576638
1360.310650,-23316.487173,-689.485948,4071.132681
1360.310962,-27979.784608,-4366.744339,8586.388927
1360.311274,-27017.516883,-5822.325785,10362.883188
1360.311585,-20799.786970,-2604.724693,7698.141797
1360.311897,-10881.027347,-459.657299,5625.565159
1360.312208,222.061783,1378.971896,666.185348
1360.312520,6587.832884,-383.047749,-2812.782580
1360.312832,9400.615463,-1685.410096,-6365.771101
1360.313143,7328.038826,-459.657299,-7105.977043
1360.313455,740.205942,1915.238745,-8586.388927
1360.313767,-8142.265362,4290.134789,-6365.771101
1360.314078,-16432.571912,3524.039291,-3108.864956
1360.314390,-22206.178260,612.876398,1554.432478
1360.314701,-25685.146187,-2451.505594,5847.626942
1360.315013,-25833.187376,-1915.238745,8216.285956
1360.315325,-19393.395680,612.876398,6217.729913
1360.315636,-13471.748144,1072.533697,5033.400406
1360.315948,-2516.700203,1608.800546,2220.617826
1360.316260,5181.441594,306.438199,-1332.370696
1360.316571,8290.306550,-1685.410096,-5329.482782
1360.316883,8068.244768,-1991.848295,-6587.832884
1360.317194,2812.782580,536.266849,-8882.471304
1360.317506,-5847.626942,2068.457845,-6513.812290
1360.317818,-15618.345376,2068.457845,-3701.029710
1360.318129,-23242.466579,459.657299,1702.473667
1360.318441,-27461.640448,-2681.334243,6513.812290
1360.318752,-27387.619854,-4366.744339,9474.636058
1360.319064,-22872.363608,-2681.334243,8438.347739
1360.319376,-14137.933492,-919.314598,6439.791695
1360.319687,-2664.741391,229.828649,2442.679609
1360.319999,4959.379811,-459.657299,-222.061783
1360.320311,9252.574275,-842.705048,-4663.297435
1360.320622,8512.368333,-612.876398,-5033.400406
1360.320934,3404.947333,1915.238745,-7328.038826
1360.321245,-5551.544565,3753.867940,-5847.626942
1360.321557,-13545.768739,4903.011187,-3182.885551
1360.321869,-19911.539840,2987.772442,1702.473667
1360.322180,-24130.713709,-612.876398,6217.729913
1360.322492,-24352.775492,-3447.429741,9178.553681
1360.322804,-18949.272115,-1302.362347,8660.409521
1360.323115,-13101.645173,-612.876398,7624.121203
1360.323427,-4367.215058,229.828649,5033.400406
1360.323738,3256.906145,0.000000,1480.411884
1360.324050,8734.430116,-1838.629195,-3330.926739
1360.324362,9770.718434,-1991.848295,-5329.482782
1360.324673,4959.379811,-383.047749,-7402.059420
1360.324985,-4441.235652,1225.752797,-6143.709319
1360.325296,-13323.706956,2681.334243,-2812.782580
1360.325608,-21021.848753,1685.410096,1850.514855
1360.325920,-26425.352129,-1532.190996,5921.647536
1360.326231,-26869.475695,-3677.258390,9178.553681
1360.326543,-21169.889941,-2221.676944,8512.368333
1360.326855,-14063.912898,-459.657299,6069.688724
1360.327166,-3627.009116,2298.286494,3256.906145
1360.327478,3997.112087,1991.848295,-0.000000
1360.327789,8290.306550,-383.047749,-3108.864956
1360.328101,7772.162391,-1608.800546,-4441.235652
1360.328413,3182.885551,229.828649,-6217.729913
1360.328724,-4293.194464,2145.067394,-5625.565159
1360.329036,-11843.295072,2757.943793,-3775.050304
1360.329347,-18283.086767,1302.362347,-222.061783
1360.329659,-23834.631332,-1991.848295,3478.967927
1360.329971,-24870.919651,-3907.087040,7031.956449
1360.330282,-23612.569550,-2604.724693,7846.182985
1360.330594,-17764.942608,-1225.752797,6809.894666
1360.330906,-8660.409521,-229.828649,4959.379811
1360.331217,-222.061783,-306.438199,2146.597232
1360.331529,7105.977043,-1378.971896,-1406.391290
1360.331840,10214.842000,-1838.629195,-4737.318029
1360.332152,8142.265362,-383.047749,-7994.224174
1360.332464,444.123565,2528.115143,-8660.409521
1360.332775,-8734.430116,3370.820191,-6513.812290
1360.333087,-18431.127956,2221.676944,-2294.638420
1360.333399,-26351.331535,-1072.533697,3478.967927
1360.333710,-29016.072926,-4136.915689,8142.265362
1360.334022,-26129.269753,-3830.477490,9548.656652
1360.334333,-19245.354492,-1225.752797,6587.832884
1360.334645,-9474.636058,2298.286494,3478.967927
1360.334957,-592.164754,1838.629195,-444.123565
1360.335268,7254.018232,612.876398,-3478.967927
1360.335580,9992.780217,306.438199,-5625.565159
1360.335891,7698.141797,1455.581446,-7624.121203
1360.336203,518.144159,3830.477490,-7772.162391
1360.336515,-8808.450710,3907.087040,-5921.647536
1360.336826,-16802.674883,3217.601092,-1628.453072
1360.337138,-23760.610738,0.000000,2516.700203
1360.337450,-27239.578666,-2681.334243,6883.915261
1360.337761,-24574.837274,-2757.943793,9178.553681
1360.338073,-19245.354492,-2221.676944,7698.141797
1360.338384,-10881.027347,-153.219100,6143.709319
1360.338696,444.123565,536.266849,2072.576638
1360.339008,8512.368333,-383.047749,-2294.638420
1360.339319,10362.883188,-1991.848295,-5551.544565
1360.339631,7994.224174,-612.876398,-7179.997637
1360.339943,148.041188,1838.629195,-8142.265362
1360.340254,-8660.409521,3524.039291,-4959.379811
1360.340566,-17172.777854,2987.772442,-1036.288319
1360.340877,-23834.631332,-229.828649,3775.050304
1360.341189,-25907.207970,-3983.696590,8364.327145
1360.341501,-23686.590144,-4443.353888,9548.656652
1360.341812,-18061.024985,-1608.800546,7772.162391
1360.342124,-10214.842000,1532.190996,5551.544565
1360.342435,-592.164754,1685.410096,2368.659014
1360.342747,6439.791695,-612.876398,-666.185348
1360.343059,8660.409521,-1072.533697,-3849.070898
1360.343370,6069.688724,459.657299,-5477.523971
1360.343682,74.020594,2834.553343,-6291.750507
1360.343994,-7846.182985,2987.772442,-4737.318029
1360.344305,-15322.262999,1838.629195,-2368.659014
1360.344617,-21391.951724,-383.047749,2516.700203
1360.344928,-24574.837274,-3753.867940,6439.791695
1360.345240,-24130.713709,-4673.182538,9474.636058
1360.345552,-20429.683999,-3140.991542,8660.409521
1360.345863,-13397.727550,-995.924147,7105.977043
1360.346175,-3182.885551,-153.219100,4219.173869
1360.346486,5403.503377,-919.314598,1850.514855
1360.346798,9104.533087,-1915.238745,-2590.720797
1360.347110,8068.244768,-1838.629195,-5847.626942
1360.347421,2220.617826,612.876398,-7994.224174
1360.347733,-5255.462188,4136.915689,-5847.626942
1360.348045,-13915.871710,3677.258390,-3330.926739
1360.348356,-21762.054695,306.438199,1554.432478
1360.348668,-26129.269753,-3064.381992,5773.606348
1360.348979,-26425.352129,-4596.572988,8956.491898
1360.349291,-21095.869347,-2145.067394,8216.285956
1360.349603,-13175.665768,229.828649,5773.606348
1360.349914,-3997.112087,689.485948,3330.926739
1360.350226,4367.215058,-1149.143247,1184.329507
1360.350538,8512.368333,-1532.190996,-3627.009116
1360.350849,7920.203579,-383.047749,-6957.935855
1360.351161,2812.782580,3217.601092,-8438.347739
1360.351472,-4367.215058,3370.820191,-7105.977043
1360.351784,-12731.542202,3140.991542,-5033.400406
1360.352096,-19985.560434,1072.533697,148.041188
1360.352407,-25018.960840,-1378.971896,4737.318029
1360.352719,-26203.290347,-3447.429741,7994.224174
1360.353030,-22872.363608,-1378.971896,8068.244768
1360.353342,-15100.201217,919.314598,5699.585753
1360.353654,-4441.235652,2374.896044,3108.864956
1360.353965,3775.050304,1072.533697,-74.020594
1360.354277,9030.512492,-459.657299,-4737.318029
1360.354589,9030.512492,-153.219100,-7550.100608
1360.354900,3627.009116,1685.410096,-9030.512492
1360.355212,-5329.482782,3830.477490,-7920.203579
1360.355523,-14582.057057,4443.353888,-4737.318029
1360.355835,-22354.219448,1991.848295,666.185348
1360.356147,-26647.413912,-2451.505594,5033.400406
1360.356458,-27313.599260,-5056.230287,7846.182985
1360.356770,-22058.137072,-1608.800546,7846.182985
1360.357082,-14582.057057,766.095498,5921.647536
1360.357393,-3849.070898,1915.238745,4071.132681
1360.357705,4293.194464,0.000000,1332.370696
1360.358016,8512.368333,-2145.067394,-2590.720797
1360.358328,8586.388927,-1532.190996,-5847.626942
1360.358640,3404.947333,1685.410096,-7624.121203
1360.358951,-4589.276840,3370.820191,-7031.956449
1360.359263,-12509.480420,3447.429741,-4293.194464
1360.359574,-19763.498651,1378.971896,-0.000000
1360.359886,-23982.672521,-1608.800546,4663.297435
1360.360198,-25167.002028,-4903.011187,8512.368333
1360.360509,-21317.931130,-3677.258390,9474.636058
1360.360821,-15396.283594,-995.924147,7254.018232
1360.361133,-7402.059420,766.095498,4885.359217
1360.361444,2886.803174,1302.362347,2294.638420
1360.361756,9252.574275,-995.924147,-1776.494261
1360.362067,9918.759623,-1685.410096,-4737.318029
1360.362379,5477.523971,0.000000,-6735.874072
1360.362691,-1702.473667,2987.772442,-6439.791695
1360.363002,-10955.047942,4136.915689,-4071.132681
1360.363314,-19467.416275,766.095498,296.082377
1360.363626,-24722.878463,-3370.820191,4885.359217
1360.363937,-26055.249158,-4903.011187,8290.306550
1360.364249,-22132.157666,-4366.744339,9548.656652
1360.364560,-17394.839637,-1378.971896,7402.059420
1360.364872,-9252.574275,0.000000,5847.626942
1360.365184,444.123565,-689.485948,2960.823768
1360.365495,7402.059420,-2221.676944,-740.205942
1360.365807,8438.347739,-2298.286494,-4515.256246
1360.366118,5773.606348,2068.457845,-7105.977043
1360.366430,0.000000,4749.792088,-7179.997637
1360.366742,-9844.739029,4366.744339,-5403.503377
1360.367053,-16950.716072,3064.381992,-1850.514855
1360.367365,-22428.240043,153.219100,2812.782580
1360.367677,-25092.981434,-3064.381992,7624.121203
1360.367988,-24278.754898,-4213.525239,9918.759623
1360.368300,-17394.839637,-1762.019645,7698.141797
1360.368611,-9548.656652,0.000000,5107.421000
1360.368923,444.123565,842.705048,2368.659014
1360.369235,7698.141797,-1685.410096,-1480.411884
1360.369546,9474.636058,-1302.362347,-6217.729913
1360.369858,5699.585753,766.095498,-7772.162391
1360.370169,-888.247130,3064.381992,-8734.430116
1360.370481,-9178.553681,4596.572988,-5329.482782
1360.370793,-18653.189738,2451.505594,-1850.514855
1360.371104,-24204.734303,-919.314598,4071.132681
1360.371416,-26573.393318,-4443.353888,7105.977043
1360.371728,-25241.022622,-3217.601092,8808.450710
1360.372039,-18727.210333,1149.143247,6957.935855
1360.372351,-9844.739029,2374.896044,3997.112087
1360.372662,-518.144159,2068.457845,962.267725
1360.372974,7105.977043,0.000000,-1776.494261
1360.373286,8882.471304,689.485948,-6661.853478
1360.373597,5995.668130,2451.505594,-7772.162391
1360.373909,-814.226536,4366.744339,-9252.574275
1360.374221,-9104.533087,5056.230287,-6735.874072
1360.374532,-17394.839637,3677.258390,-2738.761985
1360.374844,-23686.590144,0.000000,2516.700203
1360.375155,-26203.290347,-4213.525239,7328.038826
1360.375467,-26055.249158,-4519.963438,9474.636058
1360.375779,-21095.869347,-1378.971896,8216.285956
1360.376090,-10807.006753,76.609550,5699.585753
1360.376402,1036.288319,153.219100,1924.535449
1360.376713,8512.368333,-919.314598,-518.144159
1360.377025,10140.821405,-2221.676944,-5773.606348
1360.377337,6513.812290,-459.657299,-7254.018232
1360.377648,-296.082377,3140.991542,-8216.285956
1360.377960,-8364.327145,3524.039291,-5847.626942
1360.378272,-17098.757260,2221.676944,-2146.597232
1360.378583,-22946.384202,-995.924147,3330.926739
1360.378895,-25685.146187,-5515.887586,7698.141797
1360.379206,-24130.713709,-5975.544884,9918.759623
1360.379518,-19245.354492,-1608.800546,8142.265362
1360.379830,-11325.150913,995.924147,5329.482782
1360.380141,-222.061783,1149.143247,3182.885551
1360.380453,6143.709319,-919.314598,-0.000000
1360.380765,9844.739029,-995.924147,-4071.132681
1360.381076,8290.306550,153.219100,-5699.585753
1360.381388,2590.720797,2681.334243,-8290.306550
1360.381699,-6809.894666,3600.648841,-5847.626942
1360.382011,-16580.613101,2757.943793,-2738.761985
1360.382323,-22280.198854,-459.657299,3108.864956
1360.382634,-25759.166782,-3983.696590,7328.038826
1360.382946,-25611.125593,-5898.935335,10140.821405
1360.383257,-20207.622217,-3294.210641,8734.430116
1360.383569,-13323.706956,-1762.019645,6513.812290
1360.383881,-1924.535449,0.000000,3849.070898
1360.384192,5551.544565,-612.876398,592.164754
1360.384504,8956.491898,-1378.971896,-4071.132681
1360.384816,7920.203579,0.000000,-6143.709319
1360.385127,2368.659014,2298.286494,-8512.368333
1360.385439,-5773.606348,3677.258390,-6439.791695
1360.385750,-14582.057057,3983.696590,-3701.029710
1360.386062,-21465.972318,766.095498,2146.597232
1360.386374,-25833.187376,-3447.429741,5847.626942
1360.386685,-25833.187376,-5975.544884,8808.450710
1360.386997,-20059.581028,-3064.381992,8882.471304
1360.387308,-13101.645173,-536.266849,6883.915261
1360.387620,-4367.215058,919.314598,3552.988522
1360.387932,4441.235652,229.828649,1036.288319
1360.388243,7994.224174,-1378.971896,-5181.441594
1360.388555,7550.100608,76.609550,-6809.894666
1360.388867,2738.761985,3600.648841,-9252.574275
1360.389178,-4589.276840,5439.278036,-7698.141797
1360.389490,-14359.995275,4749.792088,-4367.215058
1360.389801,-21317.931130,2834.553343,1258.350101
1360.390113,-24944.940245,-995.924147,5773.606348
1360.390425,-24944.940245,-4060.306139,9030.512492
1360.390736,-21539.992912,-2068.457845,8808.450710
1360.391048,-13027.624579,459.657299,5847.626942
1360.391360,-2960.823768,1225.752797,1998.556043
1360.391671,4885.359217,842.705048,-518.144159
1360.391983,9474.636058,-766.095498,-4959.379811
1360.392294,8586.388927,0.000000,-7772.162391
1360.392606,1998.556043,2757.943793,-8512.368333
1360.392918,-5921.647536,3217.601092,-7402.059420
1360.393229,-14211.954086,3524.039291,-4515.256246
1360.393541,-21762.054695,1685.410096,1036.288319
1360.393852,-25685.146187,-2834.553343,4959.379811
1360.394164,-26203.290347,-5515.887586,8660.409521
1360.394476,-21836.075289,-3217.601092,9548.656652
1360.394787,-14211.954086,689.485948,7105.977043
1360.395099,-5477.523971,153.219100,4367.215058
1360.395410,3552.988522,-919.314598,2072.576638
1360.395722,8290.306550,-1685.410096,-3627.009116
1360.396034,9622.677246,-689.485948,-5847.626942
1360.396345,2516.700203,2681.334243,-8142.265362
1360.396657,-4737.318029,4213.525239,-7105.977043
1360.396968,-13397.727550,4136.915689,-4959.379811
1360.397280,-20355.663405,2221.676944,740.205942
1360.397592,-23464.528361,-1378.971896,5107.421000
1360.397903,-24574.837274,-5209.449386,8586.388927
1360.398215,-22280.198854,-3907.087040,9474.636058
1360.398526,-15988.448347,-689.485948,6957.935855
1360.398838,-6439.791695,-153.219100,4071.132681
1360.399150,2812.782580,0.000000,1702.473667
1360.399461,7476.080014,-1455.581446,-2368.659014
1360.399773,9178.553681,-1762.019645,-5403.503377
1360.400084,5403.503377,919.314598,-6735.874072
1360.400396,-2294.638420,2298.286494,-7105.977043
1360.400708,-11917.315666,2068.457845,-4589.276840
1360.401019,-20651.745782,612.876398,-0.000000
1360.401331,-24722.878463,-2145.067394,4885.359217
1360.401642,-26055.249158,-4903.011187,9030.512492
1360.401954,-24204.734303,-3907.087040,10436.903782
1360.402266,-17764.942608,-1532.190996,7698.141797
1360.402577,-8142.265362,-919.314598,5181.441594
1360.402889,1850.514855,-383.047749,2516.700203
1360.403200,8438.347739,153.219100,-1110.308913
1360.403512,9770.718434,0.000000,-6069.688724
1360.403824,5329.482782,2068.457845,-7772.162391
1360.404135,-1554.432478,4290.134789,-8290.306550
1360.404447,-9770.718434,5515.887586,-5921.647536
1360.404759,-19171.333898,4290.134789,-1924.535449
1360.405070,-23242.466579,0.000000,3256.906145
1360.405382,-24574.837274,-5745.716235,7328.038826
1360.405693,-22206.178260,-6281.983084,9474.636058
1360.406005,-17690.922014,-2604.724693,7179.997637
1360.406317,-9474.636058,-995.924147,4219.173869
1360.406628,2368.659014,-995.924147,2368.659014
1360.406940,7031.956449,-1455.581446,-1554.432478
1360.407251,7994.224174,-2451.505594,-6513.812290
1360.407563,5625.565159,842.705048,-7179.997637
1360.407875,-962.267725,3217.601092,-8808.450710
1360.408186,-9696.697840,4903.011187,-6513.812290
1360.408498,-18579.169144,3600.648841,-2590.720797
1360.408809,-24648.857869,383.047749,2368.659014
1360.409121,-26869.475695,-3907.087040,6957.935855
1360.409433,-24574.837274,-4749.792088,9178.553681
1360.409744,-16210.510130,-1608.800546,7772.162391
1360.410056,-9844.739029,153.219100,4515.256246
1360.410367,-814.226536,1302.362347,1406.391290
1360.410679,7179.997637,1072.533697,-1554.432478
1360.410991,9178.553681,536.266849,-6365.771101
1360.411302,5773.606348,919.314598,-7476.080014
1360.411614,-296.082377,3370.820191,-8512.368333
1360.411925,-8586.388927,5209.449386,-6143.709319
1360.412237,-18061.024985,3753.867940,-2664.741391
1360.412549,-23982.672521,229.828649,3256.906145
1360.412860,-26129.269753,-3907.087040,6809.894666
1360.413172,-24500.816680,-5822.325785,9252.574275
1360.413483,-17246.798449,-2987.772442,9178.553681
1360.413795,-9622.677246,-1532.190996,6661.853478
1360.414107,-592.164754,-1225.752797,3182.885551
1360.414418,7328.038826,-2451.505594,518.144159
1360.414730,9474.636058,-2451.505594,-4737.318029
1360.415041,6957.935855,-1532.190996,-5625.565159
1360.415353,518.144159,689.485948,-7550.100608
1360.415665,-7772.162391,306.438199,-5255.462188
1360.415976,-16580.613101,0.000000,-2368.659014
1360.416288,-21984.116477,-995.924147,3627.009116
1360.416599,-23760.610738,-5286.058936,7105.977043
1360.416911,-22650.301825,-7431.126331,10140.821405
1360.417223,-17542.880825,-4749.792088,8882.471304
1360.417534,-12509.480420,-2451.505594,6587.832884
1360.417846,-3182.885551,0.000000,2442.679609
1360.418157,3404.947333,229.828649,-666.185348
1360.418469,7031.956449,76.609550,-4441.235652
1360.418781,8290.306550,-383.047749,-5477.523971
1360.419092,4663.297435,76.609550,-7328.038826
1360.419404,-2812.782580,-612.876398,-5477.523971
1360.419715,-12879.583391,-1532.190996,-3849.070898
1360.420027,-20133.601622,-3217.601092,1554.432478
1360.420339,-24574.837274,-4979.620737,5773.606348
1360.420650,-25463.084405,-7048.078582,9474.636058
1360.420962,-22428.240043,-6741.640382,9992.780217
1360.421273,-16062.468941,-6894.859482,8438.347739
1360.421585,-5625.565159,-5898.935335,4811.338623
1360.421897,1184.329507,-5439.278036,518.144159
1360.422208,6291.750507,-3447.429741,-4071.132681
1360.422520,8068.244768,-1302.362347,-6957.935855
1360.422831,6143.709319,-689.485948,-9548.656652
1360.423143,-222.061783,-1915.238745,-7550.100608
1360.423455,-8512.368333,-2834.553343,-4737.318029
1360.423766,-16062.468941,-4519.963438,518.144159
1360.424078,-23760.610738,-6128.763984,4589.276840
1360.424389,-26351.331535,-6894.859482,8438.347739
1360.424701,-23464.528361,-4596.572988,9030.512492
1360.425013,-19763.498651,-2911.162892,7254.018232
1360.425324,-11473.192101,-1378.971896,3997.112087
1360.425636,-2886.803174,-1991.848295,740.205942
1360.425948,3775.050304,-2298.286494,-3701.029710
1360.426259,7179.997637,-1225.752797,-5551.544565
1360.426571,5329.482782,-1608.800546,-9178.553681
1360.426882,1258.350101,-2374.896044,-7920.203579
1360.427194,-6883.915261,-2451.505594,-5551.544565
1360.427506,-13767.830521,-3140.991542,-444.123565
1360.427817,-20503.704593,-4443.353888,3404.947333
1360.428129,-24278.754898,-5898.935335,7105.977043
1360.428440,-22058.137072,-5898.935335,8364.327145
1360.428752,-17024.736666,-4060.306139,7105.977043
1360.429064,-11473.192101,-2681.334243,2664.741391
1360.429375,-3404.947333,0.000000,-74.020594
1360.429687,888.247130,-536.266849,-3701.029710
1360.429998,3478.967927,229.828649,-4367.215058
1360.430310,1776.494261,919.314598,-4515.256246
1360.430622,-1924.535449,-766.095498,-3775.050304
1360.430933,-7105.977043,-2298.286494,-2442.679609
1360.431245,-11399.171507,-2604.724693,-296.082377
1360.431556,-14211.954086,-3370.820191,888.247130
1360.431868,-15988.448347,-4826.401637,3256.906145
1360.432180,-15618.345376,-5745.716235,5403.503377
1360.432491,-16062.468941,-5515.887586,5995.668130
1360.432803,-13027.624579,-4826.401637,6735.874072
1360.433114,-8660.409521,-3983.696590,4885.359217
1360.433426,-5033.400406,-2451.505594,962.267725
1360.433738,-1036.288319,-1455.581446,-888.247130
1360.434049,518.144159,306.438199,-3849.070898
1360.434361,222.061783,-536.266849,-5477.523971
1360.434672,-3701.029710,-459.657299,-4737.318029
1360.434984,-8142.265362,-1378.971896,-2294.638420
1360.435296,-12065.356855,-2911.162892,518.144159
1360.435607,-15322.262999,-5286.058936,4071.132681
1360.435919,-15766.386565,-5669.106685,5995.668130
1360.436230,-15618.345376,-4903.011187,6365.771101
1360.436542,-13693.809927,-5056.230287,6513.812290
1360.436854,-10140.821405,-3294.210641,3478.967927
1360.437165,-5921.647536,-1072.533697,888.247130
1360.437477,-3108.864956,536.266849,-1332.370696
1360.437788,-1628.453072,995.924147,-3256.906145
1360.438100,-1776.494261,689.485948,-3701.029710
1360.438412,-3849.070898,-229.828649,-3108.864956
1360.438723,-6513.812290,-1378.971896,-1184.329507
1360.439035,-9992.780217,-3830.477490,222.061783
1360.439346,-13693.809927,-5362.668486,2590.720797
1360.439658,-15692.365970,-6281.983084,3997.112087
1360.439970,-15248.242405,-6511.811733,4589.276840
1360.440281,-13693.809927,-5745.716235,4145.153275
1360.440593,-12065.356855,-3370.820191,2294.638420
1360.440904,-8882.471304,-3524.039291,592.164754
1360.441216,-5551.544565,-2911.162892,-592.164754
1360.441528,-2368.659014,-2604.724693,-1554.432478
1360.441839,-2368.659014,-2451.505594,-1924.535449
1360.442151,-3552.988522,-2451.505594,-1850.514855
1360.442462,-5847.626942,-2528.115143,-1554.432478
1360.442774,-8734.430116,-1762.019645,-962.267725
1360.443086,-11769.274478,-1608.800546,-0.000000
1360.443397,-13545.768739,-2604.724693,1776.494261
1360.443709,-14434.015869,-2987.772442,2072.576638
1360.444020,-13915.871710,-3447.429741,2516.700203
1360.444332,-11473.192101,-3294.210641,2368.659014
1360.444644,-9400.615463,-2911.162892,814.226536
1360.444955,-6809.894666,-2528.115143,-518.144159
1360.445267,-3849.070898,-1455.581446,-1998.556043
1360.445578,-4589.276840,-2068.457845,-3330.926739
1360.445890,-3701.029710,-1532.190996,-2146.597232
1360.446202,-6291.750507,-1991.848295,-2516.700203
1360.446513,-9178.553681,-4673.182538,592.164754
1360.446825,-13915.871710,-6741.640382,2146.597232
1360.447137,-15840.407159,-6511.811733,3775.050304
1360.447448,-15248.242405,-4060.306139,3849.070898
1360.447760,-13693.809927,-2451.505594,3775.050304
1360.448071,-11325.150913,-3524.039291,2886.803174
1360.448383,-7920.203579,-3600.648841,888.247130
1360.448695,-5255.462188,-1915.238745,-74.020594
1360.449006,-4441.235652,153.219100,-518.144159
1360.449318,-6439.791695,995.924147,-814.226536
1360.449629,-8512.368333,1225.752797,-592.164754
1360.449941,-8142.265362,-229.828649,962.267725
1360.450253,-8734.430116,-1762.019645,1110.308913
1360.450564,-8290.306550,-2451.505594,3256.906145
1360.450876,-10288.862594,-2298.286494,3108.864956
1360.451187,-10214.842000,-4213.525239,5477.523971
1360.451499,-11399.171507,-5362.668486,6291.750507
1360.451811,-9992.780217,-3064.381992,6661.853478
1360.452122,-9844.739029,-766.095498,5921.647536
1360.452434,-10214.842000,0.000000,4737.318029
1360.452745,-7105.977043,306.438199,3701.029710
1360.453057,-3627.009116,2757.943793,814.226536
1360.453369,-3182.885551,2987.772442,1702.473667
1360.453680,-4219.173869,1915.238745,1924.535449
1360.453992,-7550.100608,-612.876398,2368.659014
1360.454303,-9622.677246,-689.485948,4737.318029
1360.454615,-9474.636058,-689.485948,5995.668130
1360.454927,-13693.809927,-1685.410096,5773.606348
1360.455238,-12805.562797,-1455.581446,8734.430116
1360.455550,-11473.192101,-1685.410096,6883.915261
1360.455861,-8290.306550,-1149.143247,7105.977043
1360.456173,-6883.915261,-383.047749,5329.482782
1360.456485,-6883.915261,1685.410096,3923.091493
1360.456796,-4589.276840,2374.896044,2368.659014
1360.457108,-3849.070898,2221.676944,1628.453072
1360.457419,-5181.441594,2604.724693,2146.597232
1360.457731,-8734.430116,2145.067394,3034.844362
1360.458043,-10658.965565,-153.219100,5181.441594
1360.458354,-10658.965565,-1455.581446,6439.791695
1360.458666,-10658.965565,-2834.553343,7550.100608
1360.458977,-10066.800811,-3217.601092,7179.997637
1360.459289,-9326.594869,-3294.210641,6439.791695
1360.459601,-8438.347739,-2374.896044,4885.359217
1360.459912,-6661.853478,995.924147,4589.276840
1360.460224,-7254.018232,1838.629195,2812.782580
1360.460535,-9030.512492,3294.210641,1998.556043
1360.460847,-8660.409521,2604.724693,2146.597232
1360.461159,-7254.018232,2834.553343,2664.741391
1360.461470,-7179.997637,1455.581446,2516.700203
1360.461782,-7402.059420,-612.876398,3182.885551
1360.462093,-8586.388927,-1608.800546,3923.091493
1360.462405,-9030.512492,-1532.190996,4071.132681
1360.462717,-9178.553681,-2528.115143,4737.318029
1360.463028,-9918.759623,-1915.238745,3775.050304
1360.463340,-10436.903782,-1455.581446,3256.906145
1360.463651,-9622.677246,0.000000,2294.638420
1360.463963,-8216.285956,689.485948,1406.391290
1360.464275,-7550.100608,1455.581446,518.144159
1360.464586,-8068.244768,1225.752797,370.102971
1360.464898,-8734.430116,995.924147,-0.000000
1360.465209,-9178.553681,766.095498,814.226536
1360.465521,-9400.615463,1225.752797,1924.535449
1360.465833,-11177.109724,-612.876398,3108.864956
1360.466144,-11843.295072,-2298.286494,4589.276840
1360.466456,-10807.006753,-2987.772442,4811.338623
1360.466767,-9918.759623,-2451.505594,4885.359217
1360.467079,-8216.285956,-1762.019645,4219.173869
1360.467391,-7994.224174,-1302.362347,2146.597232
1360.467702,-6661.853478,0.000000,592.164754
1360.468014,-5255.462188,1838.629195,-666.185348
1360.468326,-6069.688724,2528.115143,-1702.473667
1360.468637,-7920.203579,2298.286494,-962.267725
1360.468949,-10436.903782,1685.410096,740.205942
1360.469260,-12509.480420,306.438199,2812.782580
1360.469572,-13767.830521,-306.438199,5699.585753
1360.469884,-14137.933492,-2221.676944,6439.791695
1360.470195,-12805.562797,-2757.943793,6365.771101
1360.470507,-9474.636058,-2987.772442,5477.523971
1360.470818,-6217.729913,-2451.505594,2960.823768
1360.471130,-3923.091493,-1149.143247,1184.329507
1360.471442,-3627.009116,-383.047749,-0.000000
1360.471753,-5181.441594,76.609550,370.102971
1360.472065,-8586.388927,919.314598,2146.597232
1360.472376,-11547.212695,536.266849,4145.153275
1360.472688,-13027.624579,919.314598,5699.585753
1360.473000,-13323.706956,76.609550,6661.853478
1360.473311,-11029.068536,-842.705048,6439.791695
1360.473623,-7920.203579,-612.876398,5995.668130
1360.473934,-6217.729913,-766.095498,3849.070898
1360.474246,-5181.441594,-536.266849,3034.844362
1360.474558,-4515.256246,459.657299,1850.514855
1360.474869,-4885.359217,842.705048,1332.370696
1360.475181,-7328.038826,1915.238745,1924.535449
1360.475492,-11029.068536,2145.067394,3478.967927
1360.475804,-12435.459826,2221.676944,4737.318029
1360.476116,-11103.089130,1072.533697,5403.503377
1360.476427,-9178.553681,-536.266849,5403.503377
1360.476739,-7698.141797,-1532.190996,5107.421000
1360.477050,-6217.729913,-2145.067394,4589.276840
1360.477362,-5181.441594,-1302.362347,4737.318029
1360.477674,-7698.141797,-306.438199,5773.606348
1360.477985,-11399.171507,153.219100,6809.894666
1360.478297,-13175.665768,536.266849,7846.182985
1360.478608,-11991.336260,689.485948,7179.997637
1360.478920,-9326.594869,1455.581446,4737.318029
1360.479232,-4959.379811,2681.334243,2368.659014
1360.479543,-2812.782580,3524.039291,-296.082377
1360.479855,-2590.720797,2451.505594,-1036.288319
1360.480166,-4811.338623,1685.410096,-0.000000
1360.480478,-9252.574275,1072.533697,2072.576638
1360.480790,-11991.336260,-383.047749,5107.421000
1360.481101,-14656.077652,-2451.505594,7254.018232
1360.481413,-14508.036463,-3677.258390,8882.471304
1360.481724,-12879.583391,-3217.601092,8290.306550
1360.482036,-9918.759623,-2834.553343,7402.059420
1360.482348,-6587.832884,-1378.971896,5181.441594
1360.482659,-5477.523971,153.219100,2590.720797
1360.482971,-2812.782580,1685.410096,-0.000000
1360.483282,-2368.659014,3217.601092,-1480.411884
1360.483594,-4293.194464,3753.867940,-1702.473667
1360.483906,-6143.709319,3524.039291,-0.000000
1360.484217,-8364.327145,2528.115143,1110.308913
1360.484529,-10066.800811,-995.924147,2664.741391
1360.484840,-12361.439231,-536.266849,3552.988522
1360.485152,-13693.809927,-1762.019645,3552.988522
1360.485464,-11991.336260,-1532.190996,2812.782580
1360.485775,-10140.821405,-919.314598,666.185348
1360.486087,-8808.450710,459.657299,-0.000000
1360.486398,-8808.450710,689.485948,-222.061783
1360.486710,-7846.182985,383.047749,814.226536
1360.487022,-7994.224174,-229.828649,444.123565
1360.487333,-7476.080014,0.000000,222.061783
1360.487645,-6143.709319,-229.828649,-740.205942
1360.487956,-4885.359217,-459.657299,-2294.638420
1360.488268,-5107.421000,-612.876398,-3034.844362
1360.488580,-6957.935855,-1149.143247,-3701.029710
1360.488891,-10807.006753,-842.705048,-2294.638420
1360.489203,-15396.283594,-2068.457845,-444.123565
1360.489515,-18949.272115,-1072.533697,2146.597232
1360.489826,-20873.807564,-689.485948,3923.091493
1360.490138,-18727.210333,-153.219100,4293.194464
1360.490449,-14063.912898,459.657299,2516.700203
1360.490761,-7476.080014,919.314598,-0.000000
1360.491073,-740.205942,1838.629195,-3701.029710
1360.491384,3775.050304,1608.800546,-6513.812290
1360.491696,3256.906145,1302.362347,-6957.935855
1360.492007,-1554.432478,153.219100,-5551.544565
1360.492319,-7772.162391,-306.438199,-1850.514855
1360.492631,-14804.118840,-689.485948,1554.432478
1360.492942,-20355.663405,-1762.019645,4737.318029
1360.493254,-21910.095883,-2528.115143,6587.832884
1360.493565,-18357.107362,-2911.162892,5625.565159
1360.493877,-12435.459826,-1685.410096,3108.864956
1360.494189,-6291.750507,306.438199,1110.308913
1360.494500,-2812.782580,2145.067394,-592.164754
1360.494812,-740.205942,1915.238745,-1332.370696
1360.495123,-444.123565,1532.190996,-1776.494261
1360.495435,-1924.535449,1378.971896,-1554.432478
1360.495746,-4071.132681,766.095498,-1110.308913
1360.496058,-5403.503377,0.000000,-666.185348
1360.496369,-8364.327145,-1225.752797,-888.247130
1360.496681,-12583.501014,-1838.629195,740.205942
1360.496993,-16136.489536,-1838.629195,2294.638420
1360.497304,-18431.127956,-995.924147,5107.421000
1360.497616,-17838.963202,612.876398,6439.791695
1360.497927,-14582.057057,1762.019645,5773.606348
1360.498239,-7624.121203,2068.457845,4219.173869
1360.498550,-814.226536,1915.238745,1184.329507
1360.498862,4441.235652,1685.410096,-1628.453072
1360.499173,6587.832884,1072.533697,-4219.173869
1360.499485,2516.700203,1455.581446,-5995.668130
1360.499796,-3182.885551,1378.971896,-5181.441594
1360.500108,-11399.171507,536.266849,-2812.782580
1360.500419,-18949.272115,-766.095498,962.267725
1360.500731,-23760.610738,-1378.971896,3997.112087
1360.501042,-23686.590144,-1532.190996,6439.791695
1360.501354,-19615.457463,-1072.533697,7105.977043
1360.501666,-15026.180623,-1685.410096,6587.832884
1360.501977,-8512.368333,-766.095498,4515.256246
1360.502289,-2072.576638,536.266849,1406.391290
1360.502600,2590.720797,1685.410096,-1554.432478
1360.502912,4441.235652,2911.162892,-4515.256246
1360.503223,2664.741391,3217.601092,-6513.812290
1360.503535,-888.247130,1915.238745,-6735.874072
1360.503846,-6957.935855,0.000000,-4515.256246
1360.504158,-14211.954086,-2298.286494,-740.205942
1360.504469,-22576.281231,-2681.334243,3627.009116
1360.504781,-27535.661042,-3830.477490,7698.141797
1360.505092,-26647.413912,-3600.648841,9918.759623
1360.505404,-20651.745782,-1915.238745,9178.553681
1360.505715,-11251.130318,76.609550,7031.956449
1360.506027,148.041188,1455.581446,2294.638420
1360.506339,8882.471304,536.266849,-1998.556043
1360.506650,12953.603985,766.095498,-5995.668130
1360.506962,10510.924376,1608.800546,-7105.977043
1360.507273,2886.803174,1302.362347,-6439.791695
1360.507585,-7031.956449,229.828649,-3552.988522
1360.507896,-16432.571912,-842.705048,-444.123565
1360.508208,-23908.651927,-2298.286494,4071.132681
1360.508519,-26943.496289,-2757.943793,6883.915261
1360.508831,-24944.940245,-2451.505594,8216.285956
1360.509142,-18579.169144,-995.924147,6957.935855
1360.509454,-9696.697840,-76.609550,5477.523971
1360.509765,-222.061783,0.000000,1184.329507
1360.510077,7031.956449,1149.143247,-1924.535449
1360.510388,9918.759623,2834.553343,-6291.750507
1360.510700,8734.430116,4290.134789,-8364.327145
1360.511012,2960.823768,3600.648841,-9326.594869
1360.511323,-5847.626942,1455.581446,-7698.141797
1360.511635,-15840.407159,-383.047749,-3701.029710
1360.511946,-24500.816680,-2604.724693,1924.535449
1360.512258,-29534.217086,-4136.915689,4885.359217
1360.512569,-29312.155303,-4290.134789,6957.935855
1360.512881,-24278.754898,-2757.943793,5921.647536
1360.513192,-15174.221811,383.047749,4145.153275
1360.513504,-3627.009116,2145.067394,666.185348
1360.513815,4885.359217,2681.334243,-2812.782580
1360.514127,8438.347739,1225.752797,-5107.421000
1360.514438,8290.306550,1915.238745,-7772.162391
1360.514750,4737.318029,2757.943793,-9326.594869
1360.515061,-2368.659014,2068.457845,-8586.388927
1360.515373,-11621.233289,0.000000,-5107.421000
1360.515685,-20429.683999,-2298.286494,-1258.350101
1360.515996,-27091.537477,-3983.696590,3182.885551
1360.516308,-29904.320057,-4826.401637,7328.038826
1360.516619,-27683.702231,-3217.601092,9770.718434
1360.516931,-21391.951724,-1532.190996,8290.306550
1360.517242,-10214.842000,-612.876398,5329.482782
1360.517554,3182.885551,459.657299,-592.164754
1360.517865,13397.727550,2221.676944,-5255.462188
1360.518177,16728.654289,5439.278036,-9992.780217
1360.518488,11917.315666,5286.058936,-10807.006753
1360.518800,1258.350101,2834.553343,-8734.430116
1360.519111,-11251.130318,-153.219100,-3552.988522
1360.519423,-23020.404796,-2451.505594,1184.329507
1360.519734,-30052.361245,-4136.915689,5921.647536
1360.520046,-30792.567187,-4673.182538,8882.471304
1360.520358,-26499.372724,-4060.306139,10584.944971
1360.520669,-19319.375086,-2451.505594,9326.594869
1360.520981,-9326.594869,-1302.362347,7031.956449
1360.521292,2664.741391,-229.828649,2442.679609
1360.521604,11917.315666,919.314598,-1554.432478
1360.521915,16284.530724,3907.087040,-7031.956449
1360.522227,14804.118840,5132.839837,-9326.594869
1360.522538,5921.647536,4443.353888,-10066.800811
1360.522850,-5477.523971,1838.629195,-6365.771101
1360.523161,-19245.354492,0.000000,-888.247130
1360.523473,-30940.608376,-1685.410096,5477.523971
1360.523784,-35974.008781,-3294.210641,10510.924376
1360.524096,-33457.308578,-4519.963438,13027.624579
1360.524407,-23464.528361,-3677.258390,11325.150913
1360.524719,-9252.574275,-2068.457845,7476.080014
1360.525031,4663.297435,-689.485948,2146.597232
1360.525342,13989.892304,1532.190996,-3404.947333
1360.525654,16284.530724,3677.258390,-7920.203579
1360.525965,12435.459826,6435.202183,-10362.883188
1360.526277,3627.009116,5362.668486,-9178.553681
1360.526588,-7698.141797,2221.676944,-6735.874072
1360.526900,-19985.560434,-536.266849,-1406.391290
1360.527211,-29090.093521,-3140.991542,3330.926739
1360.527523,-32421.020260,-5132.839837,8586.388927
1360.527834,-31236.690752,-5975.544884,11177.109724
1360.528146,-25167.002028,-5209.449386,10584.944971
1360.528457,-13841.851115,-2298.286494,7994.224174
1360.528769,-1480.411884,-1378.971896,3923.091493
1360.529080,9844.739029,1685.410096,-1480.411884
1360.529392,15026.180623,2911.162892,-5699.585753
1360.529703,13545.768739,4903.011187,-10881.027347
1360.530015,7179.997637,5362.668486,-10066.800811
1360.530327,-3256.906145,2681.334243,-9030.512492
1360.530638,-15100.201217,1149.143247,-3923.091493
1360.530950,-26129.269753,-1838.629195,1258.350101
1360.531261,-31236.690752,-3983.696590,7476.080014
1360.531573,-30792.567187,-5822.325785,11917.315666
1360.531884,-25759.166782,-6971.469032,11843.295072
1360.532196,-15988.448347,-4903.011187,9252.574275
1360.532507,-2368.659014,-3140.991542,5329.482782
1360.532819,10214.842000,0.000000,-814.226536
1360.533130,16284.530724,1149.143247,-5921.647536
1360.533442,14211.954086,4596.572988,-11325.150913
1360.533753,7994.224174,5132.839837,-11029.068536
1360.534065,-2590.720797,4213.525239,-9696.697840
1360.534376,-15174.221811,2757.943793,-5033.400406
1360.534688,-27683.702231,-153.219100,444.123565
1360.535000,-33013.185013,-2757.943793,6661.853478
1360.535311,-32272.979071,-3677.258390,10955.047942
1360.535623,-25759.166782,-3830.477490,10732.986159
1360.535934,-16506.592507,-3830.477490,9104.533087
1360.536246,-3108.864956,-2987.772442,6365.771101
1360.536557,8364.327145,536.266849,592.164754
1360.536869,14730.098246,3294.210641,-5625.565159
1360.537180,13693.809927,4749.792088,-10436.903782
1360.537492,8068.244768,6052.154434,-11843.295072
1360.537803,-1332.370696,6281.983084,-9474.636058
1360.538115,-13989.892304,4213.525239,-6291.750507
1360.538426,-26055.249158,612.876398,-444.123565
1360.538738,-33531.329173,-2911.162892,6069.688724
1360.539049,-32865.143825,-4826.401637,11103.089130
1360.539361,-26499.372724,-5515.887586,11325.150913
1360.539673,-14878.139434,-4979.620737,9844.739029
1360.539984,-4219.173869,-4673.182538,4737.318029
1360.540296,6365.771101,-306.438199,2294.638420
1360.540607,12583.501014,1685.410096,-2960.823768
1360.540919,11103.089130,3677.258390,-6735.874072
1360.541230,3849.070898,4749.792088,-7624.121203
1360.541542,-3108.864956,4290.134789,-6661.853478
1360.541853,-11103.089130,3294.210641,-5921.647536
1360.542165,-19097.313304,383.047749,-1628.453072
1360.542476,-25537.104999,-2911.162892,3034.844362
1360.542788,-26943.496289,-3830.477490,10288.862594
1360.543099,-26055.249158,-4673.182538,12213.398043
1360.543411,-22058.137072,-3907.087040,13545.768739
1360.543722,-10732.986159,-3524.039291,10066.800811
1360.544034,2590.720797,-1225.752797,7402.059420
1360.544346,11029.068536,3140.991542,-1036.288319
1360.544657,17024.736666,4903.011187,-7105.977043
1360.544969,12583.501014,5898.935335,-11695.253884
1360.545280,4737.318029,5822.325785,-9918.759623
1360.545592,-6291.750507,4060.306139,-8364.327145
1360.545903,-18653.189738,1072.533697,-2590.720797
1360.546215,-29164.114115,-2528.115143,4737.318029
1360.546526,-33457.308578,-5209.449386,12879.583391
1360.546838,-30496.484810,-6588.421283,16210.510130
1360.547149,-20873.807564,-6894.859482,14434.015869
1360.547461,-8734.430116,-5209.449386,11843.295072
1360.547772,2812.782580,-4673.182538,6957.935855
1360.548084,13841.851115,1685.410096,-1628.453072
1360.548395,17764.942608,4443.353888,-9770.718434
1360.548707,12213.398043,5975.544884,-12361.439231
1360.549019,1406.391290,7124.688131,-10807.006753
1360.549330,-8512.368333,5898.935335,-8142.265362
1360.549642,-21688.034101,2068.457845,-2368.659014
1360.549953,-31014.628970,-1915.238745,4737.318029
1360.550265,-33235.246796,-4673.182538,9992.780217
1360.550576,-28868.031738,-4673.182538,12509.480420
1360.550888,-20429.683999,-2987.772442,9992.780217
1360.551199,-11177.109724,-1149.143247,7328.038826
1360.551511,888.247130,-1378.971896,2072.576638
1360.551822,13545.768739,1378.971896,-1110.308913
1360.552134,14952.160028,4903.011187,-7920.203579
1360.552445,8512.368333,3677.258390,-11547.212695
1360.552757,1110.308913,4826.401637,-9252.574275
1360.553068,-7698.141797,4443.353888,-9474.636058
1360.553380,-18431.127956,1378.971896,-4441.235652
1360.553692,-26425.352129,-3294.210641,1776.494261
1360.554003,-29904.320057,-5209.449386,5329.482782
1360.554315,-28794.011144,-4060.306139,9178.553681
1360.554626,-23538.548956,-2834.553343,8586.388927
1360.554938,-14730.098246,-1915.238745,7476.080014
1360.555249,-2812.782580,-2221.676944,3849.070898
1360.555561,9030.512492,1072.533697,1850.514855
1360.555872,12953.603985,3217.601092,-5107.421000
1360.556184,11325.150913,2757.943793,-11325.150913
1360.556495,5551.544565,4519.963438,-10510.924376
1360.556807,-2812.782580,4749.792088,-10140.821405
1360.557118,-14878.139434,2528.115143,-7105.977043
1360.557430,-25315.043216,-2528.115143,888.247130
1360.557741,-30792.567187,-5362.668486,6735.874072
1360.558053,-30792.567187,-4903.011187,11769.274478
1360.558365,-25907.207970,-4213.525239,11325.150913
1360.558676,-13249.686362,-3140.991542,9696.697840
1360.558988,-2146.597232,-2911.162892,6365.771101
1360.559299,8956.491898,0.000000,3182.885551
1360.559611,15618.345376,3524.039291,-4737.318029
1360.559922,14582.057057,3294.210641,-10436.903782
1360.560234,6513.812290,5132.839837,-9474.636058
1360.560545,-3108.864956,5515.887586,-8586.388927
1360.560857,-15470.304188,3600.648841,-6365.771101
1360.561168,-26055.249158,-306.438199,222.061783
1360.561480,-31162.670158,-3600.648841,6957.935855
1360.561791,-30644.525999,-4596.572988,11251.130318
1360.562103,-24648.857869,-4213.525239,11991.336260
1360.562414,-14211.954086,-4596.572988,11029.068536
1360.562726,-2368.659014,-3600.648841,7920.203579
1360.563037,6957.935855,0.000000,4737.318029
1360.563349,13249.686362,4060.306139,-1702.473667
1360.563661,14211.954086,4366.744339,-7920.203579
1360.563972,7031.956449,4826.401637,-9252.574275
1360.564284,-2664.741391,5286.058936,-7994.224174
1360.564595,-12509.480420,4213.525239,-6365.771101
1360.564907,-24352.775492,76.609550,-814.226536
1360.565218,-32346.999665,-3983.696590,6069.688724
1360.565530,-32346.999665,-4673.182538,11399.171507
1360.565841,-26351.331535,-4443.353888,12731.542202
1360.566153,-17542.880825,-2911.162892,11695.253884
1360.566464,-4219.173869,-2298.286494,8882.471304
1360.566776,7254.018232,-995.924147,5033.400406
1360.567087,14508.036463,2604.724693,-1258.350101
1360.567399,16432.571912,3677.258390,-7254.018232
1360.567710,8216.285956,4826.401637,-8882.471304
1360.568022,-1850.514855,5439.278036,-7920.203579
1360.568334,-11547.212695,4826.401637,-7031.956449
1360.568645,-21836.075289,1455.581446,-2146.597232
1360.568957,-28423.908173,-2528.115143,4293.194464
1360.569268,-29386.175897,-5592.497135,9178.553681
1360.569580,-24352.775492,-4826.401637,11103.089130
1360.569891,-16802.674883,-3217.601092,9992.780217
1360.570203,-9770.718434,-2681.334243,8586.388927
1360.570514,2442.679609,-1991.848295,4959.379811
