#time,accel_x,accel_y,accel_z
1400.707370,-8364.327145,0.000000,444.123565
1400.707682,-8660.409521,0.000000,74.020594
1400.707993,-8882.471304,0.000000,444.123565
1400.708305,-8660.409521,0.000000,592.164754
1400.708616,-8956.491898,0.000000,592.164754
1400.708927,-9030.512492,0.000000,740.205942
1400.709239,-8734.430116,76.609550,962.267725
1400.709550,-8808.450710,459.657299,148.041188
1400.709861,-9326.594869,0.000000,296.082377
1400.710173,-8660.409521,-229.828649,592.164754
1400.710484,-8808.450710,0.000000,592.164754
1400.710796,-9104.533087,-153.219100,444.123565
1400.711107,-8882.471304,-153.219100,592.164754
1400.711418,-8956.491898,-229.828649,666.185348
1400.711730,-9030.512492,0.000000,370.102971
1400.712041,-8808.450710,0.000000,370.102971
1400.712353,-8512.368333,-229.828649,518.144159
1400.712664,-8660.409521,76.609550,518.144159
1400.712975,-8882.471304,0.000000,518.144159
1400.713287,-9030.512492,0.000000,592.164754
1400.713598,-9030.512492,0.000000,518.144159
1400.713909,-9104.533087,-306.438199,518.144159
1400.714221,-8808.450710,153.219100,296.082377
1400.714532,-8660.409521,0.000000,370.102971
1400.714844,-8734.430116,76.609550,296.082377
1400.715155,-8734.430116,-153.219100,370.102971
1400.715466,-8956.491898,-229.828649,518.144159
1400.715778,-9030.512492,-229.828649,370.102971
1400.716089,-8956.491898,-229.828649,666.185348
1400.716401,-9030.512492,-153.219100,518.144159
1400.716712,-9252.574275,0.000000,296.082377
1400.717023,-8734.430116,-229.828649,740.205942
1400.717335,-8660.409521,-306.438199,370.102971
1400.717646,-8956.491898,0.000000,592.164754
1400.717957,-8956.491898,0.000000,592.164754
1400.718269,-8956.491898,-153.219100,518.144159
1400.718580,-8956.491898,0.000000,518.144159
1400.718892,-9178.553681,76.609550,222.061783
1400.719203,-8956.491898,0.000000,666.185348
1400.719514,-8882.471304,0.000000,444.123565
1400.719826,-8808.450710,76.609550,518.144159
1400.720137,-8808.450710,-229.828649,592.164754
1400.720449,-8734.430116,0.000000,666.185348
1400.720760,-8882.471304,0.000000,518.144159
1400.721071,-9030.512492,229.828649,370.102971
1400.721383,-8956.491898,-459.657299,370.102971
1400.721694,-8882.471304,-689.485948,666.185348
1400.722005,-8882.471304,0.000000,444.123565
1400.722317,-8660.409521,0.000000,740.205942
1400.722628,-9030.512492,-229.828649,444.123565
1400.722940,-8956.491898,-153.219100,592.164754
1400.723251,-8956.491898,-229.828649,518.144159
1400.723562,-9030.512492,-229.828649,666.185348
1400.723874,-9104.533087,-306.438199,-0.000000
1400.724185,-8660.409521,-383.047749,444.123565
1400.724497,-8734.430116,0.000000,444.123565
1400.724808,-8882.471304,0.000000,444.123565
1400.725119,-8808.450710,0.000000,592.164754
1400.725431,-8882.471304,0.000000,666.185348
1400.725742,-8882.471304,0.000000,444.123565
1400.726053,-8438.347739,-229.828649,518.144159
1400.726365,-9326.594869,-153.219100,296.082377
1400.726676,-8808.450710,76.609550,962.267725
1400.726988,-8660.409521,-383.047749,370.102971
1400.727299,-8882.471304,-383.047749,592.164754
1400.727610,-9104.533087,-306.438199,666.185348
1400.727922,-9030.512492,-153.219100,444.123565
1400.728233,-8956.491898,0.000000,444.123565
1400.728545,-8660.409521,-153.219100,296.082377
1400.728856,-8734.430116,0.000000,296.082377
1400.729167,-8660.409521,-229.828649,-0.000000
1400.729479,-8882.471304,-689.485948,444.123565
1400.729790,-8882.471304,-229.828649,666.185348
1400.730101,-8956.491898,-229.828649,518.144159
1400.730413,-9104.533087,76.609550,444.123565
1400.730724,-8956.491898,0.000000,666.185348
1400.731036,-8882.471304,-612.876398,666.185348
1400.731347,-8438.347739,459.657299,518.144159
1400.731658,-9104.533087,-306.438199,518.144159
1400.731970,-8956.491898,0.000000,370.102971
1400.732281,-8956.491898,0.000000,518.144159
1400.732593,-8808.450710,0.000000,666.185348
1400.732904,-9030.512492,0.000000,518.144159
1400.733215,-9030.512492,-459.657299,518.144159
1400.733527,-8882.471304,-229.828649,592.164754
1400.733838,-8808.450710,0.000000,370.102971
1400.734149,-8734.430116,0.000000,370.102971
1400.734461,-9030.512492,-153.219100,370.102971
1400.734772,-9030.512492,-229.828649,518.144159
1400.735084,-9030.512492,0.000000,592.164754
1400.735395,-9178.553681,0.000000,592.164754
1400.735706,-10807.006753,689.485948,-0.000000
1400.736018,-11399.171507,1762.019645,-0.000000
1400.736329,-8586.388927,4519.963438,814.226536
1400.736641,-7254.018232,3907.087040,814.226536
1400.736952,-6809.894666,1378.971896,1554.432478
1400.737263,-6735.874072,-1072.533697,296.082377
1400.737575,-7846.182985,-995.924147,-222.061783
1400.737886,-7476.080014,-306.438199,-222.061783
1400.738197,-10807.006753,-229.828649,-1332.370696
1400.738509,-12583.501014,-689.485948,-740.205942
1400.738820,-10214.842000,1072.533697,444.123565
1400.739132,-8956.491898,383.047749,1480.411884
1400.739443,-9104.533087,-612.876398,3182.885551
1400.739754,-11991.336260,306.438199,1628.453072
1400.740066,-9030.512492,4060.306139,2368.659014
1400.740377,-4885.359217,5209.449386,2220.617826
1400.740689,-7105.977043,3447.429741,666.185348
1400.741000,-7698.141797,2604.724693,-666.185348
1400.741311,-7105.977043,3600.648841,-1850.514855
1400.741623,-8734.430116,3677.258390,-1406.391290
1400.741934,-8956.491898,3830.477490,-148.041188
1400.742245,-11991.336260,2298.286494,-1332.370696
1400.742557,-14211.954086,-995.924147,740.205942
1400.742868,-8882.471304,-1149.143247,2738.761985
1400.743180,-10140.821405,306.438199,888.247130
1400.743491,-8956.491898,5056.230287,2738.761985
1400.743802,-7402.059420,6435.202183,1184.329507
1400.744114,-7402.059420,3447.429741,1628.453072
1400.744425,-6883.915261,4136.915689,2738.761985
1400.744737,-7550.100608,6052.154434,370.102971
1400.745048,-8512.368333,7201.297681,-740.205942
1400.745359,-8512.368333,5822.325785,-1480.411884
1400.745671,-9474.636058,4749.792088,-1332.370696
1400.745982,-10362.883188,4903.011187,-1036.288319
1400.746293,-11695.253884,4749.792088,-0.000000
1400.746605,-11029.068536,4749.792088,1776.494261
1400.746916,-10066.800811,3753.867940,1776.494261
1400.747228,-9252.574275,5056.230287,2442.679609
1400.747539,-6809.894666,5132.839837,1628.453072
1400.747850,-5551.544565,5745.716235,148.041188
1400.748162,-5847.626942,5209.449386,1036.288319
1400.748473,-5181.441594,5822.325785,-814.226536
1400.748785,-6217.729913,4903.011187,-1702.473667
1400.749096,-7624.121203,4366.744339,-1110.308913
1400.749407,-9696.697840,3217.601092,-222.061783
1400.749719,-10732.986159,1685.410096,1184.329507
1400.750030,-10362.883188,689.485948,740.205942
1400.750341,-10955.047942,383.047749,2220.617826
1400.750653,-10362.883188,153.219100,1184.329507
1400.750964,-9992.780217,2374.896044,2072.576638
1400.751276,-8216.285956,3907.087040,1332.370696
1400.751587,-6809.894666,3983.696590,222.061783
1400.751898,-6513.812290,3447.429741,-0.000000
1400.752210,-7328.038826,3447.429741,-1332.370696
1400.752521,-7254.018232,4136.915689,-1110.308913
1400.752832,-7105.977043,2451.505594,-1406.391290
1400.753144,-9844.739029,-229.828649,-814.226536
1400.753455,-10584.944971,-1915.238745,-148.041188
1400.753767,-12509.480420,-2528.115143,814.226536
1400.754078,-12879.583391,-1991.848295,2146.597232
1400.754389,-13323.706956,-1455.581446,1628.453072
1400.754701,-13027.624579,536.266849,1258.350101
1400.755012,-11695.253884,2451.505594,-444.123565
1400.755324,-8142.265362,4749.792088,-444.123565
1400.755635,-5477.523971,4979.620737,-444.123565
1400.755946,-5625.565159,4673.182538,740.205942
1400.756258,-6661.853478,3677.258390,814.226536
1400.756569,-8068.244768,2604.724693,666.185348
1400.756880,-9918.759623,1838.629195,-0.000000
1400.757192,-12361.439231,1302.362347,-148.041188
1400.757503,-13101.645173,766.095498,-222.061783
1400.757815,-13693.809927,153.219100,-444.123565
1400.758126,-12879.583391,919.314598,296.082377
1400.758437,-11399.171507,2528.115143,888.247130
1400.758749,-9844.739029,3753.867940,1628.453072
1400.759060,-7254.018232,4136.915689,2146.597232
1400.759372,-4293.194464,4903.011187,1850.514855
1400.759683,-2664.741391,5745.716235,444.123565
1400.759994,-2072.576638,6665.030833,-814.226536
1400.760306,-3256.906145,5286.058936,-1702.473667
1400.760617,-6883.915261,2987.772442,-1702.473667
1400.760928,-10214.842000,3064.381992,-1036.288319
1400.761240,-13693.809927,3217.601092,740.205942
1400.761551,-15248.242405,2911.162892,2516.700203
1400.761863,-15248.242405,2298.286494,3627.009116
1400.762174,-11769.274478,2757.943793,3775.050304
1400.762485,-6587.832884,3677.258390,2886.803174
1400.762797,-3552.988522,5056.230287,1628.453072
1400.763108,-2368.659014,6511.811733,-296.082377
1400.763420,-2368.659014,7890.783629,-1776.494261
1400.763731,-3478.967927,7967.393179,-2368.659014
1400.764042,-6661.853478,5745.716235,-2072.576638
1400.764354,-9474.636058,3447.429741,-592.164754
1400.764665,-9844.739029,1149.143247,296.082377
1400.764976,-11769.274478,-1991.848295,666.185348
1400.765288,-12065.356855,-3983.696590,1850.514855
1400.765599,-11769.274478,-2451.505594,2294.638420
1400.765911,-12879.583391,-995.924147,1184.329507
1400.766222,-11769.274478,1991.848295,2146.597232
1400.766533,-10510.924376,4060.306139,1628.453072
1400.766845,-9696.697840,5745.716235,1110.308913
1400.767156,-5921.647536,6971.469032,1850.514855
1400.767468,-6661.853478,4060.306139,-222.061783
1400.767779,-6883.915261,3370.820191,-444.123565
1400.768090,-6957.935855,3447.429741,-2220.617826
1400.768402,-9918.759623,3907.087040,-3256.906145
1400.768713,-11029.068536,3600.648841,-2442.679609
1400.769024,-12213.398043,3370.820191,-1628.453072
1400.769336,-12657.521608,1838.629195,-148.041188
1400.769647,-12731.542202,0.000000,1924.535449
1400.769959,-12065.356855,689.485948,2368.659014
1400.770270,-11547.212695,2528.115143,1850.514855
1400.770581,-9696.697840,5975.544884,1258.350101
1400.770893,-7624.121203,6741.640382,518.144159
1400.771204,-5847.626942,5439.278036,-666.185348
1400.771516,-5255.462188,4596.572988,-1036.288319
1400.771827,-6513.812290,3600.648841,-1184.329507
1400.772138,-7846.182985,2451.505594,-592.164754
1400.772450,-9178.553681,3064.381992,518.144159
1400.772761,-10140.821405,-229.828649,740.205942
1400.773072,-8660.409521,-1608.800546,1850.514855
1400.773384,-7994.224174,-2604.724693,2072.576638
1400.773695,-8364.327145,-842.705048,1998.556043
1400.774007,-9030.512492,3064.381992,814.226536
1400.774318,-10214.842000,7507.735880,-666.185348
1400.774629,-9770.718434,10572.117872,-0.000000
1400.774941,-9696.697840,8810.098227,1332.370696
1400.775252,-9178.553681,5515.887586,1554.432478
1400.775564,-7772.162391,4060.306139,1554.432478
1400.775875,-6217.729913,3753.867940,1036.288319
1400.776186,-5847.626942,3983.696590,1036.288319
1400.776498,-6661.853478,2604.724693,1110.308913
1400.776809,-5847.626942,612.876398,592.164754
1400.777120,-5107.421000,0.000000,-148.041188
1400.777432,-7994.224174,1378.971896,-518.144159
1400.777743,-10066.800811,4596.572988,-592.164754
1400.778055,-12139.377449,6358.592633,-666.185348
1400.778366,-12657.521608,5592.497135,1184.329507
1400.778677,-13101.645173,2757.943793,3701.029710
1400.778989,-14211.954086,766.095498,3552.988522
1400.779300,-11917.315666,1915.238745,2960.823768
1400.779612,-7031.956449,2068.457845,1776.494261
1400.779923,-3404.947333,-842.705048,1258.350101
1400.780235,-1480.411884,-5209.449386,1332.370696
1400.780546,-3552.988522,-7584.345430,-444.123565
1400.780858,-5551.544565,-6128.763984,-444.123565
1400.781169,-6735.874072,-1072.533697,-1036.288319
1400.781481,-10510.924376,2987.772442,-444.123565
1400.781792,-14285.974681,2374.896044,-370.102971
1400.782104,-17394.839637,995.924147,1184.329507
1400.782415,-17246.798449,1685.410096,2294.638420
1400.782726,-13915.871710,4826.401637,1628.453072
1400.783038,-9696.697840,4903.011187,1184.329507
1400.783349,-5551.544565,612.876398,-0.000000
1400.783661,-2368.659014,-3447.429741,-370.102971
1400.783972,-296.082377,-4749.792088,-592.164754
1400.784284,-1850.514855,-2068.457845,-814.226536
1400.784595,-4885.359217,766.095498,-74.020594
1400.784907,-10510.924376,0.000000,-888.247130
1400.785218,-15766.386565,-1685.410096,-148.041188
1400.785530,-17616.901420,306.438199,-74.020594
1400.785841,-16358.551318,3677.258390,-518.144159
1400.786152,-13841.851115,3907.087040,-222.061783
1400.786464,-11177.109724,536.266849,-1110.308913
1400.786775,-8438.347739,-2451.505594,-1258.350101
1400.787087,-5847.626942,-3294.210641,-740.205942
1400.787398,-2886.803174,-1455.581446,592.164754
1400.787710,-2146.597232,-919.314598,1332.370696
1400.788021,-6513.812290,-2834.553343,2146.597232
1400.788333,-10658.965565,-4596.572988,2368.659014
1400.788644,-12139.377449,-919.314598,1036.288319
1400.788956,-13027.624579,5975.544884,1036.288319
1400.789267,-12287.418637,8580.269578,-888.247130
1400.789578,-11251.130318,4673.182538,-2886.803174
1400.789890,-8956.491898,1532.190996,-3108.864956
1400.790201,-6957.935855,2604.724693,-2812.782580
1400.790513,-5625.565159,5132.839837,-1480.411884
1400.790824,-6217.729913,3907.087040,370.102971
1400.791136,-9326.594869,-1915.238745,2516.700203
1400.791447,-10955.047942,-4903.011187,5107.421000
1400.791759,-9918.759623,-3140.991542,6217.729913
1400.792070,-7328.038826,306.438199,3997.112087
1400.792382,-4663.297435,612.876398,1554.432478
1400.792693,-5107.421000,-2834.553343,-1258.350101
1400.793005,-5699.585753,-2451.505594,-2294.638420
1400.793316,-6587.832884,1915.238745,-2812.782580
1400.793627,-8438.347739,5439.278036,-1924.535449
1400.793939,-12509.480420,3524.039291,1184.329507
1400.794250,-15692.365970,-919.314598,3182.885551
1400.794562,-14952.160028,-1685.410096,5033.400406
1400.794873,-12287.418637,-383.047749,4811.338623
1400.795185,-6365.771101,1915.238745,4811.338623
1400.795496,-3404.947333,-306.438199,3108.864956
1400.795808,-2442.679609,-4826.401637,592.164754
1400.796119,-1776.494261,-4060.306139,-2146.597232
1400.796431,-2368.659014,1991.848295,-3256.906145
1400.796742,-6217.729913,5822.325785,-2220.617826
1400.797053,-12139.377449,1532.190996,-0.000000
1400.797365,-17098.757260,-4290.134789,1332.370696
1400.797676,-17394.839637,-4519.963438,2516.700203
1400.797988,-13619.789333,-1685.410096,3849.070898
1400.798299,-10584.944971,-2298.286494,2886.803174
1400.798611,-7402.059420,-6665.030833,1998.556043
1400.798922,-4515.256246,-8733.488677,370.102971
1400.799234,-3923.091493,-6588.421283,-888.247130
1400.799545,-4219.173869,459.657299,-444.123565
1400.799857,-6513.812290,3677.258390,-1258.350101
1400.800168,-9992.780217,919.314598,-0.000000
1400.800480,-12953.603985,-1762.019645,592.164754
1400.800791,-14359.995275,1072.533697,518.144159
1400.801102,-12879.583391,6281.983084,-444.123565
1400.801414,-11325.150913,5515.887586,-1554.432478
1400.801725,-10510.924376,0.000000,-1406.391290
1400.802037,-9030.512492,-2374.896044,-2664.741391
1400.802348,-8216.285956,1225.752797,-2590.720797
1400.802660,-6809.894666,4519.963438,-1998.556043
1400.802971,-8512.368333,2834.553343,-0.000000
1400.803283,-9918.759623,-1762.019645,2220.617826
1400.803594,-10584.944971,-3600.648841,2368.659014
1400.803906,-11103.089130,-1302.362347,666.185348
1400.804217,-8956.491898,3753.867940,-0.000000
1400.804528,-7402.059420,2604.724693,-1998.556043
1400.804840,-6957.935855,-1149.143247,-3627.009116
1400.805151,-7920.203579,-2834.553343,-3478.967927
1400.805463,-7994.224174,-766.095498,-2442.679609
1400.805774,-8956.491898,1378.971896,222.061783
1400.806086,-11843.295072,-842.705048,3256.906145
1400.806397,-13915.871710,-4673.182538,5551.544565
1400.806709,-14063.912898,-3830.477490,5329.482782
1400.807020,-10584.944971,1685.410096,4441.235652
1400.807332,-5699.585753,6205.373534,2294.638420
1400.807643,-2442.679609,4136.915689,-1184.329507
1400.807954,-370.102971,1225.752797,-3478.967927
1400.808266,-1554.432478,1302.362347,-5699.585753
1400.808577,-3478.967927,5669.106685,-3701.029710
1400.808889,-7031.956449,6665.030833,-1110.308913
1400.809200,-12213.398043,1302.362347,2516.700203
1400.809512,-15692.365970,-4749.792088,5551.544565
1400.809823,-15840.407159,-4826.401637,6957.935855
1400.810135,-13249.686362,-536.266849,6217.729913
1400.810446,-9696.697840,-229.828649,4663.297435
1400.810758,-4737.318029,-3524.039291,1776.494261
1400.811069,-1998.556043,-5822.325785,-444.123565
1400.811381,-1480.411884,-3370.820191,-1702.473667
1400.811692,-2220.617826,842.705048,-2072.576638
1400.812003,-5847.626942,1838.629195,-592.164754
1400.812315,-11399.171507,-2604.724693,1998.556043
1400.812626,-15248.242405,-5898.935335,3701.029710
1400.812938,-16136.489536,-2681.334243,3552.988522
1400.813249,-14434.015869,1149.143247,3404.947333
1400.813561,-11695.253884,842.705048,2220.617826
1400.813872,-8734.430116,-3830.477490,1258.350101
1400.814184,-6957.935855,-4596.572988,-0.000000
1400.814495,-4737.318029,-1302.362347,-888.247130
1400.814807,-4515.256246,1838.629195,-592.164754
1400.815118,-7772.162391,1532.190996,296.082377
1400.815429,-10214.842000,-1532.190996,814.226536
1400.815741,-12953.603985,-2911.162892,-0.000000
1400.816052,-12657.521608,1072.533697,-148.041188
1400.816364,-10732.986159,5362.668486,-740.205942
1400.816675,-9622.677246,2757.943793,-1628.453072
1400.816987,-9104.533087,-2374.896044,-1406.391290
1400.817298,-8068.244768,-3140.991542,-1702.473667
1400.817610,-7105.977043,536.266849,-222.061783
1400.817921,-7402.059420,2604.724693,666.185348
1400.818233,-9918.759623,459.657299,2146.597232
1400.818544,-11843.295072,-2911.162892,2146.597232
1400.818856,-12435.459826,-1838.629195,1036.288319
1400.819167,-11473.192101,3294.210641,-444.123565
1400.819478,-8660.409521,6971.469032,-2960.823768
1400.819790,-6809.894666,4749.792088,-4737.318029
1400.820101,-5329.482782,536.266849,-4959.379811
1400.820413,-4737.318029,153.219100,-3923.091493
1400.820724,-5995.668130,3140.991542,-1628.453072
1400.821036,-9030.512492,3524.039291,1998.556043
1400.821347,-11917.315666,0.000000,3997.112087
1400.821659,-14211.954086,-3524.039291,4811.338623
1400.821970,-13915.871710,-1225.752797,4737.318029
1400.822282,-9474.636058,3294.210641,2886.803174
1400.822593,-5773.606348,2911.162892,-518.144159
1400.822904,-3701.029710,0.000000,-2664.741391
1400.823216,-3034.844362,-1838.629195,-4589.276840
1400.823527,-3701.029710,-1378.971896,-4959.379811
1400.823839,-4811.338623,2145.067394,-2590.720797
1400.824150,-8586.388927,919.314598,666.185348
1400.824462,-12805.562797,-3753.867940,3627.009116
1400.824773,-15322.262999,-5439.278036,5255.462188
1400.825085,-15026.180623,-2374.896044,5551.544565
1400.825396,-12361.439231,2145.067394,5551.544565
1400.825708,-9104.533087,2451.505594,3182.885551
1400.826019,-6513.812290,-1915.238745,1628.453072
1400.826330,-4441.235652,-4060.306139,-1110.308913
1400.826642,-2590.720797,-612.876398,-1924.535449
1400.826953,-3108.864956,3370.820191,-2442.679609
1400.827265,-6735.874072,1838.629195,-1184.329507
1400.827576,-10584.944971,-3217.601092,740.205942
1400.827888,-14285.974681,-4903.011187,2294.638420
1400.828199,-15100.201217,-919.314598,2960.823768
1400.828511,-12953.603985,1915.238745,3775.050304
1400.828822,-11399.171507,-919.314598,2812.782580
1400.829134,-9030.512492,-4979.620737,1924.535449
1400.829445,-6735.874072,-5209.449386,814.226536
1400.829757,-5255.462188,-1149.143247,-296.082377
1400.830068,-5477.523971,1991.848295,740.205942
1400.830379,-8216.285956,-1072.533697,1258.350101
1400.830691,-11695.253884,-3830.477490,1332.370696
1400.831002,-12435.459826,-2451.505594,1332.370696
1400.831314,-11177.109724,1838.629195,444.123565
1400.831625,-9474.636058,4290.134789,-296.082377
1400.831937,-8586.388927,1762.019645,-814.226536
1400.832248,-7698.141797,-1455.581446,-888.247130
1400.832560,-7328.038826,0.000000,-1110.308913
1400.832871,-7105.977043,3830.477490,148.041188
1400.833183,-8290.306550,4979.620737,1406.391290
1400.833494,-12213.398043,2221.676944,1110.308913
1400.833805,-13323.706956,-612.876398,2294.638420
1400.834117,-11473.192101,995.924147,962.267725
1400.834428,-8734.430116,4749.792088,-814.226536
1400.834740,-5625.565159,5132.839837,-2294.638420
1400.835051,-3775.050304,1608.800546,-3997.112087
1400.835363,-4367.215058,-1225.752797,-4663.297435
1400.835674,-5773.606348,1378.971896,-3256.906145
1400.835986,-5921.647536,4519.963438,-814.226536
1400.836297,-9252.574275,2757.943793,1628.453072
1400.836609,-12583.501014,-1991.848295,4515.256246
1400.836920,-13915.871710,-3600.648841,4293.194464
1400.837232,-13175.665768,995.924147,2960.823768
1400.837543,-9622.677246,5975.544884,1924.535449
1400.837854,-7254.018232,3830.477490,-1480.411884
1400.838166,-5033.400406,-995.924147,-3256.906145
1400.838477,-4737.318029,-2451.505594,-4663.297435
1400.838789,-4663.297435,536.266849,-4885.359217
1400.839100,-5181.441594,3830.477490,-2664.741391
1400.839412,-9400.615463,995.924147,370.102971
1400.839723,-12583.501014,-4290.134789,2960.823768
1400.840035,-14285.974681,-6052.154434,5551.544565
1400.840346,-13767.830521,-2298.286494,5403.503377
1400.840658,-12065.356855,612.876398,4293.194464
1400.840969,-9030.512492,-536.266849,2664.741391
1400.841280,-7179.997637,-4443.353888,222.061783
1400.841592,-4737.318029,-4519.963438,-962.267725
1400.841903,-3330.926739,-1149.143247,-1480.411884
1400.842215,-5033.400406,459.657299,-666.185348
1400.842526,-8882.471304,-612.876398,666.185348
1400.842838,-12805.562797,-4903.011187,2146.597232
1400.843149,-14508.036463,-3983.696590,2368.659014
1400.843461,-13249.686362,995.924147,3256.906145
1400.843772,-12139.377449,2374.896044,2960.823768
1400.844084,-10584.944971,-1149.143247,1702.473667
1400.844395,-8882.471304,-4213.525239,370.102971
1400.844706,-6365.771101,-1072.533697,-1184.329507
1400.845018,-4885.359217,2374.896044,-740.205942
1400.845329,-6365.771101,1532.190996,-0.000000
1400.845641,-8956.491898,-2528.115143,1850.514855
1400.845952,-10658.965565,-4979.620737,2368.659014
1400.846264,-12213.398043,-1991.848295,2146.597232
1400.846575,-10881.027347,2987.772442,1702.473667
1400.846887,-8882.471304,4673.182538,-518.144159
1400.847198,-6957.935855,306.438199,-1110.308913
1400.847510,-5995.668130,-1225.752797,-2294.638420
1400.847821,-5921.647536,383.047749,-1480.411884
1400.848133,-7402.059420,4519.963438,-370.102971
1400.848444,-10362.883188,4366.744339,1850.514855
1400.848755,-12731.542202,-153.219100,2812.782580
1400.849067,-14804.118840,-1532.190996,3404.947333
1400.849378,-12731.542202,2451.505594,1554.432478
1400.849690,-7328.038826,7124.688131,-0.000000
1400.850001,-5773.606348,6128.763984,-2368.659014
1400.850313,-2738.761985,459.657299,-3034.844362
1400.850624,-2294.638420,536.266849,-4811.338623
1400.850936,-3627.009116,3677.258390,-3627.009116
1400.851247,-4885.359217,6435.202183,-1258.350101
1400.851559,-10214.842000,3447.429741,814.226536
1400.851870,-13841.851115,-1225.752797,2886.803174
1400.852181,-14878.139434,-2451.505594,3627.009116
1400.852493,-13101.645173,766.095498,2738.761985
1400.852804,-9400.615463,3064.381992,1924.535449
1400.853116,-6661.853478,536.266849,-74.020594
1400.853427,-4737.318029,-4213.525239,-2516.700203
1400.853739,-4441.235652,-3600.648841,-2590.720797
1400.854050,-4145.153275,689.485948,-1480.411884
1400.854362,-7031.956449,1455.581446,-370.102971
1400.854673,-11843.295072,-1072.533697,2368.659014
1400.854985,-15100.201217,-3983.696590,4071.132681
1400.855296,-15840.407159,-2451.505594,4219.173869
1400.855608,-12805.562797,1762.019645,4441.235652
1400.855919,-9918.759623,1302.362347,2590.720797
1400.856230,-6883.915261,-3064.381992,666.185348
1400.856542,-5181.441594,-6281.983084,-666.185348
1400.856853,-4367.215058,-3907.087040,-1924.535449
1400.857165,-5033.400406,459.657299,-2072.576638
1400.857476,-8142.265362,383.047749,222.061783
1400.857788,-12065.356855,-4366.744339,2368.659014
1400.858099,-13989.892304,-6971.469032,2960.823768
1400.858411,-13249.686362,-3524.039291,3034.844362
1400.858722,-11251.130318,1149.143247,2368.659014
1400.859034,-9918.759623,459.657299,962.267725
1400.859345,-7476.080014,-3064.381992,296.082377
1400.859656,-6365.771101,-4673.182538,-740.205942
1400.859968,-6217.729913,-2068.457845,-888.247130
1400.860279,-6735.874072,1225.752797,592.164754
1400.860591,-10066.800811,76.609550,1258.350101
1400.860902,-12361.439231,-2834.553343,2738.761985
1400.861214,-13175.665768,-3217.601092,2294.638420
1400.861525,-11991.336260,995.924147,1998.556043
1400.861837,-9252.574275,5362.668486,740.205942
1400.862148,-7624.121203,3524.039291,-1110.308913
1400.862460,-4885.359217,919.314598,-2368.659014
1400.862771,-4145.153275,689.485948,-3108.864956
1400.863082,-4959.379811,4136.915689,-2368.659014
1400.863394,-6069.688724,5592.497135,-148.041188
1400.863705,-10732.986159,2451.505594,888.247130
1400.864017,-14285.974681,-1072.533697,2220.617826
1400.864328,-14730.098246,-459.657299,2368.659014
1400.864640,-11621.233289,4443.353888,1776.494261
1400.864951,-8068.244768,5515.887586,-0.000000
1400.865263,-5773.606348,2451.505594,-1924.535449
1400.865574,-4145.153275,-1149.143247,-3404.947333
1400.865886,-3552.988522,536.266849,-4071.132681
1400.866197,-4145.153275,5286.058936,-1850.514855
1400.866509,-6957.935855,5056.230287,370.102971
1400.866820,-10807.006753,383.047749,2368.659014
1400.867131,-13471.748144,-3217.601092,3182.885551
1400.867443,-14730.098246,-1225.752797,3182.885551
1400.867754,-12287.418637,3600.648841,2590.720797
1400.868066,-8882.471304,3677.258390,888.247130
1400.868377,-6883.915261,-1378.971896,-1036.288319
1400.868689,-5255.462188,-4596.572988,-1850.514855
1400.869000,-4959.379811,-2068.457845,-2072.576638
1400.869312,-5773.606348,2528.115143,-666.185348
1400.869623,-7772.162391,2528.115143,814.226536
1400.869935,-11547.212695,-689.485948,2812.782580
1400.870246,-12065.356855,-3677.258390,3627.009116
1400.870557,-11251.130318,-2374.896044,3552.988522
1400.870869,-8586.388927,229.828649,3182.885551
1400.871180,-6439.791695,-842.705048,1628.453072
1400.871492,-7402.059420,-5592.497135,518.144159
1400.871803,-6883.915261,-8503.660028,370.102971
1400.872115,-6513.812290,-5439.278036,-148.041188
1400.872426,-8068.244768,-2834.553343,1258.350101
1400.872738,-10881.027347,-3907.087040,2738.761985
1400.873049,-14137.933492,-6971.469032,3182.885551
1400.873361,-14804.118840,-5056.230287,3330.926739
1400.873672,-12361.439231,-306.438199,2738.761985
1400.873984,-9400.615463,3677.258390,1776.494261
1400.874295,-7846.182985,1838.629195,-592.164754
1400.874606,-5699.585753,-1149.143247,-2220.617826
1400.874918,-4219.173869,-919.314598,-2960.823768
1400.875229,-4663.297435,1991.848295,-1628.453072
1400.875541,-6587.832884,3524.039291,370.102971
1400.875852,-10955.047942,-766.095498,2368.659014
1400.876164,-14137.933492,-4443.353888,3404.947333
1400.876475,-15248.242405,-2834.553343,3330.926739
1400.876787,-13471.748144,2604.724693,1036.288319
1400.877098,-10436.903782,5669.106685,-814.226536
1400.877410,-7920.203579,2374.896044,-2590.720797
1400.877721,-5699.585753,-1302.362347,-3404.947333
1400.878032,-4737.318029,-153.219100,-2590.720797
1400.878344,-5181.441594,3600.648841,-1702.473667
1400.878656,-6809.894666,3983.696590,1406.391290
1400.878967,-11843.295072,153.219100,2664.741391
1400.879279,-13545.768739,-2374.896044,2960.823768
1400.879590,-13101.645173,229.828649,2220.617826
1400.879902,-10510.924376,5898.935335,666.185348
1400.880213,-7920.203579,6665.030833,-1480.411884
1400.880525,-6291.750507,2681.334243,-3404.947333
1400.880837,-3404.947333,766.095498,-3849.070898
1400.881148,-3478.967927,2528.115143,-4589.276840
1400.881460,-4885.359217,5898.935335,-1924.535449
1400.881771,-7105.977043,5669.106685,814.226536
1400.882083,-12509.480420,536.266849,1702.473667
1400.882394,-12657.521608,-2221.676944,3478.967927
1400.882706,-10066.800811,153.219100,2516.700203
1400.883018,-9252.574275,1762.019645,2072.576638
1400.883329,-6291.750507,-919.314598,1184.329507
1400.883641,-6069.688724,-5669.106685,-1036.288319
1400.883952,-6291.750507,-5822.325785,-1850.514855
1400.884264,-6069.688724,-842.705048,-740.205942
1400.884575,-8290.306550,995.924147,962.267725
1400.884887,-10807.006753,-1302.362347,2886.803174
1400.885199,-12139.377449,-4903.011187,4293.194464
1400.885510,-11917.315666,-4979.620737,4589.276840
1400.885822,-10510.924376,0.000000,2960.823768
1400.886133,-7920.203579,3064.381992,1406.391290
1400.886445,-5699.585753,76.609550,296.082377
1400.886756,-4441.235652,-5439.278036,-518.144159
1400.887068,-5255.462188,-5286.058936,-814.226536
1400.887379,-6513.812290,-919.314598,-222.061783
1400.887691,-9326.594869,229.828649,592.164754
1400.888003,-13101.645173,-4060.306139,3182.885551
1400.888314,-14952.160028,-7814.174080,3404.947333
1400.888626,-14285.974681,-6281.983084,2812.782580
1400.888937,-12583.501014,-1455.581446,1258.350101
1400.889249,-9548.656652,689.485948,-148.041188
1400.889560,-8142.265362,-2298.286494,-1258.350101
1400.889872,-7550.100608,-5745.716235,-1036.288319
1400.890184,-7105.977043,-4290.134789,-888.247130
1400.890495,-8068.244768,0.000000,296.082377
1400.890807,-9770.718434,1149.143247,1776.494261
1400.891118,-12065.356855,-1455.581446,2516.700203
1400.891430,-13767.830521,-3217.601092,2294.638420
1400.891741,-13397.727550,766.095498,2072.576638
1400.892053,-10658.965565,6052.154434,814.226536
1400.892365,-8660.409521,6588.421283,-1998.556043
1400.892676,-7179.997637,3830.477490,-3182.885551
1400.892988,-4737.318029,3907.087040,-4071.132681
1400.893299,-4293.194464,5745.716235,-4737.318029
1400.893611,-4515.256246,7277.907231,-1850.514855
1400.893922,-8068.244768,4060.306139,-666.185348
1400.894234,-11843.295072,-536.266849,888.247130
1400.894546,-13323.706956,-1149.143247,2368.659014
1400.894857,-12509.480420,2451.505594,1554.432478
1400.895169,-9252.574275,4903.011187,814.226536
1400.895480,-6809.894666,2451.505594,-1184.329507
1400.895792,-4589.276840,-995.924147,-2072.576638
1400.896103,-3404.947333,-1072.533697,-2294.638420
1400.896415,-3404.947333,3064.381992,-1776.494261
1400.896726,-5329.482782,6435.202183,222.061783
1400.897038,-8882.471304,3370.820191,1628.453072
1400.897350,-11029.068536,-766.095498,2886.803174
1400.897661,-11473.192101,-612.876398,2516.700203
1400.897973,-9770.718434,3907.087040,1480.411884
1400.898284,-7476.080014,4136.915689,1406.391290
1400.898596,-6439.791695,-229.828649,592.164754
1400.898907,-6809.894666,-4136.915689,-0.000000
1400.899219,-6587.832884,-3753.867940,296.082377
1400.899531,-6957.935855,0.000000,666.185348
1400.899842,-9178.553681,1302.362347,2146.597232
1400.900154,-10955.047942,-1532.190996,3330.926739
1400.900465,-11695.253884,-5439.278036,3478.967927
1400.900777,-11325.150913,-4903.011187,3330.926739
1400.901088,-9992.780217,-919.314598,2886.803174
1400.901400,-7476.080014,-995.924147,2812.782580
1400.901712,-7031.956449,-5439.278036,888.247130
1400.902023,-7550.100608,-7814.174080,888.247130
1400.902335,-7031.956449,-4749.792088,148.041188
1400.902646,-8586.388927,-1225.752797,-0.000000
1400.902958,-11695.253884,-919.314598,1702.473667
1400.903269,-14285.974681,-4749.792088,3034.844362
1400.903581,-15840.407159,-5515.887586,2368.659014
1400.903893,-14211.954086,-2451.505594,1924.535449
1400.904204,-11399.171507,2681.334243,370.102971
1400.904516,-8808.450710,1838.629195,-1332.370696
1400.904827,-6439.791695,-1378.971896,-2516.700203
1400.905139,-5033.400406,-2911.162892,-3182.885551
1400.905450,-4737.318029,-153.219100,-2738.761985
1400.905762,-5847.626942,2298.286494,-518.144159
1400.906073,-8882.471304,-383.047749,1850.514855
1400.906385,-12731.542202,-5745.716235,3404.947333
1400.906697,-14952.160028,-5362.668486,3997.112087
1400.907008,-13249.686362,1072.533697,2368.659014
1400.907320,-10658.965565,5515.887586,-222.061783
1400.907631,-8216.285956,4060.306139,-1554.432478
1400.907943,-5921.647536,229.828649,-3256.906145
1400.908254,-4811.338623,842.705048,-4441.235652
1400.908566,-3997.112087,5439.278036,-2960.823768
1400.908878,-5551.544565,6818.249932,-296.082377
1400.909189,-9030.512492,3370.820191,1110.308913
1400.909501,-11769.274478,-383.047749,2368.659014
1400.909812,-12879.583391,689.485948,2368.659014
1400.910124,-10510.924376,6052.154434,1110.308913
1400.910435,-8364.327145,8503.660028,-1036.288319
1400.910747,-6587.832884,4826.401637,-2516.700203
1400.911059,-4737.318029,459.657299,-3108.864956
1400.911370,-4811.338623,1378.971896,-3330.926739
1400.911682,-4515.256246,5975.544884,-2220.617826
1400.911993,-6439.791695,5822.325785,-148.041188
1400.912305,-9770.718434,842.705048,1332.370696
1400.912616,-12065.356855,-2528.115143,2072.576638
1400.912928,-11251.130318,383.047749,2886.803174
1400.913240,-10288.862594,3140.991542,2368.659014
1400.913551,-7994.224174,1072.533697,2072.576638
1400.913863,-8068.244768,-4903.011187,1110.308913
1400.914174,-8734.430116,-7660.954980,370.102971
1400.914486,-7254.018232,-2911.162892,592.164754
1400.914797,-7179.997637,2068.457845,1628.453072
1400.915109,-9622.677246,0.000000,3330.926739
1400.915420,-11547.212695,-4749.792088,4737.318029
1400.915732,-12361.439231,-5286.058936,4589.276840
1400.916044,-11177.109724,-306.438199,3330.926739
1400.916355,-8216.285956,4366.744339,2368.659014
1400.916667,-7031.956449,2451.505594,-0.000000
1400.916978,-5255.462188,-3370.820191,-74.020594
1400.917290,-3108.864956,-4903.011187,-444.123565
1400.917601,-4589.276840,-3294.210641,-518.144159
1400.917913,-7476.080014,-383.047749,1258.350101
1400.918225,-11843.295072,-2374.896044,2072.576638
1400.918536,-14952.160028,-6894.859482,3330.926739
1400.918848,-15544.324782,-6741.640382,2960.823768
1400.919159,-13545.768739,-1991.848295,2146.597232
1400.919471,-10807.006753,842.705048,666.185348
1400.919782,-8142.265362,-1302.362347,-518.144159
1400.920094,-6587.832884,-4673.182538,-1850.514855
1400.920406,-5847.626942,-3753.867940,-2146.597232
1400.920717,-6291.750507,306.438199,-1184.329507
1400.921029,-7254.018232,1225.752797,962.267725
1400.921340,-10362.883188,-2145.067394,2516.700203
1400.921652,-13915.871710,-4826.401637,2886.803174
1400.921963,-13693.809927,-1072.533697,2590.720797
1400.922275,-11843.295072,4213.525239,1110.308913
1400.922587,-9030.512492,5592.497135,148.041188
1400.922898,-6735.874072,3064.381992,-1480.411884
1400.923210,-6143.709319,995.924147,-4145.153275
1400.923521,-4589.276840,4060.306139,-4515.256246
1400.923833,-4219.173869,8580.269578,-3775.050304
1400.924144,-6661.853478,7814.174080,-1998.556043
1400.924456,-11177.109724,2145.067394,-518.144159
1400.924767,-13027.624579,-766.095498,1998.556043
1400.925079,-13323.706956,1991.848295,814.226536
1400.925391,-9992.780217,6205.373534,444.123565
1400.925702,-7476.080014,5669.106685,-1184.329507
1400.926014,-6291.750507,0.000000,-2220.617826
1400.926325,-4737.318029,-2528.115143,-2738.761985
1400.926637,-4071.132681,842.705048,-2590.720797
1400.926948,-5847.626942,4903.011187,-1554.432478
1400.927260,-10066.800811,4136.915689,666.185348
1400.927572,-13249.686362,-842.705048,2220.617826
1400.927883,-14211.954086,-1838.629195,1850.514855
1400.928195,-12435.459826,1225.752797,1998.556043
1400.928506,-9104.533087,4596.572988,1702.473667
1400.928818,-7402.059420,1685.410096,370.102971
1400.929129,-6661.853478,-3524.039291,-444.123565
1400.929441,-5255.462188,-3830.477490,-592.164754
1400.929753,-5329.482782,76.609550,296.082377
1400.930064,-7105.977043,2221.676944,2812.782580
1400.930376,-9770.718434,-1149.143247,3849.070898
1400.930687,-12287.418637,-4519.963438,4293.194464
1400.930999,-11473.192101,-3370.820191,4293.194464
1400.931310,-9770.718434,-459.657299,3330.926739
1400.931622,-6809.894666,0.000000,2886.803174
1400.931934,-5255.462188,-4060.306139,888.247130
1400.932245,-5699.585753,-8503.660028,-370.102971
1400.932557,-5329.482782,-7201.297681,-148.041188
1400.932868,-6735.874072,-2298.286494,-0.000000
1400.933180,-9696.697840,-689.485948,2072.576638
1400.933491,-13693.809927,-5745.716235,3701.029710
1400.933803,-15470.304188,-7890.783629,4441.235652
1400.934114,-14582.057057,-3753.867940,4145.153275
1400.934426,-11843.295072,2298.286494,1998.556043
1400.934738,-9400.615463,3140.991542,148.041188
1400.935049,-6809.894666,229.828649,-1258.350101
1400.935361,-4959.379811,-2757.943793,-2738.761985
1400.935672,-4515.256246,-842.705048,-2886.803174
1400.935984,-5551.544565,2374.896044,-1406.391290
1400.936295,-9104.533087,1838.629195,148.041188
1400.936607,-13397.727550,-2528.115143,1554.432478
1400.936919,-14582.057057,-3677.258390,3182.885551
1400.937230,-13841.851115,-153.219100,2220.617826
1400.937542,-11325.150913,4060.306139,518.144159
1400.937853,-8216.285956,3753.867940,-888.247130
1400.938165,-6735.874072,842.705048,-3627.009116
1400.938476,-5403.503377,229.828649,-3849.070898
1400.938788,-4959.379811,4060.306139,-4737.318029
1400.939100,-6661.853478,5975.544884,-2590.720797
1400.939411,-9474.636058,3064.381992,148.041188
1400.939723,-12657.521608,-1378.971896,1924.535449
1400.940034,-14359.995275,-1838.629195,1850.514855
1400.940346,-12213.398043,3447.429741,1258.350101
1400.940657,-8438.347739,7048.078582,-0.000000
1400.940969,-5625.565159,3753.867940,-1110.308913
1400.941281,-3775.050304,76.609550,-2960.823768
1400.941592,-3627.009116,1302.362347,-3997.112087
1400.941904,-4219.173869,6358.592633,-3701.029710
1400.942215,-5773.606348,8350.440928,-1110.308913
1400.942527,-10807.006753,3447.429741,592.164754
1400.942838,-12879.583391,-1685.410096,2664.741391
1400.943150,-12805.562797,-2068.457845,2738.761985
1400.943461,-11251.130318,1149.143247,2664.741391
1400.943773,-8068.244768,1915.238745,2220.617826
1400.944085,-6809.894666,-3524.039291,-0.000000
1400.944396,-4959.379811,-7277.907231,-74.020594
1400.944708,-3849.070898,-6205.373534,-74.020594
1400.945019,-5181.441594,-766.095498,888.247130
1400.945331,-8808.450710,153.219100,3034.844362
1400.945642,-11695.253884,-3524.039291,5403.503377
1400.945954,-14434.015869,-6511.811733,4811.338623
1400.946266,-14211.954086,-2987.772442,4441.235652
1400.946577,-10140.821405,3064.381992,3330.926739
1400.946889,-7624.121203,1149.143247,1258.350101
1400.947200,-4219.173869,-3294.210641,-0.000000
1400.947512,-4441.235652,-5745.716235,-962.267725
1400.947823,-5551.544565,-3370.820191,-1480.411884
1400.948135,-6735.874072,536.266849,740.205942
1400.948447,-11547.212695,-842.705048,2220.617826
1400.948758,-14063.912898,-5515.887586,3701.029710
1400.949070,-14730.098246,-6894.859482,3404.947333
1400.949381,-13471.748144,-3447.429741,2220.617826
1400.949693,-9992.780217,919.314598,1110.308913
1400.950004,-7105.977043,-306.438199,-370.102971
1400.950316,-6735.874072,-4596.572988,-1628.453072
1400.950628,-6587.832884,-5209.449386,-1850.514855
1400.950939,-6439.791695,-536.266849,-1924.535449
1400.951251,-8216.285956,2604.724693,222.061783
1400.951562,-11177.109724,229.828649,1850.514855
1400.951874,-13767.830521,-4213.525239,3182.885551
1400.952185,-14730.098246,-2681.334243,3182.885551
1400.952497,-11547.212695,4290.134789,2664.741391
1400.952808,-8142.265362,7814.174080,296.082377
1400.953120,-6365.771101,5439.278036,-2220.617826
1400.953432,-4145.153275,1991.848295,-3775.050304
1400.953743,-3627.009116,2604.724693,-5255.462188
1400.954055,-4367.215058,6818.249932,-4145.153275
1400.954366,-7624.121203,7584.345430,-1702.473667
1400.954678,-12213.398043,2374.896044,-0.000000
1400.954989,-14656.077652,-2451.505594,1554.432478
1400.955301,-13841.851115,-459.657299,2294.638420
1400.955613,-10510.924376,3753.867940,1036.288319
1400.955924,-6661.853478,4443.353888,-74.020594
1400.956236,-5181.441594,229.828649,-1480.411884
1400.956547,-3701.029710,-1991.848295,-3478.967927
1400.956859,-2146.597232,1532.190996,-3256.906145
1400.957170,-4441.235652,5592.497135,-2294.638420
1400.957482,-8068.244768,4673.182538,666.185348
1400.957794,-13175.665768,-995.924147,2368.659014
1400.958105,-14656.077652,-3370.820191,3182.885551
1400.958417,-14211.954086,-153.219100,2738.761985
1400.958728,-11029.068536,3677.258390,1998.556043
1400.959040,-8734.430116,1991.848295,444.123565
1400.959351,-6513.812290,-3370.820191,-962.267725
1400.959663,-4071.132681,-4749.792088,-1554.432478
1400.959975,-3701.029710,-995.924147,-814.226536
1400.960286,-5773.606348,2681.334243,518.144159
1400.960598,-9696.697840,1455.581446,2960.823768
1400.960909,-13323.706956,-4060.306139,3849.070898
1400.961221,-12657.521608,-4443.353888,4589.276840
1400.961532,-11103.089130,-536.266849,3256.906145
1400.961844,-8808.450710,612.876398,1850.514855
1400.962155,-6217.729913,-3370.820191,1702.473667
1400.962467,-5477.523971,-8197.221829,-370.102971
1400.962779,-6069.688724,-7660.954980,-444.123565
1400.963090,-7624.121203,-2987.772442,-148.041188
1400.963402,-10140.821405,-612.876398,1702.473667
1400.963713,-13471.748144,-3677.258390,3997.112087
1400.964025,-14582.057057,-7048.078582,3997.112087
1400.964336,-13545.768739,-5362.668486,3478.967927
1400.964648,-11251.130318,306.438199,1702.473667
1400.964960,-8512.368333,3140.991542,592.164754
1400.965271,-5921.647536,76.609550,-1110.308913
1400.965583,-5551.544565,-2604.724693,-2442.679609
1400.965894,-5107.421000,-1378.971896,-1998.556043
1400.966206,-5625.565159,2145.067394,-592.164754
1400.966517,-8660.409521,1838.629195,1554.432478
1400.966829,-12657.521608,-1915.238745,3182.885551
1400.967141,-15470.304188,-4749.792088,3552.988522
1400.967452,-14285.974681,-842.705048,2516.700203
1400.967764,-11251.130318,5669.106685,296.082377
1400.968075,-7698.141797,7124.688131,-1332.370696
1400.968387,-4737.318029,2911.162892,-3034.844362
1400.968698,-3478.967927,-689.485948,-3701.029710
1400.969010,-3552.988522,2681.334243,-3775.050304
1400.969322,-5773.606348,6281.983084,-1776.494261
1400.969633,-8512.368333,5898.935335,888.247130
1400.969945,-13397.727550,1072.533697,2294.638420
1400.970256,-15322.262999,-1838.629195,1184.329507
1400.970568,-12657.521608,2681.334243,444.123565
1400.970879,-9696.697840,7890.783629,-1554.432478
1400.971191,-7179.997637,7201.297681,-2516.700203
1400.971502,-4959.379811,2451.505594,-3330.926739
1400.971814,-3701.029710,383.047749,-3997.112087
1400.972126,-2368.659014,3064.381992,-2664.741391
1400.972437,-3404.947333,5209.449386,-370.102971
1400.972749,-8586.388927,2374.896044,1406.391290
1400.973060,-12879.583391,-1685.410096,2516.700203
1400.973372,-13545.768739,-2298.286494,3330.926739
1400.973683,-12953.603985,0.000000,2886.803174
1400.973995,-10955.047942,1915.238745,2738.761985
1400.974307,-8438.347739,-1762.019645,1628.453072
1400.974618,-7179.997637,-7507.735880,-0.000000
1400.974930,-4885.359217,-6435.202183,-0.000000
1400.975241,-4219.173869,-612.876398,-74.020594
1400.975553,-6365.771101,1225.752797,1110.308913
1400.975864,-9548.656652,-2528.115143,2886.803174
1400.976176,-12509.480420,-5209.449386,3997.112087
1400.976488,-13027.624579,-2374.896044,3849.070898
1400.976799,-10436.903782,2757.943793,2590.720797
1400.977111,-8142.265362,2451.505594,2146.597232
1400.977422,-7105.977043,-4366.744339,1628.453072
1400.977734,-5477.523971,-8656.879127,370.102971
1400.978045,-5477.523971,-6128.763984,-444.123565
1400.978357,-7476.080014,-1685.410096,-444.123565
1400.978669,-10436.903782,-536.266849,1110.308913
1400.978980,-14359.995275,-3370.820191,1924.535449
1400.979292,-15174.221811,-5592.497135,2368.659014
1400.979603,-13101.645173,-3140.991542,2516.700203
1400.979915,-10955.047942,995.924147,1480.411884
1400.980226,-9178.553681,1455.581446,-370.102971
1400.980538,-6291.750507,-1302.362347,-1332.370696
1400.980850,-6587.832884,-3983.696590,-1702.473667
1400.981161,-6661.853478,-2068.457845,-666.185348
1400.981473,-6883.915261,1378.971896,-74.020594
1400.981784,-10288.862594,536.266849,1554.432478
1400.982096,-13175.665768,-2757.943793,3256.906145
1400.982408,-14508.036463,-3447.429741,3108.864956
1400.982719,-13101.645173,1302.362347,1480.411884
1400.983031,-9548.656652,7277.907231,1110.308913
1400.983342,-7402.059420,5822.325785,-1258.350101
1400.983654,-4885.359217,3217.601092,-3775.050304
1400.983965,-4293.194464,4290.134789,-5181.441594
1400.984277,-3701.029710,7737.564530,-5107.421000
1400.984589,-3849.070898,9039.926876,-2220.617826
1400.984900,-7846.182985,4903.011187,-444.123565
1400.985212,-12509.480420,-459.657299,1332.370696
1400.985523,-13915.871710,-919.314598,1776.494261
1400.985835,-11991.336260,3217.601092,1480.411884
1400.986147,-9326.594869,6052.154434,370.102971
1400.986458,-7698.141797,2145.067394,-222.061783
1400.986770,-5403.503377,-2145.067394,-2146.597232
1400.987081,-3108.864956,-536.266849,-3478.967927
1400.987393,-2960.823768,3907.087040,-2590.720797
1400.987704,-5255.462188,5132.839837,-444.123565
1400.988016,-9992.780217,1915.238745,740.205942
1400.988328,-13323.706956,-2528.115143,2516.700203
1400.988639,-14063.912898,-2451.505594,3182.885551
1400.988951,-12065.356855,1378.971896,3997.112087
1400.989262,-9104.533087,2528.115143,2886.803174
1400.989574,-8216.285956,-2911.162892,1406.391290
1400.989886,-6513.812290,-6358.592633,74.020594
1400.990197,-5033.400406,-3294.210641,-370.102971
1400.990509,-4737.318029,2298.286494,-0.000000
1400.990820,-7698.141797,1762.019645,592.164754
1400.991132,-11473.192101,-2911.162892,2368.659014
1400.991443,-12805.562797,-4136.915689,2886.803174
1400.991755,-11547.212695,-1378.971896,2960.823768
1400.992067,-9918.759623,-306.438199,2664.741391
1400.992378,-7846.182985,-2757.943793,2294.638420
1400.992690,-7328.038826,-7354.516781,814.226536
1400.993001,-6587.832884,-8580.269578,-1036.288319
1400.993313,-6587.832884,-5745.716235,-74.020594
1400.993625,-9252.574275,-2298.286494,962.267725
1400.993936,-12509.480420,-3217.601092,3330.926739
1400.994248,-14434.015869,-5898.935335,4145.153275
1400.994559,-14952.160028,-4749.792088,3330.926739
1400.994871,-13101.645173,306.438199,2368.659014
1400.995182,-9474.636058,4826.401637,740.205942
1400.995494,-6143.709319,2528.115143,-1406.391290
1400.995806,-5255.462188,-1225.752797,-2294.638420
1400.996117,-4737.318029,-1838.629195,-2294.638420
1400.996429,-5329.482782,1685.410096,-1628.453072
1400.996740,-7254.018232,3370.820191,592.164754
1400.997052,-10807.006753,76.609550,2368.659014
1400.997364,-13989.892304,-3983.696590,2812.782580
1400.997675,-13841.851115,-1378.971896,2072.576638
1400.997987,-12065.356855,4673.182538,1036.288319
1400.998298,-8956.491898,6588.421283,-444.123565
1400.998610,-6069.688724,3753.867940,-1850.514855
1400.998921,-4367.215058,689.485948,-3627.009116
1400.999233,-3849.070898,1762.019645,-3923.091493
1400.999545,-4367.215058,6205.373534,-2812.782580
1400.999856,-5699.585753,6511.811733,-814.226536
1401.000168,-9770.718434,1608.800546,740.205942
1401.000479,-14063.912898,-2451.505594,1628.453072
1401.000791,-14359.995275,153.219100,2146.597232
1401.001102,-11843.295072,5056.230287,1998.556043
1401.001414,-9326.594869,5362.668486,592.164754
1401.001726,-7624.121203,1532.190996,-1406.391290
1401.002037,-4885.359217,842.705048,-3404.947333
1401.002349,-3182.885551,3830.477490,-4589.276840
1401.002660,-2664.741391,7890.783629,-3701.029710
1401.002972,-5403.503377,5209.449386,-1628.453072
1401.003284,-10510.924376,-995.924147,962.267725
1401.003595,-14063.912898,-4903.011187,2516.700203
1401.003907,-15026.180623,-2451.505594,3330.926739
1401.004218,-13323.706956,1532.190996,3701.029710
1401.004530,-9918.759623,-1455.581446,3182.885551
1401.004841,-7624.121203,-7814.174080,1850.514855
1401.005153,-5477.523971,-9193.145976,592.164754
1401.005465,-3552.988522,-4213.525239,296.082377
1401.005776,-5403.503377,536.266849,666.185348
1401.006088,-9474.636058,-153.219100,2368.659014
1401.006399,-12509.480420,-2911.162892,3404.947333
1401.006711,-13175.665768,-2987.772442,3034.844362
1401.007023,-11399.171507,1072.533697,2738.761985
1401.007334,-8364.327145,2298.286494,2220.617826
1401.007646,-6735.874072,-1915.238745,962.267725
1401.007957,-6217.729913,-6665.030833,-0.000000
1401.008269,-6957.935855,-7431.126331,-666.185348
1401.008580,-7550.100608,-2834.553343,-222.061783
1401.008892,-9548.656652,76.609550,1406.391290
1401.009204,-12583.501014,-2911.162892,3552.988522
1401.009515,-13471.748144,-7354.516781,3034.844362
1401.009827,-13175.665768,-5362.668486,2294.638420
1401.010138,-11177.109724,1302.362347,1184.329507
1401.010450,-7698.141797,3447.429741,666.185348
1401.010762,-7105.977043,-229.828649,-444.123565
1401.011073,-6217.729913,-3370.820191,-1776.494261
1401.011385,-5107.421000,-1378.971896,-1554.432478
1401.011696,-5773.606348,2451.505594,-666.185348
1401.012008,-8882.471304,3370.820191,1554.432478
1401.012319,-11843.295072,0.000000,2368.659014
1401.012631,-14730.098246,-3064.381992,2294.638420
1401.012943,-13989.892304,766.095498,1998.556043
1401.013254,-10658.965565,6894.859482,518.144159
1401.013566,-7846.182985,7814.174080,-1554.432478
1401.013877,-5625.565159,3983.696590,-3256.906145
1401.014189,-3330.926739,2604.724693,-5033.400406
1401.014501,-2664.741391,4903.011187,-5625.565159
1401.014812,-3330.926739,8350.440928,-3330.926739
1401.015124,-6069.688724,5669.106685,-1036.288319
1401.015435,-10658.965565,-459.657299,1110.308913
1401.015747,-13249.686362,-2604.724693,2368.659014
1401.016058,-13471.748144,229.828649,2294.638420
1401.016370,-11843.295072,4136.915689,1480.411884
1401.016682,-9696.697840,3294.210641,370.102971
1401.016993,-7105.977043,-919.314598,-1406.391290
1401.017305,-4145.153275,-2298.286494,-3256.906145
1401.017616,-3627.009116,1991.848295,-3552.988522
1401.017928,-4515.256246,4979.620737,-1998.556043
1401.018239,-8586.388927,1838.629195,-148.041188
1401.018551,-13101.645173,-3217.601092,2590.720797
1401.018863,-15026.180623,-3753.867940,3775.050304
1401.019174,-13545.768739,0.000000,3775.050304
1401.019486,-10584.944971,1149.143247,4145.153275
1401.019797,-8216.285956,-2987.772442,3108.864956
1401.020109,-5847.626942,-6281.983084,-0.000000
1401.020421,-5255.462188,-4749.792088,-1036.288319
1401.020732,-4737.318029,612.876398,-1702.473667
1401.021044,-6883.915261,3294.210641,-222.061783
1401.021355,-11177.109724,-612.876398,2146.597232
1401.021667,-13027.624579,-4290.134789,2960.823768
1401.021978,-12509.480420,-3294.210641,3182.885551
1401.022290,-10362.883188,0.000000,2738.761985
1401.022602,-8808.450710,-306.438199,2516.700203
1401.022913,-7772.162391,-5745.716235,1258.350101
1401.023225,-7031.956449,-8810.098227,296.082377
1401.023536,-6883.915261,-6128.763984,-148.041188
1401.023848,-7994.224174,-1225.752797,148.041188
1401.024160,-11029.068536,-459.657299,3108.864956
1401.024471,-13989.892304,-5209.449386,4145.153275
1401.024783,-13323.706956,-6665.030833,3552.988522
1401.025094,-12657.521608,-2145.067394,2664.741391
1401.025406,-9770.718434,3600.648841,1258.350101
1401.025717,-7031.956449,3830.477490,-814.226536
1401.026029,-4515.256246,0.000000,-1998.556043
1401.026341,-3330.926739,-2604.724693,-2220.617826
1401.026652,-3923.091493,-689.485948,-1332.370696
1401.026964,-5477.523971,3217.601092,518.144159
1401.027275,-10140.821405,1225.752797,2072.576638
1401.027587,-13767.830521,-3524.039291,3478.967927
1401.027899,-15100.201217,-3140.991542,2812.782580
1401.028210,-13693.809927,2298.286494,1554.432478
1401.028522,-9548.656652,6818.249932,-0.000000
1401.028833,-6735.874072,5439.278036,-2812.782580
1401.029145,-4515.256246,1838.629195,-4219.173869
1401.029456,-2146.597232,2298.286494,-4885.359217
1401.029768,-2368.659014,4979.620737,-4367.215058
1401.030080,-4663.297435,6741.640382,-888.247130
1401.030391,-9474.636058,2987.772442,740.205942
1401.030703,-14137.933492,-1991.848295,2072.576638
1401.031014,-16358.551318,-1685.410096,1924.535449
1401.031326,-14285.974681,3294.210641,2072.576638
1401.031638,-11473.192101,6588.421283,444.123565
1401.031949,-8660.409521,2298.286494,-1554.432478
1401.032261,-6291.750507,-1225.752797,-2812.782580
1401.032572,-3923.091493,306.438199,-4219.173869
1401.032884,-3108.864956,5209.449386,-3404.947333
1401.033195,-6143.709319,6281.983084,-1628.453072
1401.033507,-10362.883188,1455.581446,370.102971
1401.033819,-13323.706956,-3064.381992,2220.617826
1401.034130,-13175.665768,-1608.800546,2738.761985
1401.034442,-11621.233289,766.095498,2812.782580
1401.034753,-10214.842000,-766.095498,2590.720797
1401.035065,-8364.327145,-5209.449386,1406.391290
1401.035377,-7031.956449,-7584.345430,-444.123565
1401.035688,-4885.359217,-3370.820191,-222.061783
1401.036000,-5847.626942,0.000000,-592.164754
1401.036311,-9992.780217,-1149.143247,1184.329507
1401.036623,-12805.562797,-3983.696590,3627.009116
1401.036934,-12879.583391,-4060.306139,3849.070898
1401.037246,-12065.356855,-766.095498,2886.803174
1401.037558,-9770.718434,2068.457845,3108.864956
1401.037869,-7698.141797,-536.266849,2294.638420
1401.038181,-5403.503377,-5056.230287,1110.308913
1401.038492,-3627.009116,-6128.763984,296.082377
1401.038804,-6439.791695,-2451.505594,-666.185348
1401.039115,-8142.265362,689.485948,1036.288319
1401.039427,-11029.068536,-1455.581446,2664.741391
1401.039739,-12657.521608,-5515.887586,3330.926739
1401.040050,-12805.562797,-5439.278036,2812.782580
1401.040362,-11843.295072,-383.047749,1628.453072
1401.040673,-9474.636058,3600.648841,370.102971
1401.040985,-7624.121203,536.266849,-1554.432478
1401.041297,-5403.503377,-2374.896044,-2072.576638
1401.041608,-5329.482782,-2451.505594,-2146.597232
1401.041920,-5625.565159,612.876398,-518.144159
1401.042231,-7031.956449,2451.505594,2146.597232
1401.042543,-9918.759623,-919.314598,3627.009116
1401.042854,-13323.706956,-3600.648841,3478.967927
1401.043166,-14656.077652,-766.095498,2294.638420
1401.043478,-12139.377449,4979.620737,1554.432478
1401.043789,-10436.903782,8427.050478,-814.226536
1401.044101,-8068.244768,5745.716235,-2294.638420
1401.044412,-6069.688724,3217.601092,-4885.359217
1401.044724,-4663.297435,4826.401637,-5181.441594
1401.045036,-2738.761985,7660.954980,-3849.070898
1401.045347,-5625.565159,6358.592633,-2072.576638
1401.045659,-10140.821405,612.876398,-0.000000
1401.045970,-13027.624579,-1762.019645,1184.329507
1401.046282,-14359.995275,0.000000,2368.659014
1401.046593,-11991.336260,3983.696590,2368.659014
1401.046905,-10214.842000,2987.772442,1110.308913
1401.047217,-7994.224174,-995.924147,-814.226536
1401.047528,-5551.544565,-2681.334243,-2146.597232
1401.047840,-3552.988522,1225.752797,-2368.659014
1401.048151,-3701.029710,4673.182538,-2294.638420
1401.048463,-7328.038826,1838.629195,-148.041188
1401.048775,-11695.253884,-1838.629195,2294.638420
1401.049086,-13841.851115,-1762.019645,2664.741391
1401.049398,-13989.892304,1455.581446,3108.864956
1401.049709,-11399.171507,2681.334243,3775.050304
1401.050021,-8882.471304,-919.314598,2294.638420
1401.050332,-6513.812290,-5286.058936,1332.370696
1401.050644,-4515.256246,-6128.763984,-74.020594
1401.050956,-4293.194464,-2145.067394,-0.000000
1401.051267,-5995.668130,995.924147,888.247130
1401.051579,-9918.759623,-1149.143247,1702.473667
1401.051890,-12361.439231,-5132.839837,3034.844362
1401.052202,-11621.233289,-3830.477490,2516.700203
1401.052514,-9770.718434,0.000000,2146.597232
1401.052825,-8290.306550,689.485948,1332.370696
1401.053137,-6809.894666,-3294.210641,962.267725
1401.053448,-7402.059420,-7048.078582,148.041188
1401.053760,-7476.080014,-5669.106685,-0.000000
1401.054071,-8068.244768,-1991.848295,1258.350101
1401.054383,-10584.944971,-306.438199,2368.659014
1401.054695,-12805.562797,-3600.648841,3923.091493
1401.055006,-13915.871710,-6511.811733,3256.906145
1401.055318,-13323.706956,-3370.820191,2368.659014
1401.055629,-10288.862594,3983.696590,1258.350101
1401.055941,-8808.450710,5209.449386,-740.205942
1401.056252,-7402.059420,1302.362347,-1998.556043
1401.056564,-4811.338623,-536.266849,-2368.659014
1401.056876,-3404.947333,766.095498,-2368.659014
1401.057187,-3330.926739,3370.820191,-296.082377
1401.057499,-7254.018232,2298.286494,1184.329507
1401.057810,-12953.603985,-2681.334243,2146.597232
1401.058122,-15470.304188,-3294.210641,2368.659014
1401.058434,-14730.098246,842.705048,1776.494261
1401.058745,-12361.439231,5822.325785,-0.000000
1401.059057,-10288.862594,5822.325785,-888.247130
1401.059368,-7402.059420,306.438199,-2146.597232
1401.059680,-4219.173869,-383.047749,-3330.926739
1401.059991,-3849.070898,3830.477490,-3552.988522
1401.060303,-3256.906145,7660.954980,-1702.473667
1401.060615,-6439.791695,4826.401637,-148.041188
1401.060926,-11029.068536,0.000000,518.144159
1401.061238,-13323.706956,-689.485948,1998.556043
1401.061549,-13619.789333,3064.381992,1036.288319
1401.061861,-11473.192101,7277.907231,962.267725
1401.062173,-9326.594869,4596.572988,-444.123565
1401.062484,-6957.935855,-1072.533697,-962.267725
1401.062796,-5255.462188,-2451.505594,-2590.720797
1401.063107,-4441.235652,2604.724693,-2738.761985
1401.063419,-4441.235652,5822.325785,-1110.308913
1401.063730,-7920.203579,2374.896044,-0.000000
1401.064042,-11769.274478,-1991.848295,1702.473667
1401.064354,-12731.542202,-2757.943793,2590.720797
1401.064665,-11399.171507,0.000000,3034.844362
1401.064977,-8956.491898,1378.971896,3552.988522
1401.065288,-7179.997637,-3447.429741,1924.535449
1401.065600,-7105.977043,-8503.660028,1258.350101
1401.065912,-6809.894666,-8273.831378,666.185348
1401.066223,-6069.688724,-2451.505594,1184.329507
1401.066535,-6883.915261,-306.438199,2294.638420
1401.066846,-12583.501014,-4060.306139,2516.700203
1401.067158,-13249.686362,-5592.497135,3330.926739
1401.067469,-12065.356855,-1915.238745,2146.597232
1401.067781,-11029.068536,2451.505594,2220.617826
1401.068093,-7328.038826,2681.334243,1554.432478
1401.068404,-7846.182985,-2221.676944,-666.185348
1401.068716,-6587.832884,-5056.230287,-740.205942
1401.069027,-3997.112087,-2528.115143,-1110.308913
1401.069339,-6439.791695,766.095498,-444.123565
1401.069651,-9992.780217,306.438199,1702.473667
1401.069962,-14285.974681,-5132.839837,2960.823768
1401.070274,-14285.974681,-5669.106685,2812.782580
1401.070585,-13693.809927,-1302.362347,2516.700203
1401.070897,-10658.965565,3600.648841,2294.638420
1401.071208,-8068.244768,1225.752797,370.102971
1401.071520,-6735.874072,-4060.306139,-1036.288319
1401.071832,-4219.173869,-4136.915689,-2072.576638
1401.072143,-2664.741391,536.266849,-2738.761985
1401.072455,-4811.338623,4290.134789,-888.247130
1401.072766,-9474.636058,689.485948,2294.638420
1401.073078,-12879.583391,-4366.744339,3478.967927
1401.073390,-14211.954086,-3600.648841,3627.009116
1401.073701,-15100.201217,2451.505594,2590.720797
1401.074013,-12213.398043,7201.297681,2220.617826
1401.074324,-9844.739029,5592.497135,-888.247130
1401.074636,-5995.668130,2451.505594,-3034.844362
1401.074947,-2738.761985,2681.334243,-4737.318029
1401.075259,-2368.659014,5132.839837,-5181.441594
1401.075571,-3404.947333,8656.879127,-2812.782580
1401.075882,-7698.141797,4519.963438,-1332.370696
1401.076194,-11843.295072,-1762.019645,740.205942
1401.076505,-14434.015869,-1302.362347,1554.432478
1401.076817,-13545.768739,3830.477490,1998.556043
1401.077128,-10436.903782,5132.839837,518.144159
1401.077440,-7846.182985,306.438199,-592.164754
1401.077752,-7031.956449,-3294.210641,-1628.453072
1401.078063,-5329.482782,-1915.238745,-2738.761985
1401.078375,-4367.215058,3370.820191,-2072.576638
1401.078686,-6513.812290,4136.915689,-0.000000
1401.078998,-10288.862594,-306.438199,1628.453072
1401.079310,-13323.706956,-3600.648841,2368.659014
1401.079621,-13175.665768,-919.314598,2516.700203
1401.079933,-11177.109724,3907.087040,2664.741391
1401.080244,-8882.471304,3600.648841,2368.659014
1401.080556,-7772.162391,-3217.601092,666.185348
1401.080867,-5255.462188,-5132.839837,-444.123565
1401.081179,-4145.153275,-1838.629195,-814.226536
1401.081490,-5625.565159,1685.410096,-0.000000
1401.081801,-9030.512492,689.485948,1036.288319
1401.082113,-12361.439231,-3217.601092,2294.638420
1401.082424,-12731.542202,-4826.401637,3256.906145
1401.082736,-11547.212695,-1072.533697,2368.659014
1401.083047,-8956.491898,1532.190996,2072.576638
1401.083358,-7179.997637,-1608.800546,962.267725
1401.083670,-5329.482782,-7431.126331,-0.000000
1401.083981,-5107.421000,-8810.098227,-666.185348
1401.084293,-6069.688724,-4136.915689,-370.102971
1401.084604,-9104.533087,-153.219100,888.247130
1401.084915,-13693.809927,-3447.429741,3701.029710
1401.085227,-16062.468941,-7354.516781,4441.235652
1401.085538,-15618.345376,-5286.058936,3923.091493
1401.085850,-13471.748144,612.876398,2368.659014
1401.086161,-9844.739029,4290.134789,1184.329507
1401.086472,-7254.018232,1762.019645,-814.226536
1401.086784,-3108.864956,-689.485948,-1998.556043
1401.087095,-2960.823768,-383.047749,-3330.926739
1401.087407,-3256.906145,2987.772442,-3108.864956
1401.087718,-5403.503377,4443.353888,-74.020594
1401.088029,-10436.903782,536.266849,1702.473667
1401.088341,-12731.542202,-3140.991542,3552.988522
1401.088652,-13693.809927,-2451.505594,2516.700203
1401.088963,-12657.521608,2681.334243,1702.473667
1401.089275,-9770.718434,4443.353888,888.247130
1401.089586,-7698.141797,1455.581446,-2368.659014
1401.089898,-5625.565159,-995.924147,-4071.132681
1401.090209,-3701.029710,1838.629195,-3849.070898
1401.090520,-3478.967927,5362.668486,-2812.782580
1401.090832,-7328.038826,4136.915689,-1036.288319
1401.091143,-11621.233289,-383.047749,1184.329507
1401.091455,-13915.871710,-2374.896044,2516.700203
1401.091766,-15396.283594,229.828649,2294.638420
1401.092077,-12953.603985,4443.353888,1998.556043
1401.092389,-9548.656652,4903.011187,-0.000000
1401.092700,-7254.018232,383.047749,-1184.329507
1401.093012,-5033.400406,-766.095498,-2072.576638
1401.093323,-3775.050304,2681.334243,-3552.988522
1401.093634,-4959.379811,6741.640382,-2072.576638
1401.093946,-7105.977043,5745.716235,518.144159
1401.094257,-10510.924376,0.000000,1480.411884
1401.094569,-12287.418637,-1532.190996,1850.514855
1401.094880,-10732.986159,1532.190996,2220.617826
1401.095191,-9252.574275,2681.334243,1480.411884
1401.095503,-7994.224174,-612.876398,1332.370696
1401.095814,-7105.977043,-4903.011187,-0.000000
1401.096125,-6365.771101,-6511.811733,-0.000000
1401.096437,-6513.812290,-3907.087040,740.205942
1401.096748,-7402.059420,-229.828649,2516.700203
1401.097060,-11177.109724,-2068.457845,2812.782580
1401.097371,-13545.768739,-4673.182538,4367.215058
1401.097682,-12583.501014,-3294.210641,4293.194464
1401.097994,-10436.903782,1378.971896,1998.556043
1401.098305,-7105.977043,3830.477490,1554.432478
1401.098617,-5403.503377,153.219100,-74.020594
1401.098928,-4441.235652,-4443.353888,-296.082377
1401.099239,-4071.132681,-4213.525239,-1480.411884
1401.099551,-6143.709319,-383.047749,-666.185348
1401.099862,-8956.491898,-153.219100,1406.391290
1401.100174,-14137.933492,-4136.915689,3330.926739
1401.100485,-15988.448347,-7354.516781,3997.112087
1401.100796,-14582.057057,-5132.839837,2664.741391
1401.101108,-11769.274478,-306.438199,1924.535449
1401.101419,-8216.285956,383.047749,962.267725
1401.101731,-6809.894666,-3294.210641,-1406.391290
1401.102042,-4959.379811,-4213.525239,-2812.782580
1401.102353,-4737.318029,-842.705048,-4293.194464
1401.102665,-5921.647536,4290.134789,-3034.844362
1401.102976,-8734.430116,4136.915689,-888.247130
1401.103287,-12657.521608,-1072.533697,2146.597232
1401.103599,-14063.912898,-3753.867940,2812.782580
1401.103910,-14137.933492,0.000000,3034.844362
1401.104222,-11621.233289,4979.620737,2220.617826
1401.104533,-9918.759623,5362.668486,-148.041188
1401.104844,-7105.977043,1762.019645,-1850.514855
1401.105156,-3330.926739,842.705048,-4663.297435
1401.105467,-2960.823768,3600.648841,-4959.379811
1401.105779,-4589.276840,6741.640382,-3552.988522
1401.106090,-8364.327145,4903.011187,-1036.288319
1401.106401,-12435.459826,-766.095498,1184.329507
1401.106713,-13915.871710,-2451.505594,2886.803174
1401.107024,-13545.768739,383.047749,2590.720797
1401.107336,-10732.986159,3677.258390,1776.494261
1401.107647,-8956.491898,1455.581446,518.144159
1401.107958,-7105.977043,-2528.115143,-1702.473667
1401.108270,-4737.318029,-842.705048,-2368.659014
1401.108581,-3849.070898,3524.039291,-1924.535449
1401.108893,-5403.503377,4903.011187,-74.020594
1401.109204,-8882.471304,919.314598,2516.700203
1401.109515,-11251.130318,-2604.724693,2812.782580
1401.109827,-13545.768739,-1455.581446,2590.720797
1401.110138,-11029.068536,3677.258390,2368.659014
1401.110449,-7846.182985,4979.620737,1702.473667
1401.110761,-7772.162391,-1072.533697,1036.288319
1401.111072,-5181.441594,-5822.325785,-0.000000
1401.111384,-5477.523971,-3524.039291,-666.185348
1401.111695,-5847.626942,1762.019645,666.185348
1401.112006,-8068.244768,3447.429741,2368.659014
1401.112318,-12361.439231,-1685.410096,3478.967927
1401.112629,-13767.830521,-4366.744339,4441.235652
1401.112941,-12139.377449,-1685.410096,3923.091493
1401.113252,-9252.574275,3217.601092,2072.576638
1401.113563,-6957.935855,3447.429741,814.226536
1401.113875,-5477.523971,-1302.362347,-74.020594
1401.114186,-4219.173869,-6281.983084,-814.226536
1401.114498,-4293.194464,-4826.401637,-962.267725
1401.114809,-6143.709319,0.000000,592.164754
1401.115120,-10955.047942,-1302.362347,2442.679609
1401.115432,-14878.139434,-6435.202183,4145.153275
1401.115743,-15322.262999,-7507.735880,4145.153275
1401.116055,-14211.954086,-1838.629195,2368.659014
1401.116366,-10436.903782,2528.115143,1332.370696
1401.116677,-7920.203579,1149.143247,-296.082377
1401.116989,-5847.626942,-2298.286494,-2442.679609
1401.117300,-3923.091493,-2145.067394,-3478.967927
1401.117611,-3034.844362,1225.752797,-3552.988522
1401.117923,-5403.503377,2757.943793,-1036.288319
1401.118234,-10140.821405,76.609550,1702.473667
1401.118546,-14434.015869,-4673.182538,2664.741391
1401.118857,-15248.242405,-3524.039291,3478.967927
1401.119168,-13471.748144,1149.143247,2664.741391
1401.119480,-11473.192101,4366.744339,1258.350101
1401.119791,-9474.636058,995.924147,-518.144159
1401.120103,-6809.894666,-1915.238745,-3404.947333
1401.120414,-4811.338623,536.266849,-4663.297435
1401.120725,-3701.029710,5286.058936,-4589.276840
1401.121037,-4737.318029,7431.126331,-2590.720797
1401.121348,-8956.491898,1838.629195,-1036.288319
1401.121660,-11695.253884,-3294.210641,1258.350101
1401.121971,-12435.459826,-995.924147,2072.576638
1401.122282,-11991.336260,4213.525239,1554.432478
1401.122594,-10955.047942,5362.668486,1036.288319
1401.122905,-9178.553681,1225.752797,-518.144159
1401.123217,-7994.224174,-1072.533697,-2294.638420
1401.123528,-5699.585753,842.705048,-2960.823768
1401.123839,-4663.297435,6052.154434,-2368.659014
1401.124151,-7179.997637,5439.278036,-666.185348
1401.124462,-11251.130318,229.828649,666.185348
1401.124774,-12657.521608,-2374.896044,1702.473667
1401.125085,-11843.295072,842.705048,1776.494261
1401.125396,-9622.677246,4290.134789,2664.741391
1401.125708,-7254.018232,919.314598,2220.617826
1401.126019,-7994.224174,-4749.792088,-0.000000
1401.126330,-5625.565159,-5362.668486,-148.041188
1401.126642,-4737.318029,-1302.362347,296.082377
1401.126953,-6291.750507,1455.581446,1702.473667
1401.127265,-8882.471304,-229.828649,3552.988522
1401.127576,-12287.418637,-4979.620737,4219.173869
1401.127887,-12065.356855,-5132.839837,4219.173869
1401.128199,-10288.862594,1302.362347,2738.761985
1401.128510,-8882.471304,5515.887586,1184.329507
1401.128822,-6661.853478,2451.505594,888.247130
1401.129133,-5625.565159,-3524.039291,-518.144159
1401.129444,-4737.318029,-3677.258390,-1332.370696
1401.129756,-5329.482782,383.047749,-888.247130
1401.130067,-7105.977043,2681.334243,1258.350101
1401.130379,-11177.109724,-2298.286494,3182.885551
1401.130690,-14137.933492,-7277.907231,4219.173869
1401.131001,-13027.624579,-5056.230287,3775.050304
1401.131313,-12287.418637,229.828649,2516.700203
1401.131624,-10436.903782,2374.896044,1628.453072
1401.131936,-7994.224174,-1532.190996,-370.102971
1401.132247,-6291.750507,-4979.620737,-1924.535449
1401.132558,-4663.297435,-3140.991542,-2590.720797
1401.132870,-4589.276840,1302.362347,-2220.617826
1401.133181,-7624.121203,2068.457845,-592.164754
1401.133492,-11103.089130,-2374.896044,1110.308913
1401.133804,-13545.768739,-4673.182538,2516.700203
1401.134115,-13545.768739,-1991.848295,1924.535449
1401.134427,-12509.480420,3983.696590,1850.514855
1401.134738,-10807.006753,4903.011187,1184.329507
1401.135049,-9104.533087,229.828649,-592.164754
1401.135361,-6735.874072,-995.924147,-1776.494261
1401.135672,-5551.544565,2757.943793,-3997.112087
1401.135984,-4737.318029,6741.640382,-3775.050304
1401.136295,-6957.935855,5286.058936,-1998.556043
1401.136606,-10807.006753,229.828649,-370.102971
1401.136918,-12583.501014,-1608.800546,740.205942
1401.137229,-12805.562797,1838.629195,1184.329507
1401.137541,-11251.130318,4903.011187,814.226536
1401.137852,-9474.636058,3370.820191,444.123565
1401.138163,-8142.265362,-1838.629195,-1480.411884
1401.138475,-6809.894666,-3370.820191,-2368.659014
1401.138786,-5107.421000,919.314598,-1776.494261
1401.139098,-5699.585753,3983.696590,-666.185348
1401.139409,-8956.491898,1455.581446,1184.329507
1401.139720,-11843.295072,-2528.115143,2146.597232
1401.140032,-12213.398043,-1072.533697,1110.308913
1401.140343,-10584.944971,4060.306139,888.247130
1401.140654,-8364.327145,6511.811733,370.102971
1401.140966,-7550.100608,2451.505594,-666.185348
1401.141277,-6513.812290,-2451.505594,-888.247130
1401.141589,-5033.400406,-3447.429741,-222.061783
1401.141900,-5033.400406,-689.485948,296.082377
1401.142211,-6365.771101,1072.533697,1850.514855
1401.142523,-10584.944971,-1762.019645,3182.885551
1401.142834,-12435.459826,-5745.716235,4071.132681
1401.143146,-12509.480420,-4136.915689,3108.864956
1401.143457,-10732.986159,919.314598,3627.009116
1401.143768,-7772.162391,689.485948,2590.720797
1401.144080,-7624.121203,-4596.572988,1258.350101
1401.144391,-6291.750507,-6128.763984,-148.041188
1401.144703,-4589.276840,-2451.505594,-1998.556043
1401.145014,-4959.379811,1532.190996,-1110.308913
1401.145325,-7031.956449,76.609550,1480.411884
1401.145637,-11547.212695,-4749.792088,2590.720797
1401.145948,-13397.727550,-5745.716235,3997.112087
1401.146260,-13619.789333,-2528.115143,3701.029710
1401.146571,-12805.562797,2681.334243,3182.885551
1401.146882,-11177.109724,3140.991542,1702.473667
1401.147194,-8808.450710,-1225.752797,-666.185348
1401.147505,-5255.462188,-2757.943793,-2590.720797
1401.147816,-4367.215058,-689.485948,-2664.741391
1401.148128,-4885.359217,2451.505594,-1332.370696
1401.148439,-8364.327145,689.485948,-0.000000
1401.148751,-11917.315666,-3830.477490,1702.473667
1401.149062,-13323.706956,-4596.572988,2960.823768
1401.149373,-13619.789333,-1149.143247,3627.009116
1401.149685,-12139.377449,2221.676944,2442.679609
1401.149996,-9844.739029,1225.752797,1554.432478
1401.150308,-7994.224174,-1072.533697,-1480.411884
1401.150619,-5847.626942,306.438199,-2516.700203
1401.150930,-4737.318029,4673.182538,-3034.844362
1401.151242,-5107.421000,5745.716235,-1258.350101
1401.151553,-8142.265362,2451.505594,-444.123565
1401.151865,-11621.233289,-919.314598,370.102971
1401.152176,-11547.212695,536.266849,296.082377
1401.152487,-10732.986159,5745.716235,222.061783
1401.152799,-9474.636058,6128.763984,740.205942
1401.153110,-7994.224174,1608.800546,-888.247130
1401.153422,-6661.853478,-1225.752797,-2220.617826
1401.153733,-5329.482782,919.314598,-3034.844362
1401.154044,-4737.318029,5209.449386,-2590.720797
1401.154356,-6587.832884,4826.401637,-1554.432478
1401.154667,-9400.615463,536.266849,1406.391290
1401.154978,-12287.418637,-3294.210641,2368.659014
1401.155290,-12657.521608,-1608.800546,2664.741391
1401.155601,-11473.192101,2528.115143,2368.659014
1401.155913,-9622.677246,3064.381992,1554.432478
1401.156224,-8734.430116,-1225.752797,-0.000000
1401.156535,-6735.874072,-3830.477490,-1110.308913
1401.156847,-4737.318029,-1685.410096,-1332.370696
1401.157158,-5181.441594,1378.971896,-0.000000
1401.157470,-7105.977043,-459.657299,1554.432478
1401.157781,-12731.542202,-4366.744339,2220.617826
1401.158092,-14730.098246,-4749.792088,3330.926739
1401.158404,-12953.603985,0.000000,3330.926739
1401.158715,-10807.006753,2451.505594,3034.844362
1401.159027,-8364.327145,536.266849,2072.576638
1401.159338,-5625.565159,-4596.572988,740.205942
1401.159649,-4589.276840,-5898.935335,-1258.350101
1401.159961,-3404.947333,-1685.410096,-1110.308913
1401.160272,-5033.400406,1225.752797,-370.102971
1401.160584,-9178.553681,-1149.143247,814.226536
1401.160895,-13175.665768,-5132.839837,2812.782580
1401.161206,-14656.077652,-5745.716235,2812.782580
1401.161518,-14211.954086,-919.314598,2368.659014
1401.161829,-11917.315666,1762.019645,2220.617826
1401.162141,-9326.594869,-536.266849,1184.329507
1401.162452,-7624.121203,-4749.792088,-0.000000
1401.162763,-5699.585753,-3830.477490,-1036.288319
1401.163075,-4737.318029,153.219100,-814.226536
1401.163386,-6217.729913,1991.848295,-0.000000
1401.163697,-9918.759623,-383.047749,1628.453072
1401.164009,-11843.295072,-2834.553343,1924.535449
1401.164320,-11103.089130,-1608.800546,1554.432478
1401.164632,-11547.212695,2068.457845,1258.350101
1401.164943,-9770.718434,4673.182538,1258.350101
1401.165254,-8364.327145,2221.676944,-1258.350101
1401.165566,-6883.915261,-153.219100,-2146.597232
1401.165877,-4811.338623,1685.410096,-2368.659014
1401.166189,-5107.421000,4826.401637,-1998.556043
1401.166500,-7031.956449,5132.839837,222.061783
1401.166811,-10362.883188,76.609550,1036.288319
1401.167123,-13027.624579,-1608.800546,1628.453072
1401.167434,-12583.501014,1608.800546,1406.391290
1401.167746,-10140.821405,5132.839837,296.082377
1401.168057,-8068.244768,3524.039291,-74.020594
1401.168368,-7105.977043,-1608.800546,-1628.453072
1401.168680,-5255.462188,-2528.115143,-1480.411884
1401.168991,-4589.276840,995.924147,-2886.803174
1401.169303,-5995.668130,4903.011187,-962.267725
1401.169614,-8586.388927,3677.258390,666.185348
1401.169925,-11177.109724,-459.657299,1924.535449
1401.170237,-11991.336260,-1762.019645,2664.741391
1401.170548,-12879.583391,1149.143247,2072.576638
1401.170859,-11103.089130,4749.792088,1480.411884
1401.171171,-8586.388927,3217.601092,-0.000000
1401.171482,-6883.915261,-2451.505594,-148.041188
1401.171794,-5403.503377,-4213.525239,-1184.329507
1401.172105,-4737.318029,-919.314598,-962.267725
1401.172416,-6217.729913,1608.800546,296.082377
1401.172728,-8586.388927,-459.657299,2146.597232
1401.173039,-11991.336260,-3907.087040,2738.761985
1401.173351,-12805.562797,-3600.648841,2886.803174
1401.173662,-12583.501014,-919.314598,2590.720797
1401.173973,-10214.842000,0.000000,2664.741391
1401.174285,-7476.080014,-2451.505594,1480.411884
1401.174596,-7105.977043,-5209.449386,-148.041188
1401.174908,-5699.585753,-5515.887586,-1036.288319
1401.175219,-5551.544565,-1838.629195,-814.226536
1401.175530,-7254.018232,-383.047749,518.144159
1401.175842,-10066.800811,-3524.039291,2294.638420
1401.176153,-12953.603985,-7048.078582,3182.885551
1401.176465,-12731.542202,-4979.620737,3478.967927
1401.176776,-11621.233289,306.438199,2664.741391
1401.177087,-9918.759623,2221.676944,1776.494261
1401.177399,-9252.574275,-459.657299,-0.000000
1401.177710,-7772.162391,-1685.410096,-1554.432478
1401.178021,-5921.647536,842.705048,-2664.741391
1401.178333,-5921.647536,4903.011187,-1924.535449
1401.178644,-7698.141797,4443.353888,-296.082377
1401.178956,-10881.027347,0.000000,1776.494261
1401.179267,-13693.809927,-3217.601092,2294.638420
1401.179578,-11991.336260,-612.876398,3404.947333
1401.179890,-10510.924376,4290.134789,1924.535449
1401.180201,-7920.203579,4290.134789,296.082377
1401.180513,-6217.729913,-306.438199,-1924.535449
1401.180824,-6217.729913,-2298.286494,-2738.761985
1401.181135,-6217.729913,2068.457845,-4145.153275
1401.181447,-6883.915261,6435.202183,-2294.638420
1401.181758,-9844.739029,3983.696590,592.164754
1401.182069,-13101.645173,-1302.362347,1998.556043
1401.182381,-13545.768739,-2451.505594,2442.679609
1401.182692,-11177.109724,2911.162892,2516.700203
1401.183003,-8068.244768,7048.078582,740.205942
1401.183315,-6513.812290,5515.887586,-888.247130
1401.183626,-3849.070898,1762.019645,-2886.803174
1401.183937,-3330.926739,-612.876398,-4293.194464
1401.184249,-3997.112087,2987.772442,-3849.070898
1401.184560,-5699.585753,5209.449386,-1480.411884
1401.184871,-10510.924376,2145.067394,888.247130
1401.185183,-14359.995275,-4136.915689,3108.864956
1401.185494,-14952.160028,-5592.497135,3849.070898
1401.185806,-13175.665768,-1532.190996,3849.070898
1401.186117,-9400.615463,1685.410096,2368.659014
1401.186428,-6587.832884,-1915.238745,370.102971
1401.186740,-4219.173869,-6128.763984,-592.164754
1401.187051,-2590.720797,-4749.792088,-1036.288319
1401.187362,-3478.967927,-766.095498,-592.164754
1401.187674,-6069.688724,612.876398,1850.514855
1401.187985,-10584.944971,-2451.505594,3256.906145
1401.188296,-13619.789333,-5515.887586,4145.153275
1401.188608,-13545.768739,-3294.210641,3034.844362
1401.188919,-12361.439231,1072.533697,2812.782580
1401.189230,-10288.862594,1149.143247,1554.432478
1401.189542,-8512.368333,-3217.601092,-0.000000
1401.189853,-7402.059420,-5286.058936,-1998.556043
1401.190164,-6809.894666,-2987.772442,-1702.473667
1401.190476,-7550.100608,229.828649,-740.205942
1401.190787,-8216.285956,-153.219100,1850.514855
1401.191098,-10807.006753,-4213.525239,3108.864956
1401.191410,-12139.377449,-7354.516781,3404.947333
1401.191721,-9918.759623,-5515.887586,2812.782580
1401.192032,-9474.636058,-1378.971896,1110.308913
1401.192344,-8068.244768,-1072.533697,740.205942
1401.192655,-6291.750507,-5822.325785,-814.226536
1401.192967,-6809.894666,-8580.269578,-1554.432478
1401.193278,-7402.059420,-6741.640382,-1036.288319
1401.193589,-8734.430116,-3064.381992,-0.000000
1401.193901,-12435.459826,-2145.067394,2072.576638
1401.194212,-13693.809927,-3830.477490,2516.700203
1401.194523,-14063.912898,-4903.011187,2442.679609
1401.194835,-12287.418637,-1149.143247,1628.453072
1401.195146,-8586.388927,3907.087040,518.144159
1401.195457,-5329.482782,4903.011187,-1702.473667
1401.195769,-2516.700203,3217.601092,-2664.741391
1401.196080,-1850.514855,689.485948,-3034.844362
1401.196391,-2368.659014,919.314598,-2516.700203
1401.196703,-5477.523971,1608.800546,-1258.350101
1401.197014,-9770.718434,766.095498,-222.061783
1401.197325,-12213.398043,-306.438199,-0.000000
1401.197637,-13323.706956,-1455.581446,592.164754
1401.197948,-13841.851115,-2221.676944,666.185348
1401.198259,-11843.295072,-689.485948,-0.000000
1401.198571,-9178.553681,536.266849,-370.102971
1401.198882,-7105.977043,-766.095498,-592.164754
1401.199194,-4737.318029,-1915.238745,-74.020594
1401.199505,-3552.988522,-3370.820191,296.082377
1401.199816,-3552.988522,-5286.058936,-0.000000
1401.200128,-6069.688724,-5132.839837,370.102971
1401.200439,-8734.430116,-4060.306139,666.185348
1401.200750,-11695.253884,-2221.676944,592.164754
1401.201062,-13101.645173,-2911.162892,2220.617826
1401.201373,-13619.789333,-4979.620737,2664.741391
1401.201684,-13101.645173,-5975.544884,3256.906145
1401.201996,-11473.192101,-4519.963438,2886.803174
1401.202307,-9622.677246,-2298.286494,1554.432478
1401.202618,-7031.956449,-842.705048,296.082377
1401.202930,-3478.967927,-995.924147,-148.041188
1401.203241,-1702.473667,-3370.820191,-1554.432478
1401.203552,-1776.494261,-4979.620737,-1776.494261
1401.203864,-4219.173869,-4903.011187,-1184.329507
1401.204175,-7920.203579,-4060.306139,296.082377
1401.204486,-12361.439231,-3907.087040,1036.288319
1401.204798,-15766.386565,-4443.353888,2442.679609
1401.205109,-17468.860231,-5132.839837,3997.112087
1401.205421,-16876.695478,-5362.668486,4737.318029
1401.205732,-14804.118840,-4979.620737,3923.091493
1401.206043,-11399.171507,-3753.867940,1480.411884
1401.206355,-5847.626942,-2604.724693,296.082377
1401.206666,-2812.782580,-3370.820191,-444.123565
1401.206977,-1110.308913,-5209.449386,-1258.350101
1401.207289,-888.247130,-5745.716235,-1184.329507
1401.207600,-2590.720797,-6128.763984,-1480.411884
1401.207911,-6291.750507,-5132.839837,-74.020594
1401.208223,-11991.336260,-5745.716235,-0.000000
1401.208534,-15248.242405,-5898.935335,2738.761985
1401.208845,-17468.860231,-6818.249932,3775.050304
1401.209157,-17764.942608,-6205.373534,4219.173869
1401.209468,-16284.530724,-2834.553343,3552.988522
1401.209779,-12805.562797,-306.438199,1406.391290
1401.210091,-7698.141797,-306.438199,-370.102971
1401.210402,-2072.576638,-1302.362347,-1850.514855
1401.210713,1628.453072,-1225.752797,-2442.679609
1401.211025,1480.411884,-536.266849,-3701.029710
1401.211336,-222.061783,-612.876398,-2886.803174
1401.211648,-3256.906145,-842.705048,-2072.576638
1401.211959,-8882.471304,-1608.800546,-962.267725
1401.212270,-14063.912898,-1838.629195,740.205942
1401.212582,-17024.736666,-1762.019645,1332.370696
1401.212893,-16802.674883,-1455.581446,1998.556043
1401.213204,-14730.098246,-1991.848295,2220.617826
1401.213516,-11621.233289,-1685.410096,592.164754
1401.213827,-8142.265362,-2451.505594,-148.041188
1401.214138,-5847.626942,-2298.286494,-370.102971
1401.214450,-3330.926739,-1838.629195,-666.185348
1401.214761,-3330.926739,-689.485948,-1554.432478
1401.215072,-4885.359217,76.609550,-1702.473667
1401.215384,-6365.771101,-2298.286494,-1480.411884
1401.215695,-7772.162391,-2604.724693,-888.247130
1401.216006,-9844.739029,-3140.991542,370.102971
1401.216318,-11325.150913,-4136.915689,1924.535449
1401.216629,-14434.015869,-5669.106685,2516.700203
1401.216940,-14582.057057,-4826.401637,3478.967927
1401.217252,-12953.603985,-3294.210641,2738.761985
1401.217563,-10140.821405,-2374.896044,2072.576638
1401.217875,-7994.224174,-3064.381992,962.267725
1401.218186,-5995.668130,-1991.848295,296.082377
1401.218497,-4293.194464,-1915.238745,-888.247130
1401.218809,-4367.215058,-1838.629195,-1406.391290
1401.219120,-4811.338623,-2374.896044,-1110.308913
1401.219431,-6217.729913,-3294.210641,-814.226536
1401.219743,-8068.244768,-4519.963438,296.082377
1401.220054,-9992.780217,-6511.811733,2072.576638
1401.220365,-11843.295072,-7431.126331,3627.009116
1401.220677,-14063.912898,-7967.393179,3997.112087
1401.220988,-14137.933492,-7431.126331,4293.194464
1401.221299,-13841.851115,-6281.983084,2886.803174
1401.221611,-12213.398043,-3600.648841,1702.473667
1401.221922,-9104.533087,-1149.143247,-148.041188
1401.222233,-6217.729913,1378.971896,-1554.432478
1401.222545,-4071.132681,1991.848295,-1554.432478
1401.222856,-3701.029710,689.485948,-1554.432478
1401.223167,-3775.050304,0.000000,-1332.370696
1401.223479,-5181.441594,-1149.143247,444.123565
1401.223790,-7476.080014,-3064.381992,1258.350101
1401.224101,-9770.718434,-4596.572988,1406.391290
1401.224413,-11695.253884,-5209.449386,1850.514855
1401.224724,-13027.624579,-6128.763984,1628.453072
1401.225036,-12805.562797,-6435.202183,1776.494261
1401.225347,-11991.336260,-5745.716235,1480.411884
1401.225658,-10066.800811,-5286.058936,666.185348
1401.225970,-7698.141797,-4366.744339,444.123565
1401.226281,-5847.626942,-3524.039291,-518.144159
1401.226592,-4737.318029,-1762.019645,-666.185348
1401.226904,-4737.318029,-842.705048,-740.205942
1401.227215,-4959.379811,-1685.410096,296.082377
1401.227526,-5847.626942,-1378.971896,888.247130
1401.227838,-7550.100608,-2068.457845,2220.617826
1401.228149,-10436.903782,-2757.943793,1702.473667
1401.228460,-12213.398043,-2987.772442,1258.350101
1401.228772,-12287.418637,-2221.676944,-0.000000
1401.229083,-11917.315666,-1225.752797,-962.267725
1401.229394,-9474.636058,-919.314598,-1628.453072
1401.229706,-8068.244768,-1302.362347,-2220.617826
1401.230017,-8438.347739,-2451.505594,-2072.576638
1401.230328,-6217.729913,-1072.533697,-370.102971
1401.230640,-6365.771101,-2374.896044,-814.226536
1401.230951,-7179.997637,-3600.648841,1776.494261
1401.231263,-10881.027347,-5822.325785,1924.535449
1401.231574,-12139.377449,-5439.278036,2886.803174
1401.231885,-12139.377449,-3370.820191,2368.659014
1401.232197,-11621.233289,-2757.943793,2368.659014
1401.232508,-11399.171507,-4136.915689,1406.391290
1401.232819,-10955.047942,-4213.525239,666.185348
1401.233131,-9844.739029,-3064.381992,740.205942
1401.233442,-8660.409521,-1455.581446,888.247130
1401.233753,-10066.800811,0.000000,1036.288319
1401.234065,-10288.862594,612.876398,888.247130
1401.234376,-8882.471304,-76.609550,2146.597232
1401.234687,-7476.080014,-1838.629195,2220.617826
1401.234999,-5699.585753,-1455.581446,3404.947333
1401.235310,-7698.141797,-1838.629195,2368.659014
1401.235621,-7476.080014,-4443.353888,4219.173869
1401.235933,-9474.636058,-5362.668486,4071.132681
1401.236244,-9178.553681,-3140.991542,4885.359217
1401.236555,-10288.862594,-459.657299,4811.338623
1401.236867,-11769.274478,-1608.800546,4663.297435
1401.237178,-8956.491898,-1149.143247,4515.256246
1401.237490,-6809.894666,1532.190996,2368.659014
1401.237801,-5995.668130,3140.991542,2442.679609
1401.238112,-5255.462188,2604.724693,2368.659014
1401.238424,-6587.832884,-383.047749,2516.700203
1401.238735,-6587.832884,-306.438199,4737.318029
1401.239046,-6957.935855,-383.047749,5107.421000
1401.239358,-10584.944971,-1225.752797,5107.421000
1401.239669,-11251.130318,-689.485948,7328.038826
1401.239980,-10658.965565,-1225.752797,5847.626942
1401.240292,-8290.306550,-919.314598,6143.709319
1401.240603,-8216.285956,-383.047749,4441.235652
1401.240914,-8216.285956,689.485948,4367.215058
1401.241226,-5773.606348,1608.800546,3701.029710
1401.241537,-5033.400406,1608.800546,3034.844362
1401.241848,-5847.626942,2068.457845,3627.009116
1401.242160,-8660.409521,2451.505594,3923.091493
1401.242471,-9474.636058,842.705048,4811.338623
1401.242782,-9400.615463,229.828649,5773.606348
1401.243094,-8438.347739,-766.095498,6069.688724
1401.243405,-8586.388927,-1378.971896,5403.503377
1401.243717,-9030.512492,-2451.505594,5551.544565
1401.244028,-8660.409521,-2068.457845,4737.318029
1401.244339,-7994.224174,306.438199,4959.379811
1401.244651,-8660.409521,1532.190996,3478.967927
1401.244962,-9918.759623,1149.143247,3256.906145
1401.245273,-10362.883188,1455.581446,2738.761985
1401.245585,-8808.450710,2451.505594,3256.906145
1401.245896,-8438.347739,1762.019645,3108.864956
1401.246207,-7698.141797,-383.047749,3775.050304
1401.246519,-8364.327145,-1915.238745,3182.885551
1401.246830,-7328.038826,-2451.505594,3478.967927
1401.247141,-6143.709319,-2374.896044,3627.009116
1401.247453,-6883.915261,-2451.505594,3478.967927
1401.247764,-8808.450710,-1838.629195,3182.885551
1401.248075,-10510.924376,-1302.362347,2590.720797
1401.248387,-10658.965565,-536.266849,2368.659014
1401.248698,-10881.027347,919.314598,2072.576638
1401.249009,-10584.944971,2374.896044,1702.473667
1401.249321,-10658.965565,2451.505594,370.102971
1401.249632,-9696.697840,1532.190996,148.041188
1401.249944,-8660.409521,1608.800546,888.247130
1401.250255,-8956.491898,1072.533697,2220.617826
1401.250566,-10066.800811,-459.657299,3627.009116
1401.250878,-10140.821405,-1838.629195,4441.235652
1401.251189,-10214.842000,-2834.553343,4441.235652
1401.251500,-8808.450710,-1608.800546,4071.132681
1401.251812,-7994.224174,-1378.971896,2960.823768
1401.252123,-6883.915261,-536.266849,888.247130
1401.252434,-5773.606348,612.876398,-148.041188
1401.252746,-6587.832884,919.314598,-1036.288319
1401.253057,-8290.306550,1302.362347,-0.000000
1401.253368,-11103.089130,1915.238745,1184.329507
1401.253680,-13471.748144,1608.800546,2368.659014
1401.253991,-13693.809927,612.876398,4959.379811
1401.254302,-12879.583391,-766.095498,5551.544565
1401.254614,-11251.130318,-1608.800546,5625.565159
1401.254925,-8142.265362,-1608.800546,4663.297435
1401.255236,-4441.235652,-1532.190996,2516.700203
1401.255548,-2146.597232,-1225.752797,1480.411884
1401.255859,-3108.864956,-459.657299,370.102971
1401.256170,-6365.771101,689.485948,1554.432478
1401.256482,-10584.944971,1455.581446,3627.009116
1401.256793,-13915.871710,2451.505594,5699.585753
1401.257105,-15100.201217,1532.190996,7105.977043
1401.257416,-13397.727550,383.047749,7254.018232
1401.257727,-9696.697840,-459.657299,6291.750507
1401.258039,-5625.565159,-689.485948,4737.318029
1401.258350,-2812.782580,-689.485948,2886.803174
1401.258661,-2294.638420,-306.438199,1258.350101
1401.258973,-3404.947333,153.219100,1628.453072
1401.259284,-6661.853478,153.219100,2738.761985
1401.259595,-10955.047942,612.876398,4219.173869
1401.259907,-13693.809927,459.657299,5255.462188
1401.260218,-14137.933492,766.095498,6365.771101
1401.260529,-11547.212695,0.000000,5403.503377
1401.260841,-9030.512492,-1225.752797,4071.132681
1401.261152,-6143.709319,-766.095498,3478.967927
1401.261463,-5181.441594,-842.705048,2960.823768
1401.261775,-6883.915261,0.000000,4515.256246
1401.262086,-9400.615463,459.657299,5847.626942
1401.262397,-11843.295072,766.095498,7105.977043
1401.262709,-12361.439231,689.485948,7994.224174
1401.263020,-11029.068536,1225.752797,6883.915261
1401.263332,-8142.265362,2221.676944,4071.132681
1401.263643,-5255.462188,3140.991542,2368.659014
1401.263954,-4441.235652,3064.381992,-296.082377
1401.264266,-4441.235652,2757.943793,-518.144159
1401.264577,-5921.647536,1378.971896,148.041188
1401.264888,-8734.430116,229.828649,1850.514855
1401.265200,-11029.068536,-383.047749,4293.194464
1401.265511,-13841.851115,-2604.724693,6661.853478
1401.265822,-15100.201217,-3830.477490,8290.306550
1401.266134,-15174.221811,-3600.648841,9622.677246
1401.266445,-13397.727550,-2834.553343,8438.347739
1401.266756,-8956.491898,-229.828649,6587.832884
1401.267068,-5255.462188,76.609550,3627.009116
1401.267379,-2072.576638,1532.190996,518.144159
1401.267690,148.041188,2987.772442,-1406.391290
1401.268002,-1258.350101,3447.429741,-1554.432478
1401.268313,-4441.235652,3064.381992,592.164754
1401.268624,-9030.512492,1455.581446,1998.556043
1401.268936,-13101.645173,-153.219100,4515.256246
1401.269247,-15396.283594,-1149.143247,6439.791695
1401.269559,-16358.551318,-1072.533697,7105.977043
1401.269870,-14063.912898,-689.485948,6513.812290
1401.270181,-10732.986159,0.000000,5551.544565
1401.270493,-7402.059420,-383.047749,4959.379811
1401.270804,-5847.626942,0.000000,3775.050304
1401.271115,-3256.906145,306.438199,3701.029710
1401.271427,-2146.597232,919.314598,2886.803174
1401.271738,-2738.761985,459.657299,1332.370696
1401.272049,-3997.112087,229.828649,-0.000000
1401.272361,-5329.482782,-689.485948,-666.185348
1401.272672,-7624.121203,-1225.752797,-444.123565
1401.272983,-11769.274478,-1149.143247,1258.350101
1401.273295,-16728.654289,-383.047749,4367.215058
1401.273606,-19985.560434,-842.705048,7402.059420
1401.273917,-20355.663405,-229.828649,8808.450710
1401.274229,-16950.716072,153.219100,8660.409521
1401.274540,-9844.739029,0.000000,6735.874072
1401.274851,-2738.761985,153.219100,2738.761985
1401.275163,2590.720797,1225.752797,-814.226536
1401.275474,5181.441594,1302.362347,-5255.462188
1401.275786,3478.967927,1762.019645,-6661.853478
1401.276097,-1702.473667,2145.067394,-4959.379811
1401.276408,-9770.718434,1915.238745,-2072.576638
1401.276720,-17764.942608,842.705048,3256.906145
1401.277031,-23020.404796,-1149.143247,7846.182985
1401.277342,-23168.445985,-2987.772442,9104.533087
1401.277654,-17616.901420,-3217.601092,7476.080014
1401.277965,-10362.883188,-1225.752797,4811.338623
1401.278276,-4071.132681,306.438199,1924.535449
1401.278588,-296.082377,0.000000,-1850.514855
1401.278899,888.247130,0.000000,-4737.318029
1401.279210,74.020594,919.314598,-5033.400406
1401.279522,-2590.720797,1532.190996,-4071.132681
1401.279833,-6735.874072,689.485948,-2368.659014
1401.280144,-12213.398043,-306.438199,-888.247130
1401.280456,-16136.489536,-612.876398,1702.473667
1401.280767,-18283.086767,-1378.971896,3552.988522
1401.281078,-17246.798449,-612.876398,5107.421000
1401.281390,-15100.201217,383.047749,3849.070898
1401.281701,-9474.636058,-306.438199,1628.453072
1401.282013,-3478.967927,-383.047749,-1924.535449
1401.282324,1110.308913,1149.143247,-4959.379811
1401.282635,1776.494261,2145.067394,-5625.565159
1401.282947,-2072.576638,766.095498,-3923.091493
1401.283260,-10140.821405,-306.438199,-2664.741391
1401.283571,-16506.592507,-229.828649,-0.000000
1401.283882,-19171.333898,229.828649,2442.679609
1401.284194,-18061.024985,229.828649,3330.926739
1401.284505,-14508.036463,-1072.533697,3404.947333
1401.284817,-10214.842000,-3064.381992,2368.659014
1401.285128,-7031.956449,-3753.867940,1110.308913
1401.285440,-5181.441594,-2374.896044,1258.350101
1401.285751,-5477.523971,-919.314598,2072.576638
1401.286062,-7550.100608,689.485948,2146.597232
1401.286374,-9844.739029,689.485948,2590.720797
1401.286685,-10732.986159,1378.971896,962.267725
1401.286997,-8290.306550,3370.820191,-370.102971
1401.287308,-5033.400406,4519.963438,-888.247130
1401.287620,-3256.906145,1991.848295,-1924.535449
1401.287931,-4515.256246,-1225.752797,-888.247130
1401.288242,-7328.038826,-3370.820191,222.061783
1401.288554,-9622.677246,-2374.896044,2960.823768
1401.288865,-11843.295072,-919.314598,4737.318029
1401.289177,-14285.974681,-1685.410096,6661.853478
1401.289488,-15396.283594,-2681.334243,7105.977043
1401.289799,-14211.954086,-1915.238745,5847.626942
1401.290111,-9178.553681,383.047749,4145.153275
1401.290422,-4441.235652,1532.190996,370.102971
1401.290734,-740.205942,2145.067394,-3034.844362
1401.291045,2220.617826,229.828649,-5181.441594
1401.291357,1036.288319,-995.924147,-5181.441594
1401.291668,-3478.967927,-306.438199,-1998.556043
1401.291979,-10140.821405,459.657299,1554.432478
1401.292291,-18061.024985,-689.485948,5255.462188
1401.292602,-23390.507767,-1532.190996,8660.409521
1401.292914,-22650.301825,-1762.019645,8512.368333
1401.293225,-15174.221811,919.314598,4885.359217
1401.293537,-6439.791695,2145.067394,148.041188
1401.293848,888.247130,2221.676944,-5329.482782
1401.294159,6291.750507,2374.896044,-8956.491898
1401.294471,6735.874072,2221.676944,-9548.656652
1401.294782,1110.308913,2145.067394,-7105.977043
1401.295094,-7698.141797,383.047749,-3182.885551
1401.295405,-16876.695478,-1149.143247,1480.411884
1401.295717,-23390.507767,-2374.896044,4737.318029
1401.296028,-25389.063811,-2298.286494,6439.791695
1401.296339,-21836.075289,-1378.971896,5921.647536
1401.296651,-14582.057057,-1991.848295,1924.535449
1401.296962,-6069.688724,-2298.286494,-1554.432478
1401.297274,1110.308913,-2451.505594,-5551.544565
1401.297585,3923.091493,-1838.629195,-7105.977043
1401.297897,1110.308913,536.266849,-6365.771101
1401.298208,-5477.523971,1149.143247,-4219.173869
1401.298519,-13101.645173,0.000000,-1406.391290
1401.298831,-18949.272115,306.438199,1554.432478
1401.299142,-19615.457463,995.924147,2294.638420
1401.299454,-16358.551318,919.314598,1258.350101
1401.299765,-11029.068536,-1149.143247,592.164754
1401.300076,-5181.441594,-3447.429741,-2368.659014
1401.300388,-1258.350101,-3830.477490,-5107.421000
1401.300699,0.000000,-2145.067394,-3849.070898
1401.301011,-4293.194464,-229.828649,-1036.288319
1401.301322,-11621.233289,-229.828649,1184.329507
1401.301634,-17616.901420,306.438199,3627.009116
1401.301945,-19319.375086,1532.190996,3108.864956
1401.302256,-15100.201217,3294.210641,1702.473667
1401.302568,-8956.491898,3064.381992,-1480.411884
1401.302879,-2146.597232,1608.800546,-5329.482782
1401.303191,2368.659014,-1915.238745,-7031.956449
1401.303502,2812.782580,-2298.286494,-6143.709319
1401.303814,-2146.597232,-919.314598,-1850.514855
1401.304125,-11621.233289,-459.657299,3552.988522
1401.304436,-21614.013506,-1685.410096,8216.285956
1401.304748,-26351.331535,-1072.533697,10362.883188
1401.305059,-22428.240043,1608.800546,9104.533087
1401.305371,-11917.315666,1685.410096,4441.235652
1401.305682,222.061783,1378.971896,-2738.761985
1401.305994,9696.697840,842.705048,-8734.430116
1401.306305,12435.459826,0.000000,-10066.800811
1401.306616,5625.565159,-689.485948,-6291.750507
1401.306928,-6513.812290,-1991.848295,-74.020594
1401.307239,-19023.292709,-3064.381992,6883.915261
1401.307551,-27387.619854,-3600.648841,11917.315666
1401.307862,-27905.764013,-4673.182538,12065.356855
1401.308174,-20799.786970,-2451.505594,9030.512492
1401.308485,-10584.944971,-306.438199,3404.947333
1401.308796,-148.041188,1072.533697,-2590.720797
1401.309108,6809.894666,1072.533697,-5773.606348
1401.309419,5329.482782,1149.143247,-7550.100608
1401.309731,0.000000,3140.991542,-4885.359217
1401.310042,-5329.482782,4136.915689,-1924.535449
1401.310353,-12879.583391,2987.772442,1554.432478
1401.310665,-17394.839637,2681.334243,4145.153275
1401.310976,-19171.333898,229.828649,4589.276840
1401.311288,-16580.613101,-689.485948,4293.194464
1401.311599,-11843.295072,383.047749,2590.720797
1401.311911,-7698.141797,306.438199,-0.000000
1401.312222,-4737.318029,-459.657299,-2516.700203
1401.312533,-3034.844362,-842.705048,-3478.967927
1401.312845,-2442.679609,383.047749,-2294.638420
1401.313156,-5255.462188,306.438199,-592.164754
1401.313468,-10066.800811,-459.657299,1702.473667
1401.313779,-14730.098246,-1532.190996,2442.679609
1401.314091,-15618.345376,-1225.752797,2664.741391
1401.314402,-13397.727550,-306.438199,1998.556043
1401.314713,-10140.821405,-842.705048,1702.473667
1401.315025,-6957.935855,-2068.457845,148.041188
1401.315336,-4959.379811,-3830.477490,-814.226536
1401.315648,-3034.844362,-3370.820191,-814.226536
1401.315959,-3775.050304,-995.924147,444.123565
1401.316271,-8586.388927,153.219100,1258.350101
1401.316582,-12879.583391,536.266849,2442.679609
1401.316893,-15544.324782,1378.971896,1480.411884
1401.317205,-12879.583391,3907.087040,444.123565
1401.317516,-8364.327145,5209.449386,-1554.432478
1401.317828,-4441.235652,3830.477490,-2368.659014
1401.318139,-2294.638420,689.485948,-3923.091493
1401.318451,-1628.453072,-1685.410096,-3478.967927
1401.318762,-2886.803174,-2528.115143,-1332.370696
1401.319073,-7846.182985,-2987.772442,1110.308913
1401.319385,-13619.789333,-3140.991542,3256.906145
1401.319696,-18061.024985,-3600.648841,4589.276840
1401.320008,-19763.498651,-2528.115143,5107.421000
1401.320319,-16654.633695,-229.828649,3775.050304
1401.320631,-11029.068536,1532.190996,1850.514855
1401.320942,-4071.132681,612.876398,-1998.556043
1401.321253,1702.473667,153.219100,-4885.359217
1401.321565,2812.782580,-229.828649,-6513.812290
1401.321876,0.000000,1455.581446,-5255.462188
1401.322188,-6365.771101,1838.629195,-2368.659014
1401.322499,-14359.995275,766.095498,1184.329507
1401.322810,-21095.869347,-536.266849,4737.318029
1401.323122,-23464.528361,-842.705048,5107.421000
1401.323433,-19023.292709,842.705048,3849.070898
1401.323745,-11917.315666,1838.629195,666.185348
1401.324056,-4515.256246,1608.800546,-3108.864956
1401.324368,0.000000,-459.657299,-6513.812290
1401.324679,2886.803174,-612.876398,-6957.935855
1401.324990,370.102971,229.828649,-4959.379811
1401.325302,-5921.647536,919.314598,-1332.370696
1401.325613,-12805.562797,-153.219100,1924.535449
1401.325925,-18727.210333,-1915.238745,3849.070898
1401.326236,-20725.766376,-1225.752797,5847.626942
1401.326548,-17764.942608,-153.219100,5033.400406
1401.326859,-11621.233289,-766.095498,2960.823768
1401.327170,-5181.441594,-1915.238745,-0.000000
1401.327482,74.020594,-2987.772442,-2368.659014
1401.327793,1776.494261,-1149.143247,-3701.029710
1401.328105,-1480.411884,2145.067394,-1258.350101
1401.328416,-7550.100608,1532.190996,740.205942
1401.328728,-13693.809927,536.266849,2738.761985
1401.329039,-17024.736666,2221.676944,4663.297435
1401.329350,-15766.386565,3370.820191,3701.029710
1401.329662,-9474.636058,2681.334243,2368.659014
1401.329973,-5181.441594,766.095498,518.144159
1401.330285,-2072.576638,-1455.581446,-1258.350101
1401.330596,-814.226536,-2374.896044,-1850.514855
1401.330908,-2886.803174,-1838.629195,-0.000000
1401.331219,-7994.224174,-1225.752797,1850.514855
1401.331530,-14137.933492,-1838.629195,4219.173869
1401.331842,-17838.963202,-2451.505594,5255.462188
1401.332153,-17764.942608,-536.266849,5107.421000
1401.332465,-13619.789333,1991.848295,4663.297435
1401.332776,-8512.368333,2451.505594,2590.720797
1401.333087,-4145.153275,995.924147,740.205942
1401.333399,-1480.411884,-383.047749,-1110.308913
1401.333710,-1332.370696,-1225.752797,-666.185348
1401.334022,-3997.112087,0.000000,1258.350101
1401.334333,-8216.285956,689.485948,3404.947333
1401.334645,-13619.789333,-766.095498,5329.482782
1401.334956,-18283.086767,-1838.629195,7105.977043
1401.335267,-17690.922014,0.000000,7031.956449
1401.335579,-13619.789333,2298.286494,5255.462188
1401.335890,-7402.059420,2911.162892,2664.741391
1401.336202,-2220.617826,842.705048,-1036.288319
1401.336513,1480.411884,919.314598,-3775.050304
1401.336825,2368.659014,2068.457845,-3701.029710
1401.337136,-814.226536,2068.457845,-1776.494261
1401.337447,-6957.935855,229.828649,888.247130
1401.337759,-12953.603985,-1762.019645,3256.906145
1401.338070,-17394.839637,-2145.067394,4959.379811
1401.338382,-17394.839637,-919.314598,4959.379811
1401.338693,-14804.118840,0.000000,3997.112087
1401.339005,-9548.656652,-536.266849,1258.350101
1401.339316,-5107.421000,-1608.800546,-1036.288319
1401.339627,-1998.556043,-1762.019645,-3256.906145
1401.339939,-1480.411884,0.000000,-3849.070898
1401.340250,-3627.009116,1915.238745,-2886.803174
1401.340562,-6069.688724,1762.019645,-1924.535449
1401.340873,-10140.821405,383.047749,-592.164754
1401.341185,-14211.954086,153.219100,888.247130
1401.341496,-15396.283594,766.095498,2664.741391
1401.341807,-13767.830521,1455.581446,1184.329507
1401.342119,-10807.006753,459.657299,-814.226536
1401.342430,-7402.059420,-459.657299,-2146.597232
1401.342742,-6439.791695,-1378.971896,-3775.050304
1401.343053,-6291.750507,-612.876398,-3552.988522
1401.343365,-7031.956449,0.000000,-2886.803174
1401.343676,-10436.903782,-306.438199,-2146.597232
1401.343987,-13545.768739,-536.266849,-740.205942
1401.344299,-15322.262999,0.000000,-74.020594
1401.344610,-14582.057057,536.266849,-0.000000
1401.344922,-11769.274478,995.924147,-222.061783
1401.345233,-8512.368333,-383.047749,-1628.453072
1401.345544,-5699.585753,-2068.457845,-2516.700203
1401.345856,-4737.318029,-3140.991542,-3256.906145
1401.346167,-5921.647536,-2298.286494,-2072.576638
1401.346479,-9622.677246,-842.705048,-0.000000
1401.346790,-13989.892304,-306.438199,1628.453072
1401.347102,-16580.613101,-306.438199,2664.741391
1401.347413,-15174.221811,459.657299,1850.514855
1401.347724,-10807.006753,1991.848295,-74.020594
1401.348036,-5551.544565,3217.601092,-1480.411884
1401.348347,-2960.823768,3064.381992,-1628.453072
1401.348659,-2960.823768,1838.629195,-1480.411884
1401.348970,-4145.153275,612.876398,-370.102971
1401.349282,-6439.791695,-612.876398,1184.329507
1401.349593,-9178.553681,-689.485948,3627.009116
1401.349904,-11325.150913,-766.095498,4663.297435
1401.350216,-13471.748144,-1302.362347,3997.112087
1401.350527,-13249.686362,-1378.971896,3775.050304
1401.350839,-10362.883188,689.485948,4293.194464
1401.351150,-8216.285956,76.609550,3701.029710
1401.351462,-5033.400406,-995.924147,2812.782580
1401.351773,-3034.844362,-766.095498,370.102971
1401.352084,-518.144159,-383.047749,-1258.350101
1401.352396,-444.123565,1838.629195,-592.164754
1401.352707,-4737.318029,2221.676944,962.267725
1401.353019,-10732.986159,612.876398,3182.885551
1401.353330,-16062.468941,-766.095498,5329.482782
1401.353642,-18061.024985,0.000000,6735.874072
1401.353953,-16876.695478,919.314598,6587.832884
1401.354264,-11843.295072,536.266849,4515.256246
1401.354576,-5551.544565,-536.266849,1332.370696
1401.354887,-740.205942,-1225.752797,-1332.370696
1401.355199,962.267725,-766.095498,-2368.659014
1401.355510,-1776.494261,842.705048,-888.247130
1401.355821,-7476.080014,1762.019645,740.205942
1401.356133,-13175.665768,1378.971896,3552.988522
1401.356444,-16654.633695,153.219100,5255.462188
1401.356756,-16950.716072,612.876398,5699.585753
1401.357067,-12213.398043,919.314598,4293.194464
1401.357379,-6735.874072,-536.266849,1628.453072
1401.357690,-2590.720797,-1838.629195,-962.267725
1401.358001,-2442.679609,-1685.410096,-3034.844362
1401.358313,-3923.091493,-919.314598,-1998.556043
1401.358624,-7624.121203,-153.219100,-1110.308913
1401.358936,-10881.027347,0.000000,370.102971
1401.359247,-13989.892304,229.828649,1332.370696
1401.359559,-14434.015869,1378.971896,1332.370696
1401.359870,-12731.542202,2374.896044,1110.308913
1401.360181,-8586.388927,1608.800546,-296.082377
1401.360493,-4811.338623,995.924147,-2812.782580
1401.360804,-4071.132681,306.438199,-4811.338623
1401.361116,-4811.338623,-766.095498,-4293.194464
1401.361427,-6735.874072,0.000000,-3552.988522
1401.361739,-10066.800811,-689.485948,-1036.288319
1401.362050,-14063.912898,-2374.896044,888.247130
1401.362361,-15988.448347,-3600.648841,2072.576638
1401.362673,-15248.242405,-2528.115143,1924.535449
1401.362984,-11547.212695,153.219100,592.164754
1401.363296,-8142.265362,459.657299,-1110.308913
1401.363607,-5107.421000,0.000000,-3552.988522
1401.363919,-3404.947333,-689.485948,-4737.318029
1401.364230,-3182.885551,-459.657299,-4737.318029
1401.364541,-5329.482782,459.657299,-3108.864956
1401.364853,-9252.574275,153.219100,-962.267725
1401.365164,-13989.892304,-766.095498,444.123565
1401.365476,-17838.963202,-1915.238745,2738.761985
1401.365787,-17542.880825,0.000000,3034.844362
1401.366098,-14211.954086,689.485948,1332.370696
1401.366410,-9992.780217,766.095498,-740.205942
1401.366721,-4663.297435,153.219100,-3627.009116
1401.367033,-666.185348,-459.657299,-5551.544565
1401.367344,1110.308913,0.000000,-5329.482782
1401.367656,-1702.473667,153.219100,-3330.926739
1401.367967,-8956.491898,0.000000,-740.205942
1401.368278,-16580.613101,-153.219100,2516.700203
1401.368590,-21169.889941,76.609550,4663.297435
1401.368901,-19837.519246,-229.828649,5403.503377
1401.369213,-12879.583391,-919.314598,2738.761985
1401.369524,-5625.565159,-1838.629195,-1332.370696
1401.369836,814.226536,-1149.143247,-3404.947333
1401.370147,2442.679609,-306.438199,-4589.276840
1401.370458,-1036.288319,766.095498,-2294.638420
1401.370770,-7698.141797,689.485948,666.185348
1401.371081,-14211.954086,383.047749,3701.029710
1401.371393,-16728.654289,919.314598,4959.379811
1401.371704,-15692.365970,2528.115143,4663.297435
1401.372016,-10807.006753,2604.724693,2294.638420
1401.372327,-6587.832884,1149.143247,-1036.288319
1401.372638,-2220.617826,153.219100,-1332.370696
1401.372950,-1184.329507,-1455.581446,-2368.659014
1401.373261,-3627.009116,-1302.362347,-1406.391290
1401.373573,-6957.935855,-1072.533697,370.102971
1401.373884,-10658.965565,-1225.752797,1924.535449
1401.374196,-13841.851115,-1685.410096,3923.091493
1401.374507,-15396.283594,-995.924147,5107.421000
1401.374818,-14952.160028,-1302.362347,4885.359217
1401.375130,-11843.295072,0.000000,3775.050304
1401.375441,-7550.100608,76.609550,1850.514855
1401.375753,-4441.235652,-1532.190996,-962.267725
1401.376064,-1406.391290,-1608.800546,-2368.659014
1401.376376,-1480.411884,-842.705048,-1776.494261
1401.376687,-4885.359217,-995.924147,-222.061783
1401.376998,-11325.150913,-1072.533697,3256.906145
1401.377310,-17024.736666,-689.485948,5699.585753
1401.377621,-19171.333898,-229.828649,7105.977043
1401.377933,-16950.716072,919.314598,6735.874072
1401.378244,-11251.130318,1991.848295,4219.173869
1401.378555,-4145.153275,2145.067394,-0.000000
1401.378867,1184.329507,1225.752797,-3552.988522
1401.379178,4367.215058,1915.238745,-5255.462188
1401.379490,2072.576638,2145.067394,-4219.173869
1401.379801,-5255.462188,842.705048,-1406.391290
1401.380113,-13101.645173,306.438199,2960.823768
1401.380424,-18579.169144,-842.705048,5403.503377
1401.380735,-19985.560434,-1225.752797,6439.791695
1401.381047,-15988.448347,-229.828649,5033.400406
1401.381358,-9326.594869,-306.438199,2146.597232
1401.381670,-3404.947333,-1072.533697,-1628.453072
1401.381981,592.164754,-1225.752797,-4441.235652
1401.382293,1332.370696,-383.047749,-5699.585753
1401.382604,-1998.556043,842.705048,-3849.070898
1401.382916,-7328.038826,1225.752797,-1258.350101
1401.383227,-12805.562797,-383.047749,1480.411884
1401.383539,-17024.736666,-1302.362347,2442.679609
1401.383850,-17246.798449,-229.828649,3330.926739
1401.384162,-15322.262999,995.924147,2590.720797
1401.384473,-11843.295072,0.000000,222.061783
1401.384785,-7254.018232,-459.657299,-2072.576638
1401.385096,-3775.050304,-1532.190996,-4737.318029
1401.385408,-1184.329507,-612.876398,-5403.503377
1401.385719,-2442.679609,-536.266849,-4589.276840
1401.386031,-7624.121203,0.000000,-2368.659014
1401.386342,-13693.809927,-306.438199,518.144159
1401.386654,-19245.354492,-1149.143247,2368.659014
1401.386965,-20059.581028,-229.828649,3256.906145
1401.387277,-15470.304188,536.266849,2368.659014
1401.387588,-9474.636058,229.828649,-1110.308913
1401.387900,-3034.844362,-1072.533697,-4737.318029
1401.388212,370.102971,-2145.067394,-6661.853478
1401.388523,-148.041188,-1915.238745,-5699.585753
1401.388835,-4441.235652,-1378.971896,-2368.659014
1401.389146,-13175.665768,-1838.629195,666.185348
1401.389458,-20429.683999,-1762.019645,3701.029710
1401.389769,-23242.466579,536.266849,3923.091493
1401.390081,-19023.292709,2834.553343,2812.782580
1401.390392,-11103.089130,4596.572988,-0.000000
1401.390704,-3330.926739,2298.286494,-3182.885551
1401.391015,3404.947333,0.000000,-5921.647536
1401.391327,6143.709319,-766.095498,-7105.977043
1401.391638,2368.659014,536.266849,-4071.132681
1401.391950,-7105.977043,459.657299,1110.308913
1401.392261,-16432.571912,-612.876398,5255.462188
1401.392573,-23686.590144,-1762.019645,7624.121203
1401.392884,-23982.672521,-1915.238745,8660.409521
1401.393196,-16136.489536,76.609550,5847.626942
1401.393508,-7105.977043,1762.019645,1480.411884
1401.393819,222.061783,1149.143247,-2294.638420
1401.394131,4293.194464,-536.266849,-3997.112087
1401.394442,4737.318029,-1685.410096,-3108.864956
1401.394754,-444.123565,-306.438199,148.041188
1401.395065,-8216.285956,229.828649,3997.112087
1401.395377,-15544.324782,-536.266849,7105.977043
1401.395688,-20651.745782,0.000000,8882.471304
1401.396000,-19541.436869,0.000000,8438.347739
1401.396311,-13841.851115,-383.047749,6069.688724
1401.396623,-7550.100608,-995.924147,2590.720797
1401.396934,-1776.494261,-995.924147,74.020594
1401.397246,1628.453072,-153.219100,-2368.659014
1401.397557,1554.432478,-306.438199,-2220.617826
1401.397869,-3034.844362,995.924147,592.164754
1401.398180,-8586.388927,1838.629195,3701.029710
1401.398492,-14285.974681,842.705048,5921.647536
1401.398804,-18209.066173,459.657299,7254.018232
1401.399115,-17098.757260,1225.752797,6735.874072
1401.399427,-12805.562797,1915.238745,4293.194464
1401.399738,-6217.729913,842.705048,1406.391290
1401.400050,-1628.453072,-612.876398,-1998.556043
1401.400361,888.247130,-1149.143247,-3552.988522
1401.400673,-1258.350101,-306.438199,-2368.659014
1401.400984,-6439.791695,0.000000,-370.102971
1401.401296,-11843.295072,612.876398,2516.700203
1401.401607,-16580.613101,766.095498,4441.235652
1401.401919,-17542.880825,1378.971896,4811.338623
1401.402230,-14285.974681,2068.457845,3034.844362
1401.402542,-9252.574275,2451.505594,296.082377
1401.402853,-4219.173869,1915.238745,-2812.782580
1401.403165,-1110.308913,536.266849,-5403.503377
1401.403476,-1258.350101,-229.828649,-5625.565159
1401.403788,-3923.091493,0.000000,-3775.050304
1401.404100,-8660.409521,-1608.800546,-1924.535449
1401.404411,-14211.954086,-2298.286494,444.123565
1401.404723,-18875.251521,-1762.019645,3404.947333
1401.405034,-20503.704593,-383.047749,3775.050304
1401.405346,-18357.107362,153.219100,2960.823768
1401.405657,-11473.192101,536.266849,444.123565
1401.405969,-3849.070898,229.828649,-4071.132681
1401.406280,1258.350101,-229.828649,-6143.709319
1401.406592,2886.803174,-842.705048,-7402.059420
1401.406903,-666.185348,-842.705048,-5477.523971
1401.407215,-8808.450710,-1608.800546,-1628.453072
1401.407526,-17098.757260,-2374.896044,3256.906145
1401.407838,-24130.713709,-2528.115143,5551.544565
1401.408149,-23982.672521,-995.924147,6217.729913
1401.408461,-17024.736666,306.438199,3627.009116
1401.408772,-7624.121203,0.000000,-740.205942
1401.409084,888.247130,0.000000,-4293.194464
1401.409395,5773.606348,919.314598,-7179.997637
1401.409707,4737.318029,842.705048,-6439.791695
1401.410019,-2072.576638,1302.362347,-2442.679609
1401.410330,-10510.924376,1149.143247,1258.350101
1401.410642,-18727.210333,536.266849,4367.215058
1401.410953,-22428.240043,459.657299,5995.668130
1401.411265,-19319.375086,459.657299,5551.544565
1401.411576,-12583.501014,995.924147,2368.659014
1401.411888,-6439.791695,-153.219100,-148.041188
1401.412199,-370.102971,-766.095498,-3108.864956
1401.412511,2516.700203,-766.095498,-3627.009116
1401.412822,888.247130,0.000000,-2516.700203
1401.413134,-4071.132681,1072.533697,518.144159
1401.413445,-10288.862594,995.924147,2442.679609
1401.413757,-16358.551318,766.095498,4367.215058
1401.414068,-17912.983796,2145.067394,5403.503377
1401.414380,-16062.468941,2528.115143,4293.194464
1401.414691,-11399.171507,1838.629195,2294.638420
1401.415003,-6513.812290,-153.219100,-74.020594
1401.415315,-2368.659014,-919.314598,-2220.617826
1401.415626,-1332.370696,-459.657299,-2072.576638
1401.415938,-2664.741391,306.438199,740.205942
1401.416249,-7254.018232,-1378.971896,3256.906145
1401.416561,-12287.418637,-3140.991542,5255.462188
1401.416872,-14878.139434,-1991.848295,5477.523971
1401.417184,-14952.160028,1072.533697,5403.503377
1401.417495,-13545.768739,2911.162892,4663.297435
1401.417807,-9474.636058,1991.848295,2072.576638
1401.418118,-5255.462188,-919.314598,-518.144159
1401.418430,-1406.391290,-1915.238745,-2368.659014
1401.418741,0.000000,-1991.848295,-1406.391290
1401.419053,-4219.173869,-1378.971896,-74.020594
1401.419364,-9696.697840,-1838.629195,2368.659014
1401.419676,-15544.324782,-1072.533697,4219.173869
1401.419987,-18579.169144,-766.095498,5551.544565
1401.420299,-17394.839637,1685.410096,5921.647536
1401.420611,-12213.398043,2604.724693,3182.885551
1401.420922,-5699.585753,2757.943793,-814.226536
1401.421234,-222.061783,2068.457845,-4515.256246
1401.421545,2960.823768,1072.533697,-6291.750507
1401.421857,1554.432478,1225.752797,-4737.318029
1401.422168,-4293.194464,612.876398,-2516.700203
1401.422480,-10955.047942,-919.314598,888.247130
1401.422791,-17542.880825,-1532.190996,3997.112087
1401.423103,-21095.869347,-919.314598,5551.544565
1401.423414,-17838.963202,919.314598,5107.421000
1401.423726,-11695.253884,1149.143247,2368.659014
1401.424037,-5329.482782,229.828649,-1184.329507
1401.424349,0.000000,76.609550,-3552.988522
1401.424660,2220.617826,229.828649,-5995.668130
1401.424972,814.226536,1225.752797,-5995.668130
1401.425283,-4293.194464,1685.410096,-3849.070898
1401.425595,-12435.459826,766.095498,-888.247130
1401.425907,-19763.498651,-229.828649,2960.823768
1401.426218,-22946.384202,-76.609550,4441.235652
1401.426530,-19911.539840,0.000000,4515.256246
1401.426841,-13249.686362,-1838.629195,2442.679609
1401.427153,-5847.626942,-3140.991542,-814.226536
1401.427464,0.000000,-3294.210641,-4737.318029
1401.427776,1332.370696,-2068.457845,-5403.503377
1401.428087,-888.247130,-459.657299,-4589.276840
1401.428399,-7031.956449,0.000000,-1258.350101
1401.428710,-14582.057057,-612.876398,1554.432478
1401.429022,-20133.601622,-766.095498,4219.173869
1401.429333,-20947.828159,76.609550,3775.050304
1401.429645,-15914.427753,1149.143247,2368.659014
1401.429956,-9474.636058,229.828649,-666.185348
1401.430268,-3849.070898,-1225.752797,-3552.988522
1401.430579,0.000000,-1762.019645,-4589.276840
1401.430891,-592.164754,-1608.800546,-4071.132681
1401.431203,-4959.379811,-612.876398,-1332.370696
1401.431514,-10658.965565,0.000000,1110.308913
1401.431826,-14878.139434,995.924147,2294.638420
1401.432137,-16580.613101,2221.676944,2664.741391
1401.432449,-14730.098246,3217.601092,1554.432478
1401.432760,-9918.759623,3064.381992,-592.164754
1401.433072,-4885.359217,2604.724693,-2738.761985
1401.433383,-1406.391290,689.485948,-4071.132681
1401.433695,-222.061783,76.609550,-4441.235652
1401.434006,-1924.535449,-1685.410096,-2516.700203
1401.434318,-6365.771101,-1991.848295,592.164754
1401.434629,-12139.377449,-2834.553343,3404.947333
1401.434941,-16580.613101,-2911.162892,5033.400406
1401.435252,-18801.230927,-1685.410096,5107.421000
1401.435564,-16136.489536,689.485948,4071.132681
1401.435875,-10140.821405,1455.581446,2294.638420
1401.436187,-3997.112087,689.485948,-1184.329507
1401.436499,296.082377,306.438199,-3478.967927
1401.436810,1184.329507,459.657299,-4219.173869
1401.437122,-592.164754,0.000000,-2294.638420
1401.437433,-6587.832884,-306.438199,444.123565
1401.437745,-14582.057057,-995.924147,3923.091493
1401.438056,-20355.663405,-919.314598,7179.997637
1401.438368,-21688.034101,-306.438199,8808.450710
1401.438679,-17172.777854,0.000000,7698.141797
1401.438991,-8660.409521,-919.314598,4293.194464
1401.439302,-148.041188,-2221.676944,-1036.288319
1401.439614,5181.441594,-229.828649,-4145.153275
1401.439925,5329.482782,995.924147,-3997.112087
1401.440237,-666.185348,1838.629195,-1776.494261
1401.440548,-9992.780217,-919.314598,1702.473667
1401.440860,-17838.963202,-995.924147,5551.544565
1401.441171,-21317.931130,-842.705048,8438.347739
1401.441483,-19985.560434,306.438199,7698.141797
1401.441795,-13915.871710,0.000000,4145.153275
1401.442106,-6809.894666,-536.266849,888.247130
1401.442418,-666.185348,-842.705048,-2294.638420
1401.442729,2368.659014,-842.705048,-4367.215058
1401.443041,444.123565,459.657299,-4663.297435
1401.443352,-3997.112087,2068.457845,-2442.679609
1401.443664,-10214.842000,1991.848295,222.061783
1401.443975,-15026.180623,1532.190996,2146.597232
1401.444287,-17172.777854,1225.752797,3627.009116
1401.444598,-15396.283594,1378.971896,2812.782580
1401.444910,-10955.047942,306.438199,592.164754
1401.445221,-5551.544565,-766.095498,-2220.617826
1401.445533,-1628.453072,-1608.800546,-4589.276840
1401.445844,-1332.370696,-2528.115143,-5625.565159
1401.446156,-2812.782580,-1608.800546,-3701.029710
1401.446467,-7550.100608,-842.705048,-1776.494261
1401.446779,-15026.180623,-842.705048,888.247130
1401.447091,-19689.478057,-689.485948,3552.988522
1401.447402,-20207.622217,383.047749,3108.864956
1401.447714,-15544.324782,2374.896044,1480.411884
1401.448025,-8734.430116,1378.971896,-962.267725
1401.448337,-2812.782580,0.000000,-4367.215058
1401.448648,592.164754,-1532.190996,-7105.977043
1401.448960,740.205942,-1608.800546,-6735.874072
1401.449271,-4441.235652,-1838.629195,-2960.823768
1401.449583,-11917.315666,-3140.991542,740.205942
1401.449894,-20059.581028,-3370.820191,3478.967927
1401.450206,-23168.445985,-2528.115143,4145.153275
1401.450517,-19615.457463,-536.266849,3849.070898
1401.450829,-12435.459826,1302.362347,888.247130
1401.451140,-5181.441594,1685.410096,-2590.720797
1401.451452,-592.164754,1225.752797,-5255.462188
1401.451763,1332.370696,0.000000,-5699.585753
1401.452075,888.247130,-459.657299,-3923.091493
1401.452386,-4959.379811,-153.219100,-962.267725
1401.452698,-11251.130318,-612.876398,2812.782580
1401.453010,-16284.530724,-1991.848295,4737.318029
1401.453321,-19097.313304,-2298.286494,5477.523971
1401.453633,-17542.880825,-536.266849,4959.379811
1401.453944,-13101.645173,306.438199,3108.864956
1401.454256,-7254.018232,995.924147,1406.391290
1401.454567,-1554.432478,536.266849,-1036.288319
1401.454879,1554.432478,153.219100,-2812.782580
1401.455190,2294.638420,995.924147,-2738.761985
1401.455502,-814.226536,2068.457845,-74.020594
1401.455813,-7254.018232,1608.800546,2220.617826
1401.456125,-13989.892304,612.876398,4959.379811
1401.456436,-18727.210333,383.047749,6735.874072
1401.456748,-17616.901420,306.438199,6587.832884
1401.457059,-11917.315666,153.219100,4515.256246
1401.457371,-7105.977043,-1455.581446,2738.761985
1401.457682,-3404.947333,-2221.676944,-370.102971
1401.457994,-814.226536,-2145.067394,-1924.535449
1401.458306,-1480.411884,-1608.800546,-740.205942
1401.458617,-5477.523971,-383.047749,962.267725
1401.458929,-10955.047942,-153.219100,2886.803174
1401.459240,-15174.221811,-383.047749,4441.235652
1401.459552,-16654.633695,76.609550,4737.318029
1401.459863,-15248.242405,1838.629195,4367.215058
1401.460175,-11325.150913,2987.772442,3256.906145
1401.460486,-6809.894666,1072.533697,1110.308913
1401.460798,-3923.091493,-1149.143247,-0.000000
1401.461109,-2072.576638,-1762.019645,-370.102971
1401.461421,-2516.700203,-1608.800546,-1184.329507
1401.461732,-5033.400406,-153.219100,-592.164754
1401.462044,-9548.656652,1378.971896,444.123565
1401.462355,-14804.118840,1915.238745,2738.761985
1401.462667,-16728.654289,1915.238745,3775.050304
1401.462978,-15692.365970,1915.238745,3552.988522
