#time,accel_x,accel_y,accel_z
1191.252086,-9178.553681,-536.266849,518.144159
1191.252397,-8586.388927,76.609550,1184.329507
1191.252708,-9030.512492,0.000000,148.041188
1191.253019,-8882.471304,0.000000,666.185348
1191.253331,-8956.491898,0.000000,518.144159
1191.253642,-9104.533087,0.000000,444.123565
1191.253953,-9178.553681,0.000000,518.144159
1191.254264,-8956.491898,0.000000,444.123565
1191.254576,-8956.491898,0.000000,444.123565
1191.254887,-9178.553681,0.000000,-0.000000
1191.255198,-8586.388927,-229.828649,740.205942
1191.255509,-8808.450710,0.000000,592.164754
1191.255821,-8882.471304,-306.438199,888.247130
1191.256132,-9178.553681,0.000000,518.144159
1191.256443,-8882.471304,-306.438199,666.185348
1191.256754,-8808.450710,-689.485948,518.144159
1191.257066,-8734.430116,0.000000,296.082377
1191.257377,-8808.450710,0.000000,740.205942
1191.257688,-8808.450710,229.828649,518.144159
1191.258000,-9030.512492,153.219100,444.123565
1191.258311,-8956.491898,0.000000,518.144159
1191.258622,-9030.512492,0.000000,518.144159
1191.258933,-9030.512492,153.219100,592.164754
1191.259245,-8956.491898,-383.047749,518.144159
1191.259556,-8586.388927,76.609550,740.205942
1191.259867,-8438.347739,153.219100,518.144159
1191.260178,-8586.388927,153.219100,296.082377
1191.260490,-8734.430116,-153.219100,518.144159
1191.260801,-8956.491898,0.000000,666.185348
1191.261112,-9030.512492,0.000000,592.164754
1191.261423,-8882.471304,0.000000,370.102971
1191.261735,-9030.512492,76.609550,518.144159
1191.262046,-8808.450710,306.438199,518.144159
1191.262357,-8808.450710,0.000000,666.185348
1191.262668,-8808.450710,0.000000,740.205942
1191.262980,-8956.491898,0.000000,592.164754
1191.263291,-9252.574275,0.000000,222.061783
1191.263602,-8956.491898,0.000000,666.185348
1191.263913,-9104.533087,0.000000,296.082377
1191.264225,-8512.368333,383.047749,592.164754
1191.264536,-8586.388927,-306.438199,666.185348
1191.264847,-9030.512492,153.219100,-0.000000
1191.265158,-8882.471304,0.000000,666.185348
1191.265470,-8956.491898,-153.219100,592.164754
1191.265781,-8808.450710,229.828649,592.164754
1191.266092,-8808.450710,-153.219100,444.123565
1191.266403,-8290.306550,-383.047749,444.123565
1191.266715,-8882.471304,0.000000,296.082377
1191.267026,-8734.430116,76.609550,444.123565
1191.267337,-9104.533087,-383.047749,444.123565
1191.267648,-9030.512492,0.000000,518.144159
1191.267960,-9104.533087,0.000000,518.144159
1191.268271,-9030.512492,0.000000,666.185348
1191.268582,-9030.512492,0.000000,444.123565
1191.268893,-8882.471304,-459.657299,666.185348
1191.269205,-8660.409521,-153.219100,148.041188
1191.269516,-8956.491898,-229.828649,296.082377
1191.269827,-8808.450710,0.000000,592.164754
1191.270138,-8956.491898,76.609550,666.185348
1191.270450,-8882.471304,0.000000,592.164754
1191.270761,-9030.512492,0.000000,518.144159
1191.271072,-8882.471304,306.438199,370.102971
1191.271383,-8512.368333,0.000000,518.144159
1191.271695,-8512.368333,-306.438199,370.102971
1191.272006,-9030.512492,0.000000,222.061783
1191.272317,-8956.491898,0.000000,296.082377
1191.272628,-8808.450710,0.000000,518.144159
1191.272940,-8956.491898,76.609550,592.164754
1191.273251,-9030.512492,-153.219100,518.144159
1191.273562,-8882.471304,153.219100,814.226536
1191.273873,-9326.594869,383.047749,592.164754
1191.274185,-8808.450710,153.219100,518.144159
1191.274496,-8438.347739,0.000000,296.082377
1191.274807,-8956.491898,-153.219100,592.164754
1191.275118,-9030.512492,0.000000,444.123565
1191.275430,-8956.491898,76.609550,740.205942
1191.275741,-8882.471304,-153.219100,666.185348
1191.276052,-8882.471304,383.047749,666.185348
1191.276363,-8882.471304,0.000000,444.123565
1191.276675,-8438.347739,-383.047749,592.164754
1191.276986,-8734.430116,-153.219100,444.123565
1191.277297,-8956.491898,0.000000,740.205942
1191.277608,-9178.553681,153.219100,518.144159
1191.277920,-11547.212695,766.095498,222.061783
1191.278231,-11325.150913,2911.162892,592.164754
1191.278542,-8586.388927,5132.839837,666.185348
1191.278854,-7328.038826,4136.915689,888.247130
1191.279165,-6513.812290,1225.752797,1036.288319
1191.279476,-6661.853478,-1302.362347,-222.061783
1191.279787,-7179.997637,-766.095498,-0.000000
1191.280099,-7698.141797,-229.828649,-370.102971
1191.280410,-11991.336260,-919.314598,-1332.370696
1191.280721,-12509.480420,76.609550,-74.020594
1191.281032,-10066.800811,995.924147,814.226536
1191.281344,-9104.533087,0.000000,2072.576638
1191.281655,-9918.759623,-612.876398,3034.844362
1191.281966,-11621.233289,919.314598,1702.473667
1191.282277,-7328.038826,4519.963438,2516.700203
1191.282589,-4959.379811,4903.011187,1924.535449
1191.282900,-7624.121203,2987.772442,666.185348
1191.283211,-7254.018232,2604.724693,-592.164754
1191.283522,-7698.141797,3294.210641,-2516.700203
1191.283834,-9104.533087,3677.258390,-1184.329507
1191.284145,-9474.636058,3830.477490,-814.226536
1191.284456,-13545.768739,1532.190996,-962.267725
1191.284767,-13471.748144,-1225.752797,1628.453072
1191.285079,-8290.306550,-1225.752797,2590.720797
1191.285390,-10288.862594,919.314598,1184.329507
1191.285701,-7402.059420,5669.106685,3182.885551
1191.286012,-8290.306550,5592.497135,740.205942
1191.286324,-7920.203579,2374.896044,2960.823768
1191.286635,-5699.585753,4443.353888,2072.576638
1191.286946,-8142.265362,7354.516781,-74.020594
1191.287257,-7550.100608,6894.859482,-1184.329507
1191.287569,-10066.800811,5209.449386,-1480.411884
1191.287880,-9622.677246,4060.306139,-962.267725
1191.288191,-9844.739029,4903.011187,-1258.350101
1191.288502,-11399.171507,4060.306139,370.102971
1191.288814,-10066.800811,2911.162892,1776.494261
1191.289125,-10140.821405,3140.991542,1554.432478
1191.289436,-7772.162391,4136.915689,2886.803174
1191.289747,-6809.894666,3064.381992,1554.432478
1191.290059,-6143.709319,3140.991542,814.226536
1191.290370,-5477.523971,3370.820191,518.144159
1191.290681,-5773.606348,4366.744339,-592.164754
1191.290992,-6439.791695,3294.210641,-1184.329507
1191.291304,-8586.388927,3140.991542,-370.102971
1191.291615,-9474.636058,1225.752797,-296.082377
1191.291926,-9548.656652,-306.438199,370.102971
1191.292237,-9548.656652,-689.485948,1554.432478
1191.292549,-10510.924376,-1608.800546,1628.453072
1191.292860,-10288.862594,-1302.362347,2146.597232
1191.293171,-8882.471304,-383.047749,2368.659014
1191.293482,-8512.368333,-229.828649,1332.370696
1191.293794,-7105.977043,229.828649,740.205942
1191.294105,-7846.182985,536.266849,-444.123565
1191.294416,-8068.244768,842.705048,-666.185348
1191.294727,-6735.874072,842.705048,-1036.288319
1191.295039,-7476.080014,-1378.971896,-962.267725
1191.295350,-8660.409521,-2681.334243,-0.000000
1191.295661,-9622.677246,-3677.258390,370.102971
1191.295972,-11177.109724,-3677.258390,962.267725
1191.296284,-11547.212695,-3600.648841,1332.370696
1191.296595,-12361.439231,-3600.648841,1258.350101
1191.296906,-12213.398043,-2604.724693,1036.288319
1191.297217,-11029.068536,-1532.190996,-518.144159
1191.297529,-9326.594869,-1149.143247,-814.226536
1191.297840,-8290.306550,-1072.533697,-1110.308913
1191.298151,-8808.450710,0.000000,-444.123565
1191.298462,-9104.533087,1072.533697,-370.102971
1191.298774,-9474.636058,306.438199,-740.205942
1191.299085,-10584.944971,153.219100,592.164754
1191.299396,-10955.047942,-383.047749,740.205942
1191.299707,-11177.109724,-153.219100,1036.288319
1191.300019,-11621.233289,-459.657299,962.267725
1191.300330,-11251.130318,153.219100,962.267725
1191.300641,-11399.171507,689.485948,518.144159
1191.300953,-9474.636058,1762.019645,-222.061783
1191.301264,-7624.121203,2451.505594,-222.061783
1191.301575,-6661.853478,1991.848295,-814.226536
1191.301886,-6069.688724,1838.629195,-592.164754
1191.302198,-5477.523971,1072.533697,-296.082377
1191.302509,-5699.585753,919.314598,740.205942
1191.302820,-7476.080014,-306.438199,1850.514855
1191.303131,-9548.656652,-842.705048,1776.494261
1191.303443,-9178.553681,-153.219100,2664.741391
1191.303754,-9622.677246,-383.047749,2368.659014
1191.304065,-9548.656652,459.657299,2294.638420
1191.304376,-9178.553681,1762.019645,1554.432478
1191.304688,-7920.203579,2145.067394,592.164754
1191.304999,-6439.791695,2757.943793,518.144159
1191.305310,-5329.482782,2834.553343,-370.102971
1191.305621,-5107.421000,3370.820191,-1258.350101
1191.305933,-5403.503377,2681.334243,-1036.288319
1191.306244,-5995.668130,766.095498,-74.020594
1191.306555,-7402.059420,153.219100,666.185348
1191.306866,-8660.409521,-306.438199,1110.308913
1191.307178,-10510.924376,-2068.457845,1480.411884
1191.307489,-11769.274478,-2451.505594,1924.535449
1191.307800,-10584.944971,-1378.971896,2220.617826
1191.308111,-10362.883188,-1685.410096,2220.617826
1191.308423,-10066.800811,-1838.629195,1258.350101
1191.308734,-9696.697840,-612.876398,518.144159
1191.309045,-9030.512492,536.266849,-0.000000
1191.309356,-8512.368333,306.438199,-148.041188
1191.309668,-8956.491898,0.000000,-444.123565
1191.309979,-9030.512492,689.485948,-518.144159
1191.310290,-9622.677246,0.000000,-444.123565
1191.310601,-10288.862594,0.000000,-74.020594
1191.310913,-10658.965565,-459.657299,740.205942
1191.311224,-11473.192101,-612.876398,1258.350101
1191.311535,-11177.109724,-1455.581446,1702.473667
1191.311846,-11103.089130,-1915.238745,1110.308913
1191.312158,-10362.883188,-842.705048,740.205942
1191.312469,-9030.512492,-383.047749,-0.000000
1191.312780,-8512.368333,76.609550,-740.205942
1191.313091,-8438.347739,-612.876398,-962.267725
1191.313403,-7698.141797,-459.657299,-888.247130
1191.313714,-7476.080014,0.000000,-1184.329507
1191.314025,-7994.224174,-229.828649,-740.205942
1191.314336,-8808.450710,-612.876398,-0.000000
1191.314648,-9474.636058,-919.314598,888.247130
1191.314959,-9474.636058,-536.266849,1110.308913
1191.315270,-9622.677246,306.438199,1776.494261
1191.315581,-10066.800811,842.705048,1776.494261
1191.315893,-9696.697840,842.705048,1702.473667
1191.316204,-7846.182985,1149.143247,962.267725
1191.316515,-6957.935855,1225.752797,-370.102971
1191.316826,-5921.647536,1225.752797,-518.144159
1191.317138,-5625.565159,1302.362347,-1480.411884
1191.317449,-6439.791695,1149.143247,-2220.617826
1191.317760,-7402.059420,383.047749,-814.226536
1191.318071,-8734.430116,612.876398,-0.000000
1191.318383,-10066.800811,-306.438199,962.267725
1191.318694,-10584.944971,-919.314598,1850.514855
1191.319005,-9918.759623,-1302.362347,2146.597232
1191.319316,-9548.656652,-1072.533697,2072.576638
1191.319628,-8882.471304,-153.219100,1628.453072
1191.319939,-7846.182985,0.000000,962.267725
1191.320250,-8290.306550,0.000000,-0.000000
1191.320561,-8882.471304,536.266849,-148.041188
1191.320873,-9104.533087,995.924147,-74.020594
1191.321184,-9030.512492,1455.581446,-222.061783
1191.321495,-9400.615463,995.924147,296.082377
1191.321807,-9548.656652,612.876398,222.061783
1191.322118,-9548.656652,0.000000,962.267725
1191.322429,-9474.636058,-306.438199,1332.370696
1191.322740,-9178.553681,0.000000,2146.597232
1191.323052,-9474.636058,-306.438199,1998.556043
1191.323363,-9548.656652,-766.095498,1850.514855
1191.323674,-9178.553681,-1302.362347,1184.329507
1191.323985,-8734.430116,-1225.752797,962.267725
1191.324297,-7920.203579,-1302.362347,666.185348
1191.324608,-7550.100608,-1608.800546,296.082377
1191.324919,-7920.203579,-2068.457845,148.041188
1191.325230,-7624.121203,-2221.676944,148.041188
1191.325542,-8438.347739,-1608.800546,814.226536
1191.325853,-9252.574275,-919.314598,1406.391290
1191.326164,-9918.759623,0.000000,1332.370696
1191.326475,-10288.862594,229.828649,1850.514855
1191.326787,-9474.636058,536.266849,1998.556043
1191.327098,-9622.677246,766.095498,1332.370696
1191.327409,-8808.450710,995.924147,518.144159
1191.327721,-7698.141797,1455.581446,-296.082377
1191.328032,-7179.997637,1225.752797,-1258.350101
1191.328343,-6883.915261,995.924147,-1850.514855
1191.328655,-7550.100608,689.485948,-1850.514855
1191.328966,-8142.265362,306.438199,-1332.370696
1191.329277,-9400.615463,-383.047749,-592.164754
1191.329589,-10584.944971,-306.438199,666.185348
1191.329900,-10510.924376,-536.266849,1480.411884
1191.330211,-10362.883188,-536.266849,962.267725
1191.330523,-9918.759623,-536.266849,1332.370696
1191.330834,-9252.574275,0.000000,1036.288319
1191.331145,-9178.553681,612.876398,296.082377
1191.331456,-8808.450710,1762.019645,-0.000000
1191.331768,-8438.347739,689.485948,-74.020594
1191.332079,-8290.306550,1991.848295,-370.102971
1191.332390,-9400.615463,1608.800546,-888.247130
1191.332702,-8808.450710,1455.581446,-592.164754
1191.333013,-8734.430116,1302.362347,-370.102971
1191.333324,-8882.471304,995.924147,-0.000000
1191.333636,-8734.430116,229.828649,814.226536
1191.333947,-8882.471304,-229.828649,962.267725
1191.334258,-9326.594869,0.000000,1406.391290
1191.334570,-8956.491898,76.609550,1258.350101
1191.334881,-8290.306550,-306.438199,1110.308913
1191.335192,-7920.203579,-1225.752797,592.164754
1191.335504,-7698.141797,-1532.190996,888.247130
1191.335815,-7328.038826,-1991.848295,-0.000000
1191.336126,-7402.059420,-1455.581446,148.041188
1191.336438,-7772.162391,-995.924147,296.082377
1191.336749,-9104.533087,-2221.676944,740.205942
1191.337060,-9326.594869,-2221.676944,1702.473667
1191.337372,-10214.842000,-766.095498,1702.473667
1191.337683,-10436.903782,-153.219100,1998.556043
1191.337994,-10436.903782,306.438199,1776.494261
1191.338306,-10066.800811,306.438199,1628.453072
1191.338617,-8660.409521,76.609550,888.247130
1191.338928,-7476.080014,-153.219100,296.082377
1191.339240,-7031.956449,0.000000,-0.000000
1191.339551,-7179.997637,-153.219100,-666.185348
1191.339862,-8512.368333,-919.314598,-740.205942
1191.340174,-9030.512492,-689.485948,-666.185348
1191.340485,-9918.759623,-995.924147,-222.061783
1191.340796,-10140.821405,-1302.362347,666.185348
1191.341108,-10436.903782,-1685.410096,1184.329507
1191.341419,-10288.862594,-1991.848295,1628.453072
1191.341730,-9844.739029,-1608.800546,1480.411884
1191.342041,-9696.697840,-919.314598,1480.411884
1191.342353,-9252.574275,-536.266849,1036.288319
1191.342664,-9400.615463,0.000000,666.185348
1191.342975,-9252.574275,919.314598,-0.000000
1191.343287,-9104.533087,1302.362347,-0.000000
1191.343598,-9252.574275,1532.190996,-148.041188
1191.343909,-9252.574275,1378.971896,-74.020594
1191.344221,-8734.430116,1532.190996,-222.061783
1191.344532,-9400.615463,1149.143247,-0.000000
1191.344843,-8808.450710,919.314598,444.123565
1191.345155,-8956.491898,689.485948,444.123565
1191.345466,-8438.347739,306.438199,814.226536
1191.345777,-7920.203579,-229.828649,518.144159
1191.346089,-7402.059420,-536.266849,518.144159
1191.346400,-7994.224174,-995.924147,888.247130
1191.346711,-7624.121203,-1072.533697,814.226536
1191.347023,-7772.162391,-919.314598,-148.041188
1191.347334,-7179.997637,0.000000,296.082377
1191.347645,-7698.141797,153.219100,-0.000000
1191.347957,-8290.306550,459.657299,518.144159
1191.348268,-8808.450710,842.705048,592.164754
1191.348579,-9178.553681,766.095498,888.247130
1191.348891,-9178.553681,689.485948,962.267725
1191.349202,-9992.780217,1455.581446,666.185348
1191.349513,-9474.636058,2068.457845,888.247130
1191.349825,-8512.368333,766.095498,-0.000000
1191.350136,-8068.244768,229.828649,-0.000000
1191.350447,-7698.141797,0.000000,-74.020594
1191.350759,-8068.244768,-153.219100,-888.247130
1191.351070,-8586.388927,0.000000,-592.164754
1191.351381,-8808.450710,0.000000,-148.041188
1191.351693,-9622.677246,-995.924147,296.082377
1191.352004,-10066.800811,-1072.533697,962.267725
1191.352315,-10510.924376,-1455.581446,1110.308913
1191.352626,-9622.677246,-766.095498,1628.453072
1191.352938,-9326.594869,-612.876398,1332.370696
1191.353249,-10066.800811,-689.485948,1184.329507
1191.353560,-9474.636058,-536.266849,1184.329507
1191.353872,-10436.903782,-1149.143247,518.144159
1191.354183,-10066.800811,459.657299,444.123565
1191.354494,-9992.780217,612.876398,518.144159
1191.354806,-10214.842000,459.657299,-0.000000
1191.355117,-9326.594869,536.266849,296.082377
1191.355428,-8290.306550,766.095498,-0.000000
1191.355740,-7994.224174,0.000000,666.185348
1191.356051,-7920.203579,459.657299,444.123565
1191.356362,-7994.224174,459.657299,592.164754
1191.356674,-8068.244768,0.000000,1110.308913
1191.356985,-8660.409521,-612.876398,1480.411884
1191.357296,-8438.347739,-1762.019645,1554.432478
1191.357608,-8142.265362,-1915.238745,1258.350101
1191.357919,-7402.059420,-1455.581446,814.226536
1191.358230,-7402.059420,-842.705048,370.102971
1191.358542,-7846.182985,-1302.362347,148.041188
1191.358853,-8216.285956,-1072.533697,222.061783
1191.359164,-7920.203579,-459.657299,592.164754
1191.359476,-8512.368333,153.219100,814.226536
1191.359787,-9474.636058,1072.533697,962.267725
1191.360098,-9252.574275,1608.800546,1110.308913
1191.360410,-9104.533087,1532.190996,814.226536
1191.360721,-8216.285956,1302.362347,962.267725
1191.361032,-7846.182985,536.266849,-296.082377
1191.361344,-7550.100608,842.705048,-518.144159
1191.361655,-7402.059420,153.219100,-518.144159
1191.361966,-7846.182985,-383.047749,-740.205942
1191.362278,-8734.430116,-766.095498,-444.123565
1191.362589,-9622.677246,-766.095498,-444.123565
1191.362900,-10288.862594,-689.485948,-74.020594
1191.363211,-10288.862594,-842.705048,-0.000000
1191.363523,-10288.862594,153.219100,666.185348
1191.363834,-9844.739029,-459.657299,814.226536
1191.364145,-9770.718434,-919.314598,814.226536
1191.364457,-9844.739029,-689.485948,888.247130
1191.364768,-10140.821405,-612.876398,1036.288319
1191.365079,-10436.903782,76.609550,740.205942
1191.365391,-10066.800811,1072.533697,592.164754
1191.365702,-9770.718434,459.657299,222.061783
1191.366013,-9474.636058,1455.581446,666.185348
1191.366325,-8734.430116,1915.238745,-74.020594
1191.366636,-9030.512492,1225.752797,-518.144159
1191.366947,-8882.471304,995.924147,-0.000000
1191.367259,-8364.327145,689.485948,296.082377
1191.367570,-8882.471304,0.000000,666.185348
1191.367881,-7624.121203,-612.876398,1258.350101
1191.368193,-8068.244768,-766.095498,740.205942
1191.368504,-8586.388927,-1149.143247,1850.514855
1191.368815,-7846.182985,-1225.752797,1184.329507
1191.369127,-7698.141797,-1455.581446,666.185348
1191.369438,-8142.265362,-1455.581446,740.205942
1191.369749,-8586.388927,-919.314598,962.267725
1191.370061,-8512.368333,-229.828649,666.185348
1191.370372,-8364.327145,306.438199,814.226536
1191.370683,-8660.409521,1149.143247,1184.329507
1191.370995,-8512.368333,842.705048,1406.391290
1191.371306,-8586.388927,1072.533697,1554.432478
1191.371617,-8734.430116,1225.752797,1110.308913
1191.371929,-8142.265362,1072.533697,592.164754
1191.372240,-8364.327145,919.314598,148.041188
1191.372551,-7772.162391,689.485948,-222.061783
1191.372863,-7402.059420,459.657299,-1110.308913
1191.373174,-7920.203579,459.657299,-518.144159
1191.373485,-8586.388927,842.705048,-0.000000
1191.373796,-9696.697840,229.828649,148.041188
1191.374108,-10362.883188,0.000000,666.185348
1191.374419,-10066.800811,536.266849,666.185348
1191.374730,-9474.636058,76.609550,740.205942
1191.375042,-9474.636058,-306.438199,592.164754
1191.375353,-8734.430116,-842.705048,370.102971
1191.375664,-8956.491898,-306.438199,370.102971
1191.375976,-9918.759623,0.000000,666.185348
1191.376287,-10140.821405,76.609550,888.247130
1191.376598,-10214.842000,0.000000,740.205942
1191.376910,-10214.842000,306.438199,518.144159
1191.377221,-9474.636058,459.657299,222.061783
1191.377532,-8586.388927,1072.533697,-222.061783
1191.377844,-8734.430116,612.876398,-74.020594
1191.378155,-7920.203579,383.047749,740.205942
1191.378466,-8142.265362,383.047749,444.123565
1191.378778,-8364.327145,0.000000,1036.288319
1191.379089,-8512.368333,-153.219100,962.267725
1191.379400,-8438.347739,-1072.533697,1184.329507
1191.379712,-7994.224174,-1762.019645,1036.288319
1191.380023,-7105.977043,-1608.800546,962.267725
1191.380334,-7698.141797,-1378.971896,-0.000000
1191.380646,-8586.388927,-1685.410096,592.164754
1191.380957,-8586.388927,-1532.190996,148.041188
1191.381268,-8808.450710,-1225.752797,518.144159
1191.381580,-9400.615463,-612.876398,370.102971
1191.381891,-9622.677246,0.000000,814.226536
1191.382202,-9992.780217,76.609550,888.247130
1191.382514,-9474.636058,306.438199,1554.432478
1191.382825,-8586.388927,0.000000,1258.350101
1191.383136,-8364.327145,0.000000,518.144159
1191.383448,-8068.244768,0.000000,222.061783
1191.383759,-7476.080014,-306.438199,-370.102971
1191.384070,-7698.141797,-306.438199,-888.247130
1191.384381,-8364.327145,0.000000,-518.144159
1191.384693,-9622.677246,0.000000,-518.144159
1191.385004,-10362.883188,-76.609550,-0.000000
1191.385315,-10362.883188,-612.876398,592.164754
1191.385627,-10658.965565,-229.828649,370.102971
1191.385938,-9770.718434,-306.438199,666.185348
1191.386249,-9474.636058,-459.657299,888.247130
1191.386561,-8956.491898,0.000000,814.226536
1191.386872,-9030.512492,0.000000,592.164754
1191.387183,-9252.574275,536.266849,740.205942
1191.387495,-9696.697840,766.095498,518.144159
1191.387806,-9474.636058,1378.971896,814.226536
1191.388117,-10140.821405,1685.410096,222.061783
1191.388429,-9474.636058,1685.410096,-0.000000
1191.388740,-8956.491898,1915.238745,-296.082377
1191.389051,-8734.430116,1608.800546,-0.000000
1191.389363,-8068.244768,1225.752797,370.102971
1191.389674,-7846.182985,306.438199,444.123565
1191.389985,-7402.059420,76.609550,1332.370696
1191.390297,-8068.244768,-842.705048,1184.329507
1191.390608,-7772.162391,-1762.019645,1332.370696
1191.390919,-7772.162391,-1378.971896,1480.411884
1191.391231,-7550.100608,-1302.362347,740.205942
1191.391542,-7624.121203,-1455.581446,666.185348
1191.391853,-8216.285956,-766.095498,962.267725
1191.392165,-8512.368333,229.828649,962.267725
1191.392476,-8734.430116,306.438199,814.226536
1191.392787,-8586.388927,766.095498,1184.329507
1191.393099,-8734.430116,612.876398,1036.288319
1191.393410,-9030.512492,1378.971896,1036.288319
1191.393721,-9178.553681,995.924147,888.247130
1191.394033,-8734.430116,689.485948,740.205942
1191.394344,-8290.306550,536.266849,148.041188
1191.394655,-8142.265362,153.219100,-444.123565
1191.394966,-8068.244768,919.314598,-444.123565
1191.395278,-8882.471304,-995.924147,-666.185348
1191.395589,-8882.471304,-612.876398,222.061783
1191.395900,-9770.718434,-995.924147,222.061783
1191.396212,-10658.965565,-1225.752797,666.185348
1191.396523,-10362.883188,-766.095498,1110.308913
1191.396834,-9844.739029,-995.924147,888.247130
1191.397146,-9400.615463,-995.924147,1332.370696
1191.397457,-9252.574275,-766.095498,1036.288319
1191.397768,-9326.594869,-536.266849,444.123565
1191.398080,-9474.636058,-919.314598,592.164754
1191.398391,-9548.656652,-536.266849,666.185348
1191.398702,-9918.759623,-153.219100,444.123565
1191.399014,-10214.842000,229.828649,296.082377
1191.399325,-10584.944971,766.095498,740.205942
1191.399636,-9696.697840,306.438199,444.123565
1191.399948,-9474.636058,766.095498,518.144159
1191.400259,-8956.491898,0.000000,222.061783
1191.400570,-7476.080014,229.828649,444.123565
1191.400882,-7550.100608,153.219100,444.123565
1191.401193,-7846.182985,0.000000,814.226536
1191.401504,-7772.162391,-919.314598,592.164754
1191.401816,-7624.121203,-1225.752797,370.102971
1191.402127,-7994.224174,-1378.971896,888.247130
1191.402438,-7994.224174,-1378.971896,444.123565
1191.402750,-8734.430116,-1608.800546,370.102971
1191.403061,-9030.512492,-1378.971896,518.144159
1191.403372,-8956.491898,-1149.143247,740.205942
1191.403684,-9326.594869,-612.876398,592.164754
1191.403995,-9326.594869,459.657299,518.144159
1191.404306,-9400.615463,1762.019645,370.102971
1191.404618,-8956.491898,612.876398,888.247130
1191.404929,-8512.368333,766.095498,1036.288319
1191.405240,-7846.182985,383.047749,296.082377
1191.405551,-7772.162391,76.609550,-0.000000
1191.405863,-7698.141797,0.000000,-444.123565
1191.406174,-7698.141797,383.047749,-518.144159
1191.406485,-8438.347739,459.657299,-222.061783
1191.406797,-9104.533087,-536.266849,-296.082377
1191.407108,-9104.533087,0.000000,296.082377
1191.407419,-9844.739029,0.000000,-0.000000
1191.407731,-9622.677246,-383.047749,888.247130
1191.408042,-9548.656652,-689.485948,814.226536
1191.408353,-9474.636058,-842.705048,1036.288319
1191.408665,-9474.636058,-842.705048,1258.350101
1191.408976,-9622.677246,-612.876398,740.205942
1191.409287,-9770.718434,0.000000,962.267725
1191.409599,-10140.821405,306.438199,814.226536
1191.409910,-9548.656652,1149.143247,592.164754
1191.410221,-9770.718434,995.924147,518.144159
1191.410533,-9918.759623,995.924147,666.185348
1191.410844,-9104.533087,1532.190996,518.144159
1191.411155,-8956.491898,1072.533697,444.123565
1191.411467,-8068.244768,1072.533697,592.164754
1191.411778,-7328.038826,842.705048,296.082377
1191.412089,-7994.224174,0.000000,592.164754
1191.412401,-7846.182985,-306.438199,962.267725
1191.412712,-8290.306550,-1455.581446,740.205942
1191.413023,-7550.100608,-1455.581446,962.267725
1191.413335,-8068.244768,-1838.629195,1036.288319
1191.413646,-8438.347739,-2221.676944,962.267725
1191.413957,-8734.430116,-1608.800546,1036.288319
1191.414269,-9030.512492,-995.924147,962.267725
1191.414580,-8438.347739,-306.438199,1554.432478
1191.414891,-8734.430116,0.000000,888.247130
1191.415203,-9030.512492,919.314598,814.226536
1191.415514,-8734.430116,1455.581446,962.267725
1191.415825,-8660.409521,1302.362347,518.144159
1191.416136,-8364.327145,919.314598,592.164754
1191.416448,-7772.162391,536.266849,-370.102971
1191.416759,-7920.203579,536.266849,-148.041188
1191.417070,-7920.203579,-153.219100,-518.144159
1191.417382,-7994.224174,0.000000,-518.144159
1191.417693,-9030.512492,-229.828649,-0.000000
1191.418004,-9400.615463,-612.876398,-0.000000
1191.418316,-9918.759623,-612.876398,296.082377
1191.418627,-9844.739029,153.219100,444.123565
1191.418938,-9622.677246,229.828649,296.082377
1191.419250,-9844.739029,-153.219100,148.041188
1191.419561,-8808.450710,-612.876398,592.164754
1191.419872,-9178.553681,-689.485948,148.041188
1191.420184,-9400.615463,-689.485948,296.082377
1191.420495,-9844.739029,-383.047749,370.102971
1191.420806,-10362.883188,-306.438199,296.082377
1191.421118,-10288.862594,-383.047749,148.041188
1191.421429,-10066.800811,0.000000,-74.020594
1191.421740,-9548.656652,0.000000,592.164754
1191.422052,-9622.677246,536.266849,370.102971
1191.422363,-9326.594869,153.219100,666.185348
1191.422674,-8290.306550,306.438199,518.144159
1191.422986,-8216.285956,-153.219100,444.123565
1191.423297,-7772.162391,-153.219100,444.123565
1191.423608,-7624.121203,76.609550,148.041188
1191.423920,-8142.265362,-842.705048,-0.000000
1191.424231,-8068.244768,-1532.190996,444.123565
1191.424542,-8142.265362,-1838.629195,444.123565
1191.424854,-8586.388927,-1762.019645,592.164754
1191.425165,-8808.450710,-1838.629195,814.226536
1191.425476,-9252.574275,-1762.019645,1184.329507
1191.425788,-9178.553681,-1225.752797,1036.288319
1191.426099,-9104.533087,-153.219100,962.267725
1191.426410,-9104.533087,689.485948,962.267725
1191.426721,-9474.636058,1149.143247,222.061783
1191.427033,-8586.388927,919.314598,962.267725
1191.427344,-7920.203579,459.657299,814.226536
1191.427655,-7994.224174,76.609550,444.123565
1191.427967,-7772.162391,76.609550,222.061783
1191.428278,-7254.018232,229.828649,-444.123565
1191.428589,-7846.182985,383.047749,-592.164754
1191.428901,-8364.327145,0.000000,-74.020594
1191.429212,-9770.718434,612.876398,-296.082377
1191.429524,-10066.800811,153.219100,222.061783
1191.429835,-9918.759623,229.828649,592.164754
1191.430147,-9548.656652,229.828649,814.226536
1191.430458,-9474.636058,-229.828649,814.226536
1191.430770,-8956.491898,459.657299,814.226536
1191.431081,-8364.327145,-689.485948,1036.288319
1191.431393,-9400.615463,0.000000,444.123565
1191.431704,-9548.656652,76.609550,814.226536
1191.432016,-10066.800811,995.924147,1110.308913
1191.432327,-10362.883188,1378.971896,666.185348
1191.432639,-9992.780217,1302.362347,666.185348
1191.432950,-9474.636058,1685.410096,444.123565
1191.433262,-9400.615463,1991.848295,74.020594
1191.433573,-8512.368333,1455.581446,296.082377
1191.433885,-7772.162391,2145.067394,444.123565
1191.434196,-7550.100608,1072.533697,296.082377
1191.434508,-8216.285956,459.657299,296.082377
1191.434819,-8438.347739,-919.314598,888.247130
1191.435131,-7994.224174,-995.924147,814.226536
1191.435442,-8068.244768,-1455.581446,962.267725
1191.435754,-8882.471304,-1991.848295,740.205942
1191.436066,-8512.368333,-2298.286494,888.247130
1191.436377,-9104.533087,-1762.019645,740.205942
1191.436689,-8808.450710,-306.438199,1258.350101
1191.437000,-8734.430116,0.000000,814.226536
1191.437312,-9030.512492,612.876398,370.102971
1191.437623,-9030.512492,1149.143247,666.185348
1191.437935,-8808.450710,995.924147,370.102971
1191.438246,-8734.430116,1685.410096,296.082377
1191.438558,-8290.306550,1072.533697,148.041188
1191.438869,-8290.306550,306.438199,-222.061783
1191.439181,-7994.224174,-229.828649,-222.061783
1191.439492,-7994.224174,-306.438199,-148.041188
1191.439804,-8734.430116,-459.657299,-0.000000
1191.440115,-9030.512492,-766.095498,-0.000000
1191.440427,-9696.697840,-1149.143247,222.061783
1191.440738,-9770.718434,-995.924147,296.082377
1191.441050,-9252.574275,-306.438199,888.247130
1191.441361,-9252.574275,-536.266849,222.061783
1191.441673,-9400.615463,-689.485948,444.123565
1191.441984,-8956.491898,-229.828649,296.082377
1191.442296,-9252.574275,0.000000,296.082377
1191.442607,-9844.739029,0.000000,592.164754
1191.442919,-9992.780217,229.828649,370.102971
1191.443231,-9918.759623,1072.533697,592.164754
1191.443542,-10510.924376,-536.266849,592.164754
1191.443854,-9548.656652,459.657299,888.247130
1191.444165,-9326.594869,459.657299,222.061783
1191.444477,-9178.553681,536.266849,370.102971
1191.444788,-8660.409521,306.438199,444.123565
1191.445100,-8364.327145,0.000000,370.102971
1191.445411,-8142.265362,76.609550,592.164754
1191.445723,-8438.347739,-153.219100,518.144159
1191.446034,-8290.306550,-842.705048,592.164754
1191.446346,-7846.182985,-919.314598,666.185348
1191.446657,-7846.182985,-842.705048,1110.308913
1191.446969,-8142.265362,-995.924147,814.226536
1191.447280,-8438.347739,-1225.752797,1110.308913
1191.447592,-8438.347739,-536.266849,1036.288319
1191.447903,-8586.388927,0.000000,740.205942
1191.448215,-8808.450710,229.828649,666.185348
1191.448526,-9400.615463,919.314598,518.144159
1191.448838,-9252.574275,1532.190996,592.164754
1191.449149,-9252.574275,1378.971896,888.247130
1191.449461,-8808.450710,1072.533697,962.267725
1191.449772,-7624.121203,612.876398,740.205942
1191.450084,-7550.100608,153.219100,148.041188
1191.450395,-7550.100608,0.000000,-592.164754
1191.450707,-7698.141797,-612.876398,-740.205942
1191.451019,-8068.244768,-536.266849,-0.000000
1191.451330,-9030.512492,-153.219100,-0.000000
1191.451642,-10140.821405,-689.485948,370.102971
1191.451953,-10288.862594,0.000000,814.226536
1191.452265,-9770.718434,-459.657299,740.205942
1191.452576,-8882.471304,-383.047749,1036.288319
1191.452888,-9844.739029,-766.095498,888.247130
1191.453199,-9326.594869,0.000000,592.164754
1191.453511,-8882.471304,383.047749,814.226536
1191.453822,-9474.636058,612.876398,444.123565
1191.454134,-10066.800811,612.876398,740.205942
1191.454445,-9844.739029,536.266849,740.205942
1191.454757,-9844.739029,536.266849,370.102971
1191.455068,-9178.553681,1762.019645,592.164754
1191.455380,-9030.512492,1149.143247,148.041188
1191.455691,-9178.553681,1302.362347,296.082377
1191.456003,-8586.388927,383.047749,444.123565
1191.456314,-7846.182985,0.000000,148.041188
1191.456626,-7994.224174,0.000000,592.164754
1191.456937,-8586.388927,-842.705048,1110.308913
1191.457249,-8956.491898,-1532.190996,888.247130
1191.457560,-8216.285956,-1532.190996,1406.391290
1191.457872,-7698.141797,-1838.629195,1036.288319
1191.458184,-7994.224174,-2068.457845,592.164754
1191.458495,-8290.306550,-1608.800546,814.226536
1191.458807,-9104.533087,-842.705048,592.164754
1191.459118,-8734.430116,-153.219100,888.247130
1191.459430,-9252.574275,612.876398,444.123565
1191.459741,-9622.677246,995.924147,814.226536
1191.460053,-9474.636058,1149.143247,296.082377
1191.460364,-8808.450710,919.314598,888.247130
1191.460676,-8068.244768,766.095498,370.102971
1191.460987,-7476.080014,1149.143247,-0.000000
1191.461299,-7476.080014,459.657299,-296.082377
1191.461610,-7402.059420,-153.219100,-592.164754
1191.461922,-7846.182985,-459.657299,-222.061783
1191.462233,-8216.285956,-766.095498,-0.000000
1191.462545,-8808.450710,-1225.752797,222.061783
1191.462856,-9844.739029,-1149.143247,370.102971
1191.463168,-9474.636058,-306.438199,666.185348
1191.463479,-9548.656652,-612.876398,888.247130
1191.463791,-9696.697840,-919.314598,814.226536
1191.464102,-9844.739029,-612.876398,1036.288319
1191.464414,-9474.636058,-459.657299,370.102971
1191.464725,-9474.636058,-153.219100,592.164754
1191.465037,-9622.677246,0.000000,-0.000000
1191.465348,-9326.594869,0.000000,518.144159
1191.465660,-9622.677246,919.314598,962.267725
1191.465972,-9918.759623,1072.533697,592.164754
1191.466283,-9992.780217,919.314598,666.185348
1191.466595,-9770.718434,919.314598,518.144159
1191.466906,-9326.594869,995.924147,814.226536
1191.467218,-8586.388927,842.705048,296.082377
1191.467529,-7402.059420,383.047749,222.061783
1191.467841,-7772.162391,229.828649,-74.020594
1191.468152,-7550.100608,-612.876398,296.082377
1191.468464,-7994.224174,-1608.800546,666.185348
1191.468775,-8216.285956,-1991.848295,1258.350101
1191.469087,-8808.450710,-2145.067394,1258.350101
1191.469398,-9252.574275,-1991.848295,888.247130
1191.469710,-8882.471304,-1762.019645,1184.329507
1191.470021,-8734.430116,-995.924147,1036.288319
1191.470333,-8364.327145,-766.095498,1184.329507
1191.470644,-9326.594869,153.219100,148.041188
1191.470956,-9326.594869,919.314598,814.226536
1191.471267,-9104.533087,1149.143247,1036.288319
1191.471579,-8808.450710,919.314598,888.247130
1191.471890,-7179.997637,459.657299,518.144159
1191.472202,-6809.894666,153.219100,-222.061783
1191.472513,-6883.915261,306.438199,-740.205942
1191.472825,-7550.100608,229.828649,-1036.288319
1191.473136,-8586.388927,229.828649,-222.061783
1191.473448,-9474.636058,-153.219100,-0.000000
1191.473760,-10214.842000,-153.219100,444.123565
1191.474071,-10288.862594,-306.438199,814.226536
1191.474383,-9918.759623,-383.047749,888.247130
1191.474694,-9400.615463,0.000000,888.247130
1191.475006,-8734.430116,-1532.190996,1332.370696
1191.475317,-9104.533087,-766.095498,1036.288319
1191.475629,-9104.533087,-306.438199,962.267725
1191.475940,-9474.636058,-306.438199,888.247130
1191.476252,-9918.759623,0.000000,814.226536
1191.476563,-9918.759623,229.828649,666.185348
1191.476875,-9844.739029,459.657299,518.144159
1191.477186,-9548.656652,1072.533697,740.205942
1191.477498,-9992.780217,153.219100,370.102971
1191.477809,-9178.553681,1378.971896,148.041188
1191.478121,-8882.471304,1532.190996,222.061783
1191.478432,-8438.347739,919.314598,370.102971
1191.478744,-7624.121203,459.657299,740.205942
1191.479055,-8068.244768,-306.438199,740.205942
1191.479367,-7698.141797,-766.095498,962.267725
1191.479678,-7550.100608,-1225.752797,666.185348
1191.479990,-7772.162391,-1608.800546,296.082377
1191.480301,-8438.347739,-1838.629195,592.164754
1191.480613,-8734.430116,-1991.848295,666.185348
1191.480925,-8808.450710,-1378.971896,592.164754
1191.481236,-9326.594869,-229.828649,814.226536
1191.481548,-9474.636058,229.828649,888.247130
1191.481859,-9622.677246,536.266849,592.164754
1191.482171,-9696.697840,383.047749,444.123565
1191.482482,-8882.471304,995.924147,962.267725
1191.482794,-8142.265362,842.705048,222.061783
1191.483105,-7476.080014,612.876398,-0.000000
1191.483417,-7550.100608,-229.828649,-148.041188
1191.483728,-7402.059420,-459.657299,-444.123565
1191.484040,-8068.244768,-459.657299,-592.164754
1191.484351,-8808.450710,-1072.533697,-296.082377
1191.484663,-8808.450710,-612.876398,148.041188
1191.484974,-9696.697840,-689.485948,148.041188
1191.485286,-9622.677246,-459.657299,444.123565
1191.485597,-9474.636058,-689.485948,592.164754
1191.485909,-9400.615463,-383.047749,666.185348
1191.486220,-9400.615463,-229.828649,962.267725
1191.486532,-8882.471304,0.000000,370.102971
1191.486843,-9474.636058,-153.219100,518.144159
1191.487155,-9622.677246,383.047749,518.144159
1191.487466,-9918.759623,536.266849,444.123565
1191.487778,-9844.739029,689.485948,-74.020594
1191.488089,-10436.903782,612.876398,370.102971
1191.488401,-9992.780217,612.876398,666.185348
1191.488713,-9622.677246,612.876398,-0.000000
1191.489024,-9104.533087,919.314598,740.205942
1191.489336,-8734.430116,536.266849,518.144159
1191.489647,-7624.121203,459.657299,666.185348
1191.489959,-8216.285956,766.095498,888.247130
1191.490270,-8290.306550,-153.219100,1036.288319
1191.490582,-7920.203579,-536.266849,592.164754
1191.490893,-7994.224174,-766.095498,888.247130
1191.491205,-7994.224174,-1302.362347,962.267725
1191.491516,-8512.368333,-1072.533697,814.226536
1191.491828,-8438.347739,-1149.143247,740.205942
1191.492139,-8512.368333,-689.485948,888.247130
1191.492451,-8364.327145,-1225.752797,1110.308913
1191.492762,-9030.512492,76.609550,814.226536
1191.493074,-9548.656652,919.314598,740.205942
1191.493385,-9548.656652,1378.971896,740.205942
1191.493697,-9474.636058,1302.362347,888.247130
1191.494008,-7920.203579,1455.581446,592.164754
1191.494320,-7105.977043,842.705048,-0.000000
1191.494631,-7328.038826,229.828649,-74.020594
1191.494943,-7254.018232,-306.438199,-74.020594
1191.495254,-7846.182985,-153.219100,-296.082377
1191.495566,-8512.368333,-306.438199,-74.020594
1191.495878,-9400.615463,-306.438199,296.082377
1191.496189,-9992.780217,-995.924147,592.164754
1191.496501,-9770.718434,-536.266849,1110.308913
1191.496812,-9622.677246,-1762.019645,1258.350101
1191.497124,-9326.594869,-842.705048,1110.308913
1191.497435,-9326.594869,-229.828649,666.185348
1191.497747,-9252.574275,-153.219100,518.144159
1191.498058,-9326.594869,-383.047749,592.164754
1191.498370,-9400.615463,383.047749,592.164754
1191.498681,-9622.677246,612.876398,518.144159
1191.498993,-9918.759623,536.266849,-0.000000
1191.499304,-10140.821405,383.047749,592.164754
1191.499616,-9548.656652,1072.533697,592.164754
1191.499927,-9400.615463,229.828649,148.041188
1191.500239,-9178.553681,536.266849,592.164754
1191.500550,-8216.285956,153.219100,444.123565
1191.500862,-8142.265362,76.609550,296.082377
1191.501173,-8216.285956,0.000000,296.082377
1191.501485,-8290.306550,-612.876398,370.102971
1191.501796,-8216.285956,-612.876398,296.082377
1191.502108,-7846.182985,-1378.971896,740.205942
1191.502419,-8438.347739,-1762.019645,444.123565
1191.502731,-8586.388927,-1685.410096,592.164754
1191.503042,-8882.471304,-1149.143247,592.164754
1191.503354,-9178.553681,-536.266849,666.185348
1191.503666,-9400.615463,76.609550,592.164754
1191.503977,-9400.615463,689.485948,518.144159
1191.504289,-9918.759623,1378.971896,814.226536
1191.504600,-9178.553681,995.924147,962.267725
1191.504912,-9030.512492,1072.533697,518.144159
1191.505223,-8068.244768,1302.362347,-0.000000
1191.505535,-7920.203579,1149.143247,-444.123565
1191.505846,-7846.182985,459.657299,-222.061783
1191.506158,-7994.224174,459.657299,-888.247130
1191.506469,-8068.244768,-153.219100,-666.185348
1191.506781,-8068.244768,153.219100,-0.000000
1191.507092,-9030.512492,0.000000,740.205942
1191.507404,-9622.677246,-383.047749,518.144159
1191.507715,-9548.656652,0.000000,814.226536
1191.508027,-9326.594869,-153.219100,814.226536
1191.508338,-8956.491898,-229.828649,962.267725
1191.508650,-9104.533087,-383.047749,592.164754
1191.508961,-8882.471304,0.000000,370.102971
1191.509273,-9474.636058,0.000000,-0.000000
1191.509584,-9918.759623,383.047749,296.082377
1191.509896,-9918.759623,306.438199,888.247130
1191.510207,-10140.821405,306.438199,592.164754
1191.510519,-9770.718434,689.485948,740.205942
1191.510830,-9030.512492,995.924147,666.185348
1191.511142,-8734.430116,1072.533697,592.164754
1191.511454,-8068.244768,1072.533697,592.164754
1191.511765,-7846.182985,689.485948,592.164754
1191.512077,-8512.368333,383.047749,444.123565
1191.512388,-8364.327145,306.438199,888.247130
1191.512700,-8364.327145,0.000000,592.164754
1191.513011,-8438.347739,-689.485948,962.267725
1191.513323,-8290.306550,-919.314598,888.247130
1191.513634,-8512.368333,-1072.533697,370.102971
1191.513946,-8660.409521,-919.314598,296.082377
1191.514257,-8734.430116,-689.485948,1184.329507
1191.514569,-8808.450710,-766.095498,1184.329507
1191.514880,-8808.450710,-612.876398,1184.329507
1191.515192,-8882.471304,76.609550,1406.391290
1191.515503,-9326.594869,153.219100,814.226536
1191.515815,-9030.512492,459.657299,1036.288319
1191.516126,-9252.574275,383.047749,370.102971
1191.516438,-8290.306550,766.095498,370.102971
1191.516749,-7920.203579,0.000000,148.041188
1191.517061,-7920.203579,-612.876398,-148.041188
1191.517372,-7994.224174,-995.924147,-296.082377
1191.517684,-8512.368333,-1072.533697,-0.000000
1191.517995,-9178.553681,-766.095498,-74.020594
1191.518307,-9400.615463,-536.266849,-0.000000
1191.518619,-9104.533087,-536.266849,518.144159
1191.518930,-9252.574275,-612.876398,592.164754
1191.519242,-9104.533087,-612.876398,592.164754
1191.519553,-9400.615463,-536.266849,740.205942
1191.519865,-9622.677246,-459.657299,740.205942
1191.520176,-9622.677246,-306.438199,666.185348
1191.520488,-9992.780217,-153.219100,592.164754
1191.520799,-9844.739029,0.000000,296.082377
1191.521111,-9548.656652,459.657299,370.102971
1191.521422,-9918.759623,536.266849,-0.000000
1191.521734,-9844.739029,1302.362347,-0.000000
1191.522045,-9252.574275,919.314598,148.041188
1191.522357,-9104.533087,689.485948,592.164754
1191.522668,-8586.388927,612.876398,444.123565
1191.522980,-8068.244768,842.705048,296.082377
1191.523291,-7920.203579,153.219100,222.061783
1191.523603,-8586.388927,-689.485948,222.061783
1191.523914,-8586.388927,-1302.362347,518.144159
1191.524226,-8808.450710,-766.095498,518.144159
1191.524537,-8438.347739,-1302.362347,740.205942
1191.524849,-8364.327145,-1302.362347,814.226536
1191.525160,-8438.347739,-995.924147,814.226536
1191.525472,-8216.285956,-612.876398,888.247130
1191.525783,-8586.388927,-306.438199,962.267725
1191.526095,-9252.574275,76.609550,666.185348
1191.526407,-9400.615463,995.924147,1258.350101
1191.526718,-9474.636058,1149.143247,1036.288319
1191.527030,-9400.615463,1302.362347,592.164754
1191.527341,-8438.347739,919.314598,592.164754
1191.527653,-7846.182985,536.266849,-0.000000
1191.527964,-7476.080014,612.876398,-0.000000
1191.528276,-7476.080014,153.219100,-518.144159
1191.528587,-7698.141797,-153.219100,-74.020594
1191.528899,-8438.347739,76.609550,222.061783
1191.529210,-9030.512492,-459.657299,370.102971
1191.529522,-9474.636058,-459.657299,666.185348
1191.529833,-9178.553681,0.000000,962.267725
1191.530145,-8956.491898,-306.438199,1036.288319
1191.530456,-8956.491898,-536.266849,814.226536
1191.530768,-9178.553681,-689.485948,1036.288319
1191.531080,-9400.615463,-1762.019645,518.144159
1191.531391,-9400.615463,-383.047749,296.082377
1191.531703,-9992.780217,0.000000,740.205942
1191.532014,-9918.759623,-153.219100,1036.288319
1191.532326,-10214.842000,76.609550,888.247130
1191.532637,-10066.800811,459.657299,666.185348
1191.532949,-9326.594869,919.314598,740.205942
1191.533260,-9252.574275,1149.143247,74.020594
1191.533572,-8364.327145,1302.362347,1036.288319
1191.533884,-8216.285956,766.095498,222.061783
1191.534195,-8438.347739,0.000000,222.061783
1191.534507,-8290.306550,306.438199,444.123565
1191.534818,-8364.327145,0.000000,444.123565
1191.535130,-8438.347739,-459.657299,518.144159
1191.535441,-8660.409521,-1685.410096,814.226536
1191.535753,-7846.182985,-1915.238745,814.226536
1191.536064,-8216.285956,-1762.019645,592.164754
1191.536376,-8660.409521,-1225.752797,814.226536
1191.536688,-8734.430116,-1149.143247,740.205942
1191.536999,-8956.491898,-689.485948,740.205942
1191.537311,-9030.512492,0.000000,740.205942
1191.537622,-9252.574275,612.876398,962.267725
1191.537934,-8808.450710,689.485948,814.226536
1191.538245,-8956.491898,766.095498,518.144159
1191.538557,-8142.265362,383.047749,148.041188
1191.538868,-7994.224174,76.609550,-0.000000
1191.539180,-7920.203579,0.000000,-74.020594
1191.539492,-7994.224174,0.000000,-592.164754
1191.539803,-8438.347739,-612.876398,-296.082377
1191.540115,-8660.409521,-689.485948,-296.082377
1191.540426,-8956.491898,-383.047749,-0.000000
1191.540738,-9696.697840,-383.047749,148.041188
1191.541049,-9400.615463,-459.657299,222.061783
1191.541361,-9474.636058,-995.924147,518.144159
1191.541673,-9474.636058,-919.314598,814.226536
1191.541984,-9474.636058,-995.924147,740.205942
1191.542296,-9918.759623,-689.485948,592.164754
1191.542607,-10288.862594,-612.876398,666.185348
1191.542919,-9992.780217,0.000000,814.226536
1191.543230,-10140.821405,-459.657299,222.061783
1191.543542,-9918.759623,229.828649,370.102971
1191.543853,-9622.677246,766.095498,592.164754
1191.544165,-9326.594869,1225.752797,518.144159
1191.544477,-9178.553681,1149.143247,296.082377
1191.544788,-8512.368333,1072.533697,518.144159
1191.545100,-7994.224174,842.705048,518.144159
1191.545411,-7846.182985,842.705048,296.082377
1191.545723,-7846.182985,-536.266849,444.123565
1191.546034,-8216.285956,-766.095498,444.123565
1191.546346,-8364.327145,-1072.533697,888.247130
1191.546657,-8512.368333,-1072.533697,1332.370696
1191.546969,-8734.430116,-1455.581446,1036.288319
1191.547281,-8586.388927,-842.705048,1036.288319
1191.547592,-8438.347739,-689.485948,814.226536
1191.547904,-8438.347739,306.438199,740.205942
1191.548215,-8660.409521,306.438199,740.205942
1191.548527,-9178.553681,995.924147,814.226536
1191.548838,-9474.636058,1149.143247,1036.288319
1191.549150,-9252.574275,1072.533697,1036.288319
1191.549461,-9104.533087,1225.752797,814.226536
1191.549773,-7994.224174,919.314598,296.082377
1191.550085,-8142.265362,536.266849,-296.082377
1191.550396,-7624.121203,536.266849,-592.164754
1191.550708,-7772.162391,383.047749,-222.061783
1191.551019,-8512.368333,0.000000,-222.061783
1191.551331,-8660.409521,-229.828649,148.041188
1191.551642,-9474.636058,-306.438199,444.123565
1191.551954,-9400.615463,-612.876398,888.247130
1191.552265,-9104.533087,0.000000,888.247130
1191.552577,-8734.430116,-459.657299,1110.308913
1191.552889,-9104.533087,-842.705048,296.082377
1191.553200,-9104.533087,-306.438199,444.123565
1191.553512,-9252.574275,-383.047749,370.102971
1191.553823,-9770.718434,0.000000,222.061783
1191.554135,-10140.821405,0.000000,518.144159
1191.554446,-10066.800811,612.876398,592.164754
1191.554758,-10288.862594,536.266849,740.205942
1191.555069,-10288.862594,383.047749,444.123565
1191.555381,-9326.594869,1072.533697,-0.000000
1191.555693,-8882.471304,612.876398,-0.000000
1191.556004,-7920.203579,536.266849,296.082377
1191.556316,-7994.224174,76.609550,-296.082377
1191.556627,-8142.265362,-153.219100,222.061783
1191.556939,-8512.368333,-306.438199,148.041188
1191.557250,-8660.409521,-842.705048,296.082377
1191.557562,-8660.409521,-766.095498,666.185348
1191.557873,-8882.471304,-2451.505594,962.267725
1191.558185,-8438.347739,-1915.238745,1184.329507
1191.558497,-8660.409521,-1685.410096,592.164754
1191.558808,-8956.491898,-1149.143247,740.205942
1191.559120,-8734.430116,-459.657299,518.144159
1191.559431,-9030.512492,-229.828649,518.144159
1191.559743,-9622.677246,766.095498,1036.288319
1191.560054,-9770.718434,612.876398,1406.391290
1191.560366,-9696.697840,1072.533697,444.123565
1191.560677,-8882.471304,689.485948,740.205942
1191.560989,-8216.285956,536.266849,-0.000000
1191.561301,-7772.162391,306.438199,-0.000000
1191.561612,-7254.018232,76.609550,-370.102971
1191.561924,-7624.121203,0.000000,-814.226536
1191.562235,-8142.265362,459.657299,-0.000000
1191.562547,-8956.491898,306.438199,-222.061783
1191.562858,-10140.821405,-229.828649,-0.000000
1191.563170,-10066.800811,-459.657299,814.226536
1191.563481,-9400.615463,-766.095498,1036.288319
1191.563793,-9252.574275,-612.876398,814.226536
1191.564105,-9104.533087,-459.657299,740.205942
1191.564416,-8734.430116,-842.705048,-0.000000
1191.564728,-9326.594869,-766.095498,666.185348
1191.565039,-9622.677246,-842.705048,592.164754
1191.565351,-9918.759623,0.000000,370.102971
1191.565662,-9844.739029,689.485948,592.164754
1191.565974,-9622.677246,1302.362347,740.205942
1191.566285,-9326.594869,1225.752797,370.102971
1191.566597,-9104.533087,1149.143247,370.102971
1191.566909,-8660.409521,1455.581446,370.102971
1191.567220,-8364.327145,383.047749,-0.000000
1191.567532,-8290.306550,1072.533697,444.123565
1191.567843,-8290.306550,383.047749,370.102971
1191.568155,-7772.162391,-459.657299,444.123565
1191.568466,-7994.224174,-766.095498,592.164754
1191.568778,-7772.162391,-995.924147,888.247130
1191.569089,-8142.265362,-1072.533697,1036.288319
1191.569401,-8808.450710,-1378.971896,814.226536
1191.569713,-8734.430116,-1072.533697,1184.329507
1191.570024,-9104.533087,76.609550,1110.308913
1191.570336,-8956.491898,383.047749,1258.350101
1191.570647,-9178.553681,306.438199,814.226536
1191.570959,-9326.594869,1072.533697,962.267725
1191.571270,-9178.553681,842.705048,740.205942
1191.571582,-8808.450710,1302.362347,814.226536
1191.571893,-8734.430116,76.609550,148.041188
1191.572205,-8586.388927,842.705048,-74.020594
1191.572517,-8438.347739,-383.047749,-296.082377
1191.572828,-8290.306550,-229.828649,-666.185348
1191.573140,-8438.347739,153.219100,-444.123565
1191.573451,-8808.450710,153.219100,-222.061783
1191.573763,-8882.471304,-306.438199,222.061783
1191.574074,-9474.636058,-153.219100,296.082377
1191.574386,-9474.636058,-459.657299,666.185348
1191.574697,-9252.574275,0.000000,518.144159
1191.575009,-9252.574275,0.000000,518.144159
1191.575321,-9474.636058,-229.828649,444.123565
1191.575632,-9474.636058,-612.876398,370.102971
1191.575944,-9770.718434,-689.485948,740.205942
1191.576255,-10066.800811,0.000000,592.164754
1191.576567,-9844.739029,76.609550,740.205942
1191.576878,-10066.800811,0.000000,444.123565
1191.577190,-9474.636058,383.047749,1036.288319
1191.577502,-9178.553681,306.438199,518.144159
1191.577813,-9252.574275,612.876398,370.102971
1191.578125,-8512.368333,1072.533697,592.164754
1191.578436,-8290.306550,306.438199,296.082377
1191.578748,-7994.224174,229.828649,518.144159
1191.579059,-8512.368333,306.438199,444.123565
1191.579371,-7994.224174,0.000000,1110.308913
1191.579682,-7846.182985,-689.485948,814.226536
1191.579994,-8068.244768,-1608.800546,888.247130
1191.580306,-8142.265362,-1762.019645,814.226536
1191.580617,-8142.265362,-1455.581446,962.267725
1191.580929,-8660.409521,-1225.752797,666.185348
1191.581240,-8734.430116,-459.657299,740.205942
1191.581552,-9104.533087,153.219100,962.267725
1191.581863,-9252.574275,536.266849,1110.308913
1191.582175,-9474.636058,306.438199,962.267725
1191.582486,-9474.636058,689.485948,1036.288319
1191.582798,-8956.491898,459.657299,1480.411884
1191.583110,-7920.203579,0.000000,1110.308913
1191.583421,-8142.265362,0.000000,222.061783
1191.583733,-7402.059420,153.219100,-0.000000
1191.584044,-7476.080014,0.000000,-370.102971
1191.584356,-8660.409521,0.000000,-666.185348
1191.584667,-8660.409521,306.438199,-592.164754
1191.584979,-9696.697840,0.000000,-74.020594
1191.585290,-9844.739029,-383.047749,666.185348
1191.585602,-9104.533087,-306.438199,666.185348
1191.585914,-9326.594869,-306.438199,814.226536
1191.586225,-8660.409521,-383.047749,1110.308913
1191.586537,-8808.450710,-612.876398,1332.370696
1191.586848,-9474.636058,-689.485948,740.205942
1191.587160,-9770.718434,76.609550,962.267725
1191.587471,-9696.697840,-459.657299,962.267725
1191.587783,-9992.780217,-153.219100,296.082377
1191.588094,-10140.821405,612.876398,370.102971
1191.588406,-9474.636058,842.705048,444.123565
1191.588718,-9104.533087,1302.362347,222.061783
1191.589029,-9474.636058,459.657299,-0.000000
1191.589341,-8734.430116,766.095498,148.041188
1191.589652,-8586.388927,689.485948,-74.020594
1191.589964,-8586.388927,0.000000,666.185348
1191.590275,-8142.265362,-229.828649,592.164754
1191.590587,-8068.244768,-536.266849,666.185348
1191.590898,-7920.203579,-919.314598,1036.288319
1191.591210,-8364.327145,-1225.752797,888.247130
1191.591522,-8364.327145,-919.314598,1406.391290
1191.591833,-8142.265362,-536.266849,888.247130
1191.592145,-8512.368333,-842.705048,666.185348
1191.592456,-8956.491898,-383.047749,740.205942
1191.592768,-9252.574275,306.438199,518.144159
1191.593079,-9326.594869,766.095498,444.123565
1191.593391,-9178.553681,689.485948,592.164754
1191.593702,-9252.574275,842.705048,814.226536
1191.594014,-8882.471304,612.876398,740.205942
1191.594326,-7994.224174,383.047749,296.082377
1191.594637,-8364.327145,-229.828649,222.061783
1191.594949,-7846.182985,0.000000,-0.000000
1191.595260,-8290.306550,0.000000,-444.123565
1191.595572,-8586.388927,0.000000,-74.020594
1191.595883,-8660.409521,229.828649,-296.082377
1191.596195,-8882.471304,-612.876398,148.041188
1191.596506,-9178.553681,-612.876398,222.061783
1191.596818,-8660.409521,-383.047749,518.144159
1191.597130,-9104.533087,0.000000,370.102971
1191.597441,-9104.533087,-459.657299,740.205942
1191.597753,-9104.533087,-306.438199,296.082377
1191.598064,-9400.615463,0.000000,592.164754
1191.598376,-9918.759623,-153.219100,444.123565
1191.598687,-10436.903782,0.000000,962.267725
1191.598999,-10658.965565,766.095498,740.205942
1191.599310,-10436.903782,689.485948,1110.308913
1191.599622,-9474.636058,459.657299,888.247130
1191.599934,-9326.594869,383.047749,888.247130
1191.600245,-9030.512492,459.657299,814.226536
1191.600557,-8438.347739,842.705048,740.205942
1191.600868,-8216.285956,0.000000,296.082377
1191.601180,-7698.141797,689.485948,740.205942
1191.601491,-7550.100608,-536.266849,444.123565
1191.601803,-7550.100608,-919.314598,444.123565
1191.602114,-7920.203579,-1455.581446,888.247130
1191.602426,-7846.182985,-1532.190996,814.226536
1191.602738,-8142.265362,-1072.533697,1184.329507
1191.603049,-8586.388927,-842.705048,1406.391290
1191.603361,-8808.450710,-995.924147,1036.288319
1191.603672,-9400.615463,-1225.752797,1036.288319
1191.603984,-9252.574275,0.000000,1184.329507
1191.604295,-9104.533087,766.095498,962.267725
1191.604607,-9474.636058,919.314598,962.267725
1191.604918,-9474.636058,536.266849,1110.308913
1191.605230,-8512.368333,383.047749,666.185348
1191.605542,-7994.224174,0.000000,-0.000000
1191.605853,-7476.080014,459.657299,-148.041188
1191.606165,-7328.038826,-229.828649,-666.185348
1191.606476,-8216.285956,76.609550,-962.267725
1191.606788,-8808.450710,0.000000,-370.102971
1191.607099,-9548.656652,-459.657299,-0.000000
1191.607411,-9918.759623,-459.657299,518.144159
1191.607722,-9992.780217,-459.657299,666.185348
1191.608034,-9622.677246,-459.657299,592.164754
1191.608346,-9548.656652,-383.047749,-0.000000
1191.608657,-9030.512492,76.609550,-296.082377
1191.608969,-8660.409521,0.000000,-0.000000
1191.609280,-9474.636058,0.000000,148.041188
1191.609592,-9770.718434,153.219100,148.041188
1191.609903,-9918.759623,229.828649,370.102971
1191.610215,-9992.780217,153.219100,296.082377
1191.610526,-9548.656652,689.485948,740.205942
1191.610838,-9696.697840,612.876398,-148.041188
1191.611150,-9178.553681,536.266849,518.144159
1191.611461,-8956.491898,766.095498,444.123565
1191.611773,-8586.388927,536.266849,444.123565
1191.612084,-8808.450710,306.438199,518.144159
1191.612396,-8512.368333,-383.047749,814.226536
1191.612707,-8438.347739,-229.828649,666.185348
1191.613019,-7772.162391,-689.485948,666.185348
1191.613331,-7328.038826,-153.219100,814.226536
1191.613642,-8438.347739,-459.657299,444.123565
1191.613954,-8216.285956,-842.705048,814.226536
1191.614265,-8586.388927,-536.266849,1110.308913
1191.614577,-8586.388927,-229.828649,962.267725
1191.614888,-9030.512492,459.657299,962.267725
1191.615200,-9622.677246,689.485948,296.082377
1191.615511,-9252.574275,1149.143247,1332.370696
1191.615823,-8808.450710,383.047749,962.267725
1191.616135,-8956.491898,0.000000,888.247130
1191.616446,-8512.368333,0.000000,962.267725
1191.616758,-8290.306550,0.000000,518.144159
1191.617069,-7846.182985,-153.219100,666.185348
1191.617381,-8068.244768,-459.657299,-0.000000
1191.617692,-7846.182985,-459.657299,-0.000000
1191.618004,-8216.285956,-153.219100,-0.000000
1191.618315,-8956.491898,-1225.752797,-0.000000
1191.618627,-9104.533087,-919.314598,444.123565
1191.618939,-9252.574275,0.000000,740.205942
1191.619250,-8882.471304,-153.219100,814.226536
1191.619562,-8586.388927,-536.266849,666.185348
1191.619873,-8882.471304,-306.438199,444.123565
1191.620185,-8734.430116,229.828649,296.082377
1191.620496,-9992.780217,612.876398,-0.000000
1191.620808,-9770.718434,229.828649,-0.000000
1191.621119,-9918.759623,0.000000,444.123565
1191.621431,-10066.800811,76.609550,666.185348
1191.621743,-9622.677246,383.047749,592.164754
1191.622054,-9400.615463,612.876398,370.102971
1191.622366,-9770.718434,229.828649,296.082377
1191.622677,-9030.512492,229.828649,148.041188
1191.622989,-9326.594869,-995.924147,-0.000000
1191.623300,-8438.347739,-229.828649,444.123565
1191.623612,-8290.306550,-383.047749,222.061783
1191.623923,-8364.327145,-766.095498,148.041188
1191.624235,-7994.224174,-1378.971896,592.164754
1191.624547,-7698.141797,-1685.410096,592.164754
1191.624858,-8438.347739,-1685.410096,370.102971
1191.625170,-9252.574275,-1072.533697,-0.000000
1191.625481,-9474.636058,0.000000,222.061783
1191.625793,-9252.574275,-689.485948,740.205942
1191.626104,-9474.636058,0.000000,518.144159
1191.626416,-9622.677246,383.047749,888.247130
1191.626727,-9252.574275,612.876398,962.267725
1191.627039,-9178.553681,995.924147,1036.288319
1191.627351,-7994.224174,766.095498,888.247130
1191.627662,-7550.100608,383.047749,-0.000000
1191.627974,-7624.121203,76.609550,-370.102971
1191.628285,-7402.059420,536.266849,-296.082377
1191.628597,-7994.224174,229.828649,-666.185348
1191.628908,-8808.450710,76.609550,-370.102971
1191.629220,-9992.780217,0.000000,-0.000000
1191.629531,-10362.883188,-536.266849,740.205942
1191.629843,-9992.780217,0.000000,1110.308913
1191.630154,-9326.594869,-306.438199,1850.514855
1191.630465,-9104.533087,-536.266849,814.226536
1191.630777,-9104.533087,-306.438199,888.247130
1191.631088,-8364.327145,-306.438199,962.267725
1191.631400,-8660.409521,-306.438199,740.205942
1191.631711,-9326.594869,0.000000,814.226536
1191.632023,-9696.697840,76.609550,666.185348
1191.632334,-9918.759623,383.047749,592.164754
1191.632646,-9474.636058,1149.143247,222.061783
1191.632957,-9104.533087,766.095498,296.082377
1191.633269,-9104.533087,459.657299,222.061783
1191.633580,-8882.471304,459.657299,592.164754
1191.633891,-8882.471304,306.438199,888.247130
1191.634203,-8734.430116,76.609550,1332.370696
1191.634514,-8586.388927,-383.047749,1036.288319
1191.634826,-8512.368333,-766.095498,1036.288319
1191.635137,-7920.203579,-689.485948,1406.391290
1191.635449,-7920.203579,-689.485948,518.144159
1191.635760,-7846.182985,-842.705048,444.123565
1191.636072,-8216.285956,-766.095498,592.164754
1191.636383,-8068.244768,-306.438199,592.164754
1191.636695,-8438.347739,-229.828649,592.164754
1191.637006,-8882.471304,306.438199,962.267725
1191.637317,-9104.533087,1072.533697,888.247130
1191.637629,-9326.594869,0.000000,962.267725
1191.637940,-8808.450710,1608.800546,1110.308913
1191.638252,-8808.450710,536.266849,666.185348
1191.638563,-8882.471304,-153.219100,296.082377
1191.638875,-8586.388927,76.609550,-0.000000
1191.639186,-8438.347739,76.609550,-518.144159
1191.639498,-8364.327145,-229.828649,-814.226536
1191.639809,-9030.512492,-1072.533697,-444.123565
1191.640121,-8956.491898,-536.266849,-222.061783
1191.640432,-9326.594869,-919.314598,-148.041188
1191.640743,-9696.697840,-536.266849,592.164754
1191.641055,-9400.615463,-459.657299,592.164754
1191.641366,-9104.533087,-459.657299,814.226536
1191.641678,-9548.656652,-612.876398,592.164754
1191.641989,-8956.491898,-536.266849,370.102971
1191.642301,-9474.636058,76.609550,222.061783
1191.642612,-9252.574275,306.438199,370.102971
1191.642924,-9696.697840,-612.876398,-0.000000
1191.643235,-9844.739029,0.000000,222.061783
1191.643547,-9696.697840,383.047749,148.041188
1191.643858,-9548.656652,612.876398,296.082377
1191.644169,-9252.574275,536.266849,518.144159
1191.644481,-9474.636058,842.705048,518.144159
1191.644792,-9104.533087,459.657299,444.123565
1191.645104,-8808.450710,0.000000,518.144159
1191.645415,-8660.409521,0.000000,814.226536
1191.645727,-8216.285956,-306.438199,814.226536
1191.646038,-7846.182985,-536.266849,740.205942
1191.646350,-7772.162391,-1378.971896,740.205942
1191.646661,-7698.141797,-1455.581446,814.226536
1191.646972,-7624.121203,-2145.067394,370.102971
1191.647284,-8068.244768,-1072.533697,592.164754
1191.647595,-8808.450710,-1455.581446,444.123565
1191.647907,-9400.615463,-995.924147,740.205942
1191.648218,-9474.636058,-459.657299,1110.308913
1191.648530,-9474.636058,76.609550,1184.329507
1191.648841,-9326.594869,766.095498,1332.370696
1191.649153,-9474.636058,1302.362347,666.185348
1191.649464,-8660.409521,995.924147,592.164754
1191.649776,-7328.038826,1225.752797,-0.000000
1191.650087,-7550.100608,1072.533697,-222.061783
1191.650398,-7254.018232,153.219100,-222.061783
1191.650710,-7994.224174,0.000000,-814.226536
1191.651021,-8808.450710,0.000000,-518.144159
1191.651333,-9474.636058,0.000000,-148.041188
1191.651644,-10140.821405,-306.438199,148.041188
1191.651956,-10510.924376,-153.219100,888.247130
1191.652267,-10436.903782,-459.657299,1110.308913
1191.652579,-9474.636058,-306.438199,962.267725
1191.652890,-9400.615463,0.000000,962.267725
1191.653202,-8734.430116,0.000000,814.226536
1191.653513,-8512.368333,-229.828649,592.164754
1191.653824,-8956.491898,-229.828649,888.247130
1191.654136,-9252.574275,0.000000,518.144159
1191.654447,-9400.615463,842.705048,222.061783
1191.654759,-9696.697840,1149.143247,222.061783
1191.655070,-9474.636058,842.705048,814.226536
1191.655382,-9400.615463,536.266849,370.102971
1191.655693,-9252.574275,536.266849,666.185348
1191.656005,-8660.409521,1149.143247,518.144159
1191.656316,-8586.388927,536.266849,592.164754
1191.656628,-8142.265362,459.657299,888.247130
1191.656939,-8512.368333,-689.485948,518.144159
1191.657250,-7920.203579,-536.266849,1480.411884
1191.657562,-7624.121203,-766.095498,1036.288319
1191.657873,-7772.162391,-1072.533697,666.185348
1191.658185,-7772.162391,-842.705048,444.123565
1191.658496,-7772.162391,-919.314598,518.144159
1191.658808,-8438.347739,-459.657299,518.144159
1191.659119,-9474.636058,-612.876398,518.144159
1191.659431,-9474.636058,536.266849,370.102971
1191.659742,-9696.697840,766.095498,962.267725
1191.660054,-9696.697840,766.095498,962.267725
1191.660365,-9474.636058,536.266849,962.267725
1191.660676,-8512.368333,689.485948,444.123565
1191.660988,-7994.224174,536.266849,444.123565
1191.661299,-7624.121203,-76.609550,-0.000000
1191.661611,-7846.182985,0.000000,-740.205942
1191.661922,-8512.368333,-1378.971896,-1036.288319
1191.662234,-9326.594869,-689.485948,-518.144159
1191.662545,-9770.718434,-536.266849,-74.020594
1191.662857,-10732.986159,-383.047749,-0.000000
1191.663168,-10510.924376,-306.438199,444.123565
1191.663480,-9918.759623,-306.438199,518.144159
1191.663791,-9474.636058,-153.219100,666.185348
1191.664102,-8660.409521,-229.828649,1332.370696
1191.664414,-8882.471304,-919.314598,814.226536
1191.664725,-8956.491898,-919.314598,740.205942
1191.665037,-9252.574275,0.000000,444.123565
1191.665348,-9474.636058,0.000000,296.082377
1191.665660,-10066.800811,76.609550,296.082377
1191.665971,-10140.821405,766.095498,370.102971
1191.666283,-9474.636058,536.266849,444.123565
1191.666594,-9252.574275,536.266849,296.082377
1191.666905,-9474.636058,536.266849,518.144159
1191.667217,-8660.409521,306.438199,666.185348
1191.667528,-8364.327145,76.609550,814.226536
1191.667840,-8068.244768,306.438199,814.226536
1191.668151,-7550.100608,229.828649,592.164754
1191.668463,-7031.956449,0.000000,666.185348
1191.668774,-7179.997637,-229.828649,666.185348
1191.669086,-7476.080014,-995.924147,592.164754
1191.669397,-7920.203579,-1149.143247,296.082377
1191.669709,-8364.327145,-919.314598,666.185348
1191.670020,-8808.450710,-766.095498,592.164754
1191.670331,-9178.553681,-383.047749,888.247130
1191.670643,-9992.780217,0.000000,1036.288319
1191.670954,-9696.697840,153.219100,1110.308913
1191.671266,-9918.759623,383.047749,666.185348
1191.671577,-8882.471304,459.657299,1258.350101
1191.671889,-7920.203579,459.657299,666.185348
1191.672200,-7550.100608,383.047749,-0.000000
1191.672512,-7105.977043,306.438199,-148.041188
1191.672823,-6883.915261,76.609550,-518.144159
1191.673135,-7846.182985,0.000000,-444.123565
1191.673446,-9400.615463,76.609550,-222.061783
1191.673757,-10214.842000,-383.047749,222.061783
1191.674069,-10584.944971,-612.876398,740.205942
1191.674380,-10510.924376,-612.876398,1258.350101
1191.674692,-9992.780217,-536.266849,962.267725
1191.675003,-9400.615463,-612.876398,444.123565
1191.675315,-8882.471304,-383.047749,518.144159
1191.675626,-8364.327145,-229.828649,370.102971
1191.675938,-8882.471304,-383.047749,592.164754
1191.676249,-8660.409521,153.219100,1406.391290
1191.676561,-9474.636058,459.657299,444.123565
1191.676872,-9474.636058,536.266849,370.102971
1191.677183,-9400.615463,842.705048,-0.000000
1191.677495,-9548.656652,612.876398,-0.000000
1191.677806,-9474.636058,229.828649,370.102971
1191.678118,-9474.636058,229.828649,518.144159
1191.678429,-9030.512492,383.047749,444.123565
1191.678741,-9178.553681,0.000000,888.247130
1191.679052,-8956.491898,-612.876398,1184.329507
1191.679364,-8808.450710,-1302.362347,814.226536
1191.679675,-7846.182985,-1149.143247,666.185348
1191.679987,-7254.018232,-689.485948,592.164754
1191.680298,-7550.100608,-842.705048,370.102971
1191.680609,-7698.141797,-689.485948,444.123565
1191.680921,-7846.182985,-766.095498,370.102971
1191.681232,-9104.533087,76.609550,222.061783
1191.681544,-9326.594869,229.828649,1036.288319
1191.681855,-9696.697840,383.047749,1110.308913
1191.682167,-9622.677246,536.266849,1258.350101
1191.682478,-9474.636058,383.047749,1184.329507
1191.682790,-8882.471304,306.438199,888.247130
1191.683101,-8216.285956,536.266849,444.123565
1191.683412,-7846.182985,766.095498,-666.185348
1191.683724,-7254.018232,306.438199,-444.123565
1191.684035,-7550.100608,306.438199,-1110.308913
1191.684347,-7994.224174,76.609550,-518.144159
1191.684658,-8956.491898,0.000000,-296.082377
1191.684970,-9918.759623,-536.266849,222.061783
1191.685281,-10362.883188,-383.047749,888.247130
1191.685593,-10214.842000,0.000000,962.267725
1191.685904,-9474.636058,-229.828649,1628.453072
1191.686216,-9992.780217,-459.657299,1110.308913
1191.686527,-9178.553681,-842.705048,740.205942
1191.686838,-8660.409521,-153.219100,666.185348
1191.687150,-8438.347739,153.219100,814.226536
1191.687461,-9104.533087,76.609550,518.144159
1191.687773,-9548.656652,536.266849,148.041188
1191.688084,-9474.636058,842.705048,222.061783
1191.688396,-9622.677246,383.047749,148.041188
1191.688707,-8956.491898,1072.533697,296.082377
1191.689019,-9474.636058,536.266849,518.144159
1191.689330,-9252.574275,76.609550,962.267725
1191.689642,-8660.409521,-153.219100,1110.308913
1191.689953,-8734.430116,-229.828649,1258.350101
1191.690264,-7994.224174,-306.438199,962.267725
1191.690576,-7920.203579,-766.095498,444.123565
1191.690887,-7402.059420,-1378.971896,444.123565
1191.691199,-7031.956449,-1991.848295,740.205942
1191.691510,-7846.182985,-2068.457845,-0.000000
1191.691822,-8438.347739,-1378.971896,296.082377
1191.692133,-9104.533087,-1072.533697,592.164754
1191.692445,-9326.594869,-1225.752797,592.164754
1191.692756,-9770.718434,-766.095498,962.267725
1191.693068,-9696.697840,76.609550,1110.308913
1191.693379,-9474.636058,919.314598,1184.329507
1191.693690,-9474.636058,766.095498,1332.370696
1191.694002,-8586.388927,689.485948,1036.288319
1191.694313,-7846.182985,459.657299,148.041188
1191.694625,-7624.121203,229.828649,-148.041188
1191.694936,-7328.038826,536.266849,-814.226536
1191.695248,-8068.244768,76.609550,-1480.411884
1191.695559,-8438.347739,536.266849,-962.267725
1191.695871,-10362.883188,0.000000,-814.226536
1191.696182,-10362.883188,-306.438199,296.082377
1191.696494,-10288.862594,-459.657299,814.226536
1191.696805,-9696.697840,-842.705048,1110.308913
1191.697116,-9178.553681,-919.314598,1110.308913
1191.697428,-8956.491898,-842.705048,962.267725
1191.697739,-8808.450710,153.219100,1332.370696
1191.698051,-8586.388927,-689.485948,1110.308913
1191.698362,-8956.491898,0.000000,666.185348
1191.698674,-9622.677246,-306.438199,222.061783
1191.698985,-9548.656652,306.438199,-0.000000
1191.699297,-9326.594869,766.095498,-0.000000
1191.699608,-9252.574275,306.438199,296.082377
1191.699919,-9178.553681,76.609550,-0.000000
1191.700231,-9400.615463,383.047749,370.102971
1191.700542,-8586.388927,689.485948,592.164754
1191.700854,-8216.285956,766.095498,962.267725
1191.701165,-8216.285956,153.219100,1184.329507
1191.701477,-8364.327145,-383.047749,962.267725
1191.701788,-8068.244768,-459.657299,962.267725
1191.702100,-7550.100608,-689.485948,888.247130
1191.702411,-7698.141797,-459.657299,888.247130
1191.702723,-8068.244768,-919.314598,-0.000000
1191.703034,-8438.347739,-919.314598,-0.000000
1191.703345,-8734.430116,-842.705048,222.061783
1191.703657,-9178.553681,-153.219100,592.164754
1191.703968,-9770.718434,76.609550,740.205942
1191.704280,-9918.759623,383.047749,1184.329507
1191.704591,-9992.780217,459.657299,1184.329507
1191.704903,-9400.615463,689.485948,1332.370696
1191.705214,-8068.244768,459.657299,740.205942
1191.705526,-8068.244768,536.266849,-0.000000
1191.705837,-7846.182985,-383.047749,-0.000000
1191.706149,-7772.162391,76.609550,-666.185348
1191.706460,-8290.306550,0.000000,-814.226536
1191.706771,-8660.409521,-153.219100,-370.102971
1191.707083,-9474.636058,-229.828649,-222.061783
1191.707394,-9992.780217,-229.828649,592.164754
1191.707706,-9844.739029,-612.876398,1110.308913
1191.708017,-9622.677246,0.000000,1110.308913
1191.708329,-9474.636058,0.000000,1406.391290
1191.708640,-9474.636058,-153.219100,1036.288319
1191.708952,-9178.553681,229.828649,814.226536
1191.709263,-8956.491898,383.047749,592.164754
1191.709575,-8364.327145,383.047749,296.082377
1191.709886,-9326.594869,612.876398,370.102971
1191.710197,-9474.636058,766.095498,-0.000000
1191.710509,-9770.718434,766.095498,-148.041188
1191.710820,-9178.553681,995.924147,-0.000000
1191.711132,-9474.636058,842.705048,370.102971
1191.711443,-8956.491898,153.219100,1036.288319
1191.711755,-8364.327145,306.438199,666.185348
1191.712066,-7772.162391,459.657299,1110.308913
1191.712378,-7772.162391,1225.752797,1036.288319
1191.712689,-7698.141797,383.047749,1036.288319
1191.713001,-7402.059420,-1225.752797,888.247130
1191.713312,-7476.080014,-1608.800546,888.247130
1191.713623,-7624.121203,-1378.971896,222.061783
1191.713935,-7846.182985,-1149.143247,148.041188
1191.714246,-8734.430116,-919.314598,-0.000000
1191.714558,-9178.553681,-1532.190996,-0.000000
1191.714869,-9918.759623,-995.924147,444.123565
1191.715181,-9992.780217,229.828649,1036.288319
1191.715492,-9474.636058,153.219100,1554.432478
1191.715804,-9844.739029,76.609550,1628.453072
1191.716115,-9030.512492,0.000000,1406.391290
1191.716426,-7994.224174,153.219100,814.226536
1191.716738,-7920.203579,153.219100,-296.082377
1191.717049,-7031.956449,536.266849,-444.123565
1191.717361,-7698.141797,306.438199,-1258.350101
1191.717672,-8364.327145,306.438199,-1110.308913
1191.717984,-9178.553681,0.000000,-444.123565
1191.718295,-10362.883188,-689.485948,-0.000000
1191.718607,-10881.027347,-459.657299,814.226536
1191.718918,-10510.924376,-1072.533697,1184.329507
1191.719230,-9770.718434,-766.095498,1332.370696
1191.719541,-9400.615463,-383.047749,1110.308913
1191.719852,-8586.388927,-459.657299,814.226536
1191.720164,-8808.450710,-536.266849,962.267725
1191.720475,-9030.512492,0.000000,296.082377
1191.720787,-9400.615463,229.828649,518.144159
1191.721098,-9696.697840,612.876398,296.082377
1191.721410,-9696.697840,919.314598,-0.000000
1191.721721,-9400.615463,689.485948,296.082377
1191.722033,-8882.471304,383.047749,-0.000000
1191.722344,-9178.553681,919.314598,-0.000000
1191.722656,-9178.553681,1225.752797,296.082377
1191.722967,-8808.450710,689.485948,666.185348
1191.723278,-8290.306550,306.438199,1258.350101
1191.723590,-7994.224174,0.000000,1258.350101
1191.723901,-8216.285956,-842.705048,1184.329507
1191.724213,-7624.121203,0.000000,962.267725
1191.724524,-6883.915261,0.000000,592.164754
1191.724836,-7624.121203,-459.657299,-444.123565
1191.725147,-7920.203579,-842.705048,-0.000000
1191.725459,-8216.285956,-1149.143247,444.123565
1191.725770,-9178.553681,-766.095498,444.123565
1191.726082,-9178.553681,-153.219100,1258.350101
1191.726393,-9548.656652,229.828649,1184.329507
1191.726704,-9474.636058,612.876398,1258.350101
1191.727016,-9178.553681,536.266849,1406.391290
1191.727327,-7772.162391,766.095498,1036.288319
1191.727639,-7402.059420,689.485948,592.164754
1191.727950,-8068.244768,536.266849,-148.041188
1191.728262,-7624.121203,0.000000,-370.102971
1191.728573,-8290.306550,0.000000,-888.247130
1191.728885,-8586.388927,0.000000,-296.082377
1191.729196,-9326.594869,-229.828649,-0.000000
1191.729508,-10362.883188,-1302.362347,370.102971
1191.729819,-11029.068536,-536.266849,740.205942
1191.730130,-9918.759623,-383.047749,1036.288319
1191.730442,-9622.677246,-459.657299,1184.329507
1191.730753,-9474.636058,-306.438199,962.267725
1191.731065,-8882.471304,153.219100,1036.288319
1191.731376,-8660.409521,-229.828649,518.144159
1191.731688,-8956.491898,153.219100,740.205942
1191.731999,-9252.574275,76.609550,666.185348
1191.732310,-9918.759623,383.047749,-0.000000
1191.732622,-10066.800811,536.266849,148.041188
1191.732933,-9622.677246,459.657299,296.082377
1191.733245,-9474.636058,536.266849,-0.000000
1191.733556,-8882.471304,0.000000,222.061783
1191.733867,-8290.306550,536.266849,222.061783
1191.734179,-8290.306550,76.609550,962.267725
1191.734490,-8216.285956,0.000000,1036.288319
1191.734802,-8438.347739,0.000000,1036.288319
1191.735113,-8364.327145,-995.924147,1258.350101
1191.735424,-8068.244768,-1378.971896,1184.329507
1191.735736,-7328.038826,-1225.752797,518.144159
1191.736047,-7698.141797,-1149.143247,-0.000000
1191.736359,-8142.265362,-995.924147,-0.000000
1191.736670,-8512.368333,-766.095498,-0.000000
1191.736981,-8660.409521,-689.485948,222.061783
1191.737293,-9400.615463,-76.609550,1036.288319
1191.737604,-9696.697840,0.000000,1110.308913
1191.737915,-9696.697840,306.438199,1258.350101
1191.738227,-9252.574275,383.047749,1258.350101
1191.738538,-8364.327145,383.047749,814.226536
1191.738850,-7994.224174,383.047749,-296.082377
1191.739161,-7772.162391,229.828649,-666.185348
1191.739472,-7920.203579,383.047749,-962.267725
1191.739784,-8216.285956,689.485948,-1258.350101
1191.740095,-8808.450710,766.095498,-370.102971
1191.740407,-9696.697840,0.000000,-148.041188
1191.740718,-9844.739029,-919.314598,666.185348
1191.741029,-10140.821405,-1149.143247,1258.350101
1191.741341,-9696.697840,-459.657299,1332.370696
1191.741652,-9178.553681,-229.828649,962.267725
1191.741964,-9400.615463,-459.657299,962.267725
1191.742275,-9178.553681,0.000000,814.226536
1191.742586,-9178.553681,-306.438199,814.226536
1191.742898,-9474.636058,153.219100,518.144159
1191.743209,-9770.718434,766.095498,592.164754
1191.743521,-9548.656652,919.314598,444.123565
1191.743832,-9918.759623,842.705048,148.041188
1191.744143,-8734.430116,459.657299,222.061783
1191.744455,-9696.697840,459.657299,-0.000000
1191.744766,-9104.533087,842.705048,888.247130
1191.745077,-8660.409521,459.657299,814.226536
1191.745389,-8364.327145,229.828649,962.267725
1191.745700,-7994.224174,-306.438199,1110.308913
1191.746012,-7624.121203,-612.876398,814.226536
1191.746323,-7698.141797,-1225.752797,592.164754
1191.746634,-8068.244768,-995.924147,740.205942
1191.746946,-7698.141797,-842.705048,222.061783
1191.747257,-8290.306550,-766.095498,518.144159
1191.747569,-8438.347739,-842.705048,666.185348
1191.747880,-9178.553681,-995.924147,666.185348
1191.748191,-9252.574275,-383.047749,888.247130
1191.748503,-9474.636058,0.000000,888.247130
1191.748814,-9474.636058,1455.581446,1110.308913
1191.749126,-9252.574275,1378.971896,1110.308913
1191.749437,-8438.347739,689.485948,666.185348
1191.749748,-7550.100608,459.657299,296.082377
1191.750060,-7698.141797,229.828649,-148.041188
1191.750371,-7772.162391,842.705048,-444.123565
1191.750683,-8216.285956,612.876398,-962.267725
1191.750994,-8290.306550,306.438199,-740.205942
1191.751305,-8956.491898,0.000000,74.020594
1191.751617,-9548.656652,-1378.971896,-0.000000
1191.751928,-9992.780217,-689.485948,592.164754
1191.752239,-9992.780217,-153.219100,1184.329507
1191.752551,-9992.780217,-383.047749,1110.308913
1191.752862,-9844.739029,-459.657299,1184.329507
1191.753174,-9400.615463,-536.266849,888.247130
1191.753485,-8882.471304,153.219100,592.164754
1191.753796,-8660.409521,0.000000,592.164754
1191.754108,-9400.615463,-536.266849,-0.000000
1191.754419,-9696.697840,76.609550,-74.020594
1191.754731,-10510.924376,0.000000,-0.000000
1191.755042,-9918.759623,306.438199,518.144159
1191.755353,-9252.574275,76.609550,592.164754
1191.755665,-9622.677246,-766.095498,518.144159
1191.755976,-9770.718434,-229.828649,666.185348
1191.756288,-8290.306550,0.000000,1332.370696
1191.756599,-8068.244768,0.000000,740.205942
1191.756910,-7698.141797,153.219100,1184.329507
1191.757222,-7624.121203,-766.095498,518.144159
1191.757533,-7624.121203,-1302.362347,814.226536
1191.757845,-7550.100608,-1455.581446,666.185348
1191.758156,-7698.141797,-1225.752797,-0.000000
1191.758467,-8216.285956,-1149.143247,222.061783
1191.758779,-8956.491898,-1072.533697,-0.000000
1191.759090,-9252.574275,-2298.286494,296.082377
1191.759401,-9696.697840,-459.657299,740.205942
1191.759713,-9770.718434,536.266849,888.247130
1191.760024,-9400.615463,1225.752797,1110.308913
1191.760336,-9178.553681,459.657299,1480.411884
1191.760647,-8364.327145,229.828649,1702.473667
1191.760958,-7328.038826,459.657299,-0.000000
1191.761270,-7698.141797,0.000000,-0.000000
1191.761581,-7402.059420,-153.219100,-74.020594
1191.761893,-7920.203579,76.609550,-1110.308913
1191.762204,-8660.409521,0.000000,-444.123565
1191.762515,-9548.656652,-689.485948,-222.061783
1191.762827,-10881.027347,-1378.971896,518.144159
1191.763138,-10732.986159,-459.657299,888.247130
1191.763450,-10732.986159,0.000000,592.164754
1191.763761,-9474.636058,0.000000,1480.411884
1191.764072,-8882.471304,-153.219100,1184.329507
1191.764384,-8068.244768,0.000000,962.267725
1191.764695,-7994.224174,0.000000,592.164754
1191.765007,-8438.347739,229.828649,592.164754
1191.765318,-9252.574275,766.095498,148.041188
1191.765629,-9696.697840,1455.581446,-0.000000
1191.765941,-9400.615463,766.095498,-0.000000
1191.766252,-9548.656652,842.705048,148.041188
1191.766564,-9622.677246,229.828649,592.164754
1191.766875,-9696.697840,459.657299,444.123565
1191.767186,-9030.512492,995.924147,666.185348
1191.767498,-8512.368333,919.314598,888.247130
1191.767809,-7920.203579,306.438199,1110.308913
1191.768120,-7846.182985,306.438199,888.247130
1191.768432,-7179.997637,-306.438199,592.164754
1191.768743,-7846.182985,-153.219100,222.061783
1191.769055,-7624.121203,-383.047749,444.123565
1191.769366,-8364.327145,-1072.533697,148.041188
1191.769677,-8586.388927,-1225.752797,444.123565
1191.769989,-8882.471304,-1302.362347,740.205942
1191.770300,-9030.512492,-306.438199,888.247130
1191.770612,-9548.656652,383.047749,888.247130
1191.770923,-9844.739029,536.266849,962.267725
1191.771234,-9252.574275,1149.143247,888.247130
1191.771546,-8734.430116,612.876398,1036.288319
1191.771857,-7624.121203,766.095498,814.226536
1191.772169,-7550.100608,842.705048,-0.000000
1191.772480,-7772.162391,536.266849,-370.102971
1191.772791,-7328.038826,383.047749,-740.205942
1191.773103,-8142.265362,-383.047749,-888.247130
1191.773414,-8882.471304,-153.219100,-444.123565
1191.773726,-9992.780217,-536.266849,-74.020594
1191.774037,-10732.986159,-1225.752797,592.164754
1191.774348,-10732.986159,-612.876398,1184.329507
1191.774660,-10288.862594,-459.657299,1258.350101
1191.774971,-9622.677246,0.000000,1258.350101
1191.775282,-9104.533087,-153.219100,1036.288319
1191.775594,-7920.203579,153.219100,-0.000000
1191.775905,-8290.306550,766.095498,222.061783
1191.776217,-8734.430116,459.657299,-0.000000
1191.776528,-9326.594869,689.485948,-74.020594
1191.776839,-9548.656652,306.438199,-0.000000
1191.777151,-9992.780217,306.438199,296.082377
1191.777462,-9992.780217,153.219100,592.164754
1191.777774,-9992.780217,0.000000,666.185348
1191.778085,-9844.739029,0.000000,666.185348
1191.778396,-8512.368333,-153.219100,814.226536
1191.778708,-8290.306550,0.000000,814.226536
1191.779019,-7772.162391,0.000000,1110.308913
1191.779331,-7550.100608,-459.657299,740.205942
1191.779642,-7476.080014,-459.657299,518.144159
1191.779953,-7624.121203,-919.314598,444.123565
1191.780265,-7550.100608,-1225.752797,518.144159
1191.780576,-8216.285956,-1378.971896,148.041188
1191.780888,-8808.450710,-995.924147,814.226536
1191.781199,-9178.553681,-1072.533697,592.164754
1191.781510,-9770.718434,-612.876398,888.247130
1191.781822,-10140.821405,-612.876398,1406.391290
1191.782133,-9770.718434,459.657299,1332.370696
1191.782444,-9252.574275,306.438199,1332.370696
1191.782756,-8438.347739,689.485948,962.267725
1191.783067,-7328.038826,995.924147,222.061783
1191.783379,-7624.121203,995.924147,-444.123565
1191.783690,-7031.956449,842.705048,-740.205942
1191.784001,-7105.977043,229.828649,-962.267725
1191.784313,-8586.388927,-153.219100,-888.247130
1191.784624,-9918.759623,0.000000,-296.082377
1191.784936,-10436.903782,-919.314598,296.082377
1191.785247,-10584.944971,-842.705048,1332.370696
1191.785558,-10732.986159,-995.924147,1036.288319
1191.785870,-9844.739029,-1225.752797,1628.453072
1191.786181,-9030.512492,-995.924147,1258.350101
1191.786493,-8364.327145,76.609550,962.267725
1191.786804,-8068.244768,306.438199,740.205942
1191.787115,-8438.347739,306.438199,592.164754
1191.787427,-9030.512492,153.219100,-74.020594
1191.787738,-9030.512492,1072.533697,444.123565
1191.788050,-9104.533087,995.924147,296.082377
1191.788361,-9548.656652,1608.800546,148.041188
1191.788672,-9548.656652,1302.362347,592.164754
1191.788984,-9844.739029,459.657299,666.185348
1191.789295,-9252.574275,0.000000,1184.329507
1191.789606,-8882.471304,612.876398,1480.411884
1191.789918,-8660.409521,-153.219100,814.226536
1191.790229,-8216.285956,842.705048,1110.308913
1191.790541,-7846.182985,0.000000,740.205942
1191.790852,-7772.162391,76.609550,370.102971
1191.791163,-7402.059420,0.000000,444.123565
1191.791475,-7624.121203,-306.438199,296.082377
1191.791786,-7846.182985,-536.266849,666.185348
1191.792098,-7920.203579,-689.485948,814.226536
1191.792409,-8956.491898,-842.705048,814.226536
1191.792720,-9696.697840,-153.219100,740.205942
1191.793032,-9770.718434,306.438199,888.247130
1191.793343,-9548.656652,229.828649,1332.370696
1191.793655,-9548.656652,689.485948,1184.329507
1191.793966,-9030.512492,1225.752797,962.267725
1191.794277,-7772.162391,1072.533697,222.061783
1191.794589,-7846.182985,536.266849,-222.061783
1191.794900,-6809.894666,459.657299,-222.061783
1191.795212,-7402.059420,-153.219100,-1036.288319
1191.795523,-8290.306550,-306.438199,-222.061783
1191.795834,-9030.512492,-689.485948,-0.000000
1191.796146,-10214.842000,-1149.143247,814.226536
1191.796457,-10584.944971,-1378.971896,1480.411884
1191.796769,-10362.883188,-919.314598,1480.411884
1191.797080,-9918.759623,-1149.143247,1406.391290
1191.797391,-9104.533087,-919.314598,962.267725
1191.797703,-8956.491898,-229.828649,444.123565
1191.798014,-8882.471304,-153.219100,-222.061783
1191.798325,-8734.430116,0.000000,-0.000000
1191.798637,-9400.615463,153.219100,-296.082377
1191.798948,-9548.656652,459.657299,-148.041188
1191.799260,-9770.718434,612.876398,-74.020594
1191.799571,-9770.718434,536.266849,-0.000000
1191.799882,-9252.574275,306.438199,296.082377
1191.800194,-9252.574275,0.000000,740.205942
1191.800505,-9030.512492,-383.047749,1036.288319
1191.800817,-9178.553681,-306.438199,1110.308913
1191.801128,-9030.512492,-383.047749,1332.370696
1191.801439,-8290.306550,0.000000,740.205942
1191.801751,-7624.121203,-612.876398,370.102971
1191.802062,-7179.997637,-1225.752797,370.102971
1191.802374,-7105.977043,-1225.752797,148.041188
1191.802685,-7772.162391,-1762.019645,-74.020594
1191.802996,-8586.388927,-1532.190996,148.041188
1191.803308,-9030.512492,-1378.971896,666.185348
1191.803619,-9474.636058,-766.095498,1110.308913
1191.803931,-10436.903782,-459.657299,1258.350101
1191.804242,-9622.677246,-153.219100,1332.370696
1191.804553,-9104.533087,995.924147,1258.350101
1191.804865,-8882.471304,919.314598,1110.308913
1191.805176,-7920.203579,459.657299,814.226536
1191.805487,-7846.182985,766.095498,-148.041188
1191.805799,-7328.038826,919.314598,-370.102971
1191.806110,-6957.935855,919.314598,-888.247130
1191.806422,-7624.121203,536.266849,-1110.308913
1191.806733,-8586.388927,612.876398,-518.144159
1191.807044,-10584.944971,76.609550,-444.123565
1191.807356,-10140.821405,-459.657299,1110.308913
1191.807667,-10584.944971,-536.266849,1406.391290
1191.807979,-9992.780217,-842.705048,1480.411884
1191.808290,-9326.594869,-689.485948,1332.370696
1191.808601,-9178.553681,-383.047749,1406.391290
1191.808913,-8734.430116,306.438199,1110.308913
1191.809224,-8364.327145,0.000000,666.185348
1191.809536,-8438.347739,536.266849,444.123565
1191.809847,-9104.533087,919.314598,-74.020594
1191.810158,-9104.533087,842.705048,74.020594
1191.810470,-8882.471304,919.314598,-0.000000
1191.810781,-9030.512492,842.705048,148.041188
1191.811093,-8882.471304,536.266849,370.102971
1191.811404,-9474.636058,383.047749,444.123565
1191.811715,-8808.450710,536.266849,1258.350101
1191.812027,-8660.409521,229.828649,1258.350101
1191.812338,-8660.409521,-229.828649,1998.556043
1191.812649,-8290.306550,-919.314598,1480.411884
1191.812961,-8290.306550,-1072.533697,814.226536
1191.813272,-7698.141797,-1072.533697,518.144159
1191.813584,-7772.162391,-919.314598,222.061783
1191.813895,-8142.265362,-1302.362347,-0.000000
1191.814206,-8364.327145,-1072.533697,148.041188
1191.814518,-9030.512492,-1302.362347,222.061783
1191.814829,-9474.636058,-229.828649,518.144159
1191.815141,-9770.718434,-229.828649,1258.350101
1191.815452,-10214.842000,153.219100,1406.391290
1191.815763,-9918.759623,459.657299,1628.453072
1191.816075,-9326.594869,842.705048,1184.329507
1191.816386,-8438.347739,1072.533697,592.164754
1191.816698,-8290.306550,0.000000,-74.020594
1191.817009,-7402.059420,76.609550,-370.102971
1191.817320,-7402.059420,383.047749,-1036.288319
1191.817632,-8290.306550,306.438199,-1184.329507
1191.817943,-8956.491898,0.000000,-888.247130
1191.818255,-9918.759623,0.000000,-740.205942
1191.818566,-10362.883188,0.000000,222.061783
1191.818877,-10066.800811,-459.657299,666.185348
1191.819189,-9918.759623,-612.876398,888.247130
1191.819500,-9696.697840,-536.266849,962.267725
1191.819811,-9252.574275,-459.657299,888.247130
1191.820123,-8808.450710,-459.657299,592.164754
1191.820434,-8438.347739,0.000000,518.144159
1191.820746,-8734.430116,76.609550,222.061783
1191.821057,-9030.512492,0.000000,-0.000000
1191.821368,-9474.636058,76.609550,-0.000000
1191.821680,-9030.512492,-153.219100,-0.000000
1191.821991,-9030.512492,536.266849,-0.000000
1191.822303,-9548.656652,229.828649,148.041188
1191.822614,-9326.594869,-153.219100,814.226536
1191.822925,-8734.430116,0.000000,1036.288319
1191.823237,-8660.409521,-76.609550,1036.288319
1191.823548,-8142.265362,-306.438199,814.226536
1191.823860,-7772.162391,-689.485948,666.185348
1191.824171,-7550.100608,-1072.533697,814.226536
1191.824482,-7698.141797,-919.314598,888.247130
1191.824794,-7476.080014,-1149.143247,222.061783
1191.825105,-7994.224174,-536.266849,-0.000000
1191.825417,-8586.388927,-536.266849,222.061783
1191.825728,-9030.512492,459.657299,592.164754
1191.826039,-9474.636058,0.000000,592.164754
1191.826351,-10140.821405,536.266849,1036.288319
1191.826662,-9622.677246,1149.143247,1628.453072
1191.826974,-9548.656652,842.705048,1184.329507
1191.827285,-8734.430116,766.095498,1184.329507
1191.827596,-7920.203579,689.485948,592.164754
1191.827908,-7772.162391,76.609550,148.041188
1191.828219,-7550.100608,0.000000,-296.082377
1191.828530,-7920.203579,229.828649,-962.267725
1191.828842,-8808.450710,0.000000,-814.226536
1191.829153,-9474.636058,-383.047749,-74.020594
1191.829465,-10436.903782,-766.095498,370.102971
1191.829776,-10807.006753,-919.314598,1184.329507
1191.830087,-10214.842000,-766.095498,1480.411884
1191.830399,-9474.636058,-766.095498,1406.391290
1191.830710,-9178.553681,229.828649,1480.411884
1191.831022,-8660.409521,0.000000,962.267725
1191.831331,-8364.327145,459.657299,592.164754
1191.831643,-8364.327145,306.438199,1036.288319
1191.831954,-8956.491898,612.876398,370.102971
1191.832266,-9178.553681,1302.362347,-0.000000
1191.832577,-9326.594869,1378.971896,-0.000000
1191.832888,-9178.553681,995.924147,-0.000000
1191.833200,-8956.491898,842.705048,370.102971
1191.833511,-9178.553681,995.924147,444.123565
1191.833823,-8956.491898,1072.533697,370.102971
1191.834134,-8808.450710,612.876398,1110.308913
1191.834445,-8512.368333,0.000000,1258.350101
1191.834757,-8364.327145,-383.047749,1184.329507
1191.835068,-8068.244768,-689.485948,1110.308913
1191.835380,-7920.203579,-689.485948,888.247130
1191.835691,-7624.121203,-1072.533697,666.185348
1191.836002,-7698.141797,-1532.190996,-148.041188
1191.836314,-7994.224174,-1532.190996,-0.000000
1191.836625,-8512.368333,-1225.752797,-0.000000
1191.836936,-9030.512492,-536.266849,592.164754
1191.837248,-9918.759623,153.219100,740.205942
1191.837559,-10362.883188,383.047749,1036.288319
1191.837871,-9918.759623,612.876398,1258.350101
1191.838182,-9622.677246,919.314598,888.247130
1191.838493,-8512.368333,1072.533697,962.267725
1191.838805,-7624.121203,766.095498,-0.000000
1191.839116,-7772.162391,689.485948,-444.123565
1191.839428,-7031.956449,459.657299,-518.144159
1191.839739,-7624.121203,0.000000,-1332.370696
1191.840050,-8808.450710,-229.828649,-814.226536
1191.840362,-10288.862594,-229.828649,-592.164754
1191.840673,-10732.986159,-306.438199,148.041188
1191.840985,-10881.027347,-459.657299,888.247130
1191.841296,-10732.986159,-383.047749,888.247130
1191.841607,-9918.759623,-1225.752797,1554.432478
1191.841919,-9474.636058,-1225.752797,1332.370696
1191.842230,-8956.491898,-689.485948,1036.288319
1191.842542,-8364.327145,-459.657299,666.185348
1191.842853,-8956.491898,76.609550,740.205942
1191.843164,-9326.594869,-612.876398,-0.000000
1191.843476,-9548.656652,0.000000,-0.000000
1191.843787,-9622.677246,383.047749,296.082377
1191.844098,-9474.636058,766.095498,370.102971
1191.844410,-9474.636058,229.828649,-0.000000
1191.844721,-8882.471304,-153.219100,814.226536
1191.845033,-8290.306550,153.219100,666.185348
1191.845344,-7920.203579,306.438199,962.267725
1191.845655,-8068.244768,459.657299,1776.494261
1191.845967,-7698.141797,-842.705048,1702.473667
1191.846278,-7624.121203,-1225.752797,1554.432478
1191.846590,-7698.141797,-1149.143247,1184.329507
1191.846901,-7550.100608,-1302.362347,518.144159
1191.847212,-8068.244768,-919.314598,296.082377
1191.847524,-8660.409521,-1302.362347,296.082377
1191.847835,-8364.327145,-229.828649,-0.000000
1191.848147,-8882.471304,-459.657299,814.226536
1191.848458,-9548.656652,-842.705048,814.226536
1191.848769,-9252.574275,383.047749,1702.473667
1191.849081,-9400.615463,842.705048,1554.432478
1191.849392,-8586.388927,995.924147,1554.432478
1191.849703,-8068.244768,919.314598,518.144159
1191.850015,-7846.182985,995.924147,148.041188
1191.850326,-7179.997637,689.485948,-296.082377
1191.850638,-7105.977043,995.924147,-814.226536
1191.850949,-8364.327145,766.095498,-1110.308913
1191.851260,-9178.553681,229.828649,-740.205942
1191.851572,-10214.842000,-306.438199,-0.000000
1191.851883,-10510.924376,-919.314598,962.267725
1191.852195,-10140.821405,-919.314598,1110.308913
1191.852506,-9770.718434,-536.266849,1036.288319
1191.852817,-9622.677246,0.000000,1110.308913
1191.853129,-9030.512492,-766.095498,888.247130
1191.853440,-8512.368333,0.000000,444.123565
1191.853752,-9326.594869,0.000000,740.205942
1191.854063,-9474.636058,229.828649,370.102971
1191.854374,-10140.821405,536.266849,296.082377
1191.854686,-9696.697840,612.876398,148.041188
1191.854997,-9326.594869,612.876398,-148.041188
1191.855308,-8956.491898,383.047749,-148.041188
1191.855620,-9326.594869,229.828649,-0.000000
1191.855931,-9030.512492,766.095498,814.226536
1191.856243,-8734.430116,153.219100,814.226536
1191.856554,-8808.450710,0.000000,1332.370696
1191.856865,-8290.306550,-153.219100,1110.308913
1191.857177,-7994.224174,-383.047749,740.205942
1191.857488,-7772.162391,-612.876398,222.061783
1191.857800,-7254.018232,-842.705048,518.144159
1191.858111,-7846.182985,-995.924147,296.082377
1191.858422,-8438.347739,-995.924147,296.082377
1191.858734,-9030.512492,-995.924147,592.164754
1191.859045,-9104.533087,-842.705048,962.267725
1191.859357,-9474.636058,-383.047749,1406.391290
1191.859668,-9622.677246,0.000000,1110.308913
1191.859979,-9252.574275,842.705048,962.267725
1191.860291,-8586.388927,612.876398,888.247130
1191.860602,-8438.347739,459.657299,1036.288319
1191.860913,-7698.141797,459.657299,518.144159
1191.861225,-8068.244768,383.047749,-296.082377
1191.861536,-7698.141797,153.219100,-370.102971
1191.861848,-8142.265362,0.000000,-1036.288319
1191.862159,-9030.512492,229.828649,-888.247130
1191.862470,-9178.553681,306.438199,-0.000000
1191.862782,-9770.718434,-383.047749,222.061783
1191.863093,-10066.800811,-612.876398,740.205942
1191.863405,-9770.718434,-306.438199,1036.288319
1191.863716,-9252.574275,-153.219100,1036.288319
1191.864027,-9326.594869,-306.438199,666.185348
1191.864339,-9030.512492,-153.219100,740.205942
1191.864650,-9030.512492,306.438199,-74.020594
1191.864962,-9474.636058,612.876398,148.041188
1191.865273,-9918.759623,0.000000,148.041188
1191.865584,-9918.759623,-383.047749,-74.020594
1191.865896,-10214.842000,153.219100,444.123565
1191.866207,-9474.636058,383.047749,370.102971
1191.866518,-9030.512492,383.047749,444.123565
1191.866830,-9030.512492,153.219100,740.205942
1191.867141,-8512.368333,459.657299,888.247130
1191.867453,-7846.182985,0.000000,666.185348
1191.867764,-8068.244768,76.609550,1110.308913
1191.868075,-7846.182985,0.000000,962.267725
1191.868387,-8142.265362,-689.485948,518.144159
1191.868698,-7698.141797,-995.924147,740.205942
1191.869010,-7624.121203,-1378.971896,444.123565
1191.869321,-8216.285956,-1225.752797,222.061783
1191.869632,-8808.450710,-1225.752797,296.082377
1191.869944,-9030.512492,-1149.143247,740.205942
1191.870255,-8660.409521,-842.705048,888.247130
1191.870567,-9548.656652,-536.266849,1110.308913
1191.870878,-9548.656652,229.828649,1110.308913
1191.871189,-9696.697840,459.657299,1258.350101
1191.871501,-9252.574275,153.219100,1480.411884
1191.871812,-8142.265362,306.438199,1036.288319
1191.872123,-8142.265362,-153.219100,-0.000000
1191.872435,-7624.121203,-153.219100,-296.082377
1191.872746,-7994.224174,0.000000,-962.267725
1191.873058,-8068.244768,612.876398,-962.267725
1191.873369,-9030.512492,612.876398,-962.267725
1191.873680,-9696.697840,76.609550,-444.123565
1191.873992,-9992.780217,-306.438199,296.082377
1191.874303,-9844.739029,-459.657299,962.267725
1191.874615,-9770.718434,-1149.143247,1258.350101
1191.874926,-9622.677246,-612.876398,740.205942
1191.875237,-9326.594869,-153.219100,962.267725
1191.875549,-9326.594869,-229.828649,888.247130
1191.875860,-8882.471304,-383.047749,740.205942
1191.876172,-9030.512492,-306.438199,370.102971
1191.876483,-9548.656652,0.000000,370.102971
1191.876794,-9326.594869,459.657299,518.144159
1191.877106,-9770.718434,536.266849,-0.000000
1191.877417,-9474.636058,612.876398,518.144159
1191.877728,-9326.594869,842.705048,222.061783
1191.878040,-9400.615463,842.705048,814.226536
1191.878351,-9030.512492,1302.362347,740.205942
1191.878663,-8956.491898,919.314598,1184.329507
1191.878974,-8216.285956,536.266849,1184.329507
1191.879285,-8586.388927,153.219100,1036.288319
1191.879597,-7402.059420,-459.657299,1184.329507
1191.879908,-7105.977043,-459.657299,592.164754
1191.880220,-7105.977043,-995.924147,370.102971
1191.880531,-7328.038826,-842.705048,592.164754
1191.880842,-7846.182985,-919.314598,666.185348
1191.881154,-8216.285956,-612.876398,592.164754
1191.881465,-8956.491898,0.000000,1036.288319
1191.881777,-9622.677246,153.219100,888.247130
1191.882088,-9474.636058,306.438199,1406.391290
1191.882399,-9696.697840,536.266849,1406.391290
1191.882711,-10140.821405,689.485948,888.247130
1191.883022,-9178.553681,306.438199,666.185348
1191.883334,-8290.306550,383.047749,222.061783
1191.883645,-7994.224174,229.828649,-74.020594
1191.883956,-7698.141797,-229.828649,-666.185348
1191.884268,-7994.224174,-229.828649,-370.102971
1191.884579,-8364.327145,76.609550,-444.123565
1191.884890,-9326.594869,-459.657299,-222.061783
1191.885202,-10288.862594,-612.876398,370.102971
1191.885513,-10214.842000,0.000000,1184.329507
1191.885825,-10140.821405,-153.219100,962.267725
1191.886136,-9474.636058,-229.828649,888.247130
1191.886447,-8586.388927,-229.828649,740.205942
1191.886759,-9030.512492,76.609550,-0.000000
1191.887070,-8586.388927,0.000000,592.164754
1191.887382,-9252.574275,-689.485948,-0.000000
1191.887693,-9696.697840,-306.438199,296.082377
1191.888004,-9992.780217,-536.266849,296.082377
1191.888316,-9770.718434,229.828649,370.102971
1191.888627,-9474.636058,766.095498,148.041188
1191.888939,-9474.636058,536.266849,-0.000000
1191.889250,-8956.491898,0.000000,370.102971
1191.889561,-9178.553681,-689.485948,518.144159
1191.889873,-9030.512492,153.219100,1110.308913
1191.890184,-8808.450710,383.047749,1036.288319
1191.890495,-8142.265362,0.000000,814.226536
1191.890807,-7624.121203,-1072.533697,888.247130
1191.891118,-7254.018232,-1225.752797,740.205942
1191.891430,-7105.977043,-536.266849,-0.000000
1191.891741,-7846.182985,-1149.143247,-0.000000
1191.892052,-7994.224174,-612.876398,-0.000000
1191.892364,-8438.347739,-306.438199,370.102971
1191.892675,-9030.512492,-153.219100,592.164754
1191.892987,-9696.697840,76.609550,518.144159
1191.893298,-9770.718434,766.095498,1110.308913
1191.893609,-9770.718434,766.095498,1258.350101
1191.893921,-9326.594869,459.657299,1184.329507
1191.894232,-7994.224174,153.219100,814.226536
1191.894544,-8586.388927,-612.876398,-0.000000
1191.894855,-7179.997637,0.000000,148.041188
1191.895166,-7846.182985,-229.828649,-592.164754
1191.895478,-8512.368333,0.000000,-518.144159
1191.895789,-9474.636058,0.000000,-222.061783
1191.896100,-10510.924376,0.000000,296.082377
1191.896412,-10584.944971,-229.828649,888.247130
1191.896723,-9918.759623,-919.314598,1258.350101
1191.897035,-9252.574275,-612.876398,1258.350101
1191.897346,-9104.533087,-383.047749,888.247130
1191.897657,-8956.491898,-153.219100,814.226536
1191.897969,-8586.388927,76.609550,666.185348
1191.898280,-8882.471304,0.000000,740.205942
1191.898592,-9030.512492,229.828649,370.102971
1191.898903,-9474.636058,459.657299,370.102971
1191.899214,-9548.656652,612.876398,-0.000000
1191.899526,-9400.615463,612.876398,-74.020594
1191.899837,-9326.594869,612.876398,296.082377
1191.900149,-9178.553681,76.609550,592.164754
1191.900460,-8586.388927,153.219100,888.247130
1191.900771,-8586.388927,0.000000,814.226536
1191.901083,-8734.430116,0.000000,1332.370696
1191.901394,-8290.306550,-766.095498,1258.350101
1191.901705,-8290.306550,-1302.362347,1258.350101
1191.902017,-7994.224174,-1608.800546,888.247130
1191.902328,-7476.080014,-1225.752797,888.247130
1191.902640,-7550.100608,-995.924147,518.144159
1191.902951,-7624.121203,-842.705048,518.144159
1191.903262,-8142.265362,-766.095498,296.082377
1191.903574,-8586.388927,0.000000,296.082377
1191.903885,-9104.533087,1225.752797,666.185348
1191.904197,-9918.759623,1225.752797,666.185348
1191.904508,-9918.759623,1762.019645,592.164754
1191.904819,-9474.636058,1608.800546,740.205942
1191.905131,-8808.450710,995.924147,740.205942
1191.905442,-8438.347739,689.485948,-0.000000
1191.905754,-8290.306550,229.828649,-148.041188
1191.906065,-7402.059420,306.438199,-518.144159
1191.906376,-8068.244768,-153.219100,-666.185348
1191.906688,-8512.368333,-459.657299,-370.102971
1191.906999,-9696.697840,-766.095498,-74.020594
1191.907310,-10436.903782,-766.095498,296.082377
1191.907622,-10658.965565,-383.047749,962.267725
1191.907933,-10732.986159,-612.876398,1036.288319
1191.908245,-10288.862594,-459.657299,962.267725
1191.908556,-9178.553681,-766.095498,814.226536
1191.908867,-8956.491898,0.000000,-0.000000
1191.909179,-7994.224174,459.657299,222.061783
1191.909490,-8882.471304,76.609550,296.082377
1191.909802,-9622.677246,76.609550,444.123565
1191.910113,-9992.780217,536.266849,222.061783
1191.910424,-10066.800811,842.705048,296.082377
1191.910736,-9474.636058,689.485948,444.123565
1191.911047,-9400.615463,383.047749,296.082377
1191.911359,-8808.450710,0.000000,-0.000000
1191.911670,-7994.224174,0.000000,592.164754
1191.911981,-8290.306550,0.000000,666.185348
1191.912293,-8364.327145,0.000000,1184.329507
1191.912604,-8216.285956,-459.657299,1258.350101
1191.912915,-8142.265362,-1378.971896,1184.329507
1191.913227,-7550.100608,-1608.800546,1184.329507
1191.913538,-7402.059420,-1685.410096,740.205942
1191.913850,-7624.121203,-995.924147,296.082377
1191.914161,-8364.327145,-766.095498,296.082377
1191.914472,-8586.388927,-919.314598,444.123565
1191.914784,-8808.450710,-612.876398,666.185348
1191.915095,-9622.677246,229.828649,740.205942
1191.915407,-9474.636058,536.266849,1110.308913
1191.915718,-9474.636058,766.095498,1184.329507
1191.916029,-8956.491898,612.876398,1258.350101
1191.916341,-8290.306550,229.828649,962.267725
1191.916652,-8142.265362,229.828649,444.123565
1191.916964,-7698.141797,-153.219100,-0.000000
1191.917275,-7476.080014,0.000000,-444.123565
1191.917586,-8438.347739,-383.047749,-666.185348
1191.917898,-8660.409521,-459.657299,-296.082377
1191.918209,-10362.883188,0.000000,-148.041188
1191.918520,-10214.842000,-383.047749,962.267725
1191.918832,-10436.903782,-689.485948,814.226536
1191.919143,-9918.759623,-612.876398,1110.308913
1191.919455,-9326.594869,-536.266849,888.247130
1191.919766,-9252.574275,-383.047749,666.185348
1191.920077,-8734.430116,-229.828649,518.144159
1191.920389,-8808.450710,536.266849,740.205942
1191.920700,-9030.512492,459.657299,518.144159
1191.921012,-9696.697840,612.876398,222.061783
1191.921323,-9474.636058,766.095498,-296.082377
1191.921634,-9696.697840,995.924147,-0.000000
1191.921946,-9474.636058,995.924147,296.082377
1191.922257,-9104.533087,919.314598,-0.000000
1191.922569,-9178.553681,766.095498,370.102971
1191.922880,-8882.471304,766.095498,518.144159
1191.923191,-8808.450710,0.000000,666.185348
1191.923503,-8068.244768,76.609550,740.205942
1191.923814,-7846.182985,-766.095498,444.123565
1191.924126,-7920.203579,-919.314598,888.247130
1191.924437,-7476.080014,-919.314598,888.247130
1191.924748,-7550.100608,-1072.533697,1036.288319
1191.925060,-8290.306550,-1072.533697,666.185348
1191.925371,-8512.368333,-842.705048,444.123565
1191.925682,-9104.533087,-536.266849,296.082377
1191.925994,-9326.594869,0.000000,814.226536
1191.926305,-9474.636058,0.000000,814.226536
1191.926617,-9400.615463,459.657299,1110.308913
1191.926928,-9474.636058,383.047749,1258.350101
1191.927239,-8586.388927,153.219100,1332.370696
1191.927551,-7994.224174,0.000000,740.205942
1191.927862,-7994.224174,766.095498,148.041188
1191.928174,-7550.100608,306.438199,-666.185348
1191.928485,-7994.224174,536.266849,-1110.308913
1191.928796,-8734.430116,229.828649,-666.185348
1191.929108,-9400.615463,76.609550,-518.144159
1191.929419,-10140.821405,-153.219100,-74.020594
1191.929731,-10584.944971,-229.828649,666.185348
1191.930042,-10362.883188,-383.047749,888.247130
1191.930353,-9400.615463,-306.438199,592.164754
1191.930665,-9400.615463,-383.047749,370.102971
1191.930976,-8808.450710,0.000000,740.205942
1191.931288,-8956.491898,0.000000,370.102971
1191.931599,-9030.512492,0.000000,518.144159
1191.931911,-9622.677246,0.000000,222.061783
1191.932222,-9918.759623,76.609550,296.082377
1191.932534,-9992.780217,459.657299,444.123565
1191.932845,-9474.636058,766.095498,222.061783
1191.933156,-8956.491898,919.314598,-592.164754
1191.933468,-9326.594869,612.876398,-0.000000
1191.933779,-9252.574275,459.657299,740.205942
1191.934091,-9030.512492,229.828649,814.226536
1191.934402,-8586.388927,306.438199,1110.308913
1191.934714,-8216.285956,0.000000,1036.288319
1191.935025,-7772.162391,-306.438199,1036.288319
1191.935337,-7031.956449,-1072.533697,1036.288319
1191.935648,-6957.935855,-1608.800546,814.226536
1191.935960,-7328.038826,-919.314598,222.061783
1191.936271,-8216.285956,-1072.533697,444.123565
1191.936583,-8512.368333,-842.705048,518.144159
1191.936894,-8956.491898,-612.876398,740.205942
1191.937206,-9400.615463,-229.828649,1110.308913
1191.937517,-9104.533087,0.000000,1184.329507
1191.937829,-9474.636058,153.219100,1554.432478
1191.938140,-9844.739029,153.219100,1406.391290
1191.938451,-8216.285956,459.657299,1036.288319
1191.938763,-7698.141797,153.219100,740.205942
1191.939074,-7476.080014,0.000000,296.082377
1191.939386,-7105.977043,306.438199,-370.102971
1191.939697,-7698.141797,306.438199,-1036.288319
1191.940009,-8068.244768,76.609550,-814.226536
1191.940320,-9622.677246,459.657299,-592.164754
1191.940632,-10658.965565,0.000000,296.082377
1191.940943,-10881.027347,-459.657299,1110.308913
1191.941255,-10362.883188,-842.705048,1110.308913
1191.941566,-9844.739029,-1149.143247,1184.329507
1191.941878,-9326.594869,-536.266849,1036.288319
1191.942189,-8586.388927,-153.219100,740.205942
1191.942501,-8734.430116,-689.485948,296.082377
1191.942812,-8956.491898,76.609550,1184.329507
1191.943124,-9622.677246,383.047749,592.164754
1191.943435,-9918.759623,383.047749,148.041188
1191.943746,-10140.821405,919.314598,370.102971
1191.944058,-10140.821405,1225.752797,370.102971
1191.944369,-9548.656652,1149.143247,370.102971
1191.944681,-8882.471304,919.314598,518.144159
1191.944992,-7846.182985,995.924147,518.144159
1191.945304,-8586.388927,153.219100,518.144159
1191.945615,-7846.182985,153.219100,814.226536
1191.945927,-7920.203579,-459.657299,962.267725
1191.946238,-8068.244768,-842.705048,666.185348
1191.946550,-7698.141797,-842.705048,518.144159
1191.946861,-7846.182985,-995.924147,296.082377
1191.947173,-8142.265362,-1072.533697,-0.000000
1191.947484,-8586.388927,-919.314598,-0.000000
1191.947796,-8512.368333,459.657299,-74.020594
1191.948107,-8660.409521,-306.438199,-0.000000
1191.948419,-9252.574275,229.828649,814.226536
1191.948730,-9474.636058,536.266849,1332.370696
1191.949041,-9326.594869,919.314598,1184.329507
1191.949353,-9252.574275,1302.362347,1036.288319
1191.949664,-8216.285956,842.705048,814.226536
1191.949976,-8216.285956,153.219100,-74.020594
1191.950287,-7772.162391,229.828649,-592.164754
1191.950599,-7402.059420,229.828649,-518.144159
1191.950910,-8290.306550,-229.828649,-1036.288319
1191.951222,-9178.553681,229.828649,-444.123565
1191.951533,-10214.842000,-383.047749,-0.000000
1191.951845,-11103.089130,-1302.362347,814.226536
1191.952156,-10510.924376,-612.876398,1554.432478
1191.952468,-9844.739029,-383.047749,1924.535449
1191.952779,-9326.594869,-842.705048,740.205942
1191.953091,-8586.388927,-306.438199,814.226536
1191.953402,-8364.327145,0.000000,222.061783
1191.953714,-8216.285956,76.609550,-0.000000
1191.954025,-9326.594869,0.000000,222.061783
1191.954336,-9548.656652,76.609550,666.185348
1191.954648,-9622.677246,0.000000,518.144159
1191.954959,-9844.739029,306.438199,666.185348
1191.955271,-9548.656652,0.000000,518.144159
1191.955582,-9474.636058,306.438199,296.082377
1191.955894,-9178.553681,306.438199,592.164754
1191.956205,-8512.368333,306.438199,740.205942
1191.956517,-8438.347739,153.219100,1036.288319
1191.956828,-7846.182985,383.047749,1184.329507
1191.957140,-7698.141797,-383.047749,814.226536
1191.957451,-7254.018232,-1532.190996,962.267725
1191.957763,-7179.997637,-1991.848295,888.247130
1191.958074,-7550.100608,-1225.752797,444.123565
1191.958386,-8438.347739,-1149.143247,-0.000000
1191.958697,-8586.388927,-1072.533697,222.061783
1191.959009,-9104.533087,-689.485948,296.082377
1191.959320,-9696.697840,0.000000,592.164754
1191.959631,-10658.965565,76.609550,370.102971
1191.959943,-9770.718434,689.485948,962.267725
1191.960254,-9474.636058,689.485948,1184.329507
1191.960566,-8660.409521,766.095498,1332.370696
1191.960877,-7476.080014,306.438199,666.185348
1191.961189,-7328.038826,306.438199,-0.000000
1191.961500,-7105.977043,0.000000,-296.082377
1191.961812,-7402.059420,76.609550,-1332.370696
1191.962123,-8586.388927,-536.266849,-814.226536
1191.962435,-10214.842000,76.609550,-666.185348
1191.962746,-11103.089130,-459.657299,148.041188
1191.963058,-10881.027347,-536.266849,518.144159
1191.963369,-10584.944971,-612.876398,1110.308913
1191.963681,-9992.780217,-612.876398,1036.288319
1191.963992,-9400.615463,-229.828649,1036.288319
1191.964304,-8438.347739,0.000000,666.185348
1191.964615,-8438.347739,459.657299,444.123565
1191.964926,-9030.512492,-536.266849,740.205942
1191.965238,-9474.636058,153.219100,444.123565
1191.965549,-9548.656652,306.438199,148.041188
1191.965861,-9474.636058,689.485948,148.041188
1191.966172,-9622.677246,919.314598,148.041188
1191.966484,-9474.636058,383.047749,370.102971
1191.966795,-9252.574275,536.266849,222.061783
1191.967107,-8660.409521,689.485948,740.205942
1191.967418,-8734.430116,229.828649,814.226536
1191.967730,-8438.347739,0.000000,1258.350101
1191.968041,-7920.203579,-536.266849,1184.329507
1191.968353,-7328.038826,-919.314598,962.267725
1191.968664,-7105.977043,-1532.190996,814.226536
1191.968976,-7105.977043,-1302.362347,740.205942
1191.969287,-8142.265362,-1302.362347,148.041188
1191.969599,-8586.388927,-1378.971896,296.082377
1191.969910,-8882.471304,-995.924147,370.102971
1191.970221,-9474.636058,0.000000,814.226536
1191.970533,-9844.739029,-229.828649,1184.329507
1191.970844,-9770.718434,153.219100,888.247130
1191.971156,-9474.636058,1302.362347,962.267725
1191.971467,-8438.347739,1532.190996,1184.329507
1191.971779,-8290.306550,1225.752797,592.164754
1191.972090,-7550.100608,1072.533697,592.164754
1191.972402,-7846.182985,459.657299,-74.020594
1191.972713,-7402.059420,0.000000,-518.144159
1191.973025,-7846.182985,153.219100,-962.267725
1191.973336,-8882.471304,306.438199,-518.144159
1191.973648,-10140.821405,76.609550,-518.144159
1191.973959,-10362.883188,-995.924147,296.082377
1191.974271,-10732.986159,-229.828649,592.164754
1191.974582,-10140.821405,-612.876398,1332.370696
1191.974894,-9548.656652,-612.876398,1184.329507
1191.975205,-9104.533087,-689.485948,1110.308913
1191.975516,-8660.409521,-459.657299,444.123565
1191.975828,-8586.388927,76.609550,370.102971
1191.976139,-9030.512492,76.609550,-0.000000
1191.976451,-9400.615463,76.609550,370.102971
1191.976762,-9844.739029,0.000000,222.061783
1191.977074,-9770.718434,229.828649,-0.000000
1191.977385,-9474.636058,766.095498,370.102971
1191.977697,-9104.533087,612.876398,370.102971
1191.978008,-8956.491898,306.438199,666.185348
1191.978320,-8734.430116,76.609550,740.205942
1191.978631,-8364.327145,229.828649,592.164754
1191.978943,-8438.347739,842.705048,1036.288319
1191.979254,-8142.265362,383.047749,888.247130
1191.979566,-7476.080014,-1302.362347,518.144159
1191.979877,-7476.080014,-1991.848295,740.205942
1191.980189,-7402.059420,-1762.019645,370.102971
1191.980500,-8142.265362,-1378.971896,-0.000000
1191.980811,-8586.388927,-1455.581446,518.144159
1191.981123,-9030.512492,-1302.362347,222.061783
1191.981434,-9548.656652,-2068.457845,1110.308913
1191.981746,-9474.636058,-995.924147,1554.432478
1191.982057,-9992.780217,0.000000,962.267725
1191.982369,-9844.739029,536.266849,1258.350101
1191.982680,-9178.553681,536.266849,1258.350101
1191.982992,-7994.224174,153.219100,962.267725
1191.983303,-7402.059420,306.438199,-0.000000
1191.983615,-7476.080014,0.000000,-888.247130
1191.983926,-7698.141797,766.095498,-1110.308913
1191.984238,-8142.265362,153.219100,-1036.288319
1191.984549,-9178.553681,383.047749,-592.164754
1191.984861,-9992.780217,-153.219100,-0.000000
1191.985172,-11029.068536,-766.095498,444.123565
1191.985484,-10584.944971,-612.876398,1258.350101
1191.985795,-9770.718434,-766.095498,1036.288319
1191.986106,-9178.553681,0.000000,888.247130
1191.986418,-9252.574275,306.438199,370.102971
1191.986729,-8734.430116,76.609550,592.164754
1191.987041,-9104.533087,0.000000,740.205942
1191.987352,-9474.636058,153.219100,518.144159
1191.987664,-10066.800811,459.657299,370.102971
1191.987975,-10288.862594,842.705048,-0.000000
1191.988287,-9770.718434,842.705048,296.082377
1191.988598,-9030.512492,919.314598,370.102971
1191.988910,-9474.636058,842.705048,222.061783
1191.989221,-9474.636058,1378.971896,370.102971
1191.989533,-8956.491898,1149.143247,888.247130
1191.989844,-8512.368333,995.924147,1036.288319
1191.990156,-7772.162391,306.438199,1184.329507
1191.990467,-7550.100608,0.000000,962.267725
1191.990779,-6957.935855,-766.095498,1036.288319
1191.991090,-6809.894666,-919.314598,518.144159
1191.991401,-7031.956449,-995.924147,592.164754
1191.991713,-7476.080014,-536.266849,444.123565
1191.992024,-8142.265362,-766.095498,444.123565
1191.992336,-8512.368333,-919.314598,444.123565
1191.992647,-9178.553681,-306.438199,888.247130
1191.992959,-9770.718434,76.609550,814.226536
1191.993270,-9474.636058,1149.143247,1480.411884
1191.993582,-9548.656652,1225.752797,1258.350101
1191.993893,-8808.450710,842.705048,1184.329507
1191.994205,-7994.224174,306.438199,592.164754
1191.994516,-7920.203579,229.828649,-148.041188
1191.994828,-7624.121203,306.438199,-222.061783
1191.995139,-7994.224174,229.828649,-888.247130
1191.995451,-8586.388927,0.000000,-888.247130
1191.995762,-8956.491898,-1072.533697,-148.041188
1191.996074,-10214.842000,-1072.533697,444.123565
1191.996385,-10288.862594,-1302.362347,962.267725
1191.996696,-10214.842000,-612.876398,1184.329507
1191.997008,-9622.677246,-459.657299,814.226536
1191.997319,-9030.512492,-459.657299,888.247130
1191.997631,-8586.388927,-153.219100,740.205942
1191.997942,-8512.368333,229.828649,74.020594
1191.998254,-8808.450710,229.828649,370.102971
1191.998565,-10066.800811,76.609550,-0.000000
1191.998877,-9992.780217,0.000000,444.123565
1191.999188,-9918.759623,0.000000,148.041188
1191.999500,-9918.759623,0.000000,444.123565
1191.999811,-9696.697840,-229.828649,-0.000000
1192.000123,-9400.615463,153.219100,518.144159
1192.000434,-9104.533087,76.609550,592.164754
1192.000746,-8216.285956,0.000000,962.267725
1192.001057,-8808.450710,153.219100,666.185348
1192.001369,-8216.285956,76.609550,1406.391290
1192.001680,-7624.121203,-459.657299,1258.350101
1192.001991,-7476.080014,-842.705048,1036.288319
1192.002303,-7402.059420,-536.266849,666.185348
1192.002614,-7698.141797,-536.266849,222.061783
1192.002926,-7772.162391,-766.095498,-0.000000
1192.003237,-8142.265362,-1149.143247,-0.000000
1192.003549,-9104.533087,-612.876398,296.082377
1192.003860,-9548.656652,-383.047749,888.247130
1192.004172,-10362.883188,0.000000,1184.329507
1192.004483,-9992.780217,536.266849,1702.473667
1192.004795,-9474.636058,766.095498,1406.391290
1192.005106,-8290.306550,536.266849,1554.432478
1192.005418,-7031.956449,306.438199,-0.000000
1192.005729,-7328.038826,459.657299,-518.144159
1192.006041,-6957.935855,306.438199,-666.185348
1192.006352,-7846.182985,76.609550,-1036.288319
1192.006664,-8882.471304,-229.828649,-370.102971
1192.006975,-9918.759623,-536.266849,-148.041188
1192.007286,-11029.068536,-612.876398,666.185348
1192.007598,-10881.027347,-689.485948,1184.329507
1192.007909,-10066.800811,-306.438199,1184.329507
1192.008221,-9622.677246,-153.219100,370.102971
1192.008532,-8882.471304,0.000000,592.164754
1192.008844,-8364.327145,536.266849,444.123565
1192.009155,-8808.450710,459.657299,296.082377
1192.009467,-9326.594869,383.047749,592.164754
1192.009778,-9548.656652,536.266849,518.144159
1192.010090,-9474.636058,536.266849,296.082377
1192.010401,-9622.677246,459.657299,518.144159
1192.010713,-9696.697840,0.000000,962.267725
1192.011024,-9400.615463,0.000000,444.123565
1192.011336,-9400.615463,306.438199,592.164754
1192.011647,-8660.409521,383.047749,888.247130
1192.011959,-8512.368333,0.000000,1036.288319
1192.012270,-7994.224174,-383.047749,1406.391290
1192.012581,-7624.121203,0.000000,1036.288319
1192.012893,-7846.182985,0.000000,444.123565
1192.013204,-7031.956449,-306.438199,814.226536
1192.013516,-7179.997637,-459.657299,444.123565
1192.013827,-7772.162391,-766.095498,222.061783
1192.014139,-8364.327145,-1302.362347,370.102971
1192.014450,-8734.430116,-1149.143247,518.144159
1192.014762,-9474.636058,-766.095498,888.247130
1192.015073,-9696.697840,-229.828649,814.226536
1192.015385,-10510.924376,0.000000,740.205942
1192.015696,-10140.821405,536.266849,1258.350101
1192.016008,-9474.636058,689.485948,962.267725
1192.016319,-8142.265362,842.705048,888.247130
1192.016631,-7920.203579,459.657299,-296.082377
1192.016942,-7476.080014,383.047749,-444.123565
1192.017254,-6809.894666,76.609550,-814.226536
1192.017565,-7254.018232,229.828649,-1258.350101
1192.017876,-8512.368333,229.828649,-518.144159
1192.018188,-9770.718434,-306.438199,-370.102971
1192.018499,-11177.109724,-1072.533697,666.185348
1192.018811,-11177.109724,-612.876398,1480.411884
1192.019122,-10436.903782,-459.657299,1332.370696
1192.019434,-9844.739029,-766.095498,962.267725
1192.019745,-9178.553681,-153.219100,518.144159
1192.020057,-8290.306550,153.219100,222.061783
1192.020368,-8068.244768,842.705048,444.123565
1192.020680,-8660.409521,766.095498,-0.000000
1192.020991,-9400.615463,229.828649,296.082377
1192.021303,-9696.697840,0.000000,370.102971
1192.021614,-9770.718434,383.047749,444.123565
1192.021926,-9548.656652,689.485948,592.164754
1192.022237,-10066.800811,153.219100,370.102971
1192.022549,-9696.697840,-229.828649,1258.350101
1192.022860,-9252.574275,-612.876398,1036.288319
1192.023171,-9178.553681,229.828649,1110.308913
1192.023483,-8364.327145,0.000000,1110.308913
1192.023794,-7698.141797,-153.219100,888.247130
1192.024106,-7402.059420,-919.314598,814.226536
1192.024417,-6809.894666,-1378.971896,666.185348
1192.024729,-6735.874072,-1532.190996,666.185348
1192.025040,-7846.182985,-766.095498,518.144159
1192.025352,-8660.409521,-766.095498,592.164754
1192.025663,-9400.615463,-995.924147,592.164754
1192.025975,-9474.636058,-842.705048,888.247130
1192.026286,-9696.697840,0.000000,1184.329507
1192.026598,-9770.718434,153.219100,1554.432478
1192.026909,-9696.697840,0.000000,1480.411884
1192.027221,-8882.471304,383.047749,1184.329507
1192.027532,-8216.285956,153.219100,814.226536
1192.027844,-7624.121203,76.609550,-0.000000
1192.028155,-7105.977043,153.219100,-296.082377
1192.028466,-7105.977043,76.609550,-1036.288319
1192.028778,-8142.265362,0.000000,-888.247130
1192.029089,-9030.512492,153.219100,-370.102971
1192.029401,-10214.842000,229.828649,-222.061783
1192.029712,-10881.027347,0.000000,888.247130
1192.030024,-10510.924376,-1302.362347,1258.350101
1192.030335,-10066.800811,-689.485948,1332.370696
1192.030647,-9104.533087,-689.485948,1036.288319
1192.030958,-8734.430116,76.609550,740.205942
1192.031270,-8586.388927,306.438199,518.144159
1192.031581,-8734.430116,0.000000,296.082377
1192.031893,-9252.574275,229.828649,-74.020594
1192.032204,-9252.574275,919.314598,-74.020594
1192.032516,-9252.574275,1149.143247,-0.000000
1192.032827,-9474.636058,306.438199,-0.000000
1192.033139,-9400.615463,306.438199,74.020594
1192.033450,-9400.615463,0.000000,296.082377
1192.033761,-9400.615463,383.047749,740.205942
1192.034073,-9030.512492,383.047749,814.226536
1192.034384,-9030.512492,0.000000,1110.308913
1192.034696,-8438.347739,229.828649,1332.370696
1192.035007,-8142.265362,-1149.143247,814.226536
1192.035319,-7254.018232,-1149.143247,814.226536
1192.035630,-7105.977043,-612.876398,222.061783
