#time,accel_x,accel_y,accel_z
1303.295332,-8882.471304,0.000000,444.123565
1303.295643,-8660.409521,0.000000,370.102971
1303.295955,-8808.450710,0.000000,518.144159
1303.296266,-8808.450710,-153.219100,666.185348
1303.296578,-8956.491898,0.000000,592.164754
1303.296889,-8882.471304,-153.219100,666.185348
1303.297201,-8586.388927,0.000000,518.144159
1303.297512,-8808.450710,0.000000,222.061783
1303.297824,-8808.450710,0.000000,592.164754
1303.298135,-8586.388927,0.000000,518.144159
1303.298447,-8956.491898,0.000000,444.123565
1303.298759,-9104.533087,153.219100,740.205942
1303.299070,-9178.553681,0.000000,666.185348
1303.299382,-9030.512492,229.828649,666.185348
1303.299693,-8882.471304,229.828649,444.123565
1303.300005,-8586.388927,0.000000,-0.000000
1303.300316,-8586.388927,76.609550,296.082377
1303.300628,-8734.430116,-536.266849,666.185348
1303.300939,-8956.491898,-229.828649,592.164754
1303.301251,-9030.512492,0.000000,592.164754
1303.301562,-9030.512492,0.000000,666.185348
1303.301874,-8956.491898,-612.876398,370.102971
1303.302186,-9104.533087,0.000000,518.144159
1303.302497,-8882.471304,-766.095498,444.123565
1303.302809,-8882.471304,0.000000,592.164754
1303.303120,-9030.512492,-153.219100,592.164754
1303.303432,-9252.574275,0.000000,370.102971
1303.303743,-9104.533087,0.000000,666.185348
1303.304055,-8956.491898,0.000000,592.164754
1303.304366,-9030.512492,0.000000,518.144159
1303.304678,-9030.512492,153.219100,-0.000000
1303.304989,-8734.430116,612.876398,370.102971
1303.305301,-8882.471304,0.000000,666.185348
1303.305612,-8808.450710,76.609550,740.205942
1303.305924,-8956.491898,-229.828649,592.164754
1303.306236,-8956.491898,0.000000,592.164754
1303.306547,-8956.491898,0.000000,592.164754
1303.306859,-8956.491898,0.000000,444.123565
1303.307170,-8808.450710,76.609550,370.102971
1303.307482,-8660.409521,0.000000,444.123565
1303.307793,-8734.430116,0.000000,148.041188
1303.308105,-8808.450710,0.000000,444.123565
1303.308416,-9030.512492,153.219100,518.144159
1303.308728,-9104.533087,0.000000,370.102971
1303.309039,-8956.491898,0.000000,592.164754
1303.309351,-9178.553681,0.000000,592.164754
1303.309662,-8956.491898,1149.143247,222.061783
1303.309974,-9104.533087,0.000000,296.082377
1303.310286,-8882.471304,-459.657299,740.205942
1303.310597,-9104.533087,0.000000,444.123565
1303.310909,-8956.491898,0.000000,592.164754
1303.311220,-8956.491898,-306.438199,592.164754
1303.311532,-8808.450710,-536.266849,518.144159
1303.311843,-8882.471304,0.000000,370.102971
1303.312155,-8808.450710,0.000000,666.185348
1303.312466,-8882.471304,-76.609550,814.226536
1303.312778,-9030.512492,-229.828649,444.123565
1303.313089,-9030.512492,153.219100,592.164754
1303.313401,-9104.533087,0.000000,592.164754
1303.313712,-9030.512492,-153.219100,444.123565
1303.314024,-8956.491898,76.609550,370.102971
1303.314336,-8734.430116,536.266849,740.205942
1303.314647,-8808.450710,-153.219100,370.102971
1303.314959,-8734.430116,0.000000,518.144159
1303.315270,-8660.409521,-229.828649,518.144159
1303.315582,-9030.512492,0.000000,666.185348
1303.315893,-8882.471304,-229.828649,592.164754
1303.316205,-8956.491898,0.000000,518.144159
1303.316516,-8660.409521,76.609550,666.185348
1303.316828,-8734.430116,-153.219100,-0.000000
1303.317139,-8808.450710,0.000000,518.144159
1303.317451,-8882.471304,0.000000,444.123565
1303.317762,-9104.533087,0.000000,666.185348
1303.318074,-9104.533087,0.000000,592.164754
1303.318386,-9104.533087,0.000000,444.123565
1303.318697,-9030.512492,0.000000,370.102971
1303.319009,-8882.471304,0.000000,222.061783
1303.319320,-8808.450710,306.438199,296.082377
1303.319632,-9030.512492,0.000000,518.144159
1303.319943,-9252.574275,0.000000,444.123565
1303.320255,-9178.553681,0.000000,444.123565
1303.320566,-8808.450710,0.000000,666.185348
1303.320878,-8882.471304,-229.828649,444.123565
1303.321189,-8660.409521,-153.219100,518.144159
1303.321501,-9030.512492,-229.828649,518.144159
1303.321812,-9326.594869,229.828649,370.102971
1303.322124,-11251.130318,459.657299,148.041188
1303.322436,-11177.109724,2911.162892,518.144159
1303.322747,-8660.409521,4749.792088,740.205942
1303.323059,-7994.224174,3600.648841,888.247130
1303.323370,-6883.915261,995.924147,1406.391290
1303.323682,-6513.812290,-1225.752797,148.041188
1303.323993,-8142.265362,-842.705048,-148.041188
1303.324305,-7624.121203,-459.657299,-370.102971
1303.324616,-11547.212695,-766.095498,-1628.453072
1303.324928,-12509.480420,0.000000,-296.082377
1303.325239,-9992.780217,919.314598,518.144159
1303.325551,-8660.409521,76.609550,1332.370696
1303.325862,-9178.553681,-536.266849,2590.720797
1303.326174,-11325.150913,383.047749,1110.308913
1303.326486,-7920.203579,4979.620737,2516.700203
1303.326797,-5255.462188,5209.449386,2146.597232
1303.327109,-7624.121203,2528.115143,1702.473667
1303.327420,-8290.306550,2145.067394,-148.041188
1303.327732,-7698.141797,2681.334243,-1480.411884
1303.328043,-8808.450710,3370.820191,-1480.411884
1303.328355,-8290.306550,3983.696590,-518.144159
1303.328666,-11917.315666,2451.505594,-1924.535449
1303.328978,-12953.603985,-689.485948,740.205942
1303.329289,-9326.594869,-919.314598,2220.617826
1303.329601,-10881.027347,919.314598,962.267725
1303.329912,-8438.347739,6052.154434,2738.761985
1303.330224,-8216.285956,6205.373534,962.267725
1303.330536,-7402.059420,3294.210641,2738.761985
1303.330847,-5995.668130,4903.011187,1924.535449
1303.331159,-7624.121203,7201.297681,814.226536
1303.331470,-8734.430116,6128.763984,-592.164754
1303.331782,-10140.821405,4979.620737,-0.000000
1303.332093,-9030.512492,4826.401637,-1480.411884
1303.332405,-9326.594869,5669.106685,-1480.411884
1303.332716,-10658.965565,5056.230287,-666.185348
1303.333028,-10658.965565,4519.963438,1110.308913
1303.333339,-10584.944971,3983.696590,1776.494261
1303.333651,-9104.533087,4979.620737,2590.720797
1303.333962,-7402.059420,6128.763984,2072.576638
1303.334274,-6365.771101,5592.497135,444.123565
1303.334586,-5847.626942,5362.668486,814.226536
1303.334897,-5255.462188,5286.058936,-370.102971
1303.335209,-6291.750507,4673.182538,-1036.288319
1303.335520,-8290.306550,3907.087040,-0.000000
1303.335832,-9400.615463,2298.286494,-148.041188
1303.336143,-10658.965565,1149.143247,148.041188
1303.336455,-9622.677246,612.876398,1406.391290
1303.336766,-10362.883188,153.219100,1332.370696
1303.337078,-10214.842000,842.705048,1702.473667
1303.337389,-8956.491898,2451.505594,1998.556043
1303.337701,-8216.285956,3677.258390,1258.350101
1303.338012,-7031.956449,3830.477490,444.123565
1303.338324,-7550.100608,4290.134789,-148.041188
1303.338636,-7994.224174,3907.087040,-666.185348
1303.338947,-6883.915261,4136.915689,-666.185348
1303.339259,-7402.059420,1455.581446,-1554.432478
1303.339570,-9030.512492,-1149.143247,-518.144159
1303.339882,-10214.842000,-2374.896044,-0.000000
1303.340193,-11917.315666,-2221.676944,296.082377
1303.340505,-13101.645173,-1608.800546,1406.391290
1303.340816,-13767.830521,-1072.533697,1258.350101
1303.341128,-12435.459826,842.705048,1110.308913
1303.341439,-10584.944971,2451.505594,-0.000000
1303.341751,-7846.182985,4136.915689,-0.000000
1303.342062,-6291.750507,3983.696590,296.082377
1303.342374,-6735.874072,4673.182538,814.226536
1303.342686,-7179.997637,4519.963438,962.267725
1303.342997,-8290.306550,2834.553343,444.123565
1303.343309,-10066.800811,1225.752797,-148.041188
1303.343620,-11251.130318,612.876398,-518.144159
1303.343932,-12731.542202,1225.752797,-1036.288319
1303.344243,-13101.645173,536.266849,-0.000000
1303.344555,-13027.624579,842.705048,518.144159
1303.344866,-11695.253884,2068.457845,1258.350101
1303.345178,-9178.553681,3294.210641,1628.453072
1303.345489,-6735.874072,4290.134789,2516.700203
1303.345801,-4219.173869,4979.620737,1332.370696
1303.346112,-1998.556043,5669.106685,-148.041188
1303.346424,-1554.432478,5439.278036,-740.205942
1303.346736,-3404.947333,3524.039291,-1258.350101
1303.347047,-7994.224174,1685.410096,-518.144159
1303.347359,-12139.377449,1608.800546,444.123565
1303.347670,-14582.057057,1532.190996,1184.329507
1303.347982,-14730.098246,1838.629195,2590.720797
1303.348293,-11991.336260,1378.971896,2442.679609
1303.348605,-8808.450710,1378.971896,2590.720797
1303.348916,-5699.585753,1072.533697,1628.453072
1303.349228,-3478.967927,1915.238745,740.205942
1303.349539,-2664.741391,3600.648841,-74.020594
1303.349851,-3478.967927,4366.744339,-814.226536
1303.350162,-6217.729913,3217.601092,-1258.350101
1303.350474,-8660.409521,766.095498,-518.144159
1303.350786,-9548.656652,536.266849,666.185348
1303.351097,-11103.089130,-1302.362347,888.247130
1303.351409,-10732.986159,-2681.334243,2072.576638
1303.351720,-10658.965565,-4443.353888,2146.597232
1303.352032,-9844.739029,-4749.792088,2146.597232
1303.352343,-9252.574275,-4290.134789,1628.453072
1303.352655,-9992.780217,-2068.457845,1480.411884
1303.352966,-10584.944971,1225.752797,-0.000000
1303.353278,-10066.800811,3294.210641,-444.123565
1303.353589,-10214.842000,3600.648841,-0.000000
1303.353901,-9696.697840,2604.724693,-370.102971
1303.354212,-8956.491898,1762.019645,-0.000000
1303.354524,-8660.409521,0.000000,-296.082377
1303.354836,-8734.430116,-919.314598,148.041188
1303.355147,-9252.574275,-1302.362347,-444.123565
1303.355459,-10436.903782,-1608.800546,-222.061783
1303.355770,-10955.047942,-1149.143247,592.164754
1303.356082,-11695.253884,-766.095498,740.205942
1303.356393,-10436.903782,229.828649,1406.391290
1303.356705,-9844.739029,0.000000,370.102971
1303.357016,-9400.615463,153.219100,-222.061783
1303.357328,-8586.388927,766.095498,-1258.350101
1303.357639,-7846.182985,1838.629195,-1998.556043
1303.357951,-7698.141797,2145.067394,-1924.535449
1303.358262,-9326.594869,1532.190996,-1258.350101
1303.358574,-9400.615463,1915.238745,-0.000000
1303.358886,-8734.430116,383.047749,1850.514855
1303.359197,-8956.491898,-919.314598,3034.844362
1303.359509,-8068.244768,-2298.286494,4071.132681
1303.359820,-8660.409521,-2451.505594,3182.885551
1303.360132,-7550.100608,-1991.848295,2220.617826
1303.360443,-6883.915261,689.485948,-1110.308913
1303.360755,-7624.121203,3600.648841,-1998.556043
1303.361066,-8068.244768,4213.525239,-2516.700203
1303.361378,-7772.162391,3370.820191,-1998.556043
1303.361689,-7031.956449,2451.505594,-740.205942
1303.362001,-6587.832884,459.657299,518.144159
1303.362312,-5847.626942,-1302.362347,1998.556043
1303.362624,-7031.956449,-2911.162892,2146.597232
1303.362936,-8882.471304,-3140.991542,2590.720797
1303.363247,-9252.574275,-2834.553343,2294.638420
1303.363559,-11029.068536,-536.266849,2146.597232
1303.363870,-11917.315666,1149.143247,1480.411884
1303.364182,-12139.377449,1762.019645,666.185348
1303.364493,-11473.192101,1915.238745,370.102971
1303.364805,-9474.636058,1532.190996,-222.061783
1303.365116,-6735.874072,842.705048,296.082377
1303.365428,-6143.709319,-1072.533697,-296.082377
1303.365739,-6143.709319,-1685.410096,-888.247130
1303.366051,-7031.956449,-842.705048,-0.000000
1303.366363,-8660.409521,-1532.190996,814.226536
1303.366674,-10362.883188,-1149.143247,1998.556043
1303.366985,-11917.315666,-919.314598,2442.679609
1303.367297,-12435.459826,-1378.971896,2516.700203
1303.367608,-11251.130318,-1455.581446,1628.453072
1303.367920,-10140.821405,-766.095498,740.205942
1303.368231,-9400.615463,0.000000,-0.000000
1303.368543,-9326.594869,612.876398,-1110.308913
1303.368854,-9918.759623,1608.800546,-1850.514855
1303.369166,-9696.697840,2451.505594,-1258.350101
1303.369477,-9622.677246,2145.067394,-296.082377
1303.369789,-8734.430116,689.485948,962.267725
1303.370100,-7476.080014,-2145.067394,1850.514855
1303.370412,-7846.182985,-3600.648841,2442.679609
1303.370723,-8142.265362,-3677.258390,3108.864956
1303.371034,-8142.265362,-2221.676944,1924.535449
1303.371346,-8808.450710,-153.219100,962.267725
1303.371657,-9400.615463,1072.533697,-0.000000
1303.371969,-9474.636058,2221.676944,-592.164754
1303.372280,-9178.553681,2374.896044,-1184.329507
1303.372592,-7772.162391,2834.553343,-1480.411884
1303.372903,-6809.894666,0.000000,-740.205942
1303.373215,-6735.874072,-689.485948,-592.164754
1303.373526,-7328.038826,-1072.533697,-222.061783
1303.373838,-8216.285956,-1149.143247,-74.020594
1303.374149,-9104.533087,-229.828649,1036.288319
1303.374460,-10066.800811,536.266849,2368.659014
1303.374772,-10881.027347,0.000000,2294.638420
1303.375083,-9696.697840,-306.438199,2146.597232
1303.375395,-8438.347739,-689.485948,1702.473667
1303.375706,-7328.038826,-1072.533697,1406.391290
1303.376018,-6735.874072,-1608.800546,-148.041188
1303.376329,-7105.977043,-1072.533697,-1850.514855
1303.376641,-7550.100608,229.828649,-2146.597232
1303.376952,-8216.285956,1149.143247,-1776.494261
1303.377264,-9474.636058,766.095498,-1406.391290
1303.377575,-10436.903782,459.657299,-296.082377
1303.377886,-10140.821405,-459.657299,592.164754
1303.378198,-10214.842000,-1838.629195,1480.411884
1303.378509,-9918.759623,-995.924147,1628.453072
1303.378821,-9844.739029,0.000000,1332.370696
1303.379132,-10732.986159,536.266849,1036.288319
1303.379444,-10732.986159,1532.190996,370.102971
1303.379755,-9844.739029,1532.190996,444.123565
1303.380067,-10288.862594,1991.848295,-148.041188
1303.380378,-8808.450710,1072.533697,-148.041188
1303.380690,-7550.100608,-612.876398,-222.061783
1303.381001,-6883.915261,-1991.848295,296.082377
1303.381312,-7031.956449,-2757.943793,888.247130
1303.381624,-8808.450710,-2604.724693,1184.329507
1303.381935,-9326.594869,-766.095498,888.247130
1303.382247,-9918.759623,1378.971896,1332.370696
1303.382558,-10658.965565,842.705048,1332.370696
1303.382870,-10584.944971,459.657299,1924.535449
1303.383181,-9622.677246,76.609550,1258.350101
1303.383493,-7772.162391,-612.876398,-0.000000
1303.383804,-7179.997637,-1302.362347,-148.041188
1303.384116,-7550.100608,-1225.752797,-592.164754
1303.384427,-8882.471304,-1072.533697,-888.247130
1303.384738,-9474.636058,-689.485948,-148.041188
1303.385050,-9548.656652,153.219100,1776.494261
1303.385361,-10732.986159,-153.219100,2368.659014
1303.385673,-9770.718434,-842.705048,3034.844362
1303.385984,-8364.327145,-1532.190996,2886.803174
1303.386296,-6661.853478,-1532.190996,2664.741391
1303.386607,-6069.688724,-842.705048,1554.432478
1303.386919,-6883.915261,-306.438199,-222.061783
1303.387230,-7328.038826,1455.581446,-888.247130
1303.387542,-8216.285956,2604.724693,-1554.432478
1303.387853,-9252.574275,2221.676944,-1110.308913
1303.388164,-9548.656652,1915.238745,-814.226536
1303.388476,-9474.636058,1072.533697,-222.061783
1303.388787,-8586.388927,-306.438199,666.185348
1303.389099,-8438.347739,-766.095498,1184.329507
1303.389410,-8216.285956,-153.219100,1776.494261
1303.389722,-9474.636058,612.876398,962.267725
1303.390033,-10214.842000,1762.019645,1332.370696
1303.390345,-9400.615463,1915.238745,1258.350101
1303.390656,-9474.636058,1685.410096,740.205942
1303.390968,-8808.450710,766.095498,370.102971
1303.391279,-7698.141797,-536.266849,-518.144159
1303.391590,-7254.018232,-1455.581446,-592.164754
1303.391902,-7328.038826,-1915.238745,-666.185348
1303.392213,-8586.388927,-1685.410096,-666.185348
1303.392525,-10214.842000,-1455.581446,-0.000000
1303.392836,-10807.006753,-153.219100,370.102971
1303.393148,-11177.109724,459.657299,888.247130
1303.393459,-10881.027347,306.438199,1480.411884
1303.393771,-9992.780217,-536.266849,740.205942
1303.394082,-8734.430116,-1225.752797,370.102971
1303.394394,-7402.059420,-842.705048,-0.000000
1303.394705,-7476.080014,-919.314598,-222.061783
1303.395016,-9326.594869,-842.705048,-518.144159
1303.395328,-10436.903782,-153.219100,-74.020594
1303.395639,-10288.862594,766.095498,888.247130
1303.395951,-10140.821405,612.876398,1332.370696
1303.396262,-9474.636058,-459.657299,2368.659014
1303.396574,-8142.265362,-2068.457845,1924.535449
1303.396885,-6291.750507,-2221.676944,1702.473667
1303.397197,-5921.647536,-1838.629195,1110.308913
1303.397508,-6883.915261,-995.924147,-296.082377
1303.397820,-8142.265362,306.438199,-592.164754
1303.398131,-9622.677246,689.485948,-370.102971
1303.398442,-10658.965565,1302.362347,-0.000000
1303.398754,-10881.027347,1455.581446,148.041188
1303.399065,-10955.047942,766.095498,-296.082377
1303.399377,-9030.512492,-536.266849,370.102971
1303.399688,-7476.080014,-1608.800546,740.205942
1303.400000,-7179.997637,-1225.752797,740.205942
1303.400311,-8142.265362,-612.876398,666.185348
1303.400623,-8808.450710,459.657299,296.082377
1303.400934,-8808.450710,1225.752797,1554.432478
1303.401246,-9030.512492,1072.533697,1554.432478
1303.401557,-8068.244768,-229.828649,1850.514855
1303.401868,-7994.224174,-1762.019645,962.267725
1303.402180,-8068.244768,-2374.896044,666.185348
1303.402491,-7550.100608,-1225.752797,222.061783
1303.402803,-7846.182985,-689.485948,-592.164754
1303.403114,-8956.491898,0.000000,-370.102971
1303.403426,-9622.677246,306.438199,-0.000000
1303.403737,-9770.718434,459.657299,814.226536
1303.404049,-9400.615463,306.438199,740.205942
1303.404360,-8364.327145,-306.438199,296.082377
1303.404672,-8068.244768,-766.095498,518.144159
1303.404983,-8290.306550,-919.314598,518.144159
1303.405294,-9252.574275,-229.828649,-74.020594
1303.405606,-10214.842000,842.705048,-0.000000
1303.405917,-10807.006753,2451.505594,-0.000000
1303.406229,-11251.130318,2451.505594,-0.000000
1303.406540,-10955.047942,1455.581446,444.123565
1303.406852,-7772.162391,0.000000,1332.370696
1303.407163,-7254.018232,-995.924147,1110.308913
1303.407475,-6587.832884,-2068.457845,1554.432478
1303.407786,-6883.915261,-1991.848295,-0.000000
1303.408098,-8438.347739,-536.266849,-814.226536
1303.408409,-9474.636058,766.095498,-518.144159
1303.408720,-10436.903782,2298.286494,-0.000000
1303.409032,-11177.109724,1762.019645,370.102971
1303.409343,-11621.233289,536.266849,222.061783
1303.409655,-9770.718434,0.000000,1110.308913
1303.409966,-8660.409521,-612.876398,888.247130
1303.410278,-8364.327145,-383.047749,814.226536
1303.410589,-7476.080014,0.000000,592.164754
1303.410901,-7846.182985,0.000000,888.247130
1303.411212,-8438.347739,-306.438199,888.247130
1303.411524,-8216.285956,1149.143247,962.267725
1303.411835,-9252.574275,995.924147,444.123565
1303.412146,-8364.327145,229.828649,1258.350101
1303.412458,-7994.224174,-536.266849,592.164754
1303.412769,-8068.244768,-919.314598,814.226536
1303.413081,-8364.327145,-766.095498,518.144159
1303.413392,-9252.574275,0.000000,-518.144159
1303.413704,-8512.368333,1762.019645,-370.102971
1303.414015,-9030.512492,2374.896044,-222.061783
1303.414327,-8438.347739,1532.190996,296.082377
1303.414638,-8808.450710,0.000000,296.082377
1303.414950,-8364.327145,-459.657299,370.102971
1303.415261,-7994.224174,-306.438199,592.164754
1303.415572,-8512.368333,-995.924147,370.102971
1303.415884,-9622.677246,-1072.533697,296.082377
1303.416195,-10955.047942,995.924147,-0.000000
1303.416507,-10955.047942,306.438199,1332.370696
1303.416818,-10658.965565,1838.629195,1554.432478
1303.417130,-9992.780217,995.924147,1924.535449
1303.417441,-8290.306550,-229.828649,1850.514855
1303.417753,-6957.935855,-1991.848295,1628.453072
1303.418064,-5477.523971,-1991.848295,1036.288319
1303.418376,-5773.606348,-1915.238745,-148.041188
1303.418687,-7402.059420,-459.657299,-1258.350101
1303.418998,-9178.553681,1532.190996,-666.185348
1303.419310,-11251.130318,1608.800546,-296.082377
1303.419621,-11991.336260,1149.143247,296.082377
1303.419933,-11769.274478,153.219100,962.267725
1303.420244,-10140.821405,-383.047749,1480.411884
1303.420556,-9030.512492,0.000000,1406.391290
1303.420867,-8216.285956,-689.485948,592.164754
1303.421179,-7920.203579,0.000000,370.102971
1303.421490,-8290.306550,306.438199,296.082377
1303.421802,-8882.471304,995.924147,740.205942
1303.422113,-8956.491898,1608.800546,444.123565
1303.422424,-9104.533087,766.095498,740.205942
1303.422736,-8438.347739,-306.438199,1184.329507
1303.423047,-7698.141797,-1532.190996,1110.308913
1303.423359,-7179.997637,-1762.019645,1332.370696
1303.423670,-8438.347739,-2451.505594,592.164754
1303.423982,-9474.636058,-919.314598,-222.061783
1303.424293,-9400.615463,536.266849,370.102971
1303.424605,-9252.574275,1302.362347,-148.041188
1303.424916,-8882.471304,229.828649,296.082377
1303.425228,-9030.512492,-1378.971896,-74.020594
1303.425539,-8142.265362,-1149.143247,370.102971
1303.425850,-7772.162391,-383.047749,-222.061783
1303.426162,-8882.471304,76.609550,-222.061783
1303.426473,-9474.636058,0.000000,370.102971
1303.426785,-10807.006753,1149.143247,592.164754
1303.427096,-10510.924376,1838.629195,962.267725
1303.427408,-9918.759623,1532.190996,1628.453072
1303.427719,-9178.553681,459.657299,2146.597232
1303.428031,-7254.018232,-1149.143247,1480.411884
1303.428342,-6957.935855,-2911.162892,962.267725
1303.428654,-4885.359217,-2451.505594,888.247130
1303.428965,-6661.853478,-2374.896044,-666.185348
1303.429276,-8586.388927,-612.876398,-962.267725
1303.429588,-9696.697840,842.705048,-1110.308913
1303.429899,-11251.130318,1225.752797,-592.164754
1303.430211,-11843.295072,1225.752797,666.185348
1303.430522,-11695.253884,1225.752797,1110.308913
1303.430834,-9992.780217,229.828649,1554.432478
1303.431145,-8142.265362,-459.657299,666.185348
1303.431457,-7179.997637,-306.438199,444.123565
1303.431768,-7105.977043,229.828649,-74.020594
1303.432080,-8290.306550,459.657299,-0.000000
1303.432391,-8882.471304,1072.533697,296.082377
1303.432703,-9918.759623,1532.190996,518.144159
1303.433014,-10066.800811,1378.971896,296.082377
1303.433325,-8956.491898,0.000000,740.205942
1303.433637,-8586.388927,-1378.971896,296.082377
1303.433948,-7994.224174,-1149.143247,222.061783
1303.434260,-7994.224174,-306.438199,-74.020594
1303.434571,-9178.553681,0.000000,-222.061783
1303.434883,-9622.677246,1149.143247,666.185348
1303.435194,-9474.636058,919.314598,518.144159
1303.435506,-9252.574275,383.047749,148.041188
1303.435817,-8956.491898,153.219100,-74.020594
1303.436129,-7624.121203,-459.657299,296.082377
1303.436440,-8142.265362,-842.705048,222.061783
1303.436751,-8512.368333,-612.876398,148.041188
1303.437063,-9548.656652,0.000000,-0.000000
1303.437374,-10584.944971,1072.533697,962.267725
1303.437686,-9622.677246,1838.629195,2146.597232
1303.437997,-9548.656652,612.876398,2368.659014
1303.438309,-8364.327145,0.000000,2664.741391
1303.438620,-7105.977043,-1302.362347,2368.659014
1303.438932,-6217.729913,-1991.848295,1628.453072
1303.439243,-5403.503377,-1838.629195,1036.288319
1303.439555,-7031.956449,-1378.971896,-148.041188
1303.439866,-8956.491898,-383.047749,-518.144159
1303.440177,-10214.842000,919.314598,-0.000000
1303.440489,-11695.253884,2374.896044,-666.185348
1303.440800,-11621.233289,2221.676944,296.082377
1303.441112,-10362.883188,766.095498,888.247130
1303.441423,-8438.347739,0.000000,592.164754
1303.441735,-7550.100608,-153.219100,666.185348
1303.442046,-6957.935855,383.047749,592.164754
1303.442358,-7994.224174,536.266849,-74.020594
1303.442669,-9622.677246,306.438199,370.102971
1303.442981,-10288.862594,1149.143247,518.144159
1303.443292,-9696.697840,1302.362347,1110.308913
1303.443603,-9252.574275,306.438199,370.102971
1303.443915,-9178.553681,-1302.362347,444.123565
1303.444226,-8660.409521,-2068.457845,296.082377
1303.444538,-8068.244768,-1838.629195,814.226536
1303.444849,-8956.491898,-1302.362347,296.082377
1303.445161,-9548.656652,-1149.143247,-0.000000
1303.445472,-10214.842000,689.485948,592.164754
1303.445784,-9844.739029,766.095498,-0.000000
1303.446095,-8882.471304,306.438199,296.082377
1303.446407,-8734.430116,-995.924147,-74.020594
1303.446718,-8068.244768,-1455.581446,-0.000000
1303.447029,-7402.059420,-995.924147,-0.000000
1303.447341,-7846.182985,-689.485948,-370.102971
1303.447652,-9844.739029,0.000000,-0.000000
1303.447964,-11103.089130,76.609550,962.267725
1303.448275,-11029.068536,766.095498,1258.350101
1303.448587,-10066.800811,689.485948,1480.411884
1303.448898,-8586.388927,153.219100,1850.514855
1303.449210,-7772.162391,-1991.848295,1480.411884
1303.449521,-5921.647536,-2528.115143,1184.329507
1303.449833,-5329.482782,-2757.943793,-0.000000
1303.450144,-7105.977043,-1608.800546,-1110.308913
1303.450455,-9104.533087,0.000000,-518.144159
1303.450767,-10584.944971,1149.143247,-888.247130
1303.451078,-11769.274478,1149.143247,370.102971
1303.451390,-11917.315666,612.876398,1258.350101
1303.451701,-11029.068536,229.828649,1258.350101
1303.452013,-8808.450710,-536.266849,1258.350101
1303.452324,-6957.935855,-689.485948,1258.350101
1303.452636,-6069.688724,-536.266849,-0.000000
1303.452947,-7105.977043,76.609550,-74.020594
1303.453259,-9030.512492,919.314598,-444.123565
1303.453570,-9918.759623,1608.800546,592.164754
1303.453881,-11029.068536,1149.143247,1036.288319
1303.454193,-10362.883188,459.657299,1924.535449
1303.454504,-9548.656652,-1072.533697,2146.597232
1303.454816,-8068.244768,-2834.553343,1998.556043
1303.455127,-7254.018232,-2451.505594,814.226536
1303.455439,-7105.977043,-459.657299,296.082377
1303.455750,-7994.224174,306.438199,-370.102971
1303.456062,-8216.285956,1072.533697,-444.123565
1303.456373,-9104.533087,1149.143247,-148.041188
1303.456685,-9548.656652,383.047749,-0.000000
1303.456996,-9400.615463,-153.219100,518.144159
1303.457307,-8882.471304,-1302.362347,666.185348
1303.457619,-9252.574275,-842.705048,666.185348
1303.457930,-9252.574275,-536.266849,-0.000000
1303.458242,-9992.780217,0.000000,222.061783
1303.458553,-9992.780217,995.924147,444.123565
1303.458865,-9622.677246,1762.019645,1110.308913
1303.459176,-8882.471304,766.095498,1258.350101
1303.459488,-7624.121203,-766.095498,1480.411884
1303.459799,-6883.915261,-2221.676944,1110.308913
1303.460111,-5699.585753,-1991.848295,1480.411884
1303.460422,-7254.018232,-1685.410096,-592.164754
1303.460733,-9400.615463,-383.047749,-962.267725
1303.461045,-10214.842000,919.314598,-740.205942
1303.461356,-10807.006753,1762.019645,-518.144159
1303.461668,-11177.109724,1838.629195,444.123565
1303.461979,-11399.171507,459.657299,666.185348
1303.462291,-9474.636058,-383.047749,962.267725
1303.462602,-7476.080014,-1072.533697,962.267725
1303.462914,-7105.977043,-1532.190996,296.082377
1303.463225,-7698.141797,-1149.143247,-444.123565
1303.463537,-8512.368333,0.000000,-592.164754
1303.463848,-9770.718434,1072.533697,-148.041188
1303.464159,-10584.944971,1915.238745,444.123565
1303.464471,-10955.047942,995.924147,962.267725
1303.464782,-9844.739029,-306.438199,1110.308913
1303.465094,-8364.327145,-919.314598,1110.308913
1303.465405,-7179.997637,-2451.505594,1406.391290
1303.465717,-6809.894666,-1685.410096,592.164754
1303.466028,-7772.162391,-766.095498,-222.061783
1303.466340,-8586.388927,459.657299,-148.041188
1303.466651,-8808.450710,1072.533697,-370.102971
1303.466962,-9474.636058,1455.581446,-444.123565
1303.467273,-10214.842000,1072.533697,-148.041188
1303.467585,-10066.800811,-383.047749,-0.000000
1303.467896,-8586.388927,-612.876398,370.102971
1303.468207,-7994.224174,-536.266849,518.144159
1303.468518,-9548.656652,-1149.143247,444.123565
1303.468830,-9474.636058,306.438199,1036.288319
1303.469141,-9548.656652,1302.362347,962.267725
1303.469452,-9326.594869,1838.629195,1702.473667
1303.469763,-8068.244768,919.314598,1702.473667
1303.470075,-8142.265362,-689.485948,1332.370696
1303.470386,-7105.977043,-1685.410096,962.267725
1303.470697,-6587.832884,-1991.848295,-0.000000
1303.471008,-8068.244768,-1378.971896,-740.205942
1303.471319,-9178.553681,153.219100,-444.123565
1303.471631,-9622.677246,229.828649,-74.020594
1303.471942,-11177.109724,612.876398,666.185348
1303.472253,-11399.171507,995.924147,1258.350101
1303.472564,-10436.903782,766.095498,1406.391290
1303.472876,-8512.368333,306.438199,1258.350101
1303.473187,-7179.997637,-306.438199,666.185348
1303.473498,-6809.894666,0.000000,222.061783
1303.473809,-7402.059420,153.219100,-444.123565
1303.474121,-9326.594869,919.314598,-444.123565
1303.474432,-10362.883188,1455.581446,518.144159
1303.474743,-11251.130318,2221.676944,888.247130
1303.475054,-10584.944971,766.095498,1554.432478
1303.475366,-8808.450710,-689.485948,1850.514855
1303.475677,-7772.162391,-2221.676944,1850.514855
1303.475988,-6883.915261,-2145.067394,1406.391290
1303.476299,-6439.791695,-689.485948,592.164754
1303.476611,-7476.080014,-306.438199,-222.061783
1303.476922,-8808.450710,0.000000,-0.000000
1303.477233,-9178.553681,766.095498,-148.041188
1303.477544,-9400.615463,766.095498,-0.000000
1303.477855,-9474.636058,-229.828649,-296.082377
1303.478167,-9622.677246,-383.047749,-0.000000
1303.478478,-9252.574275,-229.828649,-0.000000
1303.478789,-9474.636058,-153.219100,370.102971
1303.479100,-9548.656652,0.000000,666.185348
1303.479412,-9992.780217,153.219100,1258.350101
1303.479723,-9844.739029,766.095498,1850.514855
1303.480034,-9400.615463,459.657299,1850.514855
1303.480345,-7994.224174,-689.485948,1998.556043
1303.480657,-6513.812290,-1915.238745,1406.391290
1303.480968,-6809.894666,-3064.381992,592.164754
1303.481279,-6957.935855,-2987.772442,-444.123565
1303.481590,-8068.244768,-1378.971896,-1480.411884
1303.481902,-9844.739029,919.314598,-1554.432478
1303.482213,-10807.006753,1149.143247,-518.144159
1303.482524,-11843.295072,689.485948,222.061783
1303.482835,-11621.233289,536.266849,1554.432478
1303.483147,-9918.759623,0.000000,1406.391290
1303.483458,-7402.059420,-766.095498,1332.370696
1303.483769,-6809.894666,-842.705048,296.082377
1303.484080,-6587.832884,-229.828649,-1258.350101
1303.484391,-7105.977043,306.438199,-1110.308913
1303.484703,-9030.512492,919.314598,-1036.288319
1303.485014,-11029.068536,1455.581446,-148.041188
1303.485325,-12361.439231,1149.143247,666.185348
1303.485636,-12139.377449,76.609550,1850.514855
1303.485948,-10140.821405,-1302.362347,2516.700203
1303.486259,-7476.080014,-2068.457845,2368.659014
1303.486570,-6143.709319,-1915.238745,1184.329507
1303.486881,-6365.771101,0.000000,-0.000000
1303.487193,-7254.018232,1455.581446,-888.247130
1303.487504,-8142.265362,2757.943793,-1036.288319
1303.487815,-8956.491898,3064.381992,-1036.288319
1303.488126,-10288.862594,1532.190996,-666.185348
1303.488438,-10436.903782,383.047749,-592.164754
1303.488749,-9770.718434,459.657299,518.144159
1303.489060,-9104.533087,612.876398,444.123565
1303.489371,-9474.636058,-1302.362347,962.267725
1303.489683,-9696.697840,-1072.533697,1406.391290
1303.489994,-9474.636058,76.609550,1628.453072
1303.490305,-9252.574275,1762.019645,1554.432478
1303.490616,-8660.409521,1225.752797,1776.494261
1303.490927,-7254.018232,1149.143247,814.226536
1303.491239,-7105.977043,-459.657299,592.164754
1303.491550,-5995.668130,-1608.800546,518.144159
1303.491861,-6217.729913,-1762.019645,592.164754
1303.492172,-7994.224174,-229.828649,-222.061783
1303.492484,-10066.800811,612.876398,-0.000000
1303.492795,-11399.171507,1072.533697,222.061783
1303.493106,-10881.027347,1608.800546,1036.288319
1303.493417,-10510.924376,1455.581446,888.247130
1303.493729,-9400.615463,1072.533697,518.144159
1303.494040,-7402.059420,459.657299,444.123565
1303.494351,-6809.894666,0.000000,-0.000000
1303.494662,-6365.771101,0.000000,-0.000000
1303.494974,-7846.182985,-459.657299,-0.000000
1303.495285,-9474.636058,76.609550,1036.288319
1303.495596,-10288.862594,1072.533697,592.164754
1303.495907,-10881.027347,0.000000,1258.350101
1303.496219,-9622.677246,-995.924147,1850.514855
1303.496530,-8660.409521,-2298.286494,1776.494261
1303.496841,-7698.141797,-2451.505594,2146.597232
1303.497152,-7402.059420,-2374.896044,1554.432478
1303.497463,-8364.327145,-1378.971896,370.102971
1303.497775,-9030.512492,0.000000,444.123565
1303.498086,-9178.553681,1378.971896,-666.185348
1303.498397,-8956.491898,1225.752797,-370.102971
1303.498708,-9622.677246,383.047749,-370.102971
1303.499020,-9992.780217,229.828649,-74.020594
1303.499331,-9400.615463,0.000000,666.185348
1303.499642,-9400.615463,-383.047749,888.247130
1303.499953,-9696.697840,-842.705048,1480.411884
1303.500265,-9622.677246,-1072.533697,1258.350101
1303.500576,-9548.656652,306.438199,1850.514855
1303.500887,-8882.471304,1149.143247,1628.453072
1303.501198,-8808.450710,306.438199,1406.391290
1303.501510,-7920.203579,-536.266849,1702.473667
1303.501821,-7179.997637,-2374.896044,740.205942
1303.502132,-7254.018232,-2221.676944,666.185348
1303.502443,-7328.038826,-995.924147,-222.061783
1303.502755,-8808.450710,459.657299,-1332.370696
1303.503066,-9548.656652,306.438199,-148.041188
1303.503377,-9622.677246,766.095498,370.102971
1303.503688,-10436.903782,1225.752797,962.267725
1303.503999,-9992.780217,842.705048,1480.411884
1303.504311,-9178.553681,0.000000,1332.370696
1303.504622,-7476.080014,-995.924147,518.144159
1303.504933,-6735.874072,-536.266849,-222.061783
1303.505244,-6661.853478,612.876398,-1332.370696
1303.505556,-7698.141797,766.095498,-518.144159
1303.505867,-9252.574275,689.485948,-370.102971
1303.506178,-9696.697840,1072.533697,814.226536
1303.506489,-10584.944971,536.266849,1702.473667
1303.506801,-9548.656652,-766.095498,2590.720797
1303.507112,-8290.306550,-1991.848295,2590.720797
1303.507423,-6587.832884,-2374.896044,1628.453072
1303.507734,-5995.668130,-1532.190996,-296.082377
1303.508046,-6661.853478,-766.095498,-1628.453072
1303.508357,-8068.244768,383.047749,-2146.597232
1303.508668,-10288.862594,1378.971896,-1776.494261
1303.508979,-11473.192101,1302.362347,-666.185348
1303.509291,-11917.315666,612.876398,-0.000000
1303.509602,-11251.130318,0.000000,1110.308913
1303.509913,-10214.842000,-842.705048,740.205942
1303.510224,-8734.430116,-995.924147,740.205942
1303.510535,-8808.450710,-995.924147,-222.061783
1303.510847,-8956.491898,383.047749,222.061783
1303.511158,-9030.512492,766.095498,740.205942
1303.511469,-9844.739029,842.705048,1480.411884
1303.511780,-10658.965565,-919.314598,1702.473667
1303.512092,-9474.636058,-1915.238745,1998.556043
1303.512403,-8364.327145,-2145.067394,1036.288319
1303.512714,-7550.100608,-2221.676944,666.185348
1303.513025,-7846.182985,-1225.752797,-962.267725
1303.513337,-9474.636058,76.609550,-1258.350101
1303.513648,-9400.615463,995.924147,-370.102971
1303.513959,-9992.780217,2221.676944,-0.000000
1303.514270,-10362.883188,2528.115143,740.205942
1303.514582,-9770.718434,1762.019645,962.267725
1303.514893,-8512.368333,459.657299,962.267725
1303.515204,-6883.915261,0.000000,1110.308913
1303.515515,-6217.729913,-306.438199,148.041188
1303.515827,-6883.915261,0.000000,-0.000000
1303.516138,-9474.636058,229.828649,-148.041188
1303.516449,-10510.924376,1455.581446,666.185348
1303.516760,-10584.944971,1838.629195,1110.308913
1303.517071,-10510.924376,1072.533697,2146.597232
1303.517383,-9030.512492,0.000000,2738.761985
1303.517694,-7402.059420,-1915.238745,2146.597232
1303.518005,-5699.585753,-1072.533697,1406.391290
1303.518316,-5181.441594,-766.095498,222.061783
1303.518628,-5921.647536,-229.828649,-592.164754
1303.518939,-8512.368333,153.219100,-1332.370696
1303.519250,-9030.512492,1915.238745,-666.185348
1303.519561,-10066.800811,2145.067394,-814.226536
1303.519873,-11177.109724,1302.362347,222.061783
1303.520184,-9474.636058,-229.828649,1110.308913
1303.520495,-9622.677246,-1608.800546,1036.288319
1303.520806,-8734.430116,-1455.581446,1554.432478
1303.521118,-8882.471304,-1225.752797,1258.350101
1303.521429,-9696.697840,229.828649,370.102971
1303.521740,-9474.636058,1532.190996,666.185348
1303.522051,-8882.471304,1225.752797,1036.288319
1303.522363,-8216.285956,-842.705048,148.041188
1303.522674,-7624.121203,-1378.971896,814.226536
1303.522985,-7624.121203,-2451.505594,740.205942
1303.523296,-7920.203579,-3370.820191,518.144159
1303.523607,-9474.636058,-2604.724693,-0.000000
1303.523919,-10658.965565,-1149.143247,-0.000000
1303.524230,-10955.047942,-306.438199,370.102971
1303.524541,-11251.130318,612.876398,518.144159
1303.524852,-11177.109724,1378.971896,518.144159
1303.525164,-9992.780217,459.657299,-0.000000
1303.525475,-8438.347739,229.828649,222.061783
1303.525786,-7328.038826,-536.266849,296.082377
1303.526097,-7254.018232,-1225.752797,-592.164754
1303.526409,-8068.244768,-459.657299,-666.185348
1303.526720,-9178.553681,995.924147,-518.144159
1303.527031,-9992.780217,766.095498,1110.308913
1303.527342,-11177.109724,919.314598,1480.411884
1303.527654,-10658.965565,-229.828649,2368.659014
1303.527965,-9400.615463,-2298.286494,2886.803174
1303.528276,-7698.141797,-2604.724693,2368.659014
1303.528587,-6439.791695,-2298.286494,1110.308913
1303.528899,-6883.915261,-995.924147,-370.102971
1303.529210,-7105.977043,153.219100,-1332.370696
1303.529521,-7624.121203,1072.533697,-1480.411884
1303.529832,-8882.471304,2604.724693,-962.267725
1303.530144,-10362.883188,1378.971896,148.041188
1303.530455,-10584.944971,229.828649,666.185348
1303.530766,-9252.574275,-76.609550,1554.432478
1303.531077,-8068.244768,-689.485948,1332.370696
1303.531388,-7476.080014,-1378.971896,1184.329507
1303.531700,-8734.430116,-995.924147,444.123565
1303.532011,-9104.533087,0.000000,444.123565
1303.532322,-8512.368333,1455.581446,592.164754
1303.532633,-9030.512492,1225.752797,666.185348
1303.532945,-8956.491898,0.000000,1036.288319
1303.533256,-8438.347739,-1685.410096,1036.288319
1303.533567,-7254.018232,-2681.334243,1554.432478
1303.533878,-6883.915261,-2451.505594,444.123565
1303.534190,-8660.409521,-689.485948,-666.185348
1303.534501,-8660.409521,1149.143247,-74.020594
1303.534812,-9770.718434,842.705048,-444.123565
1303.535123,-10066.800811,1302.362347,370.102971
1303.535435,-10510.924376,1302.362347,814.226536
1303.535746,-10658.965565,766.095498,370.102971
1303.536057,-8882.471304,0.000000,592.164754
1303.536368,-7698.141797,76.609550,-0.000000
1303.536680,-7476.080014,0.000000,-888.247130
1303.536991,-7994.224174,0.000000,-888.247130
1303.537302,-9474.636058,536.266849,-296.082377
1303.537613,-10066.800811,1532.190996,888.247130
1303.537924,-11325.150913,766.095498,1628.453072
1303.538236,-10807.006753,-383.047749,2368.659014
1303.538547,-9548.656652,-1991.848295,2368.659014
1303.538858,-8068.244768,-2834.553343,1406.391290
1303.539169,-7328.038826,-2068.457845,444.123565
1303.539481,-7772.162391,-766.095498,-666.185348
1303.539792,-9030.512492,612.876398,-888.247130
1303.540103,-9474.636058,1302.362347,-888.247130
1303.540414,-10362.883188,1991.848295,-740.205942
1303.540726,-10584.944971,1149.143247,-370.102971
1303.541037,-10436.903782,766.095498,-0.000000
1303.541348,-9104.533087,-306.438199,1036.288319
1303.541659,-7328.038826,-842.705048,740.205942
1303.541971,-8216.285956,-1149.143247,740.205942
1303.542282,-8586.388927,-383.047749,1110.308913
1303.542593,-8808.450710,0.000000,1184.329507
1303.542904,-9770.718434,689.485948,1776.494261
1303.543216,-9918.759623,1072.533697,1258.350101
1303.543527,-8438.347739,459.657299,888.247130
1303.543838,-6957.935855,-306.438199,370.102971
1303.544149,-5847.626942,-1072.533697,296.082377
1303.544460,-6587.832884,-1302.362347,-814.226536
1303.544772,-8068.244768,229.828649,-666.185348
1303.545083,-9178.553681,995.924147,-0.000000
1303.545394,-9918.759623,1608.800546,370.102971
1303.545705,-10214.842000,1685.410096,1110.308913
1303.546017,-9770.718434,459.657299,1258.350101
1303.546328,-7920.203579,-1149.143247,1184.329507
1303.546639,-7254.018232,-1608.800546,592.164754
1303.546950,-7179.997637,-689.485948,-0.000000
1303.547262,-7550.100608,-919.314598,-296.082377
1303.547573,-9622.677246,-383.047749,-0.000000
1303.547884,-10214.842000,536.266849,1184.329507
1303.548195,-10362.883188,1072.533697,1184.329507
1303.548507,-10658.965565,995.924147,1702.473667
1303.548818,-9252.574275,536.266849,1850.514855
1303.549129,-7846.182985,-1455.581446,1258.350101
1303.549440,-7105.977043,-1991.848295,592.164754
1303.549752,-7031.956449,-1455.581446,-0.000000
1303.550063,-9178.553681,-612.876398,-888.247130
1303.550374,-9770.718434,612.876398,-592.164754
1303.550685,-10066.800811,1838.629195,-296.082377
1303.550996,-10288.862594,842.705048,-74.020594
1303.551308,-11029.068536,0.000000,592.164754
1303.551619,-9918.759623,-766.095498,1776.494261
1303.551930,-8142.265362,-459.657299,1036.288319
1303.552241,-7846.182985,-536.266849,592.164754
1303.552553,-8068.244768,-612.876398,370.102971
1303.552864,-9326.594869,-383.047749,222.061783
1303.553175,-9770.718434,536.266849,814.226536
1303.553486,-9918.759623,1225.752797,1258.350101
1303.553798,-10140.821405,1225.752797,1480.411884
1303.554109,-9252.574275,0.000000,1036.288319
1303.554420,-8290.306550,-1455.581446,1036.288319
1303.554731,-7105.977043,-2374.896044,518.144159
1303.555043,-7105.977043,-1608.800546,592.164754
1303.555354,-8512.368333,-536.266849,-222.061783
1303.555665,-9474.636058,536.266849,-0.000000
1303.555976,-10436.903782,1532.190996,-0.000000
1303.556288,-10214.842000,1762.019645,444.123565
1303.556599,-10140.821405,1225.752797,-0.000000
1303.556910,-8586.388927,153.219100,-0.000000
1303.557221,-7105.977043,-306.438199,222.061783
1303.557532,-6143.709319,-153.219100,-0.000000
1303.557844,-6883.915261,-536.266849,-0.000000
1303.558155,-8364.327145,-306.438199,370.102971
1303.558466,-9474.636058,0.000000,962.267725
1303.558777,-9918.759623,1378.971896,1776.494261
1303.559089,-9992.780217,459.657299,1850.514855
1303.559400,-9622.677246,-842.705048,2072.576638
1303.559711,-8216.285956,-1455.581446,1554.432478
1303.560022,-6365.771101,-2604.724693,518.144159
1303.560334,-6513.812290,-2834.553343,-444.123565
1303.560645,-8068.244768,-1608.800546,-1184.329507
1303.560956,-9400.615463,536.266849,-740.205942
1303.561267,-10140.821405,1302.362347,-296.082377
1303.561579,-10214.842000,1838.629195,518.144159
1303.561890,-10732.986159,76.609550,1110.308913
1303.562201,-10066.800811,-766.095498,1184.329507
1303.562512,-8512.368333,-383.047749,1036.288319
1303.562824,-7402.059420,76.609550,370.102971
1303.563135,-7179.997637,76.609550,-444.123565
1303.563446,-9770.718434,-306.438199,-814.226536
1303.563757,-10288.862594,1149.143247,148.041188
1303.564068,-10436.903782,1991.848295,740.205942
1303.564380,-10584.944971,1378.971896,814.226536
1303.564691,-10362.883188,229.828649,1184.329507
1303.565002,-9030.512492,-1378.971896,1184.329507
1303.565313,-8216.285956,-1991.848295,962.267725
1303.565625,-7772.162391,306.438199,740.205942
1303.565936,-8808.450710,842.705048,-74.020594
1303.566247,-10140.821405,2068.457845,-222.061783
1303.566558,-10288.862594,1685.410096,592.164754
1303.566870,-9844.739029,1608.800546,-0.000000
1303.567181,-9474.636058,1225.752797,-0.000000
1303.567492,-8808.450710,766.095498,296.082377
1303.567803,-7846.182985,-229.828649,-0.000000
1303.568115,-6735.874072,-536.266849,296.082377
1303.568426,-7550.100608,-383.047749,222.061783
1303.568737,-9400.615463,612.876398,444.123565
1303.569048,-9770.718434,919.314598,1998.556043
1303.569360,-9622.677246,1762.019645,2294.638420
1303.569671,-8586.388927,1685.410096,2072.576638
1303.569983,-7254.018232,842.705048,1036.288319
1303.570294,-6365.771101,-229.828649,814.226536
1303.570605,-4959.379811,-1225.752797,296.082377
1303.570917,-5477.523971,-1225.752797,-592.164754
1303.571228,-7550.100608,-689.485948,-666.185348
1303.571540,-9104.533087,1072.533697,-888.247130
1303.571851,-10362.883188,1072.533697,-370.102971
1303.572162,-10584.944971,306.438199,888.247130
1303.572474,-10140.821405,-995.924147,1850.514855
1303.572785,-10214.842000,-1149.143247,1554.432478
1303.573097,-8660.409521,0.000000,1776.494261
1303.573408,-7476.080014,-306.438199,1184.329507
1303.573719,-7994.224174,0.000000,444.123565
1303.574031,-8216.285956,0.000000,-370.102971
1303.574342,-9548.656652,766.095498,-370.102971
1303.574654,-9696.697840,1838.629195,296.082377
1303.574965,-10288.862594,1838.629195,296.082377
1303.575276,-10732.986159,-995.924147,962.267725
1303.575588,-9400.615463,-3370.820191,1628.453072
1303.575899,-9622.677246,-3677.258390,1036.288319
1303.576211,-9104.533087,-1532.190996,740.205942
1303.576522,-9474.636058,383.047749,-74.020594
1303.576833,-10140.821405,1225.752797,592.164754
1303.577145,-10288.862594,842.705048,666.185348
1303.577456,-9474.636058,766.095498,740.205942
1303.577768,-9030.512492,919.314598,-0.000000
1303.578079,-8438.347739,306.438199,-148.041188
1303.578391,-7698.141797,-306.438199,-444.123565
1303.578702,-7846.182985,0.000000,-1332.370696
1303.579013,-8364.327145,0.000000,-222.061783
1303.579325,-10066.800811,0.000000,518.144159
1303.579636,-10214.842000,383.047749,2146.597232
1303.579948,-10140.821405,919.314598,2664.741391
1303.580259,-9474.636058,306.438199,2738.761985
1303.580570,-8068.244768,-1072.533697,2368.659014
1303.580882,-5699.585753,-1608.800546,1554.432478
1303.581193,-4589.276840,-995.924147,592.164754
1303.581505,-4885.359217,-1685.410096,-296.082377
1303.581816,-6809.894666,-1072.533697,-962.267725
1303.582127,-9030.512492,612.876398,-740.205942
1303.582439,-10955.047942,1302.362347,148.041188
1303.582750,-11103.089130,842.705048,962.267725
1303.583062,-11177.109724,-766.095498,1332.370696
1303.583373,-10140.821405,-919.314598,1036.288319
1303.583684,-8364.327145,-536.266849,296.082377
1303.583996,-7105.977043,-153.219100,-0.000000
1303.584307,-6957.935855,536.266849,-74.020594
1303.584619,-8216.285956,76.609550,444.123565
1303.584930,-9326.594869,-536.266849,1036.288319
1303.585242,-10436.903782,76.609550,1554.432478
1303.585553,-9696.697840,-229.828649,1184.329507
1303.585864,-8808.450710,-1149.143247,888.247130
1303.586176,-8290.306550,-2681.334243,444.123565
1303.586487,-8216.285956,-3140.991542,-0.000000
1303.586799,-8808.450710,-1915.238745,-814.226536
1303.587110,-9474.636058,306.438199,-518.144159
1303.587421,-10510.924376,1915.238745,-222.061783
1303.587733,-10881.027347,2451.505594,-222.061783
1303.588044,-10584.944971,1838.629195,-0.000000
1303.588356,-9474.636058,1072.533697,-222.061783
1303.588667,-8068.244768,153.219100,-222.061783
1303.588978,-8364.327145,-153.219100,-222.061783
1303.589290,-8882.471304,-766.095498,-592.164754
1303.589601,-9400.615463,-689.485948,-666.185348
1303.589913,-10288.862594,0.000000,-222.061783
1303.590224,-10584.944971,459.657299,592.164754
1303.590535,-11399.171507,383.047749,666.185348
1303.590847,-9548.656652,-306.438199,1480.411884
1303.591158,-8512.368333,-1149.143247,1480.411884
1303.591470,-7179.997637,-1838.629195,888.247130
1303.591781,-6661.853478,-1532.190996,740.205942
1303.592093,-7772.162391,-1225.752797,-666.185348
1303.592404,-8364.327145,536.266849,-592.164754
1303.592715,-9474.636058,2068.457845,-1036.288319
1303.593027,-9696.697840,2298.286494,-0.000000
1303.593338,-9844.739029,1149.143247,518.144159
1303.593650,-9400.615463,-229.828649,1036.288319
1303.593961,-7698.141797,-612.876398,1406.391290
1303.594272,-7105.977043,-536.266849,888.247130
1303.594584,-7402.059420,-383.047749,740.205942
1303.594895,-7920.203579,-153.219100,148.041188
1303.595207,-9030.512492,1225.752797,296.082377
1303.595518,-9548.656652,1455.581446,518.144159
1303.595829,-10140.821405,2298.286494,740.205942
1303.596141,-9400.615463,1225.752797,1776.494261
1303.596452,-8734.430116,-766.095498,2072.576638
1303.596764,-7254.018232,-1991.848295,1850.514855
1303.597075,-6439.791695,-1762.019645,1110.308913
1303.597386,-7031.956449,-459.657299,148.041188
1303.597698,-7698.141797,536.266849,-148.041188
1303.598009,-8956.491898,1149.143247,-0.000000
1303.598321,-9474.636058,1072.533697,592.164754
1303.598632,-10066.800811,689.485948,740.205942
1303.598943,-10288.862594,229.828649,740.205942
1303.599255,-9474.636058,-383.047749,814.226536
1303.599566,-9326.594869,-766.095498,370.102971
1303.599878,-8734.430116,-766.095498,222.061783
1303.600189,-9474.636058,0.000000,296.082377
1303.600501,-9548.656652,1302.362347,740.205942
1303.600812,-9326.594869,1302.362347,1406.391290
1303.601123,-9178.553681,459.657299,1924.535449
1303.601435,-8216.285956,-612.876398,1924.535449
1303.601746,-7476.080014,-1685.410096,1776.494261
1303.602058,-6291.750507,-2145.067394,962.267725
1303.602369,-6735.874072,-2374.896044,-222.061783
1303.602680,-8808.450710,-1225.752797,-1110.308913
1303.602992,-10584.944971,766.095498,-888.247130
1303.603303,-11843.295072,1302.362347,-814.226536
1303.603615,-11843.295072,919.314598,222.061783
1303.603926,-11103.089130,-536.266849,1036.288319
1303.604237,-9548.656652,-1532.190996,666.185348
1303.604549,-7624.121203,-2374.896044,1184.329507
1303.604860,-6513.812290,-2145.067394,592.164754
1303.605172,-7179.997637,-1225.752797,-0.000000
1303.605483,-9178.553681,-536.266849,-74.020594
1303.605794,-9696.697840,766.095498,-222.061783
1303.606106,-9992.780217,1072.533697,518.144159
1303.606417,-10214.842000,1149.143247,814.226536
1303.606729,-9474.636058,229.828649,1110.308913
1303.607040,-8512.368333,-2298.286494,1184.329507
1303.607352,-7550.100608,-2374.896044,1554.432478
1303.607663,-7846.182985,-1915.238745,444.123565
1303.607974,-8142.265362,0.000000,-370.102971
1303.608286,-8216.285956,306.438199,-222.061783
1303.608597,-8734.430116,766.095498,-518.144159
1303.608909,-9178.553681,995.924147,-0.000000
1303.609220,-9548.656652,919.314598,-222.061783
1303.609531,-9104.533087,229.828649,370.102971
1303.609843,-8734.430116,689.485948,-0.000000
1303.610154,-8586.388927,-153.219100,148.041188
1303.610466,-8808.450710,-229.828649,-0.000000
1303.610777,-9326.594869,153.219100,148.041188
1303.611088,-9252.574275,995.924147,1184.329507
1303.611400,-9474.636058,1302.362347,1480.411884
1303.611711,-9696.697840,919.314598,1702.473667
1303.612023,-8660.409521,-536.266849,1480.411884
1303.612334,-7105.977043,-1532.190996,1184.329507
1303.612645,-5995.668130,-1915.238745,296.082377
1303.612957,-6513.812290,-995.924147,-444.123565
1303.613268,-8364.327145,-153.219100,-888.247130
1303.613580,-9400.615463,536.266849,-444.123565
1303.613891,-10288.862594,1072.533697,222.061783
1303.614203,-10584.944971,766.095498,814.226536
1303.614514,-10584.944971,0.000000,1036.288319
1303.614825,-9548.656652,-536.266849,962.267725
1303.615137,-7476.080014,-919.314598,814.226536
1303.615448,-6957.935855,-1225.752797,814.226536
1303.615760,-7624.121203,-1225.752797,-0.000000
1303.616071,-9178.553681,-766.095498,-0.000000
1303.616382,-10214.842000,306.438199,592.164754
1303.616694,-10584.944971,1608.800546,1184.329507
1303.617005,-10288.862594,1225.752797,1110.308913
1303.617317,-9548.656652,-383.047749,1332.370696
1303.617628,-8290.306550,-2374.896044,2368.659014
1303.617939,-7031.956449,-2298.286494,1554.432478
1303.618251,-7179.997637,-1225.752797,518.144159
1303.618562,-8290.306550,0.000000,-148.041188
1303.618874,-9474.636058,1225.752797,-592.164754
1303.619185,-10066.800811,1302.362347,-740.205942
1303.619496,-10066.800811,1762.019645,-222.061783
1303.619808,-10066.800811,1378.971896,-148.041188
1303.620119,-9474.636058,229.828649,444.123565
1303.620431,-8808.450710,-229.828649,296.082377
1303.620742,-8438.347739,-306.438199,-0.000000
1303.621053,-8216.285956,459.657299,370.102971
1303.621365,-8660.409521,1455.581446,814.226536
1303.621676,-9770.718434,995.924147,1332.370696
1303.621988,-9252.574275,1378.971896,1628.453072
1303.622299,-9178.553681,995.924147,1850.514855
1303.622611,-8512.368333,76.609550,1628.453072
1303.622922,-7476.080014,0.000000,740.205942
1303.623233,-6661.853478,-229.828649,222.061783
1303.623545,-6883.915261,-383.047749,-592.164754
1303.623856,-8290.306550,383.047749,-1258.350101
1303.624168,-9474.636058,1762.019645,-1258.350101
1303.624479,-9918.759623,1915.238745,-296.082377
1303.624790,-9474.636058,1455.581446,592.164754
1303.625102,-9474.636058,229.828649,1036.288319
1303.625413,-8142.265362,-383.047749,1258.350101
1303.625725,-6957.935855,-1149.143247,888.247130
1303.626036,-7105.977043,-919.314598,592.164754
1303.626347,-7846.182985,-612.876398,-0.000000
1303.626659,-9474.636058,-306.438199,-0.000000
1303.626970,-10140.821405,459.657299,592.164754
1303.627282,-10732.986159,612.876398,1036.288319
1303.627593,-10881.027347,0.000000,1332.370696
1303.627904,-9104.533087,-919.314598,1850.514855
1303.628216,-7994.224174,-2451.505594,1702.473667
1303.628527,-7254.018232,-2757.943793,1332.370696
1303.628839,-7550.100608,-1302.362347,-148.041188
1303.629150,-8882.471304,383.047749,-296.082377
1303.629462,-9178.553681,1378.971896,-0.000000
1303.629773,-9844.739029,1378.971896,-518.144159
1303.630084,-10362.883188,1608.800546,-518.144159
1303.630396,-10066.800811,1072.533697,-370.102971
1303.630707,-9474.636058,-153.219100,-222.061783
1303.631019,-9178.553681,-995.924147,-0.000000
1303.631330,-9104.533087,-1378.971896,814.226536
1303.631641,-9400.615463,-689.485948,518.144159
1303.631953,-9548.656652,0.000000,1036.288319
1303.632264,-9252.574275,229.828649,1702.473667
1303.632576,-9178.553681,229.828649,2146.597232
1303.632887,-8290.306550,-919.314598,2442.679609
1303.633198,-7624.121203,-1302.362347,1628.453072
1303.633510,-7105.977043,-1378.971896,1110.308913
1303.633821,-6661.853478,-919.314598,740.205942
1303.634133,-8216.285956,-1072.533697,-148.041188
1303.634444,-9400.615463,-689.485948,-518.144159
1303.634755,-10510.924376,1072.533697,-222.061783
1303.635067,-10732.986159,1991.848295,666.185348
1303.635378,-10288.862594,995.924147,1258.350101
1303.635690,-9474.636058,76.609550,1406.391290
1303.636001,-7476.080014,-536.266849,1110.308913
1303.636312,-5995.668130,-612.876398,740.205942
1303.636624,-6069.688724,229.828649,-0.000000
1303.636935,-7254.018232,229.828649,-370.102971
1303.637247,-9400.615463,229.828649,-222.061783
1303.637558,-10288.862594,1225.752797,666.185348
1303.637870,-10807.006753,1685.410096,1184.329507
1303.638181,-10140.821405,766.095498,1332.370696
1303.638492,-8660.409521,-842.705048,1850.514855
1303.638804,-7476.080014,-1991.848295,1628.453072
1303.639115,-6365.771101,-1991.848295,1110.308913
1303.639427,-6957.935855,-842.705048,296.082377
1303.639738,-8216.285956,536.266849,-740.205942
1303.640049,-8734.430116,1455.581446,-962.267725
1303.640361,-9770.718434,1608.800546,-888.247130
1303.640672,-10584.944971,1455.581446,-148.041188
1303.640984,-10807.006753,0.000000,-148.041188
1303.641295,-10510.924376,-689.485948,148.041188
1303.641606,-9844.739029,-459.657299,444.123565
1303.641918,-9030.512492,-536.266849,592.164754
1303.642229,-8586.388927,-919.314598,592.164754
1303.642541,-9178.553681,-306.438199,1110.308913
1303.642852,-8586.388927,612.876398,1332.370696
1303.643163,-9030.512492,995.924147,814.226536
1303.643475,-8512.368333,1455.581446,1480.411884
1303.643786,-8068.244768,153.219100,592.164754
1303.644098,-7624.121203,-1532.190996,740.205942
1303.644409,-7254.018232,-1685.410096,-222.061783
1303.644721,-8808.450710,-1072.533697,-1036.288319
1303.645032,-9918.759623,536.266849,-666.185348
1303.645343,-11177.109724,1532.190996,-592.164754
1303.645655,-10732.986159,612.876398,740.205942
1303.645966,-10140.821405,0.000000,1036.288319
1303.646278,-9400.615463,-459.657299,888.247130
1303.646589,-7328.038826,-612.876398,518.144159
1303.646900,-6809.894666,-995.924147,740.205942
1303.647212,-7179.997637,-1455.581446,518.144159
1303.647523,-8216.285956,-383.047749,-0.000000
1303.647835,-9918.759623,612.876398,222.061783
1303.648146,-10214.842000,1915.238745,518.144159
1303.648457,-11251.130318,1991.848295,888.247130
1303.648769,-9992.780217,766.095498,1480.411884
1303.649080,-8290.306550,-766.095498,1776.494261
1303.649392,-7254.018232,-1838.629195,2146.597232
1303.649703,-6587.832884,-1225.752797,1480.411884
1303.650014,-7179.997637,-459.657299,148.041188
1303.650326,-7772.162391,612.876398,-740.205942
1303.650637,-8956.491898,2298.286494,-1110.308913
1303.650949,-9918.759623,3217.601092,-1036.288319
1303.651260,-10584.944971,1915.238745,-148.041188
1303.651572,-10658.965565,612.876398,-0.000000
1303.651883,-9548.656652,-842.705048,1036.288319
1303.652194,-8512.368333,-1072.533697,1036.288319
1303.652506,-7846.182985,-919.314598,1110.308913
1303.652817,-8142.265362,-306.438199,962.267725
1303.653129,-8956.491898,76.609550,1110.308913
1303.653440,-8660.409521,919.314598,1258.350101
1303.653751,-9030.512492,1455.581446,1184.329507
1303.654063,-9030.512492,612.876398,1332.370696
1303.654374,-8290.306550,-612.876398,1258.350101
1303.654686,-7179.997637,-1532.190996,666.185348
1303.654997,-7031.956449,-1838.629195,148.041188
1303.655308,-8216.285956,-995.924147,-296.082377
1303.655620,-9474.636058,-229.828649,-296.082377
1303.655931,-9992.780217,766.095498,-222.061783
1303.656243,-9918.759623,459.657299,148.041188
1303.656554,-9548.656652,0.000000,962.267725
1303.656865,-8882.471304,-766.095498,962.267725
1303.657177,-7920.203579,-1302.362347,1110.308913
1303.657488,-7550.100608,-1915.238745,740.205942
1303.657800,-8438.347739,-1608.800546,518.144159
1303.658111,-9252.574275,-919.314598,444.123565
1303.658422,-10510.924376,0.000000,444.123565
1303.658734,-11103.089130,612.876398,814.226536
1303.659045,-11029.068536,919.314598,888.247130
1303.659357,-9696.697840,-689.485948,1036.288319
1303.659668,-8068.244768,-2068.457845,1628.453072
1303.659980,-7920.203579,-2604.724693,1628.453072
1303.660291,-7179.997637,-1838.629195,740.205942
1303.660602,-7698.141797,-612.876398,-740.205942
1303.660914,-7920.203579,306.438199,-370.102971
1303.661225,-9178.553681,1455.581446,-370.102971
1303.661537,-10584.944971,1762.019645,-222.061783
1303.661848,-10881.027347,1149.143247,-0.000000
1303.662159,-10214.842000,306.438199,370.102971
1303.662471,-9326.594869,76.609550,444.123565
1303.662782,-8734.430116,383.047749,296.082377
1303.663094,-8512.368333,-383.047749,-148.041188
1303.663405,-7402.059420,0.000000,296.082377
1303.663716,-8438.347739,766.095498,518.144159
1303.664028,-8734.430116,1378.971896,1184.329507
1303.664339,-9400.615463,842.705048,1332.370696
1303.664651,-8956.491898,-153.219100,1480.411884
1303.664962,-7846.182985,-919.314598,814.226536
1303.665273,-7031.956449,-1532.190996,444.123565
1303.665585,-7698.141797,-1762.019645,-444.123565
1303.665896,-7772.162391,-1072.533697,-444.123565
1303.666208,-8586.388927,0.000000,-296.082377
1303.666519,-9474.636058,612.876398,296.082377
1303.666831,-9992.780217,229.828649,518.144159
1303.667142,-9622.677246,-459.657299,370.102971
1303.667453,-8216.285956,-536.266849,444.123565
1303.667765,-6365.771101,-995.924147,-74.020594
1303.668076,-7328.038826,-1149.143247,-0.000000
1303.668388,-8586.388927,-919.314598,296.082377
1303.668699,-9844.739029,-383.047749,592.164754
1303.669010,-11103.089130,383.047749,1184.329507
1303.669322,-11991.336260,1149.143247,1184.329507
1303.669633,-11917.315666,1991.848295,1110.308913
1303.669945,-9770.718434,-459.657299,1036.288319
1303.670256,-7550.100608,-995.924147,1110.308913
1303.670567,-6809.894666,-1685.410096,370.102971
1303.670879,-6883.915261,-1685.410096,-222.061783
1303.671190,-7476.080014,-459.657299,-444.123565
1303.671502,-8364.327145,1072.533697,-666.185348
1303.671813,-9696.697840,1762.019645,-592.164754
1303.672124,-10955.047942,1685.410096,-148.041188
1303.672436,-12065.356855,1532.190996,-296.082377
1303.672747,-11251.130318,1149.143247,-0.000000
1303.673058,-10807.006753,766.095498,444.123565
1303.673370,-9178.553681,0.000000,444.123565
1303.673681,-8882.471304,-689.485948,592.164754
1303.673992,-9252.574275,-383.047749,592.164754
1303.674304,-8364.327145,919.314598,1036.288319
1303.674615,-8956.491898,1455.581446,962.267725
1303.674926,-9474.636058,766.095498,888.247130
1303.675238,-8808.450710,0.000000,1480.411884
1303.675549,-7772.162391,-1302.362347,1110.308913
1303.675860,-6587.832884,-766.095498,814.226536
1303.676172,-7328.038826,-383.047749,-296.082377
1303.676483,-8660.409521,229.828649,-666.185348
1303.676794,-8734.430116,1455.581446,-148.041188
1303.677106,-8586.388927,1455.581446,296.082377
1303.677417,-8586.388927,1532.190996,1332.370696
1303.677729,-8734.430116,0.000000,814.226536
1303.678040,-7476.080014,0.000000,888.247130
1303.678351,-6513.812290,-612.876398,222.061783
1303.678663,-7328.038826,-766.095498,296.082377
1303.678974,-8734.430116,-459.657299,148.041188
1303.679285,-10510.924376,0.000000,370.102971
1303.679597,-10066.800811,919.314598,1406.391290
1303.679908,-9770.718434,842.705048,1554.432478
1303.680219,-10362.883188,0.000000,2146.597232
1303.680531,-9030.512492,-1225.752797,1776.494261
1303.680842,-7772.162391,-2221.676944,1924.535449
1303.681153,-6439.791695,-2145.067394,1184.329507
1303.681465,-6957.935855,-1378.971896,-0.000000
1303.681776,-8290.306550,-842.705048,-814.226536
1303.682087,-8956.491898,612.876398,-592.164754
1303.682399,-9770.718434,1838.629195,-592.164754
1303.682710,-10436.903782,1302.362347,-222.061783
1303.683021,-11695.253884,-383.047749,-0.000000
1303.683333,-11251.130318,-919.314598,518.144159
1303.683644,-10066.800811,-766.095498,814.226536
1303.683955,-9104.533087,-689.485948,370.102971
1303.684267,-8808.450710,-459.657299,222.061783
1303.684578,-9474.636058,-153.219100,444.123565
1303.684889,-8882.471304,536.266849,1110.308913
1303.685201,-9474.636058,383.047749,1184.329507
1303.685512,-9326.594869,-459.657299,1628.453072
1303.685823,-9178.553681,-1608.800546,1258.350101
1303.686135,-8290.306550,-2451.505594,814.226536
1303.686446,-7476.080014,-2068.457845,296.082377
1303.686757,-9178.553681,-919.314598,-1036.288319
1303.687069,-9622.677246,536.266849,-888.247130
1303.687380,-10288.862594,2068.457845,-1406.391290
1303.687691,-10140.821405,2221.676944,-296.082377
1303.688003,-9178.553681,1532.190996,-0.000000
1303.688314,-8734.430116,306.438199,444.123565
1303.688625,-7105.977043,-306.438199,888.247130
1303.688937,-6217.729913,-459.657299,666.185348
1303.689248,-6809.894666,0.000000,296.082377
1303.689559,-8068.244768,229.828649,666.185348
1303.689871,-9400.615463,306.438199,740.205942
1303.690182,-9918.759623,612.876398,1036.288319
1303.690493,-10584.944971,919.314598,1258.350101
1303.690805,-9474.636058,153.219100,1628.453072
1303.691116,-8216.285956,-1915.238745,2072.576638
1303.691427,-7105.977043,-3217.601092,1924.535449
1303.691739,-6587.832884,-2681.334243,1776.494261
1303.692050,-7179.997637,-1762.019645,222.061783
1303.692361,-7698.141797,-229.828649,-0.000000
1303.692673,-8438.347739,995.924147,370.102971
1303.692984,-9992.780217,1685.410096,-0.000000
1303.693296,-10140.821405,1378.971896,666.185348
1303.693607,-10140.821405,689.485948,888.247130
1303.693918,-8660.409521,383.047749,1184.329507
1303.694230,-8142.265362,153.219100,740.205942
1303.694541,-7772.162391,766.095498,222.061783
1303.694852,-8290.306550,153.219100,-518.144159
1303.695164,-8956.491898,766.095498,-148.041188
1303.695475,-9030.512492,1685.410096,962.267725
1303.695786,-9400.615463,1455.581446,1332.370696
1303.696098,-9770.718434,919.314598,1480.411884
1303.696409,-9326.594869,-383.047749,1480.411884
1303.696720,-7846.182985,-1072.533697,1184.329507
1303.697032,-7772.162391,-842.705048,444.123565
1303.697343,-7994.224174,-229.828649,-444.123565
1303.697654,-9400.615463,995.924147,-592.164754
1303.697966,-10214.842000,1455.581446,-222.061783
1303.698277,-10510.924376,1685.410096,-0.000000
1303.698588,-10436.903782,766.095498,-0.000000
1303.698900,-9918.759623,-229.828649,222.061783
1303.699211,-8512.368333,-766.095498,592.164754
1303.699522,-8364.327145,-1225.752797,962.267725
1303.699834,-8142.265362,-1149.143247,-0.000000
1303.700145,-9104.533087,-536.266849,222.061783
1303.700456,-9696.697840,459.657299,666.185348
1303.700768,-9918.759623,1302.362347,1036.288319
1303.701079,-9770.718434,1685.410096,518.144159
1303.701390,-8438.347739,1149.143247,1036.288319
1303.701702,-6661.853478,-306.438199,740.205942
1303.702013,-5551.544565,-1608.800546,444.123565
1303.702324,-6291.750507,-2451.505594,-0.000000
1303.702636,-7846.182985,-1455.581446,-444.123565
1303.702947,-9030.512492,459.657299,-296.082377
1303.703258,-10066.800811,1455.581446,-148.041188
1303.703570,-10732.986159,1149.143247,-0.000000
1303.703881,-11103.089130,-306.438199,740.205942
1303.704192,-10214.842000,-842.705048,888.247130
1303.704504,-8808.450710,-383.047749,740.205942
1303.704815,-7698.141797,0.000000,-0.000000
1303.705126,-7698.141797,-306.438199,148.041188
1303.705438,-7994.224174,-229.828649,370.102971
1303.705749,-8364.327145,383.047749,296.082377
1303.706060,-8734.430116,1532.190996,962.267725
1303.706372,-9326.594869,1302.362347,888.247130
1303.706683,-9400.615463,919.314598,1036.288319
1303.706994,-9030.512492,-689.485948,1258.350101
1303.707306,-8068.244768,-1072.533697,1258.350101
1303.707617,-8216.285956,-1378.971896,814.226536
1303.707928,-8808.450710,-536.266849,-74.020594
1303.708240,-9252.574275,612.876398,-444.123565
1303.708551,-9696.697840,995.924147,-222.061783
1303.708863,-9992.780217,995.924147,296.082377
1303.709174,-9696.697840,-383.047749,1036.288319
1303.709485,-8808.450710,-995.924147,1184.329507
1303.709797,-8364.327145,-1915.238745,1258.350101
1303.710108,-8438.347739,-1762.019645,1110.308913
1303.710419,-9030.512492,-612.876398,814.226536
1303.710731,-10510.924376,-536.266849,666.185348
1303.711042,-10658.965565,-153.219100,1184.329507
1303.711353,-9696.697840,689.485948,1998.556043
1303.711665,-9400.615463,1225.752797,1850.514855
1303.711976,-8512.368333,0.000000,1480.411884
1303.712287,-7179.997637,-1532.190996,1702.473667
1303.712599,-5847.626942,-1762.019645,1036.288319
1303.712910,-5699.585753,-1532.190996,296.082377
1303.713221,-7105.977043,0.000000,-740.205942
1303.713533,-8586.388927,1378.971896,-222.061783
1303.713844,-9844.739029,1072.533697,148.041188
1303.714155,-10732.986159,1225.752797,666.185348
1303.714467,-10955.047942,1225.752797,518.144159
1303.714778,-10436.903782,306.438199,962.267725
1303.715089,-8660.409521,-306.438199,1184.329507
1303.715401,-8142.265362,-1455.581446,444.123565
1303.715712,-7105.977043,-1302.362347,296.082377
1303.716023,-6883.915261,-689.485948,-222.061783
1303.716335,-8290.306550,0.000000,370.102971
1303.716646,-9252.574275,766.095498,740.205942
1303.716957,-10066.800811,-229.828649,888.247130
1303.717269,-9622.677246,-459.657299,1258.350101
1303.717580,-8808.450710,-1762.019645,1480.411884
1303.717891,-7698.141797,-2221.676944,740.205942
1303.718203,-7772.162391,-1685.410096,-222.061783
1303.718514,-8512.368333,-1072.533697,-518.144159
1303.718825,-8956.491898,76.609550,-1184.329507
1303.719137,-9918.759623,1378.971896,-740.205942
1303.719448,-9844.739029,1915.238745,-74.020594
1303.719759,-10584.944971,536.266849,-518.144159
1303.720071,-9178.553681,153.219100,148.041188
1303.720382,-8068.244768,153.219100,-0.000000
1303.720693,-8068.244768,0.000000,-296.082377
1303.721005,-8586.388927,-459.657299,-592.164754
1303.721316,-10066.800811,153.219100,-592.164754
1303.721627,-10955.047942,842.705048,-0.000000
1303.721939,-10955.047942,842.705048,888.247130
1303.722250,-11029.068536,995.924147,666.185348
1303.722561,-9400.615463,0.000000,1184.329507
1303.722873,-7846.182985,-1762.019645,1184.329507
1303.723184,-7402.059420,-2451.505594,444.123565
1303.723495,-7698.141797,-1532.190996,-370.102971
1303.723807,-7920.203579,612.876398,-814.226536
1303.724118,-8438.347739,1838.629195,-592.164754
1303.724430,-9696.697840,1915.238745,-444.123565
1303.724741,-10881.027347,1991.848295,296.082377
1303.725052,-10807.006753,1302.362347,296.082377
1303.725364,-9030.512492,919.314598,1036.288319
1303.725675,-8290.306550,766.095498,962.267725
1303.725986,-7624.121203,-766.095498,666.185348
1303.726298,-7846.182985,-1915.238745,148.041188
1303.726609,-8660.409521,-1072.533697,-0.000000
1303.726920,-8512.368333,919.314598,1332.370696
1303.727232,-9178.553681,2068.457845,1554.432478
1303.727543,-9770.718434,995.924147,1850.514855
1303.727854,-9104.533087,-383.047749,2146.597232
1303.728166,-8068.244768,-689.485948,1850.514855
1303.728477,-6365.771101,-1378.971896,1480.411884
1303.728788,-6365.771101,-306.438199,-0.000000
1303.729100,-7920.203579,-229.828649,-370.102971
1303.729411,-8290.306550,766.095498,-444.123565
1303.729722,-8364.327145,1685.410096,-296.082377
1303.730034,-8734.430116,1072.533697,592.164754
1303.730345,-9696.697840,-536.266849,888.247130
1303.730656,-9030.512492,-1532.190996,1628.453072
1303.730968,-8364.327145,-1149.143247,1480.411884
1303.731279,-8512.368333,-1762.019645,1332.370696
1303.731590,-9474.636058,-1532.190996,888.247130
1303.731902,-10436.903782,-612.876398,444.123565
1303.732213,-9400.615463,689.485948,814.226536
1303.732524,-9918.759623,1149.143247,444.123565
1303.732836,-9844.739029,459.657299,1110.308913
1303.733147,-8142.265362,-689.485948,1258.350101
1303.733458,-7772.162391,-2528.115143,1406.391290
1303.733770,-7402.059420,-2681.334243,740.205942
1303.734081,-8364.327145,-1915.238745,-0.000000
1303.734392,-9326.594869,0.000000,-518.144159
1303.734704,-9770.718434,536.266849,-222.061783
1303.735015,-11029.068536,919.314598,-74.020594
1303.735326,-10658.965565,995.924147,-0.000000
1303.735638,-10584.944971,229.828649,-0.000000
1303.735949,-8660.409521,153.219100,370.102971
1303.736260,-7846.182985,-689.485948,-0.000000
1303.736572,-8068.244768,-1378.971896,-296.082377
1303.736883,-8142.265362,-766.095498,-444.123565
1303.737194,-9104.533087,153.219100,-148.041188
1303.737506,-9696.697840,995.924147,888.247130
1303.737817,-9844.739029,1225.752797,1110.308913
1303.738128,-9696.697840,612.876398,1628.453072
1303.738440,-9252.574275,-995.924147,1776.494261
1303.738751,-7846.182985,-689.485948,1184.329507
1303.739062,-6957.935855,-689.485948,148.041188
1303.739374,-7624.121203,-459.657299,-740.205942
1303.739685,-8068.244768,0.000000,-962.267725
1303.739997,-7550.100608,842.705048,-888.247130
1303.740308,-9030.512492,1149.143247,-370.102971
1303.740619,-9252.574275,612.876398,148.041188
1303.740931,-9918.759623,-1378.971896,962.267725
1303.741242,-8808.450710,-2298.286494,1110.308913
1303.741553,-8438.347739,-2068.457845,962.267725
1303.741865,-8660.409521,-1685.410096,888.247130
1303.742176,-9474.636058,-1685.410096,592.164754
1303.742487,-10288.862594,-612.876398,148.041188
1303.742799,-9474.636058,1608.800546,370.102971
1303.743110,-9474.636058,1455.581446,444.123565
1303.743421,-9474.636058,842.705048,814.226536
1303.743733,-7698.141797,-766.095498,1332.370696
1303.744044,-6735.874072,-2528.115143,814.226536
1303.744355,-6809.894666,-2528.115143,518.144159
1303.744667,-7402.059420,-612.876398,148.041188
1303.744978,-8956.491898,76.609550,-148.041188
1303.745289,-10881.027347,612.876398,-74.020594
1303.745601,-10881.027347,1225.752797,518.144159
1303.745912,-10436.903782,689.485948,740.205942
1303.746223,-9918.759623,306.438199,1110.308913
1303.746535,-8068.244768,0.000000,888.247130
1303.746846,-7476.080014,-383.047749,-0.000000
1303.747157,-7105.977043,-766.095498,222.061783
1303.747469,-7698.141797,229.828649,148.041188
1303.747780,-9622.677246,1378.971896,-0.000000
1303.748091,-10214.842000,1838.629195,1332.370696
1303.748403,-10584.944971,1685.410096,1702.473667
1303.748714,-10140.821405,0.000000,2368.659014
1303.749025,-9474.636058,-536.266849,2516.700203
1303.749337,-8586.388927,-1072.533697,2072.576638
1303.749648,-7698.141797,-306.438199,518.144159
1303.749959,-7772.162391,612.876398,-74.020594
1303.750271,-8364.327145,1455.581446,-1332.370696
1303.750582,-8290.306550,1991.848295,-1184.329507
1303.750893,-7994.224174,2145.067394,-740.205942
1303.751205,-8660.409521,1072.533697,-0.000000
1303.751516,-9548.656652,0.000000,592.164754
1303.751827,-9252.574275,76.609550,1036.288319
1303.752139,-8438.347739,-306.438199,740.205942
1303.752450,-7920.203579,-306.438199,1036.288319
1303.752761,-9400.615463,0.000000,666.185348
1303.753073,-9474.636058,1149.143247,296.082377
1303.753384,-9474.636058,1762.019645,888.247130
1303.753695,-9548.656652,1532.190996,1036.288319
1303.754007,-8438.347739,306.438199,1258.350101
1303.754318,-7624.121203,-1378.971896,1406.391290
1303.754629,-6661.853478,-2681.334243,1184.329507
1303.754941,-6661.853478,-2604.724693,518.144159
1303.755252,-8068.244768,0.000000,-592.164754
1303.755564,-9252.574275,1685.410096,-370.102971
1303.755875,-10362.883188,1762.019645,-296.082377
1303.756186,-10362.883188,1455.581446,296.082377
1303.756498,-9844.739029,766.095498,444.123565
1303.756809,-8956.491898,-306.438199,518.144159
1303.757120,-7328.038826,-766.095498,296.082377
1303.757432,-7328.038826,-1225.752797,222.061783
1303.757743,-7402.059420,-995.924147,-888.247130
1303.758054,-8364.327145,-383.047749,-740.205942
1303.758366,-9770.718434,76.609550,-148.041188
1303.758677,-10510.924376,383.047749,518.144159
1303.758988,-11251.130318,0.000000,1036.288319
1303.759300,-10288.862594,-1532.190996,1554.432478
1303.759611,-9252.574275,-2221.676944,1998.556043
1303.759922,-8512.368333,-2298.286494,1628.453072
1303.760234,-7772.162391,-2145.067394,814.226536
1303.760545,-8734.430116,-1072.533697,-296.082377
1303.760856,-9104.533087,-306.438199,-666.185348
1303.761168,-9400.615463,995.924147,-666.185348
1303.761479,-9252.574275,1302.362347,-518.144159
1303.761790,-9696.697840,0.000000,-370.102971
1303.762102,-10214.842000,-766.095498,592.164754
1303.762413,-9474.636058,-689.485948,814.226536
1303.762724,-9400.615463,-612.876398,1184.329507
1303.763036,-9548.656652,-229.828649,814.226536
1303.763347,-9918.759623,153.219100,444.123565
1303.763658,-9696.697840,1149.143247,444.123565
1303.763970,-8882.471304,1838.629195,666.185348
1303.764281,-8512.368333,995.924147,1332.370696
1303.764592,-7328.038826,0.000000,1184.329507
1303.764904,-7105.977043,-1302.362347,1258.350101
1303.765215,-7031.956449,-2528.115143,1480.411884
1303.765526,-7698.141797,-1915.238745,962.267725
1303.765838,-8438.347739,-612.876398,592.164754
1303.766149,-8586.388927,612.876398,814.226536
1303.766460,-9252.574275,612.876398,814.226536
1303.766772,-9770.718434,689.485948,666.185348
1303.767083,-9696.697840,459.657299,296.082377
1303.767394,-8808.450710,459.657299,1184.329507
1303.767706,-7550.100608,229.828649,888.247130
1303.768017,-7328.038826,-383.047749,962.267725
1303.768328,-7328.038826,-612.876398,444.123565
1303.768640,-7624.121203,0.000000,962.267725
1303.768951,-8512.368333,229.828649,1258.350101
1303.769262,-9178.553681,1915.238745,1332.370696
1303.769574,-9474.636058,1991.848295,2146.597232
1303.769885,-8808.450710,459.657299,1184.329507
1303.770196,-7254.018232,76.609550,1406.391290
1303.770508,-6217.729913,-459.657299,148.041188
1303.770819,-6957.935855,-995.924147,-296.082377
1303.771130,-7772.162391,-612.876398,-592.164754
1303.771442,-8290.306550,306.438199,-1110.308913
1303.771753,-9696.697840,1915.238745,-444.123565
1303.772064,-10510.924376,1149.143247,-148.041188
1303.772375,-10955.047942,-766.095498,148.041188
1303.772687,-10214.842000,-1225.752797,888.247130
1303.772998,-9770.718434,-919.314598,962.267725
1303.773309,-9844.739029,-919.314598,444.123565
1303.773621,-10140.821405,-766.095498,-0.000000
1303.773932,-10510.924376,153.219100,74.020594
1303.774243,-10584.944971,306.438199,518.144159
1303.774555,-9548.656652,383.047749,962.267725
1303.774866,-9474.636058,1072.533697,-0.000000
1303.775177,-8956.491898,-306.438199,592.164754
1303.775489,-8068.244768,-995.924147,444.123565
1303.775800,-7476.080014,-1455.581446,-0.000000
1303.776111,-8216.285956,-842.705048,-370.102971
1303.776422,-9252.574275,689.485948,-740.205942
1303.776734,-9474.636058,1378.971896,-222.061783
1303.777045,-9992.780217,1378.971896,-370.102971
1303.777356,-10362.883188,1838.629195,444.123565
1303.777668,-9770.718434,536.266849,-0.000000
1303.777979,-8438.347739,0.000000,148.041188
1303.778290,-7328.038826,-459.657299,-148.041188
1303.778602,-7179.997637,-536.266849,-444.123565
1303.778913,-8068.244768,-383.047749,-962.267725
1303.779224,-9326.594869,229.828649,-296.082377
1303.779536,-9696.697840,919.314598,370.102971
1303.779847,-10140.821405,1762.019645,1258.350101
1303.780158,-10510.924376,1149.143247,2368.659014
1303.780469,-9178.553681,-229.828649,2442.679609
1303.780781,-7402.059420,-1149.143247,1850.514855
1303.781092,-5995.668130,-612.876398,962.267725
1303.781403,-5773.606348,0.000000,-370.102971
1303.781715,-7179.997637,306.438199,-1110.308913
1303.782026,-7994.224174,1378.971896,-1776.494261
1303.782337,-8290.306550,2068.457845,-1332.370696
1303.782649,-9030.512492,1378.971896,-296.082377
1303.782960,-10140.821405,76.609550,518.144159
1303.783271,-9992.780217,-153.219100,1110.308913
1303.783583,-9696.697840,-612.876398,1406.391290
1303.783894,-9548.656652,-459.657299,1480.411884
1303.784205,-9178.553681,-306.438199,888.247130
1303.784517,-9548.656652,0.000000,1036.288319
1303.784828,-9400.615463,0.000000,1110.308913
1303.785139,-9030.512492,536.266849,1480.411884
1303.785450,-8956.491898,0.000000,1628.453072
1303.785762,-8512.368333,-1378.971896,1850.514855
1303.786073,-8068.244768,-2911.162892,2072.576638
1303.786384,-8364.327145,-3140.991542,1554.432478
1303.786696,-8586.388927,-1685.410096,592.164754
1303.787007,-9252.574275,76.609550,-296.082377
1303.787318,-9844.739029,1532.190996,-74.020594
1303.787630,-10732.986159,2221.676944,-0.000000
1303.787941,-10288.862594,1762.019645,444.123565
1303.788252,-9844.739029,689.485948,592.164754
1303.788564,-8290.306550,0.000000,888.247130
1303.788875,-6809.894666,-459.657299,740.205942
1303.789186,-7402.059420,-995.924147,-0.000000
1303.789497,-7846.182985,-995.924147,-148.041188
1303.789809,-9030.512492,-383.047749,222.061783
1303.790120,-10140.821405,306.438199,1258.350101
1303.790431,-10658.965565,383.047749,1406.391290
1303.790743,-10436.903782,-76.609550,1998.556043
1303.791054,-9696.697840,-1378.971896,1406.391290
1303.791365,-7254.018232,-2604.724693,2368.659014
1303.791677,-6513.812290,-2298.286494,666.185348
1303.791988,-7105.977043,-1378.971896,-666.185348
1303.792299,-8068.244768,0.000000,-740.205942
1303.792611,-8586.388927,1378.971896,-1110.308913
1303.792922,-9252.574275,1915.238745,-740.205942
1303.793233,-9622.677246,995.924147,-0.000000
1303.793544,-9474.636058,-459.657299,-0.000000
1303.793856,-9030.512492,-536.266849,592.164754
1303.794167,-8660.409521,306.438199,444.123565
1303.794478,-8882.471304,-383.047749,444.123565
1303.794790,-9696.697840,-229.828649,-0.000000
1303.795101,-9844.739029,689.485948,-148.041188
1303.795412,-9474.636058,2068.457845,-0.000000
1303.795724,-9474.636058,2374.896044,740.205942
1303.796035,-9030.512492,1225.752797,1332.370696
1303.796346,-7920.203579,-1072.533697,1184.329507
1303.796658,-7179.997637,-2451.505594,1554.432478
1303.796969,-7105.977043,-2145.067394,1036.288319
1303.797280,-8216.285956,-1149.143247,-148.041188
1303.797591,-9548.656652,-459.657299,-518.144159
1303.797903,-9992.780217,612.876398,-296.082377
1303.798214,-10066.800811,383.047749,-814.226536
1303.798525,-10510.924376,0.000000,-148.041188
1303.798837,-9770.718434,-995.924147,222.061783
1303.799148,-8808.450710,-1072.533697,888.247130
1303.799459,-8142.265362,-1072.533697,370.102971
1303.799771,-8142.265362,-306.438199,-0.000000
1303.800082,-9252.574275,689.485948,-74.020594
1303.800393,-10140.821405,1455.581446,-0.000000
1303.800705,-9844.739029,1915.238745,592.164754
1303.801016,-9030.512492,1608.800546,1258.350101
1303.801327,-8660.409521,766.095498,1924.535449
1303.801638,-8660.409521,-1072.533697,1480.411884
1303.801950,-7179.997637,-2451.505594,1110.308913
1303.802261,-7031.956449,-2604.724693,518.144159
1303.802572,-7698.141797,-1608.800546,-444.123565
1303.802884,-8882.471304,0.000000,-888.247130
1303.803195,-10658.965565,612.876398,-1036.288319
1303.803506,-10066.800811,1225.752797,740.205942
1303.803818,-11029.068536,153.219100,814.226536
1303.804129,-10807.006753,0.000000,1776.494261
1303.804440,-9326.594869,-306.438199,1998.556043
1303.804752,-8142.265362,-689.485948,1036.288319
1303.805063,-7476.080014,-612.876398,888.247130
1303.805374,-8142.265362,306.438199,-0.000000
1303.805686,-8586.388927,612.876398,-74.020594
1303.805997,-9474.636058,2451.505594,592.164754
1303.806308,-9326.594869,1685.410096,1480.411884
1303.806619,-9400.615463,612.876398,1702.473667
1303.806931,-8660.409521,-995.924147,1702.473667
1303.807242,-7402.059420,-1762.019645,1406.391290
1303.807553,-6809.894666,-995.924147,592.164754
1303.807865,-7402.059420,536.266849,-592.164754
1303.808176,-8586.388927,1685.410096,-666.185348
1303.808487,-9252.574275,2451.505594,-518.144159
1303.808799,-9474.636058,1915.238745,518.144159
1303.809110,-9474.636058,1072.533697,666.185348
1303.809421,-9104.533087,306.438199,222.061783
1303.809733,-8290.306550,-306.438199,592.164754
1303.810044,-7698.141797,-766.095498,296.082377
1303.810355,-7920.203579,-153.219100,-296.082377
1303.810666,-8882.471304,-459.657299,-0.000000
1303.810978,-10807.006753,459.657299,444.123565
1303.811289,-10732.986159,1225.752797,1332.370696
1303.811600,-10214.842000,1532.190996,1702.473667
1303.811912,-8734.430116,229.828649,1998.556043
1303.812223,-7402.059420,-1455.581446,1702.473667
1303.812534,-6513.812290,-2374.896044,1036.288319
1303.812846,-5995.668130,-1608.800546,-0.000000
1303.813157,-6957.935855,-536.266849,-592.164754
1303.813468,-8882.471304,689.485948,-888.247130
1303.813780,-9992.780217,842.705048,-1184.329507
1303.814091,-10881.027347,612.876398,-814.226536
1303.814402,-11177.109724,229.828649,-0.000000
1303.814713,-10658.965565,-612.876398,444.123565
1303.815025,-9474.636058,-383.047749,962.267725
1303.815336,-8882.471304,-1455.581446,740.205942
1303.815647,-8660.409521,-919.314598,296.082377
1303.815959,-8882.471304,-766.095498,592.164754
1303.816270,-9252.574275,0.000000,888.247130
1303.816581,-9696.697840,229.828649,1332.370696
1303.816893,-9844.739029,-689.485948,1258.350101
1303.817204,-9474.636058,-1532.190996,1480.411884
1303.817515,-7920.203579,-2068.457845,1628.453072
1303.817827,-7550.100608,-2757.943793,1036.288319
1303.818138,-8290.306550,-2374.896044,666.185348
1303.818449,-9474.636058,-842.705048,-296.082377
1303.818760,-9770.718434,995.924147,-0.000000
1303.819072,-9548.656652,1532.190996,-0.000000
1303.819383,-9400.615463,1838.629195,296.082377
1303.819694,-9178.553681,842.705048,-0.000000
1303.820006,-8216.285956,536.266849,-222.061783
1303.820317,-7254.018232,76.609550,-0.000000
1303.820628,-7476.080014,-383.047749,-0.000000
1303.820940,-7698.141797,0.000000,296.082377
1303.821251,-8808.450710,-306.438199,296.082377
1303.821562,-10214.842000,0.000000,1184.329507
1303.821874,-10510.924376,612.876398,1850.514855
1303.822185,-10140.821405,383.047749,2220.617826
1303.822496,-8660.409521,-842.705048,1776.494261
1303.822807,-7476.080014,-2374.896044,1924.535449
1303.823119,-6587.832884,-2145.067394,444.123565
1303.823430,-6291.750507,-689.485948,-666.185348
1303.823741,-7402.059420,-153.219100,-888.247130
1303.824053,-8364.327145,229.828649,-814.226536
1303.824364,-9844.739029,842.705048,-740.205942
1303.824675,-10584.944971,995.924147,148.041188
1303.824987,-10510.924376,306.438199,1184.329507
1303.825298,-10140.821405,383.047749,1406.391290
1303.825609,-8660.409521,-995.924147,1184.329507
1303.825921,-7772.162391,-1225.752797,888.247130
1303.826232,-7994.224174,-1378.971896,148.041188
1303.826543,-9178.553681,0.000000,370.102971
1303.826854,-9474.636058,2145.067394,-0.000000
1303.827166,-9474.636058,2374.896044,296.082377
1303.827477,-10066.800811,1149.143247,222.061783
1303.827788,-9178.553681,-306.438199,592.164754
1303.828100,-8660.409521,-383.047749,-0.000000
1303.828411,-7920.203579,-536.266849,592.164754
1303.828722,-8808.450710,0.000000,296.082377
1303.829034,-9696.697840,229.828649,-0.000000
1303.829345,-10140.821405,1225.752797,592.164754
1303.829656,-10066.800811,1608.800546,518.144159
1303.829968,-10214.842000,1915.238745,-0.000000
1303.830279,-9622.677246,1378.971896,-0.000000
1303.830590,-8660.409521,1302.362347,-370.102971
1303.830902,-7920.203579,153.219100,-444.123565
1303.831213,-8068.244768,-229.828649,-370.102971
1303.831524,-9030.512492,0.000000,-0.000000
1303.831835,-9252.574275,306.438199,592.164754
1303.832147,-9844.739029,766.095498,1480.411884
1303.832458,-9474.636058,842.705048,1998.556043
1303.832769,-8512.368333,536.266849,2146.597232
1303.833081,-7402.059420,-689.485948,1998.556043
1303.833392,-6587.832884,-2145.067394,1480.411884
1303.833703,-6809.894666,-1991.848295,740.205942
1303.834015,-7328.038826,-919.314598,-518.144159
1303.834326,-8660.409521,459.657299,-518.144159
1303.834637,-9548.656652,766.095498,-814.226536
1303.834949,-9844.739029,766.095498,-0.000000
1303.835260,-10436.903782,153.219100,592.164754
1303.835571,-10362.883188,-153.219100,370.102971
1303.835882,-9326.594869,383.047749,1406.391290
1303.836194,-7846.182985,0.000000,1110.308913
1303.836505,-7624.121203,-689.485948,1258.350101
1303.836816,-7846.182985,-919.314598,518.144159
1303.837128,-8290.306550,-383.047749,518.144159
1303.837439,-8808.450710,1225.752797,-370.102971
1303.837750,-9252.574275,1685.410096,444.123565
1303.838062,-9474.636058,0.000000,962.267725
1303.838373,-9474.636058,-1991.848295,1258.350101
1303.838684,-9326.594869,-2528.115143,1850.514855
1303.838996,-8660.409521,-1838.629195,1628.453072
1303.839307,-9178.553681,-459.657299,666.185348
1303.839618,-9474.636058,306.438199,-222.061783
1303.839929,-9030.512492,459.657299,-370.102971
1303.840241,-8808.450710,766.095498,-74.020594
1303.840552,-9104.533087,919.314598,296.082377
1303.840863,-10288.862594,229.828649,444.123565
1303.841175,-9326.594869,-536.266849,370.102971
1303.841486,-8586.388927,-842.705048,222.061783
1303.841797,-8660.409521,-229.828649,-74.020594
1303.842109,-8660.409521,0.000000,-370.102971
1303.842420,-9326.594869,-229.828649,296.082377
1303.842731,-9474.636058,0.000000,1628.453072
1303.843043,-9622.677246,306.438199,1924.535449
1303.843354,-9548.656652,0.000000,1998.556043
1303.843665,-8660.409521,-459.657299,1776.494261
1303.843976,-6661.853478,-1685.410096,1480.411884
1303.844288,-5847.626942,-2374.896044,-0.000000
1303.844599,-6439.791695,-1072.533697,-666.185348
1303.844910,-8956.491898,229.828649,-1184.329507
1303.845222,-10584.944971,1302.362347,-1184.329507
1303.845533,-10807.006753,1532.190996,-74.020594
1303.845844,-11103.089130,612.876398,740.205942
1303.846156,-10955.047942,-689.485948,1110.308913
1303.846467,-9030.512492,-919.314598,1554.432478
1303.846778,-7476.080014,-459.657299,1110.308913
1303.847090,-7920.203579,-459.657299,-0.000000
1303.847401,-7920.203579,-919.314598,-0.000000
1303.847712,-9178.553681,229.828649,-222.061783
1303.848023,-9326.594869,1149.143247,296.082377
1303.848335,-9548.656652,1072.533697,1110.308913
1303.848646,-9548.656652,76.609550,740.205942
1303.848957,-8364.327145,-1302.362347,1332.370696
1303.849269,-8512.368333,-2221.676944,740.205942
1303.849580,-7476.080014,-1685.410096,1258.350101
1303.849891,-8512.368333,-153.219100,-0.000000
1303.850203,-9400.615463,0.000000,-74.020594
1303.850514,-10066.800811,766.095498,-222.061783
1303.850825,-10140.821405,1302.362347,-148.041188
1303.851137,-9622.677246,1762.019645,148.041188
1303.851448,-8808.450710,1532.190996,-0.000000
1303.851759,-7846.182985,383.047749,296.082377
1303.852071,-7698.141797,-383.047749,518.144159
1303.852382,-8290.306550,-306.438199,-296.082377
1303.852693,-8956.491898,459.657299,-0.000000
1303.853004,-9918.759623,842.705048,148.041188
1303.853316,-9918.759623,766.095498,666.185348
1303.853627,-9918.759623,766.095498,1480.411884
1303.853938,-9400.615463,0.000000,1332.370696
1303.854250,-7772.162391,-1225.752797,1628.453072
1303.854561,-6883.915261,-1532.190996,740.205942
1303.854872,-6883.915261,-1532.190996,148.041188
1303.855184,-8142.265362,-536.266849,-592.164754
1303.855495,-9326.594869,612.876398,-666.185348
1303.855806,-9400.615463,1608.800546,-0.000000
1303.856118,-9622.677246,1838.629195,444.123565
1303.856429,-10436.903782,76.609550,666.185348
1303.856740,-10214.842000,-383.047749,1702.473667
1303.857051,-9104.533087,-612.876398,1110.308913
1303.857363,-8142.265362,-1072.533697,888.247130
1303.857674,-8512.368333,-919.314598,222.061783
1303.857985,-9104.533087,-229.828649,-74.020594
1303.858297,-9104.533087,1072.533697,-370.102971
1303.858608,-9770.718434,2451.505594,814.226536
1303.858919,-9474.636058,1838.629195,1554.432478
1303.859231,-8142.265362,1149.143247,1184.329507
1303.859542,-7772.162391,-1302.362347,2294.638420
1303.859853,-6661.853478,-1838.629195,1776.494261
1303.860165,-6291.750507,-1072.533697,666.185348
1303.860476,-7846.182985,229.828649,-296.082377
1303.860787,-8216.285956,1072.533697,-222.061783
1303.861098,-9252.574275,1072.533697,-222.061783
1303.861410,-10214.842000,919.314598,592.164754
1303.861721,-10140.821405,1149.143247,1258.350101
1303.862032,-10436.903782,-459.657299,888.247130
1303.862344,-8882.471304,-766.095498,1554.432478
1303.862655,-8438.347739,-1225.752797,666.185348
1303.862966,-8438.347739,-766.095498,-0.000000
1303.863278,-9252.574275,153.219100,370.102971
1303.863589,-9252.574275,1072.533697,962.267725
1303.863900,-8586.388927,1302.362347,1480.411884
1303.864212,-9326.594869,383.047749,1258.350101
1303.864523,-8216.285956,-842.705048,1184.329507
1303.864834,-7698.141797,-1915.238745,1258.350101
1303.865145,-7031.956449,-2068.457845,888.247130
1303.865457,-8068.244768,-2145.067394,-0.000000
1303.865768,-9474.636058,-1608.800546,-444.123565
1303.866079,-9918.759623,306.438199,-444.123565
1303.866391,-10214.842000,1225.752797,-0.000000
1303.866702,-10066.800811,995.924147,518.144159
1303.867013,-10658.965565,306.438199,518.144159
1303.867325,-9992.780217,-1225.752797,222.061783
1303.867636,-7476.080014,-689.485948,740.205942
1303.867947,-7550.100608,-995.924147,-0.000000
1303.868259,-8512.368333,-1302.362347,222.061783
1303.868570,-8586.388927,-1149.143247,740.205942
1303.868881,-10288.862594,-1225.752797,296.082377
1303.869193,-10362.883188,306.438199,1184.329507
1303.869504,-9992.780217,842.705048,1258.350101
1303.869816,-9918.759623,-689.485948,1036.288319
1303.870127,-8290.306550,-1838.629195,1628.453072
1303.870438,-7105.977043,-1991.848295,962.267725
1303.870750,-7031.956449,-1225.752797,-0.000000
1303.871061,-8142.265362,383.047749,-888.247130
1303.871373,-8660.409521,1991.848295,-814.226536
1303.871684,-8882.471304,1532.190996,-888.247130
1303.871996,-9622.677246,1608.800546,-222.061783
1303.872307,-9844.739029,1378.971896,-0.000000
1303.872618,-9770.718434,229.828649,222.061783
1303.872930,-8438.347739,-612.876398,592.164754
1303.873241,-8438.347739,-766.095498,296.082377
1303.873553,-8808.450710,-383.047749,296.082377
1303.873864,-9844.739029,-153.219100,1036.288319
1303.874175,-10288.862594,689.485948,592.164754
1303.874487,-9474.636058,1302.362347,1110.308913
1303.874798,-9326.594869,689.485948,1332.370696
1303.875110,-8364.327145,-842.705048,962.267725
1303.875421,-7031.956449,-1762.019645,1258.350101
1303.875732,-6809.894666,-2145.067394,592.164754
1303.876044,-7105.977043,-1838.629195,148.041188
1303.876355,-8882.471304,-153.219100,-0.000000
1303.876667,-9474.636058,0.000000,-0.000000
1303.876978,-9622.677246,1378.971896,444.123565
1303.877289,-9992.780217,1149.143247,740.205942
1303.877601,-9400.615463,0.000000,1184.329507
1303.877912,-8882.471304,-1072.533697,592.164754
1303.878224,-7550.100608,0.000000,444.123565
1303.878535,-7920.203579,0.000000,-74.020594
1303.878846,-8142.265362,-842.705048,-74.020594
1303.879158,-9474.636058,-536.266849,592.164754
1303.879469,-10658.965565,0.000000,666.185348
1303.879781,-10362.883188,1225.752797,1258.350101
1303.880092,-9770.718434,689.485948,1850.514855
1303.880403,-9474.636058,-1532.190996,2072.576638
1303.880715,-7550.100608,-2374.896044,1776.494261
1303.881026,-6661.853478,-2068.457845,1332.370696
1303.881338,-7105.977043,-995.924147,-0.000000
1303.881649,-8808.450710,-612.876398,-148.041188
1303.881960,-9474.636058,919.314598,-592.164754
1303.882272,-9474.636058,1685.410096,-370.102971
1303.882583,-9548.656652,1455.581446,-0.000000
1303.882895,-10214.842000,995.924147,-296.082377
1303.883206,-9548.656652,229.828649,222.061783
1303.883517,-8512.368333,0.000000,-0.000000
1303.883829,-8216.285956,0.000000,74.020594
1303.884140,-8956.491898,306.438199,296.082377
1303.884452,-9992.780217,995.924147,592.164754
1303.884763,-9622.677246,1225.752797,962.267725
1303.885074,-9252.574275,1378.971896,1258.350101
1303.885386,-9030.512492,1532.190996,1036.288319
1303.885697,-7994.224174,536.266849,296.082377
1303.886009,-7550.100608,-919.314598,148.041188
1303.886320,-7254.018232,-1991.848295,-296.082377
1303.886631,-7698.141797,-1072.533697,-518.144159
1303.886943,-9252.574275,536.266849,-888.247130
1303.887254,-10214.842000,1378.971896,-296.082377
1303.887566,-10436.903782,1225.752797,370.102971
1303.887877,-9548.656652,1072.533697,666.185348
1303.888188,-9326.594869,76.609550,592.164754
1303.888500,-8068.244768,-383.047749,592.164754
1303.888811,-7328.038826,-76.609550,-0.000000
1303.889123,-7105.977043,-229.828649,-0.000000
1303.889434,-8290.306550,-459.657299,-148.041188
1303.889746,-9548.656652,-229.828649,222.061783
1303.890057,-10584.944971,612.876398,1110.308913
1303.890368,-10066.800811,689.485948,1776.494261
1303.890680,-10066.800811,-459.657299,1850.514855
1303.890991,-9474.636058,-2145.067394,2368.659014
1303.891303,-7698.141797,-2528.115143,1924.535449
1303.891614,-7031.956449,-2221.676944,1406.391290
1303.891925,-6957.935855,-842.705048,-0.000000
1303.892237,-8142.265362,0.000000,-222.061783
1303.892548,-8808.450710,459.657299,-370.102971
1303.892860,-9548.656652,536.266849,-296.082377
1303.893171,-10140.821405,842.705048,296.082377
1303.893482,-10140.821405,612.876398,-222.061783
1303.893794,-9400.615463,-153.219100,1110.308913
1303.894105,-9178.553681,-1378.971896,666.185348
1303.894417,-8808.450710,-1225.752797,592.164754
1303.894728,-9030.512492,-153.219100,814.226536
1303.895039,-9844.739029,459.657299,740.205942
1303.895351,-9918.759623,1149.143247,1554.432478
1303.895662,-9474.636058,612.876398,1702.473667
1303.895974,-8216.285956,0.000000,1480.411884
1303.896285,-7402.059420,-689.485948,1406.391290
1303.896596,-7698.141797,-1991.848295,814.226536
1303.896908,-7105.977043,-1455.581446,222.061783
1303.897219,-8216.285956,0.000000,-1036.288319
1303.897531,-9474.636058,1149.143247,-592.164754
1303.897842,-9844.739029,1302.362347,370.102971
1303.898153,-10140.821405,919.314598,370.102971
1303.898465,-9400.615463,76.609550,1184.329507
1303.898776,-9326.594869,-383.047749,1258.350101
1303.899088,-7994.224174,-536.266849,740.205942
1303.899399,-7105.977043,-459.657299,148.041188
1303.899710,-7105.977043,-306.438199,-222.061783
1303.900022,-7772.162391,-612.876398,-518.144159
1303.900333,-9178.553681,229.828649,-296.082377
1303.900645,-10140.821405,2068.457845,-0.000000
1303.900956,-10658.965565,1302.362347,1110.308913
1303.901267,-10140.821405,0.000000,1776.494261
1303.901579,-8956.491898,-1455.581446,2220.617826
1303.901890,-7624.121203,-2145.067394,1628.453072
1303.902202,-7031.956449,-1838.629195,222.061783
1303.902513,-7254.018232,-919.314598,-666.185348
1303.902824,-8364.327145,459.657299,-1628.453072
1303.903136,-9474.636058,0.000000,-1332.370696
1303.903447,-10214.842000,229.828649,-444.123565
1303.903759,-11103.089130,612.876398,444.123565
1303.904070,-10955.047942,0.000000,592.164754
1303.904381,-9326.594869,-536.266849,740.205942
1303.904693,-7920.203579,-612.876398,296.082377
1303.905004,-8290.306550,-689.485948,-148.041188
1303.905316,-8808.450710,459.657299,444.123565
1303.905627,-9474.636058,612.876398,296.082377
1303.905938,-9992.780217,1685.410096,962.267725
1303.906250,-9770.718434,1072.533697,592.164754
1303.906561,-8882.471304,459.657299,1036.288319
1303.906873,-7624.121203,-689.485948,962.267725
1303.907184,-7179.997637,-2068.457845,666.185348
1303.907496,-7105.977043,-2221.676944,296.082377
1303.907807,-8882.471304,-995.924147,-518.144159
1303.908118,-10658.965565,306.438199,-444.123565
1303.908430,-10807.006753,1302.362347,370.102971
1303.908741,-10362.883188,1685.410096,518.144159
1303.909053,-9252.574275,1149.143247,1036.288319
1303.909364,-8808.450710,-459.657299,814.226536
1303.909675,-7772.162391,-842.705048,814.226536
1303.909987,-7105.977043,-306.438199,148.041188
1303.910298,-7994.224174,153.219100,-296.082377
1303.910610,-9474.636058,0.000000,-0.000000
1303.910921,-10658.965565,612.876398,518.144159
1303.911232,-10732.986159,1455.581446,1258.350101
1303.911544,-10140.821405,1608.800546,1998.556043
1303.911855,-9104.533087,536.266849,2294.638420
1303.912167,-7402.059420,-842.705048,2368.659014
1303.912478,-6291.750507,-2068.457845,1850.514855
1303.912789,-5847.626942,-1455.581446,222.061783
1303.913101,-7031.956449,0.000000,-740.205942
1303.913412,-8068.244768,1378.971896,-1258.350101
1303.913724,-9474.636058,1991.848295,-740.205942
1303.914035,-10732.986159,2068.457845,-296.082377
1303.914346,-11103.089130,1991.848295,-0.000000
1303.914658,-10362.883188,919.314598,222.061783
1303.914969,-8808.450710,383.047749,666.185348
1303.915281,-8290.306550,0.000000,148.041188
1303.915592,-7994.224174,-306.438199,-0.000000
1303.915903,-8438.347739,459.657299,222.061783
1303.916215,-9326.594869,995.924147,444.123565
1303.916526,-9252.574275,1378.971896,1036.288319
1303.916838,-9326.594869,842.705048,1332.370696
1303.917149,-8290.306550,-612.876398,1850.514855
1303.917460,-7254.018232,-2604.724693,1554.432478
1303.917772,-7550.100608,-3677.258390,1110.308913
1303.918083,-7624.121203,-1838.629195,370.102971
1303.918395,-9030.512492,-689.485948,-148.041188
1303.918706,-10214.842000,-306.438199,-0.000000
1303.919017,-11029.068536,995.924147,296.082377
1303.919329,-10214.842000,689.485948,740.205942
1303.919640,-9252.574275,0.000000,592.164754
1303.919952,-8438.347739,-995.924147,740.205942
1303.920263,-7328.038826,-1378.971896,814.226536
1303.920574,-7179.997637,-1762.019645,592.164754
1303.920886,-8290.306550,-1838.629195,296.082377
1303.921197,-9844.739029,-766.095498,444.123565
1303.921509,-10658.965565,76.609550,814.226536
1303.921820,-11029.068536,536.266849,1258.350101
1303.922131,-10732.986159,536.266849,1998.556043
1303.922443,-9104.533087,-766.095498,2368.659014
1303.922754,-7550.100608,-1991.848295,2368.659014
1303.923066,-6587.832884,-2374.896044,814.226536
1303.923377,-6587.832884,-2145.067394,-592.164754
1303.923688,-7402.059420,0.000000,-1776.494261
1303.924000,-8808.450710,1762.019645,-1998.556043
1303.924311,-10140.821405,2068.457845,-1332.370696
1303.924623,-11029.068536,1838.629195,-222.061783
1303.924934,-11843.295072,1072.533697,814.226536
1303.925246,-10732.986159,0.000000,2072.576638
1303.925557,-8956.491898,-536.266849,1850.514855
1303.925868,-8068.244768,-995.924147,962.267725
1303.926180,-7179.997637,-306.438199,666.185348
1303.926491,-7402.059420,76.609550,-444.123565
1303.926803,-8068.244768,1532.190996,-296.082377
1303.927114,-8438.347739,1838.629195,-0.000000
1303.927425,-9400.615463,536.266849,666.185348
1303.927737,-9178.553681,-229.828649,1036.288319
1303.928048,-8734.430116,-1608.800546,1184.329507
1303.928360,-7994.224174,-1915.238745,888.247130
1303.928671,-7920.203579,-1225.752797,-74.020594
1303.928982,-8364.327145,0.000000,-888.247130
1303.929294,-8290.306550,1302.362347,-888.247130
1303.929605,-8808.450710,1225.752797,-222.061783
1303.929917,-8956.491898,153.219100,296.082377
1303.930228,-9696.697840,-383.047749,592.164754
1303.930539,-9252.574275,-842.705048,814.226536
1303.930851,-8142.265362,-1225.752797,740.205942
1303.931162,-8364.327145,-1991.848295,518.144159
1303.931474,-9326.594869,-1302.362347,-518.144159
1303.931785,-11029.068536,459.657299,-296.082377
1303.932096,-11029.068536,1149.143247,296.082377
1303.932408,-10881.027347,1915.238745,1184.329507
1303.932719,-10436.903782,919.314598,1554.432478
1303.933031,-8956.491898,-459.657299,1332.370696
1303.933342,-7179.997637,-1608.800546,1332.370696
1303.933653,-5699.585753,-1378.971896,814.226536
1303.933965,-5995.668130,-919.314598,-222.061783
1303.934276,-8290.306550,0.000000,-740.205942
1303.934588,-9844.739029,536.266849,-518.144159
1303.934899,-11029.068536,1455.581446,-222.061783
1303.935210,-11695.253884,1915.238745,444.123565
1303.935522,-11917.315666,995.924147,518.144159
1303.935833,-11029.068536,229.828649,592.164754
1303.936145,-9104.533087,0.000000,740.205942
1303.936456,-7772.162391,-306.438199,814.226536
1303.936767,-7624.121203,153.219100,518.144159
1303.937079,-7698.141797,306.438199,814.226536
1303.937390,-8364.327145,459.657299,1036.288319
1303.937702,-8438.347739,766.095498,1628.453072
1303.938013,-9104.533087,306.438199,1332.370696
1303.938324,-8660.409521,0.000000,1406.391290
1303.938636,-7624.121203,-1072.533697,1406.391290
1303.938947,-7179.997637,-1532.190996,1480.411884
1303.939259,-8068.244768,-306.438199,148.041188
1303.939570,-8660.409521,306.438199,-0.000000
1303.939881,-9030.512492,1762.019645,444.123565
1303.940193,-8882.471304,2221.676944,296.082377
1303.940504,-7846.182985,1838.629195,296.082377
1303.940816,-7846.182985,383.047749,-0.000000
1303.941127,-7402.059420,-306.438199,-222.061783
1303.941438,-6587.832884,-1302.362347,148.041188
1303.941750,-7550.100608,-689.485948,-0.000000
1303.942061,-9252.574275,-995.924147,370.102971
1303.942373,-11103.089130,-536.266849,962.267725
1303.942684,-11251.130318,153.219100,1480.411884
1303.942995,-11029.068536,536.266849,1554.432478
1303.943307,-10066.800811,459.657299,2072.576638
1303.943618,-8438.347739,-1532.190996,1628.453072
1303.943930,-7254.018232,-2911.162892,1554.432478
1303.944241,-6069.688724,-2757.943793,592.164754
1303.944553,-7328.038826,-1915.238745,-962.267725
1303.944864,-8512.368333,0.000000,-1258.350101
1303.945175,-9844.739029,1149.143247,-814.226536
1303.945487,-11399.171507,1302.362347,-666.185348
1303.945798,-11769.274478,1225.752797,148.041188
1303.946110,-12065.356855,0.000000,296.082377
1303.946421,-10584.944971,0.000000,1184.329507
1303.946732,-8734.430116,-153.219100,888.247130
1303.947044,-8438.347739,-1225.752797,296.082377
1303.947355,-7624.121203,-689.485948,-74.020594
1303.947667,-8660.409521,-306.438199,-222.061783
1303.947978,-8734.430116,766.095498,666.185348
1303.948289,-9770.718434,1149.143247,740.205942
1303.948601,-9918.759623,995.924147,1480.411884
1303.948912,-9178.553681,-612.876398,1184.329507
1303.949224,-8438.347739,-1762.019645,1554.432478
1303.949535,-7105.977043,-1685.410096,1110.308913
1303.949846,-7920.203579,-766.095498,-74.020594
1303.950158,-9178.553681,229.828649,-296.082377
1303.950469,-9400.615463,1532.190996,-296.082377
1303.950781,-9770.718434,1532.190996,-444.123565
1303.951092,-8660.409521,1532.190996,370.102971
1303.951403,-9326.594869,-766.095498,592.164754
1303.951715,-7846.182985,-1532.190996,814.226536
1303.952026,-7105.977043,-919.314598,518.144159
1303.952338,-7846.182985,-459.657299,148.041188
1303.952649,-8808.450710,-459.657299,222.061783
1303.952960,-10140.821405,153.219100,740.205942
1303.953272,-10584.944971,1072.533697,1332.370696
1303.953583,-9548.656652,1378.971896,2738.761985
1303.953895,-9104.533087,689.485948,2294.638420
1303.954206,-7846.182985,-1532.190996,2294.638420
1303.954517,-6143.709319,-2221.676944,1332.370696
1303.954829,-4811.338623,-2221.676944,-0.000000
1303.955140,-6291.750507,-995.924147,-1110.308913
1303.955452,-8438.347739,-306.438199,-1406.391290
1303.955763,-10066.800811,766.095498,-1036.288319
1303.956074,-10881.027347,536.266849,518.144159
1303.956386,-11843.295072,0.000000,1554.432478
1303.956697,-11621.233289,-995.924147,1406.391290
1303.957009,-9770.718434,-459.657299,1406.391290
1303.957320,-7772.162391,-229.828649,814.226536
1303.957631,-6883.915261,-459.657299,-74.020594
1303.957943,-7105.977043,0.000000,-296.082377
1303.958254,-8364.327145,306.438199,-666.185348
1303.958566,-9030.512492,1455.581446,444.123565
1303.958877,-10140.821405,1685.410096,888.247130
1303.959188,-10955.047942,1149.143247,666.185348
1303.959500,-9622.677246,0.000000,962.267725
1303.959811,-8808.450710,-1225.752797,740.205942
1303.960123,-7772.162391,-1378.971896,666.185348
1303.960434,-8216.285956,-766.095498,-296.082377
1303.960745,-9696.697840,153.219100,-444.123565
1303.961057,-10362.883188,612.876398,-370.102971
1303.961368,-10362.883188,1072.533697,-0.000000
1303.961680,-9622.677246,383.047749,370.102971
1303.961991,-8882.471304,-306.438199,222.061783
1303.962303,-7772.162391,-1225.752797,370.102971
1303.962614,-7624.121203,-1225.752797,370.102971
1303.962925,-8438.347739,-306.438199,444.123565
1303.963237,-10066.800811,536.266849,296.082377
1303.963548,-11029.068536,995.924147,444.123565
1303.963860,-10066.800811,2221.676944,1702.473667
1303.964171,-9400.615463,2145.067394,1924.535449
1303.964482,-7402.059420,459.657299,1480.411884
1303.964794,-6587.832884,-1149.143247,1332.370696
1303.965105,-5255.462188,-2298.286494,1258.350101
1303.965417,-5403.503377,-1685.410096,592.164754
1303.965728,-7624.121203,-995.924147,-518.144159
1303.966039,-9104.533087,306.438199,-666.185348
1303.966351,-10881.027347,1378.971896,-592.164754
1303.966662,-10955.047942,2145.067394,-0.000000
1303.966974,-11399.171507,1302.362347,592.164754
1303.967285,-10658.965565,153.219100,1110.308913
1303.967596,-8142.265362,-536.266849,1406.391290
1303.967908,-6735.874072,-612.876398,962.267725
1303.968219,-6069.688724,-306.438199,-74.020594
1303.968531,-7772.162391,612.876398,-592.164754
1303.968842,-9104.533087,689.485948,-74.020594
1303.969153,-9474.636058,1225.752797,740.205942
1303.969465,-10288.862594,919.314598,962.267725
1303.969776,-10658.965565,0.000000,1184.329507
1303.970088,-10214.842000,-919.314598,1258.350101
1303.970399,-9104.533087,-2068.457845,1110.308913
1303.970710,-7698.141797,-612.876398,-0.000000
1303.971022,-8216.285956,229.828649,-888.247130
1303.971333,-8808.450710,536.266849,-888.247130
1303.971645,-9548.656652,842.705048,-666.185348
1303.971956,-9400.615463,1455.581446,-148.041188
1303.972268,-9252.574275,229.828649,592.164754
1303.972579,-8882.471304,-1225.752797,962.267725
1303.972891,-8438.347739,-3294.210641,1406.391290
1303.973202,-8068.244768,-2374.896044,1036.288319
1303.973513,-9104.533087,-2221.676944,740.205942
1303.973825,-10288.862594,-459.657299,888.247130
1303.974136,-11547.212695,842.705048,1258.350101
1303.974448,-11473.192101,995.924147,2146.597232
1303.974759,-9918.759623,689.485948,2368.659014
1303.975071,-7920.203579,-612.876398,2072.576638
1303.975382,-6587.832884,-2068.457845,1850.514855
1303.975694,-5625.565159,-1838.629195,1184.329507
1303.976005,-5477.523971,-1225.752797,148.041188
1303.976316,-7402.059420,-383.047749,-296.082377
1303.976628,-8808.450710,919.314598,-370.102971
1303.976939,-10140.821405,1915.238745,-296.082377
1303.977251,-11103.089130,2221.676944,518.144159
1303.977562,-11325.150913,1532.190996,1110.308913
1303.977874,-10214.842000,995.924147,1332.370696
1303.978185,-8142.265362,-306.438199,1628.453072
1303.978497,-6513.812290,-766.095498,1406.391290
1303.978808,-6587.832884,-995.924147,444.123565
1303.979119,-7402.059420,-76.609550,-74.020594
1303.979431,-8956.491898,1378.971896,-0.000000
1303.979742,-9622.677246,2221.676944,444.123565
1303.980054,-10658.965565,1915.238745,666.185348
1303.980365,-10288.862594,689.485948,1184.329507
1303.980677,-8956.491898,-1991.848295,1554.432478
1303.980988,-8216.285956,-2221.676944,1850.514855
1303.981300,-7698.141797,-1685.410096,888.247130
1303.981611,-8216.285956,-612.876398,-370.102971
1303.981922,-8438.347739,0.000000,-666.185348
1303.982234,-8586.388927,766.095498,-518.144159
1303.982545,-8438.347739,919.314598,-0.000000
1303.982857,-9326.594869,0.000000,-370.102971
1303.983168,-9030.512492,-919.314598,444.123565
1303.983480,-8438.347739,-1225.752797,592.164754
1303.983791,-8660.409521,-1608.800546,814.226536
1303.984103,-9400.615463,-1608.800546,370.102971
1303.984414,-10807.006753,-612.876398,-370.102971
1303.984725,-10807.006753,1149.143247,-0.000000
1303.985037,-10510.924376,2145.067394,222.061783
1303.985348,-9326.594869,1455.581446,666.185348
1303.985660,-8216.285956,-1072.533697,1110.308913
1303.985971,-7328.038826,-2987.772442,1184.329507
1303.986283,-6513.812290,-2757.943793,888.247130
1303.986594,-7105.977043,-1225.752797,-666.185348
1303.986906,-9178.553681,383.047749,-888.247130
1303.987217,-10436.903782,1072.533697,-1480.411884
1303.987528,-10881.027347,1762.019645,-296.082377
1303.987840,-11251.130318,2145.067394,222.061783
1303.988151,-11029.068536,1608.800546,222.061783
1303.988463,-9696.697840,612.876398,518.144159
1303.988774,-7994.224174,0.000000,444.123565
1303.989086,-7031.956449,-689.485948,-0.000000
1303.989397,-7105.977043,-612.876398,-370.102971
1303.989709,-8734.430116,306.438199,-0.000000
1303.990020,-9474.636058,1378.971896,74.020594
1303.990332,-10140.821405,1378.971896,1184.329507
1303.990643,-10955.047942,919.314598,1332.370696
1303.990954,-10288.862594,-459.657299,1850.514855
1303.991266,-8808.450710,-1225.752797,2220.617826
1303.991577,-7402.059420,-1225.752797,1702.473667
1303.991889,-7179.997637,-306.438199,222.061783
1303.992200,-7550.100608,306.438199,-444.123565
1303.992512,-8586.388927,1302.362347,-518.144159
1303.992823,-8364.327145,2451.505594,-148.041188
1303.993135,-8290.306550,1762.019645,-0.000000
1303.993446,-8882.471304,536.266849,370.102971
1303.993757,-8956.491898,-383.047749,666.185348
1303.994069,-8808.450710,-1072.533697,1036.288319
1303.994380,-8364.327145,-766.095498,962.267725
1303.994692,-8586.388927,0.000000,592.164754
1303.995003,-9400.615463,306.438199,888.247130
1303.995315,-9696.697840,76.609550,1406.391290
1303.995626,-9400.615463,1302.362347,1776.494261
1303.995938,-8290.306550,919.314598,1850.514855
1303.996249,-7328.038826,-536.266849,1924.535449
1303.996560,-5995.668130,-1915.238745,1850.514855
1303.996872,-5773.606348,-2221.676944,666.185348
1303.997183,-6957.935855,-1302.362347,-222.061783
1303.997495,-8660.409521,76.609550,-148.041188
1303.997806,-10288.862594,1149.143247,-444.123565
1303.998118,-11991.336260,1685.410096,740.205942
1303.998429,-12213.398043,766.095498,1406.391290
1303.998741,-11103.089130,-383.047749,1332.370696
1303.999052,-8956.491898,-766.095498,1776.494261
1303.999363,-6735.874072,-1608.800546,518.144159
1303.999675,-6069.688724,-1225.752797,-74.020594
1303.999986,-6439.791695,-1149.143247,-74.020594
1304.000298,-8660.409521,-153.219100,-518.144159
1304.000609,-9992.780217,536.266849,222.061783
1304.000921,-11103.089130,919.314598,1480.411884
1304.001232,-11917.315666,76.609550,1776.494261
1304.001544,-10584.944971,-689.485948,2220.617826
1304.001855,-8660.409521,-1915.238745,1480.411884
1304.002166,-7476.080014,-1302.362347,666.185348
1304.002478,-7031.956449,-1302.362347,-814.226536
1304.002789,-7476.080014,0.000000,-962.267725
1304.003101,-8364.327145,612.876398,-962.267725
1304.003412,-9400.615463,766.095498,-518.144159
1304.003724,-10140.821405,76.609550,296.082377
1304.004035,-10140.821405,-842.705048,-0.000000
1304.004347,-9400.615463,-995.924147,1110.308913
1304.004658,-9030.512492,-1762.019645,222.061783
1304.004969,-9030.512492,-1149.143247,370.102971
1304.005281,-9474.636058,-153.219100,-74.020594
1304.005592,-9696.697840,842.705048,-0.000000
1304.005904,-9474.636058,1378.971896,962.267725
1304.006215,-9400.615463,995.924147,1406.391290
1304.006527,-7920.203579,-229.828649,1036.288319
1304.006838,-6661.853478,-842.705048,1258.350101
1304.007150,-6217.729913,-1915.238745,592.164754
1304.007461,-5995.668130,-2374.896044,-518.144159
1304.007772,-7772.162391,-919.314598,-1184.329507
1304.008084,-9622.677246,689.485948,-1184.329507
1304.008395,-10510.924376,1762.019645,-296.082377
1304.008707,-11399.171507,1225.752797,-0.000000
1304.009018,-11473.192101,919.314598,814.226536
1304.009330,-10658.965565,76.609550,1110.308913
1304.009641,-7846.182985,-1072.533697,1258.350101
1304.009953,-6587.832884,-536.266849,814.226536
1304.010264,-6661.853478,-995.924147,148.041188
1304.010575,-7328.038826,-459.657299,-518.144159
1304.010887,-8586.388927,383.047749,-0.000000
1304.011198,-9622.677246,1838.629195,666.185348
1304.011510,-10584.944971,1225.752797,1036.288319
1304.011821,-10658.965565,1072.533697,1924.535449
1304.012133,-10066.800811,-842.705048,1554.432478
1304.012444,-8290.306550,-1608.800546,1406.391290
1304.012756,-7254.018232,-1455.581446,888.247130
1304.013067,-7550.100608,-536.266849,-222.061783
1304.013379,-7846.182985,306.438199,-518.144159
1304.013690,-8586.388927,842.705048,-370.102971
1304.014001,-8956.491898,919.314598,-148.041188
1304.014313,-9844.739029,995.924147,222.061783
1304.014624,-10288.862594,153.219100,222.061783
1304.014936,-9918.759623,-306.438199,888.247130
1304.015247,-9474.636058,-459.657299,666.185348
1304.015559,-9326.594869,-383.047749,370.102971
1304.015870,-9844.739029,76.609550,74.020594
1304.016182,-9548.656652,1072.533697,814.226536
1304.016493,-9104.533087,2221.676944,1184.329507
1304.016804,-8290.306550,1838.629195,1702.473667
1304.017116,-7846.182985,229.828649,814.226536
1304.017427,-6809.894666,-1378.971896,1332.370696
1304.017739,-6365.771101,-1915.238745,962.267725
1304.018050,-7179.997637,-1532.190996,-0.000000
1304.018362,-8586.388927,306.438199,-592.164754
1304.018673,-9252.574275,2145.067394,-370.102971
1304.018985,-10140.821405,1838.629195,370.102971
1304.019296,-10436.903782,995.924147,814.226536
1304.019607,-9474.636058,1225.752797,1036.288319
1304.019919,-8734.430116,306.438199,1110.308913
1304.020230,-7105.977043,-689.485948,814.226536
1304.020542,-6809.894666,-1149.143247,370.102971
1304.020853,-6661.853478,-1225.752797,-222.061783
1304.021165,-7772.162391,0.000000,-0.000000
1304.021476,-9844.739029,-153.219100,592.164754
1304.021788,-10584.944971,842.705048,1036.288319
1304.022099,-11695.253884,306.438199,1628.453072
1304.022410,-10584.944971,-612.876398,1998.556043
1304.022722,-9030.512492,-1608.800546,2072.576638
1304.023033,-7402.059420,-1685.410096,1406.391290
1304.023345,-6143.709319,-1991.848295,222.061783
1304.023656,-6735.874072,-383.047749,-888.247130
1304.023968,-7476.080014,153.219100,-814.226536
1304.024279,-8068.244768,612.876398,-962.267725
1304.024591,-9548.656652,995.924147,-222.061783
1304.024902,-10807.006753,0.000000,518.144159
1304.025213,-11029.068536,-1532.190996,1110.308913
1304.025525,-9918.759623,-1532.190996,962.267725
1304.025836,-10066.800811,-1532.190996,444.123565
1304.026148,-10066.800811,-1149.143247,296.082377
1304.026459,-10140.821405,0.000000,370.102971
1304.026771,-9548.656652,995.924147,296.082377
1304.027082,-9178.553681,1302.362347,962.267725
1304.027394,-9178.553681,689.485948,1258.350101
1304.027705,-8808.450710,-766.095498,1480.411884
1304.028016,-7179.997637,-1685.410096,1480.411884
1304.028328,-6291.750507,-1915.238745,666.185348
1304.028639,-7179.997637,-1762.019645,-518.144159
1304.028951,-8734.430116,459.657299,-370.102971
1304.029262,-9326.594869,536.266849,-148.041188
1304.029574,-9622.677246,1149.143247,518.144159
1304.029885,-10807.006753,1532.190996,1036.288319
1304.030197,-10436.903782,919.314598,1406.391290
1304.030508,-9030.512492,-306.438199,1406.391290
1304.030819,-7402.059420,-1532.190996,1036.288319
1304.031131,-6291.750507,-1149.143247,814.226536
1304.031442,-6809.894666,-1455.581446,-444.123565
1304.031754,-7994.224174,-383.047749,-148.041188
1304.032065,-9474.636058,995.924147,592.164754
1304.032377,-10807.006753,766.095498,1628.453072
1304.032688,-11325.150913,0.000000,2368.659014
1304.033000,-10436.903782,-306.438199,2738.761985
1304.033311,-8290.306550,-1072.533697,2368.659014
1304.033622,-6217.729913,-1225.752797,1554.432478
1304.033934,-5403.503377,-689.485948,-74.020594
1304.034245,-6661.853478,0.000000,-962.267725
1304.034557,-7476.080014,1149.143247,-1406.391290
1304.034868,-8512.368333,2221.676944,-1036.288319
1304.035180,-9548.656652,1915.238745,-222.061783
1304.035491,-10362.883188,153.219100,-0.000000
1304.035803,-10214.842000,-229.828649,666.185348
1304.036114,-8808.450710,0.000000,888.247130
1304.036426,-9326.594869,-306.438199,740.205942
1304.036737,-9844.739029,-995.924147,518.144159
1304.037048,-10066.800811,-459.657299,814.226536
1304.037360,-9992.780217,689.485948,740.205942
1304.037671,-9474.636058,919.314598,1628.453072
1304.037983,-9696.697840,306.438199,1184.329507
1304.038294,-9104.533087,-766.095498,518.144159
1304.038606,-7031.956449,-1072.533697,740.205942
1304.038917,-6143.709319,-1378.971896,-0.000000
1304.039229,-7402.059420,-1149.143247,-592.164754
1304.039540,-8734.430116,229.828649,-518.144159
1304.039851,-9474.636058,1225.752797,-370.102971
1304.040163,-10732.986159,1378.971896,148.041188
1304.040474,-11621.233289,1532.190996,592.164754
1304.040786,-10732.986159,995.924147,814.226536
1304.041097,-8882.471304,0.000000,296.082377
1304.041409,-7031.956449,-612.876398,370.102971
1304.041720,-6365.771101,-842.705048,-370.102971
1304.042032,-7031.956449,-153.219100,-888.247130
1304.042343,-8956.491898,76.609550,-518.144159
1304.042654,-9992.780217,995.924147,666.185348
1304.042966,-11251.130318,1378.971896,888.247130
1304.043277,-11695.253884,1532.190996,2146.597232
1304.043589,-10288.862594,-459.657299,2294.638420
1304.043900,-8216.285956,-1302.362347,2072.576638
1304.044212,-6513.812290,-995.924147,1110.308913
1304.044523,-6587.832884,-995.924147,-888.247130
1304.044835,-7772.162391,0.000000,-1184.329507
1304.045146,-8290.306550,1608.800546,-1184.329507
1304.045457,-8438.347739,2068.457845,-962.267725
1304.045769,-8956.491898,1455.581446,-0.000000
1304.046080,-10066.800811,-383.047749,888.247130
1304.046392,-9770.718434,-1532.190996,1406.391290
1304.046703,-8808.450710,-1149.143247,1480.411884
1304.047015,-8586.388927,-766.095498,1110.308913
1304.047326,-9326.594869,-842.705048,370.102971
1304.047638,-9252.574275,-306.438199,-0.000000
1304.047949,-9474.636058,76.609550,740.205942
1304.048260,-9400.615463,842.705048,666.185348
1304.048572,-9252.574275,383.047749,1406.391290
1304.048883,-9326.594869,-1072.533697,1998.556043
1304.049195,-7994.224174,-2451.505594,1702.473667
1304.049506,-7179.997637,-2374.896044,1036.288319
1304.049818,-7476.080014,-766.095498,222.061783
1304.050129,-8216.285956,536.266849,-222.061783
1304.050441,-9030.512492,0.000000,-0.000000
1304.050752,-10362.883188,383.047749,-0.000000
1304.051063,-10955.047942,1225.752797,888.247130
1304.051375,-10807.006753,229.828649,814.226536
1304.051686,-9400.615463,-919.314598,888.247130
1304.051998,-7698.141797,-1302.362347,814.226536
1304.052309,-7105.977043,-1685.410096,-74.020594
1304.052621,-7402.059420,-1072.533697,-222.061783
1304.052932,-9474.636058,0.000000,370.102971
1304.053244,-9770.718434,2068.457845,1406.391290
1304.053555,-10066.800811,1378.971896,2072.576638
1304.053866,-10436.903782,383.047749,2368.659014
1304.054178,-9178.553681,-459.657299,2294.638420
1304.054489,-6957.935855,-1072.533697,1554.432478
1304.054801,-5921.647536,-1072.533697,-0.000000
1304.055112,-6513.812290,-766.095498,-1184.329507
1304.055424,-7624.121203,-536.266849,-814.226536
1304.055735,-9030.512492,383.047749,-814.226536
1304.056047,-9844.739029,1302.362347,-222.061783
1304.056358,-10288.862594,766.095498,444.123565
1304.056669,-10732.986159,-153.219100,888.247130
1304.056981,-9252.574275,-383.047749,1406.391290
1304.057292,-7920.203579,-306.438199,666.185348
1304.057604,-7772.162391,0.000000,666.185348
1304.057915,-8882.471304,153.219100,-0.000000
1304.058227,-9104.533087,459.657299,148.041188
1304.058538,-9696.697840,995.924147,518.144159
1304.058850,-9844.739029,689.485948,888.247130
1304.059161,-9918.759623,229.828649,666.185348
1304.059473,-9178.553681,-995.924147,1036.288319
1304.059784,-7994.224174,-2221.676944,814.226536
1304.060095,-7254.018232,-2298.286494,370.102971
1304.060407,-7994.224174,-995.924147,-814.226536
1304.060718,-8734.430116,842.705048,-444.123565
1304.061030,-9178.553681,1072.533697,-0.000000
1304.061341,-9918.759623,1378.971896,-296.082377
1304.061653,-10066.800811,1455.581446,296.082377
1304.061964,-9992.780217,459.657299,-148.041188
1304.062276,-8882.471304,-153.219100,-0.000000
1304.062587,-7994.224174,-1149.143247,-0.000000
1304.062898,-7846.182985,-536.266849,-814.226536
1304.063210,-9178.553681,-153.219100,-74.020594
1304.063521,-10288.862594,0.000000,814.226536
1304.063833,-10510.924376,612.876398,1332.370696
1304.064144,-10584.944971,1378.971896,1924.535449
1304.064456,-9252.574275,1455.581446,1924.535449
1304.064767,-7550.100608,-766.095498,1702.473667
1304.065079,-5773.606348,-689.485948,370.102971
1304.065390,-6069.688724,-612.876398,-592.164754
1304.065701,-7772.162391,0.000000,-1628.453072
1304.066013,-8734.430116,842.705048,-1036.288319
1304.066324,-9844.739029,1378.971896,-444.123565
1304.066636,-10510.924376,1149.143247,148.041188
1304.066947,-10732.986159,-229.828649,1406.391290
1304.067259,-10955.047942,-459.657299,1850.514855
