#time,accel_x,accel_y,accel_z
1385.536710,-8808.450710,0.000000,296.082377
1385.537021,-8660.409521,0.000000,-0.000000
1385.537333,-9104.533087,0.000000,444.123565
1385.537644,-9030.512492,0.000000,592.164754
1385.537955,-8956.491898,0.000000,518.144159
1385.538267,-8808.450710,0.000000,370.102971
1385.538578,-9252.574275,0.000000,518.144159
1385.538889,-8882.471304,229.828649,962.267725
1385.539201,-8956.491898,76.609550,296.082377
1385.539512,-8882.471304,0.000000,518.144159
1385.539823,-8808.450710,0.000000,518.144159
1385.540134,-8956.491898,0.000000,592.164754
1385.540446,-9030.512492,0.000000,592.164754
1385.540757,-8586.388927,0.000000,518.144159
1385.541068,-9030.512492,0.000000,222.061783
1385.541380,-8512.368333,0.000000,370.102971
1385.541691,-9104.533087,0.000000,-0.000000
1385.542002,-9030.512492,-306.438199,592.164754
1385.542314,-9030.512492,-153.219100,666.185348
1385.542625,-9104.533087,-153.219100,370.102971
1385.542936,-8882.471304,0.000000,740.205942
1385.543248,-8882.471304,76.609550,592.164754
1385.543559,-9252.574275,306.438199,444.123565
1385.543870,-9400.615463,0.000000,666.185348
1385.544182,-9104.533087,-306.438199,222.061783
1385.544493,-8956.491898,0.000000,518.144159
1385.544804,-9104.533087,0.000000,444.123565
1385.545116,-8734.430116,0.000000,592.164754
1385.545427,-8660.409521,-306.438199,592.164754
1385.545738,-8512.368333,383.047749,370.102971
1385.546050,-8882.471304,153.219100,296.082377
1385.546361,-8660.409521,0.000000,518.144159
1385.546672,-8808.450710,0.000000,814.226536
1385.546984,-9030.512492,0.000000,518.144159
1385.547295,-8882.471304,0.000000,518.144159
1385.547606,-9030.512492,0.000000,592.164754
1385.547918,-8364.327145,-306.438199,592.164754
1385.548229,-9104.533087,-229.828649,370.102971
1385.548540,-8808.450710,229.828649,1110.308913
1385.548851,-8956.491898,306.438199,666.185348
1385.549163,-8882.471304,229.828649,740.205942
1385.549474,-9104.533087,-306.438199,518.144159
1385.549785,-8956.491898,0.000000,444.123565
1385.550097,-8882.471304,76.609550,370.102971
1385.550408,-8882.471304,0.000000,444.123565
1385.550719,-8808.450710,-459.657299,444.123565
1385.551031,-8956.491898,0.000000,148.041188
1385.551342,-8734.430116,0.000000,296.082377
1385.551653,-9030.512492,0.000000,592.164754
1385.551965,-9178.553681,0.000000,518.144159
1385.552276,-8956.491898,0.000000,592.164754
1385.552587,-9030.512492,0.000000,518.144159
1385.552899,-8882.471304,-229.828649,222.061783
1385.553210,-8956.491898,306.438199,296.082377
1385.553521,-8956.491898,76.609550,444.123565
1385.553833,-8808.450710,0.000000,296.082377
1385.554144,-8808.450710,-229.828649,666.185348
1385.554455,-9030.512492,0.000000,518.144159
1385.554767,-8956.491898,0.000000,444.123565
1385.555078,-8808.450710,0.000000,592.164754
1385.555389,-8882.471304,-229.828649,518.144159
1385.555701,-8660.409521,0.000000,666.185348
1385.556012,-8882.471304,-153.219100,444.123565
1385.556323,-8956.491898,-229.828649,592.164754
1385.556635,-9030.512492,0.000000,518.144159
1385.556946,-9104.533087,0.000000,666.185348
1385.557257,-8882.471304,-229.828649,592.164754
1385.557569,-8956.491898,76.609550,592.164754
1385.557880,-8734.430116,153.219100,444.123565
1385.558191,-8586.388927,76.609550,444.123565
1385.558502,-9030.512492,229.828649,592.164754
1385.558814,-9104.533087,0.000000,296.082377
1385.559125,-9178.553681,0.000000,370.102971
1385.559436,-8956.491898,-153.219100,592.164754
1385.559748,-8808.450710,0.000000,518.144159
1385.560059,-8956.491898,0.000000,592.164754
1385.560370,-8512.368333,-229.828649,518.144159
1385.560682,-8586.388927,0.000000,296.082377
1385.560993,-8956.491898,229.828649,148.041188
1385.561304,-9030.512492,0.000000,592.164754
1385.561616,-8956.491898,0.000000,592.164754
1385.561927,-8882.471304,-229.828649,666.185348
1385.562238,-8956.491898,0.000000,518.144159
1385.562550,-8808.450710,153.219100,888.247130
1385.562861,-8808.450710,229.828649,592.164754
1385.563172,-8882.471304,229.828649,592.164754
1385.563484,-9178.553681,0.000000,296.082377
1385.563795,-9030.512492,0.000000,518.144159
1385.564106,-8808.450710,0.000000,518.144159
1385.564418,-8660.409521,0.000000,518.144159
1385.564729,-8882.471304,0.000000,592.164754
1385.565040,-8956.491898,-766.095498,518.144159
1385.565352,-8956.491898,0.000000,518.144159
1385.565663,-8882.471304,0.000000,518.144159
1385.565974,-9104.533087,153.219100,222.061783
1385.566286,-8882.471304,0.000000,592.164754
1385.566597,-8956.491898,-153.219100,222.061783
1385.566908,-9030.512492,0.000000,518.144159
1385.567219,-8808.450710,0.000000,518.144159
1385.567531,-8882.471304,229.828649,592.164754
1385.567842,-8660.409521,-766.095498,518.144159
1385.568153,-8660.409521,0.000000,592.164754
1385.568465,-9252.574275,0.000000,222.061783
1385.568776,-9104.533087,0.000000,518.144159
1385.569087,-10584.944971,459.657299,296.082377
1385.569399,-11621.233289,2145.067394,296.082377
1385.569710,-9178.553681,4749.792088,740.205942
1385.570021,-7698.141797,4519.963438,518.144159
1385.570333,-6587.832884,2298.286494,1110.308913
1385.570644,-6513.812290,-536.266849,444.123565
1385.570955,-7476.080014,-1302.362347,-0.000000
1385.571267,-7179.997637,-383.047749,-0.000000
1385.571578,-10436.903782,-995.924147,-1184.329507
1385.571889,-13101.645173,-306.438199,-888.247130
1385.572201,-10584.944971,766.095498,740.205942
1385.572512,-9400.615463,0.000000,740.205942
1385.572823,-8660.409521,76.609550,3034.844362
1385.573135,-12213.398043,306.438199,1628.453072
1385.573446,-9844.739029,3600.648841,2294.638420
1385.573757,-5181.441594,5515.887586,2294.638420
1385.574069,-6883.915261,3753.867940,1332.370696
1385.574380,-7920.203579,2451.505594,-148.041188
1385.574691,-7031.956449,3140.991542,-1702.473667
1385.575003,-9104.533087,3140.991542,-1924.535449
1385.575314,-8216.285956,4366.744339,222.061783
1385.575625,-11029.068536,2911.162892,-1258.350101
1385.575936,-14359.995275,-306.438199,-0.000000
1385.576248,-9400.615463,-995.924147,2590.720797
1385.576559,-9844.739029,76.609550,888.247130
1385.576870,-8808.450710,4749.792088,2442.679609
1385.577182,-8216.285956,7354.516781,2072.576638
1385.577493,-8068.244768,3753.867940,2442.679609
1385.577804,-5551.544565,3830.477490,2146.597232
1385.578116,-6883.915261,6588.421283,888.247130
1385.578427,-7920.203579,7354.516781,-1036.288319
1385.578738,-9474.636058,5898.935335,-1850.514855
1385.579050,-9770.718434,4903.011187,-666.185348
1385.579361,-9548.656652,5286.058936,-1998.556043
1385.579672,-11621.233289,5132.839837,222.061783
1385.579984,-11621.233289,3983.696590,296.082377
1385.580295,-10436.903782,4519.963438,1924.535449
1385.580606,-9474.636058,4366.744339,2516.700203
1385.580918,-7550.100608,4903.011187,1924.535449
1385.581229,-5995.668130,5132.839837,666.185348
1385.581540,-5255.462188,4826.401637,518.144159
1385.581852,-4885.359217,4826.401637,148.041188
1385.582163,-5255.462188,4213.525239,-962.267725
1385.582474,-8068.244768,3753.867940,-962.267725
1385.582786,-9696.697840,2681.334243,-518.144159
1385.583097,-10140.821405,1455.581446,296.082377
1385.583408,-10881.027347,459.657299,740.205942
1385.583720,-11325.150913,0.000000,1554.432478
1385.584031,-11621.233289,689.485948,1184.329507
1385.584342,-10140.821405,2221.676944,2072.576638
1385.584654,-8216.285956,3830.477490,1480.411884
1385.584965,-6957.935855,3830.477490,296.082377
1385.585276,-6439.791695,3217.601092,-0.000000
1385.585587,-7328.038826,3064.381992,-740.205942
1385.585899,-6365.771101,3983.696590,-444.123565
1385.586210,-7105.977043,2451.505594,-1184.329507
1385.586521,-9178.553681,0.000000,-592.164754
1385.586833,-10436.903782,-2068.457845,-370.102971
1385.587144,-11177.109724,-2068.457845,814.226536
1385.587455,-12509.480420,-2298.286494,1332.370696
1385.587767,-13027.624579,-995.924147,1924.535449
1385.588078,-13397.727550,612.876398,1258.350101
1385.588389,-12065.356855,2451.505594,222.061783
1385.588701,-8956.491898,4366.744339,-0.000000
1385.589012,-6735.874072,4519.963438,-0.000000
1385.589323,-6439.791695,4596.572988,370.102971
1385.589635,-6661.853478,4749.792088,1036.288319
1385.589946,-7920.203579,2987.772442,222.061783
1385.590257,-9548.656652,1685.410096,-74.020594
1385.590569,-11769.274478,995.924147,-0.000000
1385.590880,-13027.624579,536.266849,-444.123565
1385.591191,-13175.665768,0.000000,-370.102971
1385.591503,-12731.542202,536.266849,296.082377
1385.591814,-11103.089130,1915.238745,740.205942
1385.592125,-9622.677246,3140.991542,1110.308913
1385.592437,-7328.038826,5132.839837,2146.597232
1385.592748,-4959.379811,5209.449386,2368.659014
1385.593059,-2368.659014,5822.325785,888.247130
1385.593371,-1850.514855,6281.983084,-740.205942
1385.593682,-3256.906145,5132.839837,-2146.597232
1385.593993,-5477.523971,3753.867940,-1924.535449
1385.594304,-10510.924376,2221.676944,-1110.308913
1385.594616,-13545.768739,2757.943793,740.205942
1385.594927,-15100.201217,2451.505594,2368.659014
1385.595238,-15026.180623,1072.533697,3849.070898
1385.595550,-11843.295072,2221.676944,4515.256246
1385.595861,-8142.265362,3064.381992,2812.782580
1385.596172,-4589.276840,4290.134789,1628.453072
1385.596484,-2146.597232,6435.202183,148.041188
1385.596795,-2072.576638,8120.612279,-2146.597232
1385.597106,-2960.823768,7584.345430,-2442.679609
1385.597418,-6735.874072,5745.716235,-2664.741391
1385.597729,-8882.471304,3524.039291,-814.226536
1385.598040,-9770.718434,842.705048,222.061783
1385.598352,-12731.542202,-2298.286494,666.185348
1385.598663,-12287.418637,-3524.039291,1628.453072
1385.598974,-12583.501014,-2145.067394,1924.535449
1385.599286,-13471.748144,-1378.971896,1480.411884
1385.599597,-11843.295072,1072.533697,1924.535449
1385.599908,-11251.130318,3907.087040,1554.432478
1385.600220,-9770.718434,5362.668486,2294.638420
1385.600531,-7254.018232,5592.497135,2442.679609
1385.600842,-7105.977043,3907.087040,592.164754
1385.601154,-5921.647536,3753.867940,148.041188
1385.601465,-6513.812290,2911.162892,-2072.576638
1385.601776,-8734.430116,3907.087040,-3108.864956
1385.602088,-10066.800811,4136.915689,-2738.761985
1385.602399,-12361.439231,4213.525239,-1850.514855
1385.602710,-12287.418637,2757.943793,-148.041188
1385.603021,-12805.562797,1915.238745,1850.514855
1385.603333,-12139.377449,1685.410096,2738.761985
1385.603644,-10955.047942,3294.210641,2590.720797
1385.603955,-10510.924376,5439.278036,1406.391290
1385.604267,-7698.141797,7354.516781,1036.288319
1385.604578,-5773.606348,7048.078582,-814.226536
1385.604889,-5625.565159,5592.497135,-1406.391290
1385.605201,-6217.729913,3677.258390,-1406.391290
1385.605512,-7031.956449,2145.067394,-1332.370696
1385.605823,-7476.080014,1762.019645,-0.000000
1385.606135,-8364.327145,0.000000,814.226536
1385.606446,-9030.512492,-2298.286494,2590.720797
1385.606757,-8512.368333,-4596.572988,2960.823768
1385.607069,-8882.471304,-1838.629195,1850.514855
1385.607380,-9400.615463,2681.334243,1036.288319
1385.607691,-10362.883188,7354.516781,-444.123565
1385.608003,-10732.986159,10035.851024,-74.020594
1385.608314,-10066.800811,8350.440928,962.267725
1385.608625,-9400.615463,4596.572988,1406.391290
1385.608937,-7550.100608,3677.258390,2220.617826
1385.609248,-6217.729913,3140.991542,814.226536
1385.609559,-5625.565159,3294.210641,1110.308913
1385.609871,-4071.132681,1455.581446,222.061783
1385.610182,-3997.112087,-1685.410096,-296.082377
1385.610493,-4885.359217,-3447.429741,-444.123565
1385.610805,-7254.018232,-2451.505594,-888.247130
1385.611116,-11399.171507,1762.019645,-444.123565
1385.611428,-12583.501014,3753.867940,-518.144159
1385.611739,-14211.954086,3447.429741,666.185348
1385.612051,-14804.118840,1378.971896,2590.720797
1385.612362,-13693.809927,153.219100,3034.844362
1385.612674,-11177.109724,612.876398,3478.967927
1385.612985,-7624.121203,612.876398,2960.823768
1385.613297,-5033.400406,-1149.143247,1776.494261
1385.613608,-2738.761985,-3907.087040,592.164754
1385.613920,-2368.659014,-7048.078582,-148.041188
1385.614231,-5033.400406,-7737.564530,-1184.329507
1385.614543,-8290.306550,-3830.477490,-1480.411884
1385.614854,-11843.295072,2451.505594,-2516.700203
1385.615166,-15026.180623,4366.744339,-1406.391290
1385.615477,-17246.798449,1915.238745,962.267725
1385.615789,-18431.127956,-306.438199,2590.720797
1385.616100,-16062.468941,229.828649,2516.700203
1385.616412,-10510.924376,4366.744339,1702.473667
1385.616723,-5699.585753,3370.820191,-0.000000
1385.617035,-444.123565,-153.219100,962.267725
1385.617346,2146.597232,-4673.182538,666.185348
1385.617658,518.144159,-7124.688131,-74.020594
1385.617969,-2516.700203,-4749.792088,-370.102971
1385.618281,-8290.306550,995.924147,-2072.576638
1385.618592,-14211.954086,2911.162892,-2220.617826
1385.618904,-18283.086767,995.924147,-1628.453072
1385.619215,-20207.622217,-383.047749,-0.000000
1385.619527,-18431.127956,2221.676944,1184.329507
1385.619838,-15100.201217,4596.572988,1702.473667
1385.620150,-9178.553681,2834.553343,1406.391290
1385.620461,-3775.050304,-1838.629195,1406.391290
1385.620773,1110.308913,-4903.011187,1776.494261
1385.621084,3404.947333,-3600.648841,370.102971
1385.621396,-740.205942,-1455.581446,-518.144159
1385.621707,-3330.926739,919.314598,-1628.453072
1385.622019,-9030.512492,2681.334243,-1850.514855
1385.622330,-16580.613101,1838.629195,-1184.329507
1385.622642,-19615.457463,4060.306139,518.144159
1385.622953,-18949.272115,4749.792088,1332.370696
1385.623265,-15248.242405,3830.477490,518.144159
1385.623576,-9622.677246,2834.553343,444.123565
1385.623888,-5255.462188,383.047749,-1332.370696
1385.624199,-1998.556043,-919.314598,-370.102971
1385.624511,-148.041188,-1378.971896,-148.041188
1385.624822,-2664.741391,306.438199,962.267725
1385.625134,-6513.812290,0.000000,3552.988522
1385.625445,-9400.615463,-2298.286494,2072.576638
1385.625757,-12287.418637,-1608.800546,3256.906145
1385.626069,-12657.521608,766.095498,1776.494261
1385.626380,-13249.686362,2068.457845,666.185348
1385.626692,-12287.418637,919.314598,444.123565
1385.627003,-9622.677246,-1149.143247,-740.205942
1385.627315,-7846.182985,-1378.971896,-592.164754
1385.627626,-5847.626942,76.609550,-1184.329507
1385.627938,-6143.709319,612.876398,-592.164754
1385.628249,-5921.647536,0.000000,1924.535449
1385.628561,-7402.059420,-2145.067394,3849.070898
1385.628872,-9474.636058,-3447.429741,5255.462188
1385.629184,-9548.656652,-1991.848295,3849.070898
1385.629495,-9622.677246,536.266849,3256.906145
1385.629807,-9252.574275,1915.238745,1406.391290
1385.630118,-7624.121203,995.924147,-888.247130
1385.630430,-6883.915261,-612.876398,-2294.638420
1385.630741,-7328.038826,-1838.629195,-1554.432478
1385.631053,-7698.141797,-689.485948,-1554.432478
1385.631364,-10140.821405,-306.438199,-740.205942
1385.631676,-11399.171507,-3217.601092,1332.370696
1385.631987,-11917.315666,-5515.887586,2886.803174
1385.632299,-12435.459826,-4826.401637,3849.070898
1385.632610,-11399.171507,-1149.143247,3256.906145
1385.632922,-8882.471304,-153.219100,2368.659014
1385.633233,-6365.771101,-536.266849,222.061783
1385.633545,-3627.009116,-383.047749,-1628.453072
1385.633856,-3256.906145,-995.924147,-2960.823768
1385.634168,-4441.235652,-153.219100,-3330.926739
1385.634479,-7994.224174,612.876398,-2442.679609
1385.634791,-11103.089130,1072.533697,-1184.329507
1385.635102,-15026.180623,536.266849,666.185348
1385.635414,-18653.189738,689.485948,2072.576638
1385.635725,-17468.860231,1915.238745,2590.720797
1385.636037,-13915.871710,3064.381992,1110.308913
1385.636348,-9326.594869,2298.286494,888.247130
1385.636660,-4441.235652,842.705048,-1036.288319
1385.636971,-2072.576638,-459.657299,-2072.576638
1385.637283,-1628.453072,-229.828649,-3775.050304
1385.637594,-4071.132681,1149.143247,-3330.926739
1385.637906,-8660.409521,1608.800546,-3256.906145
1385.638217,-11325.150913,2451.505594,-1036.288319
1385.638529,-14582.057057,0.000000,370.102971
1385.638840,-16062.468941,-2221.676944,2812.782580
1385.639152,-15914.427753,-2374.896044,3182.885551
1385.639463,-13101.645173,0.000000,2812.782580
1385.639775,-7846.182985,1608.800546,2294.638420
1385.640086,-4663.297435,-459.657299,1702.473667
1385.640398,-2442.679609,-689.485948,148.041188
1385.640709,-1628.453072,0.000000,-962.267725
1385.641021,-2220.617826,2987.772442,-2442.679609
1385.641332,-3997.112087,4366.744339,-2072.576638
1385.641644,-7698.141797,2987.772442,-222.061783
1385.641955,-12287.418637,0.000000,1258.350101
1385.642267,-14656.077652,-1302.362347,2812.782580
1385.642578,-14730.098246,-229.828649,3552.988522
1385.642890,-13471.748144,2068.457845,3478.967927
1385.643201,-9770.718434,-153.219100,3182.885551
1385.643513,-6365.771101,-2451.505594,1924.535449
1385.643824,-4145.153275,-3140.991542,1258.350101
1385.644136,-2146.597232,-919.314598,518.144159
1385.644447,-3330.926739,1225.752797,-0.000000
1385.644759,-4811.338623,1378.971896,296.082377
1385.645070,-8290.306550,-459.657299,888.247130
1385.645382,-11177.109724,-2298.286494,2220.617826
1385.645693,-12287.418637,-1378.971896,2368.659014
1385.646005,-13989.892304,-689.485948,1998.556043
1385.646316,-13545.768739,-1149.143247,2294.638420
1385.646628,-10288.862594,-3217.601092,1554.432478
1385.646939,-8808.450710,-4519.963438,370.102971
1385.647251,-7105.977043,-3064.381992,148.041188
1385.647562,-7550.100608,-1608.800546,-222.061783
1385.647874,-7328.038826,0.000000,962.267725
1385.648185,-8882.471304,76.609550,1406.391290
1385.648497,-11177.109724,-459.657299,2072.576638
1385.648808,-11325.150913,459.657299,1480.411884
1385.649120,-9918.759623,1378.971896,444.123565
1385.649431,-8660.409521,1455.581446,-222.061783
1385.649743,-7328.038826,-612.876398,-1036.288319
1385.650054,-6587.832884,-1378.971896,-1776.494261
1385.650366,-7031.956449,-1378.971896,-2220.617826
1385.650677,-7550.100608,-1378.971896,-1258.350101
1385.650989,-9400.615463,-689.485948,-148.041188
1385.651300,-11473.192101,-842.705048,296.082377
1385.651612,-12879.583391,-995.924147,1036.288319
1385.651923,-12953.603985,306.438199,1776.494261
1385.652235,-12583.501014,2911.162892,666.185348
1385.652546,-9992.780217,3294.210641,-148.041188
1385.652858,-6217.729913,1378.971896,-888.247130
1385.653169,-3849.070898,-459.657299,-2220.617826
1385.653481,-3034.844362,-995.924147,-2664.741391
1385.653792,-4145.153275,-612.876398,-3034.844362
1385.654104,-7402.059420,-459.657299,-1850.514855
1385.654415,-11103.089130,536.266849,-0.000000
1385.654727,-13989.892304,766.095498,1924.535449
1385.655038,-15396.283594,0.000000,3034.844362
1385.655350,-14730.098246,689.485948,3034.844362
1385.655661,-10807.006753,1762.019645,1628.453072
1385.655973,-6661.853478,2451.505594,-0.000000
1385.656284,-3923.091493,2451.505594,-1628.453072
1385.656596,-1998.556043,1838.629195,-2738.761985
1385.656907,-2442.679609,1072.533697,-2960.823768
1385.657219,-4737.318029,1072.533697,-2072.576638
1385.657530,-7994.224174,1915.238745,-222.061783
1385.657842,-11621.233289,766.095498,1184.329507
1385.658153,-14804.118840,-995.924147,3182.885551
1385.658465,-16654.633695,-1455.581446,3997.112087
1385.658776,-15026.180623,-383.047749,3404.947333
1385.659088,-11621.233289,689.485948,2738.761985
1385.659399,-7328.038826,536.266849,1036.288319
1385.659711,-2886.803174,-1608.800546,-0.000000
1385.660022,-2072.576638,-1762.019645,-1776.494261
1385.660334,-2368.659014,-1838.629195,-1702.473667
1385.660645,-4515.256246,0.000000,-1258.350101
1385.660957,-8438.347739,306.438199,148.041188
1385.661268,-10584.944971,-612.876398,2664.741391
1385.661580,-14582.057057,-2221.676944,2960.823768
1385.661891,-16580.613101,-2681.334243,4663.297435
1385.662203,-14656.077652,-689.485948,4145.153275
1385.662514,-12805.562797,766.095498,3182.885551
1385.662826,-8660.409521,689.485948,2072.576638
1385.663137,-5107.421000,-612.876398,370.102971
1385.663449,-3552.988522,-1608.800546,-1110.308913
1385.663760,-3849.070898,76.609550,-1702.473667
1385.664072,-4515.256246,3294.210641,-1554.432478
1385.664383,-5477.523971,2757.943793,-888.247130
1385.664695,-9104.533087,-306.438199,1110.308913
1385.665006,-11473.192101,-2987.772442,2072.576638
1385.665318,-12879.583391,-3140.991542,3034.844362
1385.665629,-12657.521608,-995.924147,3330.926739
1385.665941,-11695.253884,-842.705048,2146.597232
1385.666252,-10510.924376,-2145.067394,1036.288319
1385.666564,-8068.244768,-3064.381992,-0.000000
1385.666875,-4959.379811,-2451.505594,-740.205942
1385.667187,-3923.091493,-229.828649,-1628.453072
1385.667498,-5847.626942,1608.800546,-2220.617826
1385.667810,-7994.224174,2374.896044,-1258.350101
1385.668121,-10288.862594,995.924147,-592.164754
1385.668433,-12509.480420,995.924147,962.267725
1385.668744,-12953.603985,2604.724693,1110.308913
1385.669056,-11991.336260,4213.525239,592.164754
1385.669367,-10288.862594,2068.457845,-0.000000
1385.669679,-8068.244768,76.609550,-148.041188
1385.669990,-7179.997637,-1302.362347,-1110.308913
1385.670302,-6365.771101,689.485948,-814.226536
1385.670613,-6291.750507,2145.067394,-888.247130
1385.670925,-7179.997637,2298.286494,-1628.453072
1385.671236,-9326.594869,2604.724693,-1184.329507
1385.671548,-11103.089130,3370.820191,-1258.350101
1385.671859,-11103.089130,3447.429741,-666.185348
1385.672171,-10658.965565,2451.505594,-148.041188
1385.672482,-10510.924376,1302.362347,222.061783
1385.672794,-8882.471304,-842.705048,-0.000000
1385.673105,-7920.203579,-3294.210641,-0.000000
1385.673417,-7179.997637,-3294.210641,296.082377
1385.673728,-6661.853478,-2298.286494,444.123565
1385.674040,-7698.141797,-2298.286494,592.164754
1385.674351,-9844.739029,-2451.505594,3034.844362
1385.674663,-12583.501014,-1378.971896,3034.844362
1385.674974,-13249.686362,153.219100,2960.823768
1385.675286,-10955.047942,2987.772442,1332.370696
1385.675597,-8438.347739,3140.991542,148.041188
1385.675909,-6365.771101,2221.676944,-444.123565
1385.676220,-4441.235652,919.314598,-962.267725
1385.676532,-3701.029710,1378.971896,-1480.411884
1385.676843,-5625.565159,919.314598,-518.144159
1385.677155,-7328.038826,0.000000,888.247130
1385.677466,-9400.615463,-229.828649,2368.659014
1385.677778,-11325.150913,-1991.848295,3256.906145
1385.678089,-13101.645173,-2987.772442,4515.256246
1385.678401,-12805.562797,-2451.505594,4367.215058
1385.678712,-10732.986159,-1072.533697,2516.700203
1385.679024,-8882.471304,-536.266849,1258.350101
1385.679335,-6291.750507,-2298.286494,-740.205942
1385.679647,-3775.050304,-1915.238745,-2220.617826
1385.679958,-3997.112087,-1532.190996,-1776.494261
1385.680270,-5107.421000,-995.924147,-592.164754
1385.680581,-7846.182985,-1225.752797,814.226536
1385.680893,-11029.068536,-2374.896044,3627.009116
1385.681204,-13915.871710,-2987.772442,5255.462188
1385.681516,-15248.242405,-2221.676944,5255.462188
1385.681827,-13397.727550,1608.800546,3627.009116
1385.682139,-10214.842000,1838.629195,1332.370696
1385.682450,-6587.832884,612.876398,-1110.308913
1385.682762,-4145.153275,229.828649,-3256.906145
1385.683073,-3478.967927,995.924147,-3997.112087
1385.683385,-3849.070898,2221.676944,-3552.988522
1385.683696,-6661.853478,2068.457845,-1924.535449
1385.684008,-10214.842000,1915.238745,-444.123565
1385.684319,-11695.253884,-612.876398,1332.370696
1385.684631,-13323.706956,-1455.581446,2368.659014
1385.684942,-12953.603985,-76.609550,2886.803174
1385.685254,-12213.398043,612.876398,1924.535449
1385.685565,-11103.089130,-153.219100,1406.391290
1385.685877,-7105.977043,-766.095498,-0.000000
1385.686188,-5329.482782,-766.095498,-1258.350101
1385.686500,-6365.771101,-153.219100,-2664.741391
1385.686811,-5847.626942,2757.943793,-2812.782580
1385.687123,-7846.182985,3524.039291,-3182.885551
1385.687434,-10140.821405,2987.772442,-370.102971
1385.687746,-12657.521608,1378.971896,592.164754
1385.688057,-14137.933492,995.924147,1554.432478
1385.688369,-13545.768739,2145.067394,1924.535449
1385.688680,-10584.944971,2221.676944,2368.659014
1385.688992,-8364.327145,2068.457845,592.164754
1385.689303,-6439.791695,689.485948,-74.020594
1385.689615,-4811.338623,229.828649,-1036.288319
1385.689926,-4885.359217,153.219100,-1406.391290
1385.690238,-6439.791695,1685.410096,-1480.411884
1385.690549,-8142.265362,2757.943793,-1332.370696
1385.690861,-9104.533087,919.314598,-148.041188
1385.691172,-11399.171507,-1762.019645,1258.350101
1385.691484,-11029.068536,-1225.752797,2664.741391
1385.691795,-10214.842000,-383.047749,2146.597232
1385.692107,-10214.842000,-1991.848295,2590.720797
1385.692418,-7179.997637,-3064.381992,3108.864956
1385.692730,-6069.688724,-3753.867940,888.247130
1385.693041,-5329.482782,-3140.991542,666.185348
1385.693353,-5625.565159,-1608.800546,222.061783
1385.693664,-7254.018232,-689.485948,592.164754
1385.693976,-9178.553681,-459.657299,1702.473667
1385.694287,-11917.315666,0.000000,1998.556043
1385.694599,-13397.727550,-229.828649,1998.556043
1385.694910,-12287.418637,1302.362347,2812.782580
1385.695222,-10584.944971,1149.143247,2146.597232
1385.695533,-7550.100608,-1149.143247,1184.329507
1385.695845,-5181.441594,-1991.848295,-0.000000
1385.696156,-5033.400406,-2068.457845,-962.267725
1385.696468,-5181.441594,-2451.505594,-592.164754
1385.696779,-6661.853478,-1072.533697,-222.061783
1385.697091,-9030.512492,-842.705048,888.247130
1385.697402,-11325.150913,-2145.067394,2368.659014
1385.697714,-12879.583391,-2834.553343,2960.823768
1385.698026,-13693.809927,-536.266849,2368.659014
1385.698337,-12065.356855,76.609550,1480.411884
1385.698649,-8956.491898,-536.266849,-0.000000
1385.698960,-6439.791695,-1455.581446,-296.082377
1385.699272,-4811.338623,-1991.848295,-1702.473667
1385.699583,-5033.400406,-1991.848295,-1332.370696
1385.699895,-6513.812290,-1685.410096,-444.123565
1385.700206,-9178.553681,-1072.533697,1110.308913
1385.700518,-11621.233289,-612.876398,1554.432478
1385.700829,-13323.706956,229.828649,2368.659014
1385.701141,-14211.954086,689.485948,1850.514855
1385.701452,-12139.377449,2911.162892,1110.308913
1385.701764,-10140.821405,3907.087040,-0.000000
1385.702075,-7476.080014,3600.648841,-1184.329507
1385.702387,-4885.359217,2681.334243,-1850.514855
1385.702698,-4515.256246,1302.362347,-2664.741391
1385.703010,-4589.276840,2298.286494,-3034.844362
1385.703321,-5773.606348,3064.381992,-1924.535449
1385.703633,-8734.430116,3140.991542,-1480.411884
1385.703944,-11251.130318,2068.457845,962.267725
1385.704256,-13545.768739,842.705048,1702.473667
1385.704567,-14508.036463,306.438199,2368.659014
1385.704879,-13249.686362,1072.533697,1850.514855
1385.705190,-10288.862594,1685.410096,296.082377
1385.705502,-6217.729913,306.438199,-444.123565
1385.705813,-3923.091493,-1225.752797,-2368.659014
1385.706125,-2886.803174,-2911.162892,-2294.638420
1385.706436,-4071.132681,-1455.581446,-1406.391290
1385.706748,-7846.182985,0.000000,148.041188
1385.707059,-10584.944971,0.000000,2146.597232
1385.707371,-13027.624579,-995.924147,3404.947333
1385.707682,-14508.036463,-1149.143247,3108.864956
1385.707994,-12879.583391,842.705048,2812.782580
1385.708305,-9400.615463,919.314598,2368.659014
1385.708617,-7254.018232,-383.047749,518.144159
1385.708928,-5773.606348,-766.095498,-592.164754
1385.709240,-4515.256246,-1608.800546,-814.226536
1385.709551,-5107.421000,-766.095498,-1110.308913
1385.709863,-6513.812290,306.438199,-0.000000
1385.710174,-8512.368333,229.828649,-0.000000
1385.710486,-9400.615463,-612.876398,2294.638420
1385.710797,-11399.171507,-1915.238745,2738.761985
1385.711108,-12065.356855,-2604.724693,4367.215058
1385.711420,-11843.295072,-2451.505594,3849.070898
1385.711731,-10881.027347,-2068.457845,3034.844362
1385.712043,-7698.141797,-2451.505594,1998.556043
1385.712354,-5995.668130,-3983.696590,-74.020594
1385.712666,-5699.585753,-3753.867940,-962.267725
1385.712977,-6143.709319,-2604.724693,-962.267725
1385.713289,-7402.059420,-2221.676944,-518.144159
1385.713600,-9844.739029,-1072.533697,518.144159
1385.713912,-12583.501014,-842.705048,1850.514855
1385.714223,-14285.974681,-1378.971896,2738.761985
1385.714535,-12731.542202,-1072.533697,3182.885551
1385.714846,-10658.965565,76.609550,3108.864956
1385.715158,-9030.512492,0.000000,1332.370696
1385.715469,-6143.709319,-153.219100,-222.061783
1385.715781,-5181.441594,-689.485948,-1850.514855
1385.716092,-4811.338623,229.828649,-2146.597232
1385.716404,-6069.688724,2145.067394,-1998.556043
1385.716715,-8660.409521,2298.286494,-1628.453072
1385.717026,-11177.109724,1149.143247,-296.082377
1385.717338,-12731.542202,1302.362347,814.226536
1385.717649,-13841.851115,1685.410096,1184.329507
1385.717961,-12139.377449,3064.381992,666.185348
1385.718272,-10214.842000,2298.286494,296.082377
1385.718584,-6587.832884,1378.971896,-888.247130
1385.718895,-3997.112087,612.876398,-1924.535449
1385.719207,-3627.009116,0.000000,-2368.659014
1385.719518,-5329.482782,1072.533697,-1924.535449
1385.719830,-8660.409521,995.924147,-1110.308913
1385.720141,-10214.842000,1072.533697,296.082377
1385.720453,-12509.480420,766.095498,1184.329507
1385.720764,-13989.892304,842.705048,1702.473667
1385.721076,-12657.521608,2221.676944,1332.370696
1385.721387,-10362.883188,2604.724693,-74.020594
1385.721699,-7105.977043,2374.896044,-444.123565
1385.722010,-4737.318029,995.924147,-1110.308913
1385.722322,-3701.029710,-229.828649,-1480.411884
1385.722633,-4515.256246,0.000000,-1554.432478
1385.722944,-6661.853478,1762.019645,-888.247130
1385.723256,-9474.636058,919.314598,814.226536
1385.723567,-11695.253884,-459.657299,2664.741391
1385.723879,-13915.871710,-2221.676944,3034.844362
1385.724190,-14285.974681,-1608.800546,3182.885551
1385.724502,-12657.521608,-689.485948,2368.659014
1385.724813,-9104.533087,-306.438199,1480.411884
1385.725125,-5773.606348,-2604.724693,-370.102971
1385.725436,-3849.070898,-3600.648841,-1184.329507
1385.725748,-4145.153275,-3370.820191,-962.267725
1385.726059,-5551.544565,-2221.676944,-148.041188
1385.726371,-8438.347739,-1608.800546,1554.432478
1385.726682,-10362.883188,-1302.362347,3256.906145
1385.726994,-12139.377449,-1608.800546,4293.194464
1385.727305,-13619.789333,-2681.334243,4737.318029
1385.727617,-12805.562797,-1378.971896,3701.029710
1385.727928,-11473.192101,1378.971896,2368.659014
1385.728240,-8142.265362,1225.752797,1184.329507
1385.728551,-5107.421000,-306.438199,-74.020594
1385.728862,-4071.132681,-1608.800546,-1036.288319
1385.729174,-4515.256246,-1838.629195,-1776.494261
1385.729485,-5403.503377,-919.314598,-1110.308913
1385.729797,-7031.956449,0.000000,-222.061783
1385.730108,-10288.862594,-842.705048,1110.308913
1385.730420,-13397.727550,-1991.848295,2368.659014
1385.730731,-14656.077652,-2681.334243,3552.988522
1385.731043,-13101.645173,-1762.019645,2960.823768
1385.731354,-11029.068536,-612.876398,2220.617826
1385.731666,-7550.100608,-612.876398,444.123565
1385.731977,-5033.400406,-2298.286494,-1036.288319
1385.732289,-4293.194464,-1915.238745,-2072.576638
1385.732600,-3701.029710,-459.657299,-1776.494261
1385.732912,-5921.647536,1608.800546,-1702.473667
1385.733223,-8882.471304,2451.505594,-888.247130
1385.733535,-12065.356855,1838.629195,-0.000000
1385.733846,-14952.160028,1378.971896,370.102971
1385.734158,-14508.036463,2604.724693,1184.329507
1385.734469,-12065.356855,4596.572988,962.267725
1385.734780,-9918.759623,3677.258390,666.185348
1385.735092,-8660.409521,2757.943793,-666.185348
1385.735403,-6439.791695,1302.362347,-1776.494261
1385.735715,-4441.235652,2298.286494,-2664.741391
1385.736026,-4737.318029,2987.772442,-2072.576638
1385.736338,-6661.853478,3753.867940,-2368.659014
1385.736649,-8808.450710,3370.820191,-1776.494261
1385.736961,-11843.295072,1685.410096,-148.041188
1385.737272,-12435.459826,459.657299,1554.432478
1385.737584,-11621.233289,0.000000,1628.453072
1385.737895,-11473.192101,919.314598,1184.329507
1385.738207,-8364.327145,0.000000,1184.329507
1385.738518,-7031.956449,-2451.505594,-962.267725
1385.738830,-6661.853478,-1991.848295,-1036.288319
1385.739141,-5773.606348,-153.219100,-740.205942
1385.739453,-7031.956449,383.047749,-962.267725
1385.739764,-8734.430116,-766.095498,1332.370696
1385.740076,-10288.862594,-1072.533697,2368.659014
1385.740387,-11769.274478,-1072.533697,3108.864956
1385.740698,-11769.274478,-689.485948,3478.967927
1385.741010,-10140.821405,0.000000,3108.864956
1385.741321,-8734.430116,0.000000,1998.556043
1385.741633,-6957.935855,-459.657299,592.164754
1385.741944,-5625.565159,0.000000,-1406.391290
1385.742256,-5699.585753,-459.657299,-296.082377
1385.742567,-6883.915261,306.438199,-740.205942
1385.742879,-8808.450710,536.266849,296.082377
1385.743190,-10584.944971,-995.924147,1924.535449
1385.743502,-11991.336260,-2528.115143,3108.864956
1385.743813,-13101.645173,-2528.115143,3849.070898
1385.744125,-12657.521608,-2221.676944,2664.741391
1385.744436,-10214.842000,-1915.238745,2072.576638
1385.744748,-7476.080014,-2221.676944,962.267725
1385.745059,-4663.297435,-2374.896044,-444.123565
1385.745371,-4515.256246,-3294.210641,-962.267725
1385.745682,-5329.482782,-2757.943793,-666.185348
1385.745994,-7031.956449,-1762.019645,518.144159
1385.746305,-9474.636058,-919.314598,1406.391290
1385.746616,-11843.295072,0.000000,3330.926739
1385.746928,-14730.098246,-383.047749,2368.659014
1385.747239,-11991.336260,-229.828649,3404.947333
1385.747551,-10066.800811,1532.190996,2294.638420
1385.747862,-7550.100608,1608.800546,296.082377
1385.748174,-5921.647536,1455.581446,-1406.391290
1385.748485,-4663.297435,689.485948,-2294.638420
1385.748797,-4145.153275,1149.143247,-2516.700203
1385.749108,-5107.421000,1532.190996,-666.185348
1385.749420,-8068.244768,1149.143247,-370.102971
1385.749731,-10881.027347,306.438199,666.185348
1385.750043,-13545.768739,-459.657299,2146.597232
1385.750354,-14137.933492,153.219100,2516.700203
1385.750666,-12805.562797,1838.629195,1406.391290
1385.750977,-10732.986159,2068.457845,592.164754
1385.751289,-6587.832884,1608.800546,-666.185348
1385.751600,-4071.132681,76.609550,-3108.864956
1385.751912,-3923.091493,1302.362347,-3108.864956
1385.752223,-4737.318029,2451.505594,-3108.864956
1385.752534,-7476.080014,3064.381992,-2294.638420
1385.752846,-9548.656652,2834.553343,-222.061783
1385.753157,-12657.521608,1608.800546,1110.308913
1385.753469,-14804.118840,383.047749,2072.576638
1385.753780,-14211.954086,1149.143247,2442.679609
1385.754092,-12139.377449,2757.943793,1776.494261
1385.754403,-9622.677246,2834.553343,296.082377
1385.754715,-6587.832884,995.924147,-592.164754
1385.755026,-5181.441594,0.000000,-2072.576638
1385.755338,-4737.318029,-229.828649,-2146.597232
1385.755649,-5033.400406,689.485948,-814.226536
1385.755961,-7328.038826,766.095498,-814.226536
1385.756272,-9992.780217,-153.219100,1036.288319
1385.756584,-12657.521608,-2451.505594,2220.617826
1385.756895,-12805.562797,-1838.629195,3256.906145
1385.757207,-12213.398043,-842.705048,1998.556043
1385.757518,-10955.047942,-689.485948,2442.679609
1385.757829,-7698.141797,-2451.505594,1554.432478
1385.758141,-6069.688724,-4213.525239,444.123565
1385.758452,-6809.894666,-4596.572988,-0.000000
1385.758764,-5995.668130,-2911.162892,-370.102971
1385.759075,-6439.791695,0.000000,-0.000000
1385.759387,-8068.244768,0.000000,592.164754
1385.759698,-10288.862594,-1149.143247,1406.391290
1385.760010,-11473.192101,-2145.067394,2516.700203
1385.760321,-11917.315666,-1838.629195,3478.967927
1385.760633,-11621.233289,-383.047749,3478.967927
1385.760944,-9696.697840,0.000000,2294.638420
1385.761256,-7624.121203,-306.438199,1332.370696
1385.761567,-5847.626942,-1762.019645,-148.041188
1385.761879,-3923.091493,-2068.457845,-296.082377
1385.762190,-4811.338623,-383.047749,148.041188
1385.762502,-7031.956449,153.219100,-0.000000
1385.762813,-9400.615463,76.609550,1110.308913
1385.763125,-12287.418637,-766.095498,2220.617826
1385.763436,-12435.459826,0.000000,2590.720797
1385.763747,-11547.212695,-76.609550,1998.556043
1385.764059,-9770.718434,153.219100,1036.288319
1385.764370,-7105.977043,76.609550,-222.061783
1385.764682,-5773.606348,-383.047749,-1110.308913
1385.764993,-5847.626942,-1532.190996,-1406.391290
1385.765305,-6883.915261,-995.924147,-1332.370696
1385.765616,-7772.162391,536.266849,-888.247130
1385.765928,-9992.780217,1149.143247,-444.123565
1385.766239,-11843.295072,919.314598,1258.350101
1385.766551,-13989.892304,-153.219100,1184.329507
1385.766862,-14063.912898,612.876398,1924.535449
1385.767174,-11473.192101,2757.943793,1702.473667
1385.767485,-9696.697840,3217.601092,-0.000000
1385.767797,-7105.977043,2451.505594,-1184.329507
1385.768108,-5847.626942,1455.581446,-2812.782580
1385.768420,-4811.338623,2298.286494,-3849.070898
1385.768731,-4885.359217,4596.572988,-2960.823768
1385.769043,-8068.244768,4596.572988,-2294.638420
1385.769354,-10955.047942,2604.724693,-0.000000
1385.769665,-13397.727550,766.095498,2294.638420
1385.769977,-13693.809927,0.000000,2886.803174
1385.770288,-12657.521608,919.314598,2072.576638
1385.770600,-10362.883188,2298.286494,370.102971
1385.770911,-6883.915261,1838.629195,-740.205942
1385.771223,-4293.194464,-612.876398,-2368.659014
1385.771534,-3627.009116,-2374.896044,-1924.535449
1385.771846,-4737.318029,-1915.238745,-1554.432478
1385.772157,-7179.997637,-1072.533697,-0.000000
1385.772469,-9474.636058,-1608.800546,1554.432478
1385.772780,-11621.233289,-2374.896044,3256.906145
1385.773092,-13545.768739,-2681.334243,3478.967927
1385.773403,-13545.768739,-1225.752797,3849.070898
1385.773715,-9770.718434,-306.438199,3034.844362
1385.774026,-8290.306550,-229.828649,1924.535449
1385.774338,-7105.977043,-1072.533697,148.041188
1385.774649,-4663.297435,-1072.533697,-888.247130
1385.774961,-4959.379811,-995.924147,-1258.350101
1385.775272,-4811.338623,-459.657299,296.082377
1385.775583,-6661.853478,-1378.971896,296.082377
1385.775895,-10140.821405,-2604.724693,1480.411884
1385.776206,-11621.233289,-2451.505594,3330.926739
1385.776518,-13027.624579,-3140.991542,4071.132681
1385.776829,-12953.603985,-1378.971896,3330.926739
1385.777141,-11325.150913,-153.219100,3034.844362
1385.777452,-8808.450710,-1225.752797,518.144159
1385.777764,-5329.482782,-1762.019645,-592.164754
1385.778075,-4515.256246,-1225.752797,-1628.453072
1385.778387,-4737.318029,-766.095498,-1998.556043
1385.778698,-5921.647536,-689.485948,-1554.432478
1385.779010,-8808.450710,-1072.533697,-296.082377
1385.779321,-11991.336260,-306.438199,962.267725
1385.779633,-14137.933492,-612.876398,2072.576638
1385.779944,-14063.912898,-1378.971896,2960.823768
1385.780256,-12583.501014,-995.924147,3478.967927
1385.780567,-9992.780217,-459.657299,2220.617826
1385.780879,-7402.059420,0.000000,222.061783
1385.781190,-5329.482782,0.000000,-518.144159
1385.781501,-4959.379811,-229.828649,-1702.473667
1385.781813,-5033.400406,1532.190996,-1554.432478
1385.782124,-6957.935855,2911.162892,-2590.720797
1385.782436,-10362.883188,2374.896044,-1036.288319
1385.782747,-12805.562797,1685.410096,666.185348
1385.783059,-13767.830521,1838.629195,1998.556043
1385.783370,-13323.706956,1915.238745,1850.514855
1385.783682,-11547.212695,2068.457845,962.267725
1385.783993,-8586.388927,1378.971896,296.082377
1385.784305,-4885.359217,995.924147,-1554.432478
1385.784616,-3923.091493,459.657299,-2368.659014
1385.784928,-4737.318029,0.000000,-2738.761985
1385.785239,-5773.606348,919.314598,-2146.597232
1385.785551,-9104.533087,2911.162892,-370.102971
1385.785862,-11621.233289,1838.629195,1850.514855
1385.786174,-14211.954086,536.266849,1850.514855
1385.786485,-13767.830521,1378.971896,2738.761985
1385.786797,-10881.027347,2298.286494,2368.659014
1385.787108,-7624.121203,2068.457845,888.247130
1385.787419,-5477.523971,1608.800546,-518.144159
1385.787731,-4071.132681,536.266849,-2220.617826
1385.788042,-3701.029710,-229.828649,-2368.659014
1385.788354,-6069.688724,0.000000,-1776.494261
1385.788665,-8808.450710,1302.362347,-370.102971
1385.788977,-10881.027347,459.657299,1406.391290
1385.789288,-12361.439231,-1838.629195,2812.782580
1385.789600,-12583.501014,-2451.505594,4219.173869
1385.789911,-11621.233289,-1915.238745,3108.864956
1385.790223,-9474.636058,-1378.971896,2368.659014
1385.790534,-6365.771101,-1762.019645,1998.556043
1385.790846,-3997.112087,-2221.676944,-666.185348
1385.791157,-4145.153275,-3294.210641,-888.247130
1385.791469,-5477.523971,-4136.915689,-740.205942
1385.791780,-6883.915261,-2528.115143,444.123565
1385.792092,-8956.491898,-1685.410096,1554.432478
1385.792403,-11917.315666,-1991.848295,3182.885551
1385.792715,-14211.954086,-2757.943793,3404.947333
1385.793026,-14878.139434,-2911.162892,3478.967927
1385.793337,-12139.377449,-1225.752797,3256.906145
1385.793649,-9474.636058,689.485948,1332.370696
1385.793960,-8660.409521,383.047749,-592.164754
1385.794272,-6587.832884,-383.047749,-1184.329507
1385.794583,-5181.441594,-689.485948,-1924.535449
1385.794895,-5181.441594,383.047749,-1110.308913
1385.795206,-6883.915261,1225.752797,-888.247130
1385.795518,-9770.718434,0.000000,-222.061783
1385.795829,-11843.295072,-919.314598,962.267725
1385.796141,-12805.562797,-383.047749,1998.556043
1385.796452,-12435.459826,306.438199,2072.576638
1385.796764,-11251.130318,76.609550,1776.494261
1385.797075,-9548.656652,-1608.800546,1332.370696
1385.797387,-6291.750507,-2528.115143,-148.041188
1385.797698,-4737.318029,-2451.505594,-1332.370696
1385.798010,-6143.709319,-1378.971896,-2294.638420
1385.798321,-7105.977043,0.000000,-2072.576638
1385.798633,-9252.574275,536.266849,-1480.411884
1385.798944,-11399.171507,842.705048,1332.370696
1385.799255,-13841.851115,153.219100,2072.576638
1385.799567,-14508.036463,536.266849,2368.659014
1385.799878,-12879.583391,2528.115143,2072.576638
1385.800190,-9030.512492,3370.820191,1110.308913
1385.800501,-5033.400406,3447.429741,-1036.288319
1385.800813,-3108.864956,2757.943793,-2886.803174
1385.801124,-3182.885551,2451.505594,-3775.050304
1385.801436,-3849.070898,3677.258390,-3404.947333
1385.801747,-6587.832884,5209.449386,-2590.720797
1385.802059,-10510.924376,3907.087040,-962.267725
1385.802370,-13989.892304,1762.019645,1110.308913
1385.802682,-14211.954086,612.876398,2294.638420
1385.802993,-12213.398043,919.314598,2516.700203
1385.803305,-10436.903782,459.657299,1776.494261
1385.803616,-7328.038826,-229.828649,962.267725
1385.803928,-5181.441594,-766.095498,-592.164754
1385.804239,-4811.338623,-1378.971896,-1184.329507
1385.804551,-4885.359217,-1378.971896,-1332.370696
1385.804862,-7476.080014,0.000000,-666.185348
1385.805173,-9400.615463,1302.362347,666.185348
1385.805485,-11399.171507,153.219100,2294.638420
1385.805796,-13249.686362,-1991.848295,2664.741391
1385.806108,-12879.583391,-1455.581446,3849.070898
1385.806419,-11325.150913,-919.314598,3108.864956
1385.806731,-9326.594869,-536.266849,2516.700203
1385.807042,-7179.997637,-459.657299,814.226536
1385.807354,-5699.585753,-766.095498,-814.226536
1385.807665,-4441.235652,-2068.457845,-370.102971
1385.807977,-4885.359217,-1608.800546,-518.144159
1385.808288,-6365.771101,-612.876398,370.102971
1385.808600,-9400.615463,-842.705048,1258.350101
1385.808911,-11843.295072,-1455.581446,2146.597232
1385.809223,-12879.583391,-612.876398,2664.741391
1385.809534,-12065.356855,-612.876398,3182.885551
1385.809846,-11991.336260,-536.266849,2516.700203
1385.810157,-10214.842000,-1149.143247,2590.720797
1385.810469,-7476.080014,-2604.724693,1184.329507
1385.810780,-5921.647536,-3524.039291,148.041188
1385.811091,-4885.359217,-2451.505594,-148.041188
1385.811403,-6143.709319,-1532.190996,-740.205942
1385.811714,-7476.080014,-1532.190996,-962.267725
1385.812026,-9474.636058,-1072.533697,518.144159
1385.812337,-11917.315666,-383.047749,1628.453072
1385.812649,-13027.624579,-612.876398,2072.576638
1385.812960,-12583.501014,-153.219100,1998.556043
1385.813272,-10732.986159,306.438199,2294.638420
1385.813583,-7698.141797,842.705048,1036.288319
1385.813894,-5107.421000,1149.143247,-1184.329507
1385.814206,-4293.194464,689.485948,-2886.803174
1385.814517,-5329.482782,1378.971896,-3108.864956
1385.814828,-6513.812290,2145.067394,-2960.823768
1385.815140,-9770.718434,2145.067394,-2516.700203
1385.815451,-13027.624579,1302.362347,-0.000000
1385.815762,-14656.077652,995.924147,1628.453072
1385.816074,-14878.139434,1149.143247,2590.720797
1385.816385,-12435.459826,1685.410096,2220.617826
1385.816696,-8808.450710,1608.800546,962.267725
1385.817008,-5329.482782,689.485948,-740.205942
1385.817319,-3330.926739,-766.095498,-2146.597232
1385.817631,-3849.070898,459.657299,-3849.070898
1385.817942,-5921.647536,2145.067394,-2590.720797
1385.818253,-9104.533087,2911.162892,-1258.350101
1385.818565,-11325.150913,2068.457845,1258.350101
1385.818876,-14359.995275,1302.362347,2442.679609
1385.819187,-15248.242405,766.095498,3330.926739
1385.819499,-12509.480420,1149.143247,2960.823768
1385.819810,-8364.327145,2834.553343,1480.411884
1385.820121,-6217.729913,2068.457845,-0.000000
1385.820433,-3404.947333,1915.238745,-2220.617826
1385.820744,-2960.823768,1302.362347,-2368.659014
1385.821055,-4811.338623,1225.752797,-1776.494261
1385.821367,-7031.956449,1685.410096,296.082377
1385.821678,-10066.800811,766.095498,1332.370696
1385.821989,-12361.439231,-766.095498,3775.050304
1385.822301,-13767.830521,-2451.505594,3775.050304
1385.822612,-12435.459826,-1455.581446,4071.132681
1385.822924,-10584.944971,-536.266849,2812.782580
1385.823235,-8512.368333,-1455.581446,1184.329507
1385.823546,-5033.400406,-1991.848295,370.102971
1385.823858,-3627.009116,-2451.505594,-1036.288319
1385.824169,-4145.153275,-1991.848295,-444.123565
1385.824480,-5921.647536,-2834.553343,444.123565
1385.824792,-8216.285956,-2681.334243,1184.329507
1385.825103,-10510.924376,-2374.896044,2886.803174
1385.825414,-13027.624579,-2757.943793,3404.947333
1385.825726,-14434.015869,-2451.505594,3849.070898
1385.826037,-13619.789333,-1378.971896,3034.844362
1385.826348,-10362.883188,-612.876398,2368.659014
1385.826660,-7476.080014,-1225.752797,1406.391290
1385.826971,-4811.338623,-1762.019645,-0.000000
1385.827283,-4663.297435,-1762.019645,-1184.329507
1385.827594,-4663.297435,-766.095498,-1628.453072
1385.827905,-5551.544565,536.266849,-962.267725
1385.828217,-7550.100608,1532.190996,-1110.308913
1385.828528,-9548.656652,612.876398,222.061783
1385.828839,-12361.439231,-1608.800546,1036.288319
1385.829151,-13471.748144,-2834.553343,2072.576638
1385.829462,-13471.748144,-1762.019645,1850.514855
1385.829773,-12213.398043,-229.828649,1184.329507
1385.830085,-9696.697840,-383.047749,740.205942
1385.830396,-7328.038826,-2298.286494,-740.205942
1385.830707,-5477.523971,-2451.505594,-1554.432478
1385.831019,-4589.276840,-995.924147,-1702.473667
1385.831330,-6365.771101,1072.533697,-2368.659014
1385.831642,-8438.347739,2834.553343,-1554.432478
1385.831953,-11547.212695,2451.505594,-74.020594
1385.832264,-14804.118840,1302.362347,1184.329507
1385.832576,-14582.057057,1608.800546,2072.576638
1385.832887,-12731.542202,3064.381992,1628.453072
1385.833198,-10510.924376,3294.210641,296.082377
1385.833510,-7105.977043,1685.410096,-592.164754
1385.833821,-6439.791695,306.438199,-2294.638420
1385.834132,-5329.482782,1378.971896,-2812.782580
1385.834444,-5477.523971,3600.648841,-2294.638420
1385.834755,-6587.832884,4673.182538,-1924.535449
1385.835066,-8438.347739,4060.306139,-0.000000
1385.835378,-10510.924376,1762.019645,1406.391290
1385.835689,-10955.047942,689.485948,2072.576638
1385.836000,-10140.821405,1685.410096,2368.659014
1385.836312,-9252.574275,2298.286494,1702.473667
1385.836623,-7920.203579,842.705048,-0.000000
1385.836935,-7031.956449,-1762.019645,-1628.453072
1385.837246,-5551.544565,-2221.676944,-1332.370696
1385.837557,-5255.462188,-1532.190996,-444.123565
1385.837869,-7920.203579,-1302.362347,518.144159
1385.838180,-10436.903782,-766.095498,2146.597232
1385.838491,-12065.356855,-1685.410096,3034.844362
1385.838803,-12361.439231,-536.266849,3701.029710
1385.839114,-11177.109724,689.485948,3478.967927
1385.839425,-9696.697840,919.314598,1702.473667
1385.839737,-7402.059420,229.828649,1480.411884
1385.840048,-6069.688724,-306.438199,-0.000000
1385.840359,-4885.359217,-1225.752797,-74.020594
1385.840671,-5625.565159,-1455.581446,-888.247130
1385.840982,-6883.915261,-1302.362347,518.144159
1385.841294,-9030.512492,-1838.629195,518.144159
1385.841605,-10510.924376,-3140.991542,2368.659014
1385.841916,-11917.315666,-2145.067394,2664.741391
1385.842228,-13101.645173,-1991.848295,3182.885551
1385.842539,-12805.562797,-1991.848295,3034.844362
1385.842850,-10214.842000,-1915.238745,2146.597232
1385.843162,-5921.647536,-2221.676944,592.164754
1385.843473,-4219.173869,-2681.334243,-592.164754
1385.843784,-5181.441594,-3294.210641,-1998.556043
1385.844096,-4959.379811,-1608.800546,-1184.329507
1385.844407,-7476.080014,-995.924147,-370.102971
1385.844718,-10881.027347,-2298.286494,1554.432478
1385.845030,-13101.645173,-2834.553343,2960.823768
1385.845341,-15100.201217,-1378.971896,3256.906145
1385.845652,-14359.995275,76.609550,2516.700203
1385.845964,-11325.150913,459.657299,1406.391290
1385.846275,-7920.203579,1915.238745,-370.102971
1385.846587,-5255.462188,1991.848295,-962.267725
1385.846898,-3997.112087,919.314598,-2812.782580
1385.847209,-5033.400406,1378.971896,-3182.885551
1385.847521,-6439.791695,3294.210641,-2294.638420
1385.847832,-8734.430116,3217.601092,-2072.576638
1385.848143,-10436.903782,1532.190996,-296.082377
1385.848455,-12953.603985,-536.266849,1184.329507
1385.848766,-13175.665768,-536.266849,2442.679609
1385.849077,-13027.624579,-229.828649,1702.473667
1385.849389,-11621.233289,306.438199,1554.432478
1385.849700,-8142.265362,612.876398,222.061783
1385.850011,-6291.750507,-995.924147,-1850.514855
1385.850323,-4737.318029,-459.657299,-2368.659014
1385.850634,-3849.070898,2451.505594,-3034.844362
1385.850946,-5773.606348,3370.820191,-2960.823768
1385.851257,-8216.285956,3753.867940,-1406.391290
1385.851568,-12583.501014,2374.896044,-0.000000
1385.851880,-14137.933492,766.095498,2294.638420
1385.852191,-13323.706956,766.095498,3182.885551
1385.852502,-11695.253884,1532.190996,2886.803174
1385.852814,-8882.471304,1608.800546,1184.329507
1385.853125,-6587.832884,919.314598,-370.102971
1385.853436,-3478.967927,-612.876398,-1702.473667
1385.853748,-2516.700203,-536.266849,-2146.597232
1385.854059,-4737.318029,-153.219100,-1184.329507
1385.854370,-7254.018232,0.000000,-814.226536
1385.854682,-9770.718434,0.000000,444.123565
1385.854993,-11769.274478,-383.047749,2368.659014
1385.855305,-12583.501014,-995.924147,3034.844362
1385.855616,-11843.295072,-1685.410096,3034.844362
1385.855927,-9696.697840,-2451.505594,3330.926739
1385.856239,-7698.141797,-3524.039291,3034.844362
1385.856550,-5699.585753,-3830.477490,962.267725
1385.856861,-5699.585753,-2757.943793,444.123565
1385.857173,-6365.771101,-2374.896044,-74.020594
1385.857484,-7476.080014,-1838.629195,888.247130
1385.857795,-8956.491898,-383.047749,1554.432478
1385.858107,-11917.315666,-1225.752797,1776.494261
1385.858418,-13989.892304,-1378.971896,2368.659014
1385.858729,-12879.583391,-383.047749,2886.803174
1385.859041,-10658.965565,689.485948,2590.720797
1385.859352,-8956.491898,-306.438199,1184.329507
1385.859663,-6809.894666,-1608.800546,888.247130
1385.859975,-4811.338623,-2298.286494,-518.144159
1385.860286,-4145.153275,-2221.676944,-814.226536
1385.860598,-5699.585753,-1455.581446,-222.061783
1385.860909,-7402.059420,-995.924147,-592.164754
1385.861220,-11103.089130,-995.924147,814.226536
1385.861532,-13619.789333,-1302.362347,1850.514855
1385.861843,-14211.954086,-383.047749,1554.432478
1385.862154,-13619.789333,1072.533697,666.185348
1385.862466,-10732.986159,2298.286494,518.144159
1385.862777,-7476.080014,842.705048,-888.247130
1385.863088,-3997.112087,229.828649,-888.247130
1385.863400,-4219.173869,0.000000,-1702.473667
1385.863711,-4811.338623,0.000000,-1850.514855
1385.864022,-6809.894666,1302.362347,-888.247130
1385.864334,-10066.800811,2451.505594,-222.061783
1385.864645,-12213.398043,1838.629195,962.267725
1385.864957,-13841.851115,1149.143247,1184.329507
1385.865268,-13767.830521,1991.848295,1702.473667
1385.865579,-11991.336260,3524.039291,518.144159
1385.865891,-9326.594869,3140.991542,-888.247130
1385.866202,-5625.565159,1685.410096,-1924.535449
1385.866513,-4219.173869,153.219100,-2886.803174
1385.866825,-3404.947333,153.219100,-2738.761985
1385.867136,-4737.318029,1149.143247,-2294.638420
1385.867447,-8586.388927,2298.286494,-1110.308913
1385.867759,-11547.212695,1991.848295,1036.288319
1385.868070,-14211.954086,76.609550,2368.659014
1385.868381,-15026.180623,-229.828649,2812.782580
1385.868693,-13027.624579,612.876398,2664.741391
1385.869004,-10288.862594,842.705048,814.226536
1385.869316,-6587.832884,0.000000,-296.082377
1385.869627,-3923.091493,-919.314598,-1776.494261
1385.869938,-3627.009116,-1302.362347,-2368.659014
1385.870250,-4219.173869,-766.095498,-1184.329507
1385.870561,-6883.915261,766.095498,-74.020594
1385.870872,-10066.800811,0.000000,888.247130
1385.871184,-11843.295072,-459.657299,3182.885551
1385.871495,-13323.706956,-2068.457845,3552.988522
1385.871806,-13767.830521,-1378.971896,3627.009116
1385.872118,-11621.233289,842.705048,2738.761985
1385.872429,-8660.409521,1302.362347,1998.556043
1385.872740,-7031.956449,-842.705048,370.102971
1385.873052,-5033.400406,-2298.286494,-370.102971
1385.873363,-4589.276840,-2528.115143,-1184.329507
1385.873674,-4811.338623,-1378.971896,-666.185348
1385.873986,-7254.018232,-995.924147,-0.000000
1385.874297,-9696.697840,-1225.752797,1184.329507
1385.874609,-12731.542202,-1455.581446,1924.535449
1385.874920,-14285.974681,-2604.724693,4589.276840
1385.875231,-14211.954086,-1302.362347,3627.009116
1385.875543,-11547.212695,76.609550,3552.988522
1385.875854,-9178.553681,-689.485948,2590.720797
1385.876165,-5329.482782,-2987.772442,814.226536
1385.876477,-3034.844362,-3447.429741,-296.082377
1385.876788,-3627.009116,-2298.286494,-1554.432478
1385.877099,-4663.297435,-995.924147,-814.226536
1385.877411,-7105.977043,-536.266849,-296.082377
1385.877722,-11473.192101,0.000000,1332.370696
1385.878033,-13767.830521,-229.828649,2368.659014
1385.878345,-14285.974681,-459.657299,2812.782580
1385.878656,-13249.686362,1455.581446,3034.844362
1385.878968,-10732.986159,2604.724693,1850.514855
1385.879279,-6069.688724,1762.019645,-0.000000
1385.879590,-4737.318029,76.609550,-1184.329507
1385.879902,-3478.967927,0.000000,-2442.679609
1385.880213,-2738.761985,1225.752797,-2590.720797
1385.880524,-5995.668130,1991.848295,-2220.617826
1385.880836,-8882.471304,1762.019645,-666.185348
1385.881147,-13027.624579,-306.438199,148.041188
1385.881458,-14878.139434,0.000000,1850.514855
1385.881770,-14211.954086,1455.581446,1702.473667
1385.882081,-13101.645173,2451.505594,740.205942
1385.882392,-9030.512492,1838.629195,370.102971
1385.882704,-5329.482782,0.000000,-1702.473667
1385.883015,-3478.967927,-689.485948,-2220.617826
1385.883327,-3627.009116,0.000000,-2442.679609
1385.883638,-6513.812290,1378.971896,-1406.391290
1385.883949,-9844.739029,1532.190996,-148.041188
1385.884261,-13027.624579,229.828649,1406.391290
1385.884572,-15322.262999,-766.095498,1406.391290
1385.884883,-14508.036463,1608.800546,1184.329507
1385.885195,-12213.398043,2298.286494,888.247130
1385.885506,-9400.615463,1072.533697,-0.000000
1385.885817,-6365.771101,153.219100,-1036.288319
1385.886129,-4737.318029,229.828649,-2072.576638
1385.886440,-3997.112087,919.314598,-1628.453072
1385.886751,-4737.318029,459.657299,-518.144159
1385.887063,-7254.018232,919.314598,222.061783
1385.887374,-9622.677246,229.828649,2072.576638
1385.887685,-11029.068536,-766.095498,2442.679609
1385.887997,-13249.686362,-766.095498,2368.659014
1385.888308,-13027.624579,0.000000,2220.617826
1385.888620,-10584.944971,-153.219100,814.226536
1385.888931,-7698.141797,-2298.286494,148.041188
1385.889242,-5403.503377,-3140.991542,370.102971
1385.889554,-5551.544565,-3753.867940,-444.123565
1385.889865,-5847.626942,-3447.429741,-740.205942
1385.890176,-7624.121203,-2374.896044,1554.432478
1385.890488,-9326.594869,-1991.848295,2368.659014
1385.890799,-10807.006753,-1532.190996,3849.070898
1385.891110,-13397.727550,-1072.533697,4293.194464
1385.891422,-12065.356855,-306.438199,4293.194464
1385.891733,-9696.697840,689.485948,3182.885551
1385.892044,-7698.141797,1225.752797,2368.659014
1385.892356,-5699.585753,995.924147,-0.000000
1385.892667,-4515.256246,0.000000,-1628.453072
1385.892979,-3404.947333,306.438199,-1258.350101
1385.893290,-4811.338623,842.705048,-1258.350101
1385.893601,-7772.162391,383.047749,-222.061783
1385.893913,-10288.862594,-766.095498,1702.473667
1385.894224,-12287.418637,-1378.971896,2738.761985
1385.894535,-13397.727550,-1225.752797,3552.988522
1385.894847,-12213.398043,-842.705048,2812.782580
1385.895158,-10288.862594,-842.705048,1850.514855
1385.895469,-7698.141797,-919.314598,444.123565
1385.895781,-4515.256246,-1455.581446,-518.144159
1385.896092,-4589.276840,-2145.067394,-1480.411884
1385.896403,-5329.482782,-1302.362347,-1332.370696
1385.896715,-7254.018232,-612.876398,-518.144159
1385.897026,-9474.636058,842.705048,-814.226536
1385.897337,-12213.398043,2451.505594,592.164754
1385.897649,-14656.077652,2451.505594,666.185348
1385.897960,-14359.995275,2451.505594,888.247130
1385.898272,-12805.562797,4136.915689,1110.308913
1385.898583,-10658.965565,4519.963438,444.123565
1385.898894,-7624.121203,2987.772442,-1406.391290
1385.899206,-6291.750507,1532.190996,-2368.659014
1385.899517,-3997.112087,1072.533697,-2664.741391
1385.899828,-4293.194464,1072.533697,-2738.761985
1385.900140,-6439.791695,1302.362347,-2368.659014
1385.900451,-9770.718434,689.485948,-296.082377
1385.900762,-12879.583391,-766.095498,666.185348
1385.901074,-13767.830521,-995.924147,2368.659014
1385.901385,-13101.645173,612.876398,1850.514855
1385.901696,-11843.295072,536.266849,1184.329507
1385.902008,-8142.265362,153.219100,296.082377
1385.902319,-5847.626942,-842.705048,-1110.308913
1385.902631,-4367.215058,-1149.143247,-1406.391290
1385.902942,-4219.173869,-842.705048,-962.267725
1385.903253,-6883.915261,-459.657299,-444.123565
1385.903565,-9104.533087,-229.828649,1184.329507
1385.903876,-10807.006753,-995.924147,1924.535449
1385.904187,-12213.398043,-536.266849,2368.659014
1385.904499,-12805.562797,383.047749,3108.864956
1385.904810,-12065.356855,536.266849,2590.720797
1385.905121,-9622.677246,153.219100,1480.411884
1385.905433,-7254.018232,306.438199,740.205942
1385.905744,-4885.359217,-459.657299,-444.123565
1385.906055,-3701.029710,-612.876398,-962.267725
1385.906367,-3627.009116,0.000000,-814.226536
1385.906678,-6069.688724,-612.876398,-0.000000
1385.906990,-7994.224174,-2068.457845,1850.514855
1385.907301,-10214.842000,-2604.724693,3330.926739
1385.907612,-13619.789333,-3064.381992,3997.112087
1385.907924,-13027.624579,-2987.772442,3997.112087
1385.908235,-12139.377449,-2298.286494,3108.864956
1385.908546,-10510.924376,-1915.238745,1850.514855
1385.908858,-6883.915261,-2145.067394,444.123565
1385.909169,-5181.441594,-1608.800546,-518.144159
1385.909480,-5625.565159,-1455.581446,-962.267725
1385.909792,-6143.709319,-459.657299,-0.000000
1385.910103,-7254.018232,-306.438199,666.185348
1385.910414,-8808.450710,0.000000,2368.659014
1385.910726,-11103.089130,-766.095498,2738.761985
1385.911037,-12213.398043,0.000000,2442.679609
1385.911348,-11843.295072,995.924147,1850.514855
1385.911660,-10955.047942,1991.848295,592.164754
1385.911971,-9104.533087,2374.896044,-370.102971
1385.912283,-7698.141797,306.438199,-1776.494261
1385.912594,-6439.791695,-536.266849,-2146.597232
1385.912905,-5551.544565,-459.657299,-2072.576638
1385.913217,-6883.915261,459.657299,-1480.411884
1385.913528,-8660.409521,1378.971896,-592.164754
1385.913840,-10140.821405,229.828649,444.123565
1385.914151,-11991.336260,0.000000,1702.473667
1385.914463,-12361.439231,0.000000,1628.453072
1385.914774,-12509.480420,689.485948,814.226536
1385.915086,-9992.780217,1455.581446,296.082377
1385.915397,-7698.141797,919.314598,-1184.329507
1385.915709,-6957.935855,459.657299,-1998.556043
1385.916020,-5773.606348,612.876398,-2294.638420
1385.916332,-6661.853478,1302.362347,-1998.556043
1385.916643,-7105.977043,2145.067394,-1406.391290
1385.916955,-8660.409521,2145.067394,370.102971
1385.917266,-11473.192101,1378.971896,1110.308913
1385.917577,-12731.542202,1149.143247,2368.659014
1385.917889,-11917.315666,2374.896044,1702.473667
1385.918200,-9696.697840,3140.991542,444.123565
1385.918512,-8068.244768,2834.553343,-1258.350101
1385.918823,-5995.668130,459.657299,-1628.453072
1385.919135,-5329.482782,-1072.533697,-2664.741391
1385.919446,-5773.606348,-229.828649,-1258.350101
1385.919758,-7254.018232,229.828649,-0.000000
1385.920069,-9104.533087,-995.924147,1406.391290
1385.920381,-11399.171507,-2681.334243,2738.761985
1385.920692,-13101.645173,-3370.820191,2812.782580
1385.921004,-12361.439231,-995.924147,2294.638420
1385.921315,-10140.821405,536.266849,2368.659014
1385.921626,-8142.265362,-842.705048,1036.288319
1385.921938,-6143.709319,-2757.943793,592.164754
1385.922249,-5033.400406,-3294.210641,-0.000000
1385.922561,-5403.503377,-2987.772442,222.061783
1385.922872,-7105.977043,-2145.067394,962.267725
1385.923184,-8290.306550,-153.219100,1184.329507
1385.923495,-10362.883188,0.000000,2442.679609
1385.923807,-12213.398043,-1915.238745,2294.638420
1385.924118,-12879.583391,-1532.190996,2442.679609
1385.924430,-11917.315666,995.924147,2664.741391
1385.924741,-10066.800811,1302.362347,2368.659014
1385.925053,-8216.285956,-459.657299,666.185348
1385.925364,-6217.729913,-689.485948,-1110.308913
1385.925675,-5625.565159,-1072.533697,-1110.308913
1385.925987,-4441.235652,76.609550,-296.082377
1385.926298,-5033.400406,306.438199,-0.000000
1385.926610,-8068.244768,-766.095498,814.226536
1385.926921,-10140.821405,-2145.067394,1850.514855
1385.927233,-11769.274478,-2757.943793,2738.761985
1385.927544,-11843.295072,-2068.457845,2812.782580
1385.927856,-11991.336260,-1072.533697,2072.576638
1385.928167,-10140.821405,-383.047749,1036.288319
1385.928479,-7698.141797,0.000000,-814.226536
1385.928790,-6883.915261,-1608.800546,-1480.411884
1385.929102,-5255.462188,-1378.971896,-1332.370696
1385.929413,-5847.626942,-536.266849,-962.267725
1385.929725,-7772.162391,459.657299,-1258.350101
1385.930036,-9252.574275,1302.362347,740.205942
1385.930347,-12139.377449,919.314598,888.247130
1385.930659,-13841.851115,-459.657299,2146.597232
1385.930970,-13175.665768,1225.752797,2368.659014
1385.931282,-11621.233289,2374.896044,1332.370696
1385.931593,-9326.594869,3294.210641,-0.000000
1385.931905,-6957.935855,2528.115143,-2146.597232
1385.932216,-4441.235652,1762.019645,-2738.761985
1385.932528,-4367.215058,1991.848295,-4219.173869
1385.932839,-5773.606348,3677.258390,-3034.844362
1385.933151,-7698.141797,3983.696590,-1776.494261
1385.933462,-11547.212695,2681.334243,-444.123565
1385.933774,-14285.974681,689.485948,1998.556043
1385.934085,-13841.851115,612.876398,1702.473667
1385.934396,-11621.233289,1225.752797,1850.514855
1385.934708,-9030.512492,459.657299,1332.370696
1385.935019,-6291.750507,-1762.019645,-666.185348
1385.935331,-5551.544565,-2451.505594,-1924.535449
1385.935642,-5181.441594,-1532.190996,-2294.638420
1385.935954,-5773.606348,0.000000,-740.205942
1385.936265,-7624.121203,76.609550,-0.000000
1385.936577,-9326.594869,0.000000,2072.576638
1385.936888,-11843.295072,-1915.238745,2664.741391
1385.937200,-12731.542202,-2145.067394,3404.947333
1385.937511,-12213.398043,-229.828649,2960.823768
1385.937823,-10140.821405,1455.581446,2442.679609
1385.938134,-7994.224174,766.095498,592.164754
1385.938445,-5551.544565,-995.924147,-148.041188
1385.938757,-5477.523971,-1455.581446,-1110.308913
1385.939068,-5329.482782,-459.657299,-444.123565
1385.939380,-6439.791695,153.219100,888.247130
1385.939691,-8808.450710,-689.485948,1258.350101
1385.940003,-10436.903782,-2374.896044,2590.720797
1385.940314,-12731.542202,-3140.991542,2960.823768
1385.940626,-11843.295072,-1225.752797,3034.844362
1385.940937,-10658.965565,383.047749,1850.514855
1385.941249,-10066.800811,-306.438199,1258.350101
1385.941560,-8142.265362,-1302.362347,814.226536
1385.941872,-7254.018232,-3447.429741,-444.123565
1385.942183,-5625.565159,-3370.820191,-0.000000
1385.942495,-5847.626942,-2068.457845,592.164754
1385.942806,-7105.977043,-1378.971896,444.123565
1385.943117,-9548.656652,-1455.581446,1110.308913
1385.943429,-12065.356855,-1378.971896,2072.576638
1385.943740,-11843.295072,-153.219100,3182.885551
1385.944052,-12287.418637,919.314598,2516.700203
1385.944363,-11103.089130,2068.457845,2072.576638
1385.944675,-8512.368333,2374.896044,-0.000000
1385.944986,-6143.709319,689.485948,-1850.514855
1385.945298,-4071.132681,1225.752797,-2368.659014
1385.945609,-4737.318029,919.314598,-2590.720797
1385.945921,-6957.935855,689.485948,-1702.473667
1385.946232,-9548.656652,612.876398,-814.226536
1385.946544,-11843.295072,153.219100,518.144159
1385.946855,-13323.706956,229.828649,1850.514855
1385.947166,-12509.480420,842.705048,1924.535449
1385.947478,-11251.130318,1302.362347,1258.350101
1385.947789,-9030.512492,919.314598,518.144159
1385.948101,-6513.812290,766.095498,-740.205942
1385.948412,-5847.626942,306.438199,-2812.782580
1385.948724,-6217.729913,612.876398,-3256.906145
1385.949035,-5847.626942,1762.019645,-2368.659014
1385.949347,-7846.182985,1685.410096,-1332.370696
1385.949658,-10584.944971,1302.362347,666.185348
1385.949970,-13249.686362,306.438199,1702.473667
1385.950281,-14285.974681,306.438199,2664.741391
1385.950593,-13249.686362,2145.067394,2590.720797
1385.950904,-11399.171507,3370.820191,1850.514855
1385.951215,-7254.018232,2834.553343,-0.000000
1385.951527,-4145.153275,1838.629195,-1702.473667
1385.951838,-2738.761985,1455.581446,-1776.494261
1385.952150,-3034.844362,1455.581446,-2294.638420
1385.952461,-6735.874072,1915.238745,-1184.329507
1385.952773,-9400.615463,2068.457845,666.185348
1385.953084,-11621.233289,-536.266849,1776.494261
1385.953396,-12509.480420,-2145.067394,2738.761985
1385.953707,-12435.459826,-2834.553343,3330.926739
1385.954019,-11547.212695,-2451.505594,2590.720797
1385.954330,-9252.574275,-2374.896044,2072.576638
1385.954642,-7105.977043,-1532.190996,1480.411884
1385.954953,-5477.523971,-3140.991542,518.144159
1385.955265,-5107.421000,-3600.648841,-0.000000
1385.955576,-5847.626942,-2528.115143,296.082377
1385.955887,-7328.038826,-1302.362347,-0.000000
1385.956199,-8956.491898,76.609550,1480.411884
1385.956510,-11399.171507,-766.095498,2368.659014
1385.956822,-12879.583391,-1991.848295,3701.029710
1385.957133,-12879.583391,-2221.676944,4145.153275
1385.957445,-11695.253884,0.000000,3552.988522
1385.957756,-9992.780217,1225.752797,1924.535449
1385.958068,-7105.977043,383.047749,-74.020594
1385.958379,-5477.523971,0.000000,-1110.308913
1385.958691,-4737.318029,76.609550,-1776.494261
1385.959002,-5921.647536,612.876398,-888.247130
1385.959314,-7476.080014,842.705048,-1480.411884
1385.959625,-9770.718434,0.000000,370.102971
1385.959936,-11769.274478,-1762.019645,1332.370696
1385.960248,-11251.130318,-1685.410096,1554.432478
1385.960559,-10955.047942,-1225.752797,1998.556043
1385.960871,-10584.944971,-995.924147,2294.638420
1385.961182,-8290.306550,-919.314598,1258.350101
1385.961494,-6809.894666,-1608.800546,-888.247130
1385.961805,-6735.874072,-1302.362347,-1998.556043
1385.962117,-6291.750507,-383.047749,-2072.576638
1385.962428,-7698.141797,1378.971896,-2072.576638
1385.962740,-9030.512492,2298.286494,-962.267725
1385.963051,-11695.253884,1378.971896,-0.000000
1385.963363,-14063.912898,153.219100,1184.329507
1385.963674,-13323.706956,919.314598,2368.659014
1385.963986,-11547.212695,2451.505594,2294.638420
1385.964297,-9400.615463,2068.457845,444.123565
1385.964608,-7179.997637,1915.238745,-1702.473667
1385.964920,-5773.606348,1072.533697,-2516.700203
1385.965231,-4811.338623,1991.848295,-3256.906145
1385.965543,-5551.544565,2911.162892,-1554.432478
1385.965854,-7772.162391,2834.553343,-962.267725
1385.966166,-10140.821405,2145.067394,888.247130
1385.966477,-11695.253884,766.095498,1406.391290
1385.966789,-10881.027347,919.314598,2368.659014
1385.967100,-11399.171507,919.314598,1998.556043
1385.967412,-9622.677246,1225.752797,592.164754
1385.967723,-7328.038826,842.705048,-1110.308913
1385.968035,-6143.709319,153.219100,-2220.617826
1385.968346,-5477.523971,-306.438199,-962.267725
1385.968657,-6587.832884,-1685.410096,-370.102971
1385.968969,-8734.430116,-1991.848295,1110.308913
1385.969280,-10362.883188,-2145.067394,2886.803174
1385.969592,-12065.356855,-2374.896044,3701.029710
1385.969903,-13471.748144,-1532.190996,3701.029710
1385.970215,-12731.542202,0.000000,3256.906145
1385.970526,-9178.553681,1455.581446,2368.659014
1385.970838,-6365.771101,995.924147,444.123565
1385.971149,-4515.256246,995.924147,-1184.329507
1385.971461,-4071.132681,612.876398,-2220.617826
1385.971772,-4811.338623,0.000000,-1702.473667
1385.972084,-6069.688724,76.609550,370.102971
1385.972395,-8956.491898,383.047749,592.164754
1385.972706,-11399.171507,-766.095498,2516.700203
1385.973018,-13471.748144,-3217.601092,3552.988522
1385.973329,-12731.542202,-3524.039291,4145.153275
1385.973641,-11325.150913,-2068.457845,3627.009116
1385.973952,-10140.821405,-689.485948,2368.659014
1385.974264,-7698.141797,-1532.190996,1184.329507
1385.974575,-5995.668130,-2604.724693,-370.102971
1385.974887,-4663.297435,-1762.019645,-1110.308913
1385.975198,-4145.153275,-306.438199,-1332.370696
1385.975510,-6365.771101,-306.438199,-1258.350101
1385.975821,-9104.533087,-459.657299,962.267725
1385.976133,-11399.171507,-2068.457845,2220.617826
1385.976444,-13249.686362,-2374.896044,2516.700203
1385.976756,-13693.809927,-1302.362347,3034.844362
1385.977067,-12805.562797,689.485948,2146.597232
1385.977378,-10362.883188,1762.019645,444.123565
1385.977690,-6883.915261,1378.971896,-1184.329507
1385.978001,-5255.462188,-153.219100,-2664.741391
1385.978313,-4293.194464,383.047749,-3034.844362
1385.978624,-5181.441594,2145.067394,-2812.782580
1385.978936,-7328.038826,2221.676944,-2368.659014
1385.979247,-9474.636058,1302.362347,-666.185348
1385.979559,-11769.274478,0.000000,444.123565
1385.979870,-12879.583391,-612.876398,2220.617826
1385.980182,-12805.562797,0.000000,2146.597232
1385.980493,-11991.336260,229.828649,1850.514855
1385.980805,-9844.739029,76.609550,1628.453072
1385.981116,-8142.265362,-2145.067394,-814.226536
1385.981427,-7031.956449,-1302.362347,-1850.514855
1385.981739,-5403.503377,919.314598,-2738.761985
1385.982050,-5921.647536,766.095498,-2368.659014
1385.982362,-8068.244768,1149.143247,-1036.288319
1385.982673,-11547.212695,1302.362347,148.041188
1385.982985,-13841.851115,1455.581446,1776.494261
1385.983296,-13027.624579,1072.533697,2590.720797
1385.983608,-11843.295072,2221.676944,1924.535449
1385.983919,-8734.430116,3217.601092,740.205942
1385.984231,-5773.606348,2145.067394,-1554.432478
1385.984542,-4367.215058,919.314598,-2146.597232
1385.984854,-3923.091493,1302.362347,-1924.535449
1385.985165,-5329.482782,1915.238745,-592.164754
1385.985476,-7994.224174,766.095498,296.082377
1385.985788,-10584.944971,-919.314598,2368.659014
1385.986099,-12657.521608,-1532.190996,2368.659014
1385.986411,-12879.583391,0.000000,2738.761985
1385.986722,-10807.006753,229.828649,1924.535449
1385.987034,-9178.553681,-1072.533697,1702.473667
1385.987345,-7698.141797,-1838.629195,1628.453072
1385.987657,-4811.338623,-2757.943793,-0.000000
1385.987968,-4145.153275,-2528.115143,-148.041188
1385.988280,-4811.338623,-2221.676944,740.205942
1385.988591,-6661.853478,-1608.800546,1258.350101
1385.988903,-8734.430116,-1608.800546,1036.288319
1385.989214,-11769.274478,-2221.676944,3108.864956
1385.989526,-14063.912898,-1915.238745,3627.009116
1385.989837,-13101.645173,-229.828649,3034.844362
1385.990148,-11917.315666,1378.971896,2220.617826
1385.990460,-8438.347739,689.485948,1110.308913
1385.990771,-5625.565159,-306.438199,-518.144159
1385.991083,-5033.400406,-689.485948,-1332.370696
1385.991394,-4367.215058,-383.047749,-1332.370696
1385.991706,-5995.668130,536.266849,-518.144159
1385.992017,-8512.368333,76.609550,148.041188
1385.992329,-9400.615463,153.219100,1924.535449
1385.992640,-12361.439231,-1991.848295,1850.514855
1385.992952,-12879.583391,-1838.629195,2886.803174
1385.993263,-11769.274478,0.000000,1924.535449
1385.993575,-11695.253884,76.609550,518.144159
1385.993886,-9770.718434,0.000000,-0.000000
1385.994197,-7105.977043,-2068.457845,-1036.288319
1385.994509,-6069.688724,-2528.115143,-1258.350101
1385.994820,-4663.297435,-2068.457845,-1554.432478
1385.995132,-5551.544565,-689.485948,-1258.350101
1385.995443,-9104.533087,612.876398,-1702.473667
1385.995755,-10658.965565,612.876398,814.226536
1385.996066,-12953.603985,-1149.143247,1850.514855
1385.996378,-14211.954086,-153.219100,1702.473667
1385.996689,-13989.892304,2298.286494,2220.617826
1385.997001,-11399.171507,3217.601092,666.185348
1385.997312,-7846.182985,2987.772442,-1110.308913
1385.997624,-5847.626942,2298.286494,-2368.659014
1385.997935,-3478.967927,1838.629195,-3849.070898
1385.998246,-3330.926739,2757.943793,-3182.885551
1385.998558,-5995.668130,2604.724693,-1924.535449
1385.998869,-9474.636058,2221.676944,-592.164754
1385.999181,-12065.356855,766.095498,370.102971
1385.999492,-14137.933492,-153.219100,2664.741391
1385.999804,-13989.892304,-383.047749,3034.844362
1386.000115,-11621.233289,0.000000,1998.556043
1386.000427,-8882.471304,689.485948,518.144159
1386.000738,-6957.935855,-612.876398,-2072.576638
1386.001050,-5403.503377,-766.095498,-1628.453072
1386.001361,-4145.153275,0.000000,-2072.576638
1386.001673,-4885.359217,-229.828649,-222.061783
1386.001984,-7698.141797,-1608.800546,814.226536
1386.002296,-10955.047942,-2451.505594,3034.844362
1386.002607,-12583.501014,-1302.362347,3256.906145
1386.002918,-12435.459826,459.657299,2664.741391
1386.003230,-11473.192101,766.095498,2886.803174
1386.003541,-8882.471304,1225.752797,1702.473667
1386.003853,-5995.668130,689.485948,370.102971
1386.004164,-4811.338623,-306.438199,-592.164754
1386.004476,-4219.173869,76.609550,-1110.308913
1386.004787,-5329.482782,612.876398,-0.000000
1386.005099,-7698.141797,383.047749,-148.041188
1386.005410,-9474.636058,-459.657299,1406.391290
1386.005722,-11695.253884,-1608.800546,2146.597232
1386.006033,-13027.624579,-1072.533697,3478.967927
1386.006345,-12287.418637,-766.095498,3256.906145
1386.006656,-11029.068536,-1685.410096,2738.761985
1386.006967,-9104.533087,-2068.457845,2146.597232
1386.007279,-6217.729913,-2451.505594,740.205942
1386.007590,-5181.441594,-2604.724693,-0.000000
1386.007902,-5551.544565,-2451.505594,-518.144159
1386.008213,-6513.812290,-1685.410096,-0.000000
1386.008525,-9104.533087,-1838.629195,518.144159
1386.008836,-11473.192101,-2068.457845,2442.679609
1386.009148,-13619.789333,-1455.581446,3034.844362
1386.009459,-13989.892304,-306.438199,2368.659014
1386.009771,-12657.521608,1915.238745,1628.453072
1386.010082,-9474.636058,2834.553343,888.247130
1386.010394,-6809.894666,1838.629195,-1110.308913
1386.010705,-4663.297435,153.219100,-1850.514855
1386.011016,-3552.988522,-229.828649,-1406.391290
1386.011328,-5181.441594,-229.828649,-1184.329507
1386.011639,-7402.059420,0.000000,-666.185348
1386.011951,-9770.718434,-229.828649,814.226536
1386.012262,-12657.521608,-1762.019645,814.226536
1386.012574,-13323.706956,-612.876398,1258.350101
1386.012886,-12583.501014,689.485948,1184.329507
1386.013197,-11473.192101,1762.019645,1332.370696
1386.013509,-9326.594869,536.266849,888.247130
1386.013820,-6217.729913,-76.609550,-1036.288319
1386.014132,-4663.297435,612.876398,-2146.597232
1386.014443,-3701.029710,1685.410096,-2368.659014
1386.014755,-5181.441594,2298.286494,-2294.638420
1386.015066,-7476.080014,1915.238745,-1406.391290
1386.015378,-10214.842000,2145.067394,592.164754
1386.015690,-13989.892304,536.266849,1110.308913
1386.016001,-15174.221811,1302.362347,1702.473667
1386.016313,-13841.851115,2681.334243,1554.432478
1386.016624,-10807.006753,2681.334243,296.082377
1386.016936,-8068.244768,1455.581446,-740.205942
1386.017247,-5107.421000,1455.581446,-1480.411884
1386.017559,-3256.906145,1455.581446,-1776.494261
1386.017870,-4071.132681,995.924147,-1554.432478
1386.018182,-6069.688724,0.000000,-74.020594
1386.018494,-8808.450710,-153.219100,1332.370696
1386.018805,-11547.212695,-919.314598,2072.576638
1386.019117,-13693.809927,-1608.800546,2664.741391
1386.019428,-12953.603985,-919.314598,2960.823768
1386.019740,-11843.295072,-383.047749,2072.576638
1386.020051,-8438.347739,-689.485948,1628.453072
1386.020363,-5921.647536,-2374.896044,222.061783
1386.020675,-5181.441594,-2528.115143,-962.267725
1386.020986,-3997.112087,-1072.533697,-666.185348
1386.021298,-5181.441594,-766.095498,-0.000000
1386.021609,-7920.203579,-689.485948,814.226536
1386.021921,-10807.006753,-383.047749,2516.700203
1386.022232,-12287.418637,-1378.971896,3182.885551
1386.022544,-12731.542202,-1455.581446,3256.906145
1386.022855,-11177.109724,-383.047749,3552.988522
1386.023167,-9400.615463,-306.438199,2368.659014
1386.023479,-7698.141797,-1302.362347,518.144159
1386.023790,-5773.606348,-1762.019645,-814.226536
1386.024102,-5181.441594,-1378.971896,-1184.329507
1386.024413,-6069.688724,-306.438199,-592.164754
1386.024725,-7846.182985,-612.876398,-0.000000
1386.025036,-9992.780217,-612.876398,1332.370696
1386.025348,-11843.295072,-1455.581446,2516.700203
1386.025659,-12657.521608,-1532.190996,3478.967927
1386.025971,-11991.336260,-689.485948,2368.659014
1386.026283,-10881.027347,0.000000,1702.473667
1386.026594,-8068.244768,-383.047749,740.205942
1386.026906,-5403.503377,-1378.971896,-518.144159
1386.027217,-5181.441594,-2374.896044,-1184.329507
1386.027529,-5477.523971,-1838.629195,-1184.329507
1386.027840,-7031.956449,-383.047749,-666.185348
1386.028152,-9474.636058,383.047749,-0.000000
1386.028463,-11473.192101,919.314598,1406.391290
1386.028775,-12287.418637,612.876398,1332.370696
1386.029087,-12435.459826,1072.533697,1332.370696
1386.029398,-10807.006753,2451.505594,1480.411884
1386.029710,-9326.594869,3677.258390,-0.000000
1386.030021,-8290.306550,2451.505594,-1332.370696
1386.030333,-6809.894666,1915.238745,-2146.597232
1386.030644,-5847.626942,1532.190996,-2294.638420
1386.030956,-5477.523971,1762.019645,-2294.638420
1386.031268,-7105.977043,2374.896044,-1554.432478
1386.031579,-9770.718434,1915.238745,-370.102971
1386.031891,-11621.233289,1149.143247,888.247130
1386.032202,-13841.851115,1685.410096,2072.576638
1386.032514,-12805.562797,2451.505594,1628.453072
1386.032825,-11029.068536,2374.896044,1184.329507
1386.033137,-8364.327145,2068.457845,222.061783
1386.033448,-4885.359217,766.095498,-1332.370696
1386.033760,-3849.070898,-536.266849,-2368.659014
1386.034072,-4737.318029,-842.705048,-1850.514855
1386.034383,-6513.812290,-383.047749,-444.123565
1386.034695,-8956.491898,-306.438199,814.226536
1386.035006,-12065.356855,-2298.286494,2886.803174
1386.035318,-13323.706956,-2987.772442,3478.967927
1386.035629,-13915.871710,-1838.629195,2664.741391
1386.035941,-11843.295072,1149.143247,2516.700203
1386.036252,-8956.491898,1608.800546,888.247130
1386.036564,-6587.832884,536.266849,-0.000000
1386.036876,-4737.318029,-766.095498,-1406.391290
1386.037187,-3849.070898,-689.485948,-1184.329507
1386.037499,-3701.029710,0.000000,-814.226536
1386.037810,-6883.915261,-306.438199,-148.041188
1386.038122,-9770.718434,-1532.190996,2220.617826
1386.038433,-12213.398043,-2987.772442,2960.823768
1386.038745,-13471.748144,-3524.039291,3997.112087
1386.039056,-12287.418637,-2681.334243,3701.029710
1386.039368,-11325.150913,-2068.457845,2294.638420
1386.039680,-8512.368333,-1378.971896,1554.432478
1386.039991,-5699.585753,-2221.676944,-222.061783
1386.040303,-5107.421000,-2451.505594,-1110.308913
1386.040614,-5329.482782,-1455.581446,-962.267725
1386.040926,-6291.750507,-459.657299,-222.061783
1386.041237,-8734.430116,-842.705048,148.041188
1386.041549,-10955.047942,-995.924147,2072.576638
1386.041861,-12583.501014,-1072.533697,2516.700203
1386.042172,-13471.748144,-383.047749,2442.679609
1386.042484,-12139.377449,536.266849,2442.679609
1386.042795,-10288.862594,689.485948,1998.556043
1386.043107,-8068.244768,153.219100,370.102971
1386.043418,-6661.853478,-306.438199,-1628.453072
1386.043730,-4811.338623,76.609550,-2146.597232
1386.044041,-4663.297435,1915.238745,-1924.535449
1386.044353,-6883.915261,2298.286494,-1480.411884
1386.044665,-9474.636058,1378.971896,-0.000000
1386.044976,-12287.418637,536.266849,1258.350101
1386.045288,-13767.830521,842.705048,2368.659014
1386.045599,-12583.501014,1225.752797,1924.535449
1386.045911,-10955.047942,1762.019645,1184.329507
1386.046222,-9030.512492,1915.238745,-370.102971
1386.046534,-5551.544565,1225.752797,-2072.576638
1386.046845,-4219.173869,1225.752797,-2590.720797
1386.047157,-4663.297435,995.924147,-2368.659014
1386.047469,-6217.729913,1532.190996,-1850.514855
1386.047780,-9178.553681,1378.971896,-370.102971
1386.048092,-11843.295072,766.095498,1480.411884
1386.048403,-13471.748144,1149.143247,1850.514855
1386.048715,-13249.686362,1608.800546,1702.473667
1386.049026,-11621.233289,2451.505594,1480.411884
1386.049338,-8512.368333,1915.238745,296.082377
1386.049649,-6217.729913,1685.410096,-888.247130
1386.049961,-4885.359217,766.095498,-1184.329507
1386.050273,-4441.235652,-229.828649,-1480.411884
1386.050584,-5551.544565,0.000000,-740.205942
1386.050896,-7920.203579,689.485948,-296.082377
1386.051207,-9400.615463,1149.143247,1036.288319
1386.051519,-11547.212695,-919.314598,1554.432478
1386.051830,-13027.624579,-1991.848295,2738.761985
1386.052142,-11325.150913,-1302.362347,2664.741391
1386.052453,-10658.965565,-1149.143247,1258.350101
1386.052765,-8364.327145,-1608.800546,1480.411884
1386.053077,-5551.544565,-2451.505594,370.102971
1386.053388,-4663.297435,-3600.648841,-370.102971
1386.053700,-4515.256246,-4060.306139,-222.061783
1386.054011,-6661.853478,-2987.772442,444.123565
1386.054323,-8956.491898,-1608.800546,888.247130
1386.054634,-11695.253884,-919.314598,2368.659014
1386.054946,-12879.583391,-1378.971896,2812.782580
1386.055258,-12879.583391,-2298.286494,2590.720797
1386.055569,-11843.295072,-995.924147,2812.782580
1386.055881,-9770.718434,-229.828649,2072.576638
1386.056192,-8364.327145,-766.095498,666.185348
1386.056504,-6957.935855,-919.314598,148.041188
1386.056815,-5921.647536,-1225.752797,-444.123565
1386.057127,-5699.585753,-689.485948,-666.185348
1386.057438,-7402.059420,-459.657299,-222.061783
1386.057750,-8956.491898,0.000000,296.082377
1386.058062,-9844.739029,-229.828649,444.123565
1386.058373,-11769.274478,76.609550,1776.494261
1386.058685,-11843.295072,-842.705048,2368.659014
1386.058996,-10955.047942,-842.705048,1258.350101
1386.059308,-9548.656652,-459.657299,518.144159
1386.059619,-6735.874072,-995.924147,222.061783
1386.059931,-5625.565159,-1991.848295,-1110.308913
1386.060242,-5329.482782,-2145.067394,-1702.473667
1386.060554,-6439.791695,-1532.190996,-962.267725
1386.060866,-7105.977043,-1378.971896,-814.226536
1386.061177,-9770.718434,-1149.143247,962.267725
1386.061489,-12509.480420,-995.924147,1776.494261
1386.061800,-13249.686362,-1149.143247,2146.597232
1386.062112,-12657.521608,-689.485948,1702.473667
1386.062423,-10362.883188,919.314598,1554.432478
1386.062735,-7624.121203,1838.629195,-0.000000
1386.063046,-6217.729913,919.314598,-2368.659014
1386.063358,-4737.318029,76.609550,-2146.597232
1386.063670,-4515.256246,-536.266849,-2738.761985
1386.063981,-5699.585753,-306.438199,-2368.659014
1386.064293,-9622.677246,1072.533697,-1332.370696
1386.064604,-11029.068536,0.000000,370.102971
1386.064916,-12139.377449,-1685.410096,1406.391290
1386.065227,-12953.603985,-2987.772442,2368.659014
1386.065539,-11917.315666,-2451.505594,1924.535449
1386.065851,-10881.027347,-2221.676944,592.164754
1386.066162,-8364.327145,-612.876398,-0.000000
1386.066474,-5625.565159,-1532.190996,-1110.308913
1386.066785,-4515.256246,-4213.525239,-2072.576638
1386.067097,-4885.359217,-5132.839837,-666.185348
1386.067408,-6587.832884,-4519.963438,-518.144159
1386.067720,-8734.430116,-3217.601092,222.061783
1386.068031,-10510.924376,-2604.724693,1554.432478
1386.068343,-12509.480420,-3983.696590,2442.679609
1386.068655,-13101.645173,-5592.497135,3182.885551
1386.068966,-13249.686362,-5669.106685,3330.926739
1386.069278,-12509.480420,-4213.525239,2738.761985
1386.069589,-9992.780217,-2221.676944,1258.350101
1386.069901,-7624.121203,-2298.286494,-148.041188
1386.070212,-5107.421000,-4136.915689,-592.164754
1386.070524,-2516.700203,-4903.011187,-888.247130
1386.070835,-3627.009116,-6435.202183,-888.247130
1386.071147,-4663.297435,-5132.839837,518.144159
1386.071459,-7920.203579,-4596.572988,592.164754
1386.071770,-11917.315666,-3600.648841,1258.350101
1386.072082,-13767.830521,-2987.772442,2590.720797
1386.072393,-15026.180623,-3753.867940,3478.967927
1386.072705,-13841.851115,-3677.258390,3923.091493
1386.073016,-11547.212695,-2834.553343,2516.700203
1386.073328,-9474.636058,-2604.724693,-0.000000
1386.073639,-5921.647536,-1915.238745,-1036.288319
1386.073951,-3256.906145,-2681.334243,-1406.391290
1386.074263,-1998.556043,-3294.210641,-1702.473667
1386.074574,-2368.659014,-3830.477490,-1258.350101
1386.074886,-4737.318029,-4903.011187,-1036.288319
1386.075197,-7772.162391,-5056.230287,370.102971
1386.075509,-10732.986159,-4443.353888,1406.391290
1386.075820,-13471.748144,-4673.182538,2146.597232
1386.076132,-15470.304188,-4290.134789,2294.638420
1386.076444,-15470.304188,-2604.724693,2368.659014
1386.076755,-13915.871710,-1455.581446,2368.659014
1386.077067,-11695.253884,-1532.190996,1850.514855
1386.077378,-8290.306550,-2604.724693,1258.350101
1386.077690,-4293.194464,-3524.039291,1036.288319
1386.078001,-2664.741391,-3830.477490,-814.226536
1386.078313,-1036.288319,-3370.820191,-1776.494261
1386.078624,-3182.885551,-2068.457845,-2516.700203
1386.078936,-5551.544565,-689.485948,-2072.576638
1386.079248,-9918.759623,-766.095498,-1406.391290
1386.079559,-13989.892304,-383.047749,-74.020594
1386.079871,-16136.489536,-383.047749,1554.432478
1386.080182,-15544.324782,-1302.362347,2664.741391
1386.080494,-12509.480420,-2681.334243,1924.535449
1386.080805,-9622.677246,-3294.210641,962.267725
1386.081117,-7031.956449,-3753.867940,296.082377
1386.081428,-5033.400406,-3370.820191,-0.000000
1386.081740,-4811.338623,-2987.772442,-74.020594
1386.082052,-5403.503377,-2451.505594,-0.000000
1386.082363,-7031.956449,-2298.286494,-518.144159
1386.082675,-7550.100608,-1991.848295,-888.247130
1386.082986,-8142.265362,-919.314598,-814.226536
1386.083298,-8734.430116,-1762.019645,-370.102971
1386.083609,-9622.677246,-3677.258390,518.144159
1386.083921,-12213.398043,-4366.744339,1184.329507
1386.084232,-12435.459826,-3830.477490,2368.659014
1386.084544,-11695.253884,-3217.601092,2590.720797
1386.084856,-10881.027347,-3217.601092,2442.679609
1386.085167,-8660.409521,-2987.772442,1184.329507
1386.085479,-5921.647536,-2068.457845,148.041188
1386.085790,-4663.297435,-1685.410096,-740.205942
1386.086102,-3849.070898,-1608.800546,-962.267725
1386.086413,-4219.173869,-2221.676944,-1110.308913
1386.086725,-5625.565159,-2681.334243,-888.247130
1386.087037,-7105.977043,-3064.381992,-148.041188
1386.087348,-8808.450710,-4290.134789,518.144159
1386.087660,-10584.944971,-5822.325785,1628.453072
1386.087971,-12213.398043,-6818.249932,2812.782580
1386.088283,-13175.665768,-7507.735880,3627.009116
1386.088594,-13397.727550,-7201.297681,3404.947333
1386.088906,-12509.480420,-4673.182538,2368.659014
1386.089217,-10658.965565,-2298.286494,1110.308913
1386.089529,-8290.306550,-229.828649,444.123565
1386.089841,-6365.771101,919.314598,-518.144159
1386.090152,-5551.544565,1455.581446,-1258.350101
1386.090464,-4811.338623,1455.581446,-1036.288319
1386.090775,-4663.297435,-229.828649,-0.000000
1386.091087,-6661.853478,-1838.629195,222.061783
1386.091398,-8956.491898,-3600.648841,518.144159
1386.091710,-11399.171507,-4903.011187,1110.308913
1386.092021,-13027.624579,-5515.887586,1332.370696
1386.092333,-13323.706956,-5362.668486,1332.370696
1386.092645,-12953.603985,-5209.449386,1554.432478
1386.092956,-11547.212695,-5669.106685,1110.308913
1386.093268,-9770.718434,-4903.011187,1258.350101
1386.093579,-7476.080014,-3907.087040,592.164754
1386.093891,-5403.503377,-2221.676944,148.041188
1386.094202,-4737.318029,-1532.190996,-0.000000
1386.094514,-5181.441594,-1149.143247,-0.000000
1386.094825,-5699.585753,-1685.410096,666.185348
1386.095137,-7105.977043,-2145.067394,666.185348
1386.095449,-9178.553681,-2681.334243,740.205942
1386.095760,-11621.233289,-3677.258390,222.061783
1386.096072,-11843.295072,-3370.820191,592.164754
1386.096383,-11769.274478,-2911.162892,-0.000000
1386.096695,-9474.636058,-2451.505594,148.041188
1386.097006,-8216.285956,-2374.896044,-370.102971
1386.097318,-8438.347739,-2451.505594,-666.185348
1386.097629,-5625.565159,-1608.800546,222.061783
1386.097941,-5181.441594,-1838.629195,-814.226536
1386.098253,-5921.647536,-2528.115143,1628.453072
1386.098564,-9252.574275,-4519.963438,1184.329507
1386.098876,-10807.006753,-4290.134789,1998.556043
1386.099187,-10732.986159,-2604.724693,2220.617826
1386.099499,-10807.006753,-2834.553343,2442.679609
1386.099810,-10881.027347,-4290.134789,1850.514855
1386.100122,-10584.944971,-4673.182538,740.205942
1386.100434,-9918.759623,-3524.039291,1628.453072
1386.100745,-8734.430116,-2145.067394,1258.350101
1386.101057,-10658.965565,-536.266849,1332.370696
1386.101368,-10881.027347,766.095498,1258.350101
1386.101680,-9400.615463,0.000000,1924.535449
1386.101991,-8142.265362,-842.705048,2368.659014
1386.102303,-5625.565159,-229.828649,2590.720797
1386.102614,-7105.977043,-995.924147,2146.597232
1386.102926,-7254.018232,-3140.991542,3182.885551
1386.103238,-9474.636058,-4519.963438,3182.885551
1386.103549,-9548.656652,-2451.505594,4145.153275
1386.103861,-11695.253884,-612.876398,4515.256246
1386.104172,-13101.645173,-1455.581446,4737.318029
1386.104484,-10066.800811,-919.314598,3997.112087
1386.104795,-7624.121203,1838.629195,3182.885551
1386.105107,-6809.894666,2528.115143,2516.700203
1386.105418,-5551.544565,1991.848295,2516.700203
1386.105730,-7254.018232,-306.438199,1924.535449
1386.106042,-5921.647536,229.828649,3849.070898
1386.106353,-6439.791695,-229.828649,3923.091493
1386.106665,-10510.924376,-1608.800546,4441.235652
1386.106976,-10807.006753,-995.924147,6883.915261
1386.107288,-10658.965565,-2374.896044,5625.565159
1386.107599,-8734.430116,-2374.896044,6291.750507
1386.107911,-8956.491898,-1378.971896,5033.400406
1386.108222,-8438.347739,76.609550,5329.482782
1386.108534,-6587.832884,1072.533697,3849.070898
1386.108846,-5773.606348,1762.019645,3478.967927
1386.109157,-6069.688724,2757.943793,3701.029710
1386.109469,-8512.368333,2681.334243,3701.029710
1386.109780,-8586.388927,1915.238745,4663.297435
1386.110092,-8586.388927,536.266849,4885.359217
1386.110403,-7920.203579,-459.657299,4737.318029
1386.110715,-7920.203579,-1072.533697,5181.441594
1386.111027,-8956.491898,-2451.505594,5551.544565
1386.111338,-8660.409521,-2451.505594,5107.421000
1386.111650,-9030.512492,-383.047749,5995.668130
1386.111961,-9104.533087,1378.971896,4811.338623
1386.112273,-10214.842000,1838.629195,4663.297435
1386.112584,-10214.842000,1532.190996,3775.050304
1386.112896,-7624.121203,2681.334243,3627.009116
1386.113208,-7254.018232,2221.676944,2812.782580
1386.113519,-6883.915261,306.438199,3034.844362
1386.113831,-7254.018232,-1225.752797,2738.761985
1386.114142,-6439.791695,-1608.800546,3108.864956
1386.114454,-6439.791695,-2068.457845,3108.864956
1386.114766,-7920.203579,-2987.772442,3627.009116
1386.115077,-9770.718434,-3140.991542,4071.132681
1386.115389,-11399.171507,-2145.067394,4219.173869
1386.115700,-11547.212695,-1225.752797,4071.132681
1386.116012,-11843.295072,612.876398,3923.091493
1386.116323,-11769.274478,1685.410096,2590.720797
1386.116635,-10510.924376,1685.410096,1184.329507
1386.116947,-8364.327145,2221.676944,444.123565
1386.117258,-6883.915261,1838.629195,-0.000000
1386.117570,-7550.100608,766.095498,666.185348
1386.117881,-8956.491898,-1225.752797,2368.659014
1386.118193,-9696.697840,-2221.676944,3627.009116
1386.118505,-10362.883188,-2451.505594,4589.276840
1386.118816,-9474.636058,-2374.896044,4737.318029
1386.119128,-9030.512492,-2528.115143,3552.988522
1386.119439,-8438.347739,-995.924147,2442.679609
1386.119751,-6587.832884,76.609550,962.267725
1386.120062,-6957.935855,995.924147,-148.041188
1386.120374,-8364.327145,1532.190996,-370.102971
1386.120686,-10362.883188,1608.800546,222.061783
1386.120997,-11769.274478,1072.533697,1776.494261
1386.121309,-12657.521608,536.266849,3182.885551
1386.121620,-12213.398043,-383.047749,4219.173869
1386.121932,-11399.171507,-919.314598,4441.235652
1386.122244,-8734.430116,-1915.238745,4663.297435
1386.122555,-5551.544565,-2834.553343,3034.844362
1386.122867,-3552.988522,-2145.067394,2368.659014
1386.123178,-3997.112087,-1532.190996,1628.453072
1386.123490,-6809.894666,0.000000,1480.411884
1386.123802,-9770.718434,1532.190996,2664.741391
1386.124113,-11843.295072,2221.676944,4071.132681
1386.124425,-13545.768739,2068.457845,4663.297435
1386.124736,-13323.706956,995.924147,5477.523971
1386.125048,-10436.903782,0.000000,4737.318029
1386.125359,-6883.915261,-229.828649,3627.009116
1386.125671,-4737.318029,0.000000,2294.638420
1386.125983,-4145.153275,0.000000,1776.494261
1386.126294,-4293.194464,536.266849,1850.514855
1386.126606,-6809.894666,-229.828649,2146.597232
1386.126917,-10214.842000,689.485948,3256.906145
1386.127229,-12657.521608,1532.190996,4737.318029
1386.127541,-13619.789333,919.314598,5625.565159
1386.127852,-11621.233289,383.047749,5107.421000
1386.128164,-9178.553681,-919.314598,4441.235652
1386.128475,-7031.956449,-1149.143247,3775.050304
1386.128787,-5921.647536,-689.485948,3330.926739
1386.129099,-7031.956449,-689.485948,4515.256246
1386.129410,-9326.594869,-383.047749,5625.565159
1386.129722,-11621.233289,-229.828649,7179.997637
1386.130033,-12435.459826,0.000000,8734.430116
1386.130345,-11547.212695,459.657299,7624.121203
1386.130656,-8734.430116,995.924147,5551.544565
1386.130968,-5329.482782,2221.676944,3701.029710
1386.131280,-2664.741391,2451.505594,222.061783
1386.131591,-1036.288319,2145.067394,-1258.350101
1386.131903,-3552.988522,2298.286494,-370.102971
1386.132214,-8882.471304,1915.238745,2812.782580
1386.132526,-14582.057057,306.438199,6291.750507
1386.132838,-18653.189738,-2221.676944,9104.533087
1386.133149,-18209.066173,-3447.429741,10881.027347
1386.133461,-13693.809927,-3447.429741,10066.800811
1386.133772,-8142.265362,-2451.505594,7624.121203
1386.134084,-2738.761985,-1072.533697,3849.070898
1386.134395,-444.123565,383.047749,962.267725
1386.134707,-444.123565,2145.067394,-888.247130
1386.135019,-2072.576638,3370.820191,-518.144159
1386.135330,-6069.688724,4136.915689,518.144159
1386.135642,-9918.759623,3753.867940,2738.761985
1386.135953,-12139.377449,1608.800546,3256.906145
1386.136265,-12139.377449,-689.485948,5033.400406
1386.136577,-11843.295072,-1532.190996,5699.585753
1386.136888,-11621.233289,-2451.505594,5699.585753
1386.137200,-10436.903782,-2374.896044,4589.276840
1386.137511,-9326.594869,-1455.581446,4293.194464
1386.137823,-8808.450710,-536.266849,3701.029710
1386.138135,-7698.141797,306.438199,4441.235652
1386.138446,-6291.750507,766.095498,3627.009116
1386.138758,-4219.173869,842.705048,2960.823768
1386.139069,-2960.823768,766.095498,1480.411884
1386.139381,-2960.823768,1072.533697,-814.226536
1386.139692,-3849.070898,689.485948,-1554.432478
1386.140004,-6883.915261,-229.828649,-1480.411884
1386.140316,-12287.418637,-1302.362347,296.082377
1386.140627,-17394.839637,-1149.143247,2368.659014
1386.140939,-19689.478057,-1455.581446,4885.359217
1386.141250,-19245.354492,-689.485948,6735.874072
1386.141562,-15470.304188,-1302.362347,5995.668130
1386.141874,-9474.636058,-1378.971896,4145.153275
1386.142185,-3108.864956,-536.266849,814.226536
1386.142497,2220.617826,1149.143247,-3478.967927
1386.142808,3849.070898,3064.381992,-6291.750507
1386.143120,2072.576638,3064.381992,-7920.203579
1386.143432,-2738.761985,2145.067394,-7031.956449
1386.143743,-9918.759623,1149.143247,-4293.194464
1386.144055,-17542.880825,0.000000,-0.000000
1386.144366,-22872.363608,-919.314598,3997.112087
1386.144678,-24500.816680,-2068.457845,6143.709319
1386.144989,-22132.157666,-2145.067394,6217.729913
1386.145301,-16432.571912,-1608.800546,4367.215058
1386.145613,-8290.306550,689.485948,1628.453072
1386.145924,-296.082377,1225.752797,-1924.535449
1386.146236,4737.318029,1225.752797,-5551.544565
1386.146547,5625.565159,1532.190996,-7846.182985
1386.146859,2738.761985,1455.581446,-7328.038826
1386.147171,-4219.173869,459.657299,-5107.421000
1386.147482,-13397.727550,-995.924147,-888.247130
1386.147794,-21762.054695,-1915.238745,3330.926739
1386.148105,-26573.393318,-2374.896044,6143.709319
1386.148417,-26129.269753,-2451.505594,7179.997637
1386.148728,-19319.375086,-1608.800546,6365.771101
1386.149040,-10214.842000,-919.314598,3997.112087
1386.149352,-518.144159,-459.657299,1110.308913
1386.149663,5699.585753,-459.657299,-2442.679609
1386.149975,8142.265362,0.000000,-4885.359217
1386.150286,6143.709319,1608.800546,-4737.318029
1386.150598,-1258.350101,1762.019645,-3775.050304
1386.150910,-10658.965565,1378.971896,-1406.391290
1386.151221,-18727.210333,1838.629195,1628.453072
1386.151533,-23538.548956,1378.971896,4071.132681
1386.151844,-22650.301825,612.876398,6587.832884
1386.152156,-18579.169144,-1455.581446,6809.894666
1386.152468,-11769.274478,-2604.724693,6513.812290
1386.152779,-4293.194464,-3524.039291,5329.482782
1386.153091,2146.597232,-2068.457845,2294.638420
1386.153402,5699.585753,-229.828649,-592.164754
1386.153714,4959.379811,1455.581446,-2368.659014
1386.154025,148.041188,2604.724693,-2442.679609
1386.154337,-6069.688724,3600.648841,-2220.617826
1386.154649,-13101.645173,5132.839837,-592.164754
1386.154960,-18727.210333,5975.544884,1628.453072
1386.155272,-20947.828159,4673.182538,4663.297435
1386.155583,-17764.942608,-153.219100,6217.729913
1386.155895,-12065.356855,-3447.429741,6291.750507
1386.156207,-5181.441594,-4903.011187,5033.400406
1386.156518,-148.041188,-4443.353888,1554.432478
1386.156830,1406.391290,-2681.334243,666.185348
1386.157141,-2220.617826,-1072.533697,-74.020594
1386.157453,-7402.059420,-689.485948,222.061783
1386.157765,-12139.377449,-306.438199,-296.082377
1386.158076,-14285.974681,2451.505594,-0.000000
1386.158388,-13249.686362,3370.820191,-1332.370696
1386.158699,-10362.883188,2834.553343,-1184.329507
1386.159011,-9770.718434,-229.828649,-1036.288319
1386.159322,-7698.141797,-3140.991542,592.164754
1386.159634,-7846.182985,-4596.572988,2146.597232
1386.159946,-9548.656652,-4443.353888,2368.659014
1386.160257,-11399.171507,-2757.943793,2738.761985
1386.160569,-12583.501014,-1991.848295,148.041188
1386.160880,-11103.089130,383.047749,740.205942
1386.161192,-11103.089130,2451.505594,-1036.288319
1386.161504,-10214.842000,3294.210641,-2886.803174
1386.161815,-7920.203579,4060.306139,-4071.132681
1386.162127,-5699.585753,3294.210641,-5255.462188
1386.162438,-3182.885551,1685.410096,-4071.132681
1386.162750,-3330.926739,-689.485948,-3849.070898
1386.163061,-5181.441594,-1378.971896,-2072.576638
1386.163373,-8142.265362,-2911.162892,518.144159
1386.163685,-12361.439231,-4519.963438,2294.638420
1386.163996,-16136.489536,-4366.744339,4071.132681
1386.164308,-17468.860231,-2298.286494,3997.112087
1386.164619,-16358.551318,-919.314598,1850.514855
1386.164931,-12213.398043,995.924147,-888.247130
1386.165243,-6513.812290,3140.991542,-3849.070898
1386.165554,-1776.494261,3294.210641,-6735.874072
1386.165866,1554.432478,2987.772442,-7476.080014
1386.166177,1258.350101,1302.362347,-6735.874072
1386.166489,-2368.659014,766.095498,-3701.029710
1386.166801,-8364.327145,-1532.190996,-148.041188
1386.167112,-15396.283594,-3677.258390,3034.844362
1386.167424,-20429.683999,-3753.867940,4959.379811
1386.167735,-19911.539840,-1225.752797,5329.482782
1386.168047,-17098.757260,0.000000,3330.926739
1386.168358,-11251.130318,689.485948,814.226536
1386.168670,-6365.771101,1225.752797,-1924.535449
1386.168982,-1702.473667,1915.238745,-4515.256246
1386.169293,1184.329507,2681.334243,-5625.565159
1386.169605,740.205942,2221.676944,-5403.503377
1386.169916,-2664.741391,1072.533697,-3923.091493
1386.170228,-8586.388927,-383.047749,-444.123565
1386.170540,-14211.954086,-1915.238745,2886.803174
1386.170851,-19393.395680,-3140.991542,5699.585753
1386.171163,-21465.972318,-3140.991542,7846.182985
1386.171474,-19837.519246,-2911.162892,7031.956449
1386.171786,-14137.933492,-2221.676944,5477.523971
1386.172098,-6587.832884,-1455.581446,2368.659014
1386.172409,-148.041188,229.828649,-518.144159
1386.172721,2738.761985,0.000000,-3627.009116
1386.173032,3108.864956,383.047749,-5181.441594
1386.173344,-1110.308913,1991.848295,-3923.091493
1386.173655,-7254.018232,1991.848295,-1184.329507
1386.173967,-13693.809927,1225.752797,2442.679609
1386.174279,-19615.457463,153.219100,4885.359217
1386.174590,-20873.807564,0.000000,6291.750507
1386.174902,-16580.613101,-766.095498,5699.585753
1386.175213,-9844.739029,-842.705048,4589.276840
1386.175525,-4071.132681,-459.657299,2664.741391
1386.175837,148.041188,-1378.971896,-74.020594
1386.176148,2146.597232,-1838.629195,-2442.679609
1386.176460,0.000000,229.828649,-3182.885551
1386.176771,-4663.297435,1762.019645,-2368.659014
1386.177083,-9400.615463,1838.629195,-1258.350101
1386.177394,-14211.954086,536.266849,666.185348
1386.177706,-16506.592507,536.266849,2146.597232
1386.178018,-15174.221811,0.000000,3330.926739
1386.178329,-12361.439231,153.219100,3182.885551
1386.178641,-8216.285956,-689.485948,2886.803174
1386.178952,-4663.297435,-1302.362347,2812.782580
1386.179264,-2886.803174,-1915.238745,1110.308913
1386.179576,-3775.050304,-842.705048,-740.205942
1386.179887,-5403.503377,1455.581446,-1184.329507
1386.180199,-8068.244768,2911.162892,-1924.535449
1386.180510,-10658.965565,4060.306139,-1258.350101
1386.180822,-13915.871710,2451.505594,-1628.453072
1386.181134,-14063.912898,919.314598,-1332.370696
1386.181445,-10658.965565,612.876398,-1480.411884
1386.181757,-6661.853478,153.219100,-740.205942
1386.182068,-6069.688724,-1455.581446,962.267725
1386.182380,-6587.832884,-3983.696590,962.267725
1386.182691,-7476.080014,-4596.572988,1406.391290
1386.183003,-8216.285956,-4290.134789,1924.535449
1386.183315,-9992.780217,-2451.505594,1406.391290
1386.183626,-12583.501014,-1915.238745,296.082377
1386.183938,-14285.974681,-919.314598,-1258.350101
1386.184249,-14211.954086,306.438199,-2590.720797
1386.184561,-11769.274478,1762.019645,-3552.988522
1386.184873,-8808.450710,2604.724693,-2886.803174
1386.185184,-7328.038826,1762.019645,-2664.741391
1386.185496,-6439.791695,-689.485948,-1258.350101
1386.185807,-5551.544565,-1225.752797,-74.020594
1386.186119,-6735.874072,-842.705048,1332.370696
1386.186431,-8216.285956,-459.657299,2294.638420
1386.186742,-10955.047942,-1225.752797,2516.700203
1386.187054,-13471.748144,-306.438199,1628.453072
1386.187365,-13619.789333,766.095498,814.226536
1386.187677,-11399.171507,2298.286494,-1628.453072
1386.187988,-9178.553681,3217.601092,-2368.659014
1386.188300,-6069.688724,2911.162892,-3182.885551
1386.188612,-4145.153275,689.485948,-3108.864956
1386.188923,-2664.741391,-995.924147,-1406.391290
1386.189235,-4219.173869,-1838.629195,222.061783
1386.189546,-6439.791695,-1608.800546,1998.556043
1386.189858,-9548.656652,-2528.115143,3256.906145
1386.190170,-12657.521608,-2834.553343,4441.235652
1386.190481,-14730.098246,-2451.505594,4885.359217
1386.190793,-15322.262999,-1225.752797,4145.153275
1386.191104,-12139.377449,0.000000,2812.782580
1386.191416,-8438.347739,1072.533697,1110.308913
1386.191727,-5403.503377,1302.362347,-0.000000
1386.192039,-2664.741391,306.438199,-518.144159
1386.192351,-2220.617826,536.266849,-1184.329507
1386.192662,-2886.803174,76.609550,-0.000000
1386.192974,-5033.400406,383.047749,1258.350101
1386.193285,-8882.471304,0.000000,2368.659014
1386.193597,-12805.562797,0.000000,3923.091493
1386.193909,-16210.510130,229.828649,4885.359217
1386.194220,-16210.510130,766.095498,4441.235652
1386.194532,-13249.686362,1455.581446,4219.173869
1386.194843,-9252.574275,1455.581446,2072.576638
1386.195155,-5699.585753,1378.971896,222.061783
1386.195467,-1776.494261,766.095498,-1924.535449
1386.195778,-296.082377,-306.438199,-2664.741391
1386.196090,-2146.597232,-306.438199,-2516.700203
1386.196401,-6069.688724,-153.219100,-592.164754
1386.196713,-10732.986159,153.219100,1406.391290
1386.197024,-14508.036463,-1455.581446,3627.009116
1386.197336,-17320.819043,-1225.752797,4663.297435
1386.197648,-17246.798449,-229.828649,4811.338623
1386.197959,-13471.748144,1149.143247,3849.070898
1386.198271,-7179.997637,1378.971896,1998.556043
1386.198582,-3330.926739,689.485948,-0.000000
1386.198894,-1702.473667,-459.657299,-1776.494261
1386.199206,-1776.494261,0.000000,-3552.988522
1386.199517,-3552.988522,153.219100,-2368.659014
1386.199829,-7328.038826,689.485948,-1702.473667
1386.200140,-12065.356855,-383.047749,148.041188
1386.200452,-15840.407159,-1685.410096,1332.370696
1386.200764,-17320.819043,-689.485948,3034.844362
1386.201075,-15544.324782,0.000000,3552.988522
1386.201387,-11991.336260,306.438199,3256.906145
1386.201698,-8512.368333,-1608.800546,2146.597232
1386.202010,-4885.359217,-2528.115143,814.226536
1386.202321,-2738.761985,-1302.362347,-888.247130
1386.202633,-2146.597232,0.000000,-1480.411884
1386.202945,-5329.482782,919.314598,-1258.350101
1386.203256,-10510.924376,383.047749,-148.041188
1386.203568,-13915.871710,-612.876398,1036.288319
1386.203879,-15322.262999,0.000000,2146.597232
1386.204191,-13545.768739,1072.533697,1998.556043
1386.204503,-9474.636058,612.876398,666.185348
1386.204814,-5847.626942,612.876398,-148.041188
1386.205126,-3701.029710,612.876398,1110.308913
1386.205437,-4589.276840,229.828649,1406.391290
1386.205749,-5995.668130,76.609550,1480.411884
1386.206060,-7328.038826,229.828649,1924.535449
1386.206372,-8734.430116,153.219100,1628.453072
1386.206684,-9400.615463,153.219100,666.185348
1386.206995,-9622.677246,612.876398,-1554.432478
1386.207307,-10881.027347,1149.143247,-2072.576638
1386.207618,-11251.130318,1608.800546,-814.226536
1386.207930,-10140.821405,459.657299,370.102971
1386.208242,-9548.656652,-306.438199,1406.391290
1386.208553,-7550.100608,-1225.752797,2220.617826
1386.208865,-6069.688724,-1915.238745,592.164754
1386.209176,-3849.070898,-383.047749,-74.020594
1386.209488,-3997.112087,689.485948,-296.082377
1386.209800,-8512.368333,-612.876398,518.144159
1386.210111,-13323.706956,-919.314598,444.123565
1386.210423,-16062.468941,459.657299,1110.308913
1386.210734,-16284.530724,1532.190996,518.144159
1386.211046,-13101.645173,2374.896044,1184.329507
1386.211357,-9474.636058,1225.752797,-1036.288319
1386.211669,-5033.400406,-1225.752797,-888.247130
1386.211981,-2442.679609,-1915.238745,-666.185348
1386.212292,-3182.885551,-2068.457845,-0.000000
1386.212604,-6291.750507,-995.924147,1110.308913
1386.212915,-10140.821405,-612.876398,962.267725
1386.213227,-13249.686362,0.000000,2442.679609
1386.213539,-15988.448347,306.438199,2368.659014
1386.213850,-16580.613101,1532.190996,1480.411884
1386.214162,-13027.624579,2068.457845,518.144159
1386.214473,-8586.388927,1149.143247,-296.082377
1386.214783,-5329.482782,-153.219100,-1258.350101
1386.215095,-3256.906145,-1072.533697,-1554.432478
1386.215406,-2220.617826,-1685.410096,-1554.432478
1386.215718,-3627.009116,-689.485948,-666.185348
1386.216029,-7105.977043,459.657299,814.226536
1386.216341,-11843.295072,0.000000,1776.494261
1386.216652,-14211.954086,0.000000,2886.803174
1386.216963,-16284.530724,689.485948,3182.885551
1386.217275,-15026.180623,1838.629195,2812.782580
1386.217586,-11251.130318,2528.115143,1850.514855
1386.217898,-6735.874072,2221.676944,740.205942
1386.218209,-3404.947333,919.314598,-0.000000
1386.218521,-1184.329507,-995.924147,-518.144159
1386.218832,-814.226536,-1225.752797,-1184.329507
1386.219144,-3997.112087,-229.828649,-962.267725
1386.219455,-8068.244768,-306.438199,518.144159
1386.219767,-11843.295072,-612.876398,2072.576638
1386.220078,-15544.324782,-612.876398,2812.782580
1386.220390,-16876.695478,306.438199,3997.112087
1386.220701,-14211.954086,229.828649,4071.132681
1386.221012,-9622.677246,1072.533697,2590.720797
1386.221324,-5699.585753,612.876398,1850.514855
1386.221635,-2072.576638,0.000000,-0.000000
1386.221947,-296.082377,-1225.752797,-1184.329507
1386.222258,-1036.288319,-229.828649,-1332.370696
1386.222570,-4589.276840,459.657299,-814.226536
1386.222881,-9622.677246,-459.657299,592.164754
1386.223193,-13989.892304,-1762.019645,2146.597232
1386.223504,-16580.613101,-1149.143247,3182.885551
1386.223816,-17468.860231,0.000000,3478.967927
1386.224127,-14508.036463,1838.629195,2812.782580
1386.224438,-9918.759623,229.828649,1184.329507
1386.224750,-5625.565159,-766.095498,-0.000000
1386.225061,-2146.597232,-766.095498,-1702.473667
1386.225373,-1480.411884,0.000000,-2368.659014
1386.225684,-3404.947333,842.705048,-1850.514855
1386.225996,-7846.182985,0.000000,-740.205942
1386.226307,-12583.501014,0.000000,1332.370696
1386.226619,-16136.489536,-919.314598,2812.782580
1386.226930,-16654.633695,-536.266849,2516.700203
1386.227242,-13027.624579,-306.438199,814.226536
1386.227553,-8438.347739,536.266849,-1110.308913
1386.227864,-5329.482782,1225.752797,-1258.350101
1386.228176,-3775.050304,-229.828649,-1776.494261
1386.228487,-4663.297435,-536.266849,-2072.576638
1386.228799,-5847.626942,306.438199,-1036.288319
1386.229110,-6365.771101,536.266849,-518.144159
1386.229422,-8956.491898,-229.828649,-1628.453072
1386.229733,-11917.315666,306.438199,-1184.329507
1386.230045,-14137.933492,689.485948,-740.205942
1386.230356,-14730.098246,1225.752797,-148.041188
1386.230668,-13693.809927,1149.143247,-0.000000
1386.230979,-10881.027347,-306.438199,-370.102971
1386.231291,-7179.997637,-1991.848295,-1110.308913
1386.231602,-3775.050304,-1991.848295,-1776.494261
1386.231913,-1998.556043,-1532.190996,-2368.659014
1386.232225,-3404.947333,-842.705048,-2368.659014
1386.232536,-7328.038826,-689.485948,-1258.350101
1386.232848,-12657.521608,-459.657299,444.123565
1386.233159,-15322.262999,-383.047749,962.267725
1386.233471,-17320.819043,919.314598,1110.308913
1386.233782,-14285.974681,1991.848295,1184.329507
1386.234094,-9326.594869,766.095498,-518.144159
1386.234405,-4737.318029,-536.266849,-1406.391290
1386.234717,-2220.617826,-1762.019645,-1924.535449
1386.235028,-2072.576638,-2757.943793,-1406.391290
1386.235339,-4293.194464,-1915.238745,-814.226536
1386.235651,-7846.182985,229.828649,-0.000000
1386.235962,-11917.315666,1072.533697,1184.329507
1386.236274,-14952.160028,153.219100,2368.659014
1386.236585,-15544.324782,383.047749,2220.617826
1386.236897,-13545.768739,1378.971896,1998.556043
1386.237208,-11325.150913,1915.238745,1480.411884
1386.237520,-7476.080014,1991.848295,592.164754
1386.237831,-3997.112087,229.828649,-0.000000
1386.238143,-2516.700203,-1455.581446,-222.061783
1386.238454,-2516.700203,-1608.800546,-740.205942
1386.238766,-5181.441594,-766.095498,-296.082377
1386.239077,-9030.512492,229.828649,1406.391290
1386.239388,-13323.706956,0.000000,2812.782580
1386.239700,-17172.777854,-766.095498,3701.029710
1386.240011,-17468.860231,306.438199,4589.276840
1386.240323,-14359.995275,1225.752797,3478.967927
1386.240634,-9178.553681,1838.629195,2146.597232
1386.240946,-4737.318029,1455.581446,1184.329507
1386.241257,-1332.370696,-229.828649,370.102971
1386.241569,592.164754,-1608.800546,-740.205942
1386.241880,-1702.473667,-1838.629195,-0.000000
1386.242192,-5921.647536,-766.095498,1628.453072
1386.242503,-10362.883188,-459.657299,2368.659014
1386.242814,-14211.954086,-1225.752797,2664.741391
1386.243126,-15174.221811,-383.047749,3478.967927
1386.243437,-14063.912898,306.438199,2590.720797
1386.243749,-10658.965565,1455.581446,1702.473667
1386.244060,-7402.059420,1608.800546,444.123565
1386.244372,-4441.235652,842.705048,148.041188
1386.244683,-2220.617826,0.000000,-666.185348
1386.244995,-1258.350101,306.438199,-1554.432478
1386.245306,-3478.967927,306.438199,-1406.391290
1386.245618,-6661.853478,0.000000,-1628.453072
1386.245929,-10066.800811,-536.266849,-74.020594
1386.246240,-13841.851115,-612.876398,444.123565
1386.246552,-16506.592507,-153.219100,1184.329507
1386.246863,-16136.489536,153.219100,1406.391290
1386.247175,-13027.624579,766.095498,296.082377
1386.247486,-8438.347739,766.095498,-962.267725
1386.247798,-5107.421000,-1532.190996,-1554.432478
1386.248109,-3330.926739,-1072.533697,-2590.720797
1386.248421,-3330.926739,-306.438199,-2516.700203
1386.248732,-5033.400406,0.000000,-2442.679609
1386.249044,-9178.553681,-919.314598,-1554.432478
1386.249355,-13323.706956,-1302.362347,-222.061783
1386.249667,-16506.592507,-1455.581446,592.164754
1386.249978,-17394.839637,-153.219100,1702.473667
1386.250289,-15692.365970,0.000000,1702.473667
1386.250601,-11695.253884,612.876398,814.226536
1386.250912,-7994.224174,-689.485948,-444.123565
1386.251224,-3701.029710,-1838.629195,-740.205942
1386.251535,-1036.288319,-1532.190996,-2220.617826
1386.251847,-222.061783,-612.876398,-3849.070898
1386.252158,-3108.864956,766.095498,-2664.741391
1386.252470,-9622.677246,383.047749,-1258.350101
1386.252781,-16654.633695,306.438199,2516.700203
1386.253093,-21762.054695,383.047749,4145.153275
1386.253404,-20799.786970,689.485948,4367.215058
1386.253715,-14434.015869,383.047749,3034.844362
1386.254027,-6291.750507,-689.485948,518.144159
1386.254338,814.226536,-1915.238745,-2146.597232
1386.254650,4293.194464,-2681.334243,-4145.153275
1386.254961,2220.617826,-1532.190996,-3182.885551
1386.255273,-4145.153275,-689.485948,-222.061783
1386.255584,-12287.418637,0.000000,2072.576638
1386.255896,-17690.922014,-229.828649,5033.400406
1386.256207,-19763.498651,0.000000,5329.482782
1386.256519,-15840.407159,153.219100,4441.235652
1386.256830,-9548.656652,1149.143247,2072.576638
1386.257141,-4219.173869,995.924147,-74.020594
1386.257453,-1406.391290,689.485948,-740.205942
1386.257764,-296.082377,-1608.800546,-740.205942
1386.258076,-2368.659014,-1685.410096,-444.123565
1386.258387,-5625.565159,-612.876398,518.144159
1386.258699,-8734.430116,766.095498,1110.308913
1386.259010,-11769.274478,842.705048,2146.597232
1386.259322,-14285.974681,612.876398,2664.741391
1386.259633,-15840.407159,689.485948,2886.803174
1386.259945,-14211.954086,1685.410096,2886.803174
1386.260256,-10510.924376,1378.971896,1850.514855
1386.260568,-7179.997637,1762.019645,-0.000000
1386.260879,-3552.988522,612.876398,-666.185348
1386.261190,-1924.535449,-612.876398,-1258.350101
1386.261502,-2886.803174,-995.924147,-666.185348
1386.261813,-5921.647536,-689.485948,518.144159
1386.262125,-10881.027347,-153.219100,1924.535449
1386.262436,-16062.468941,0.000000,2812.782580
1386.262748,-18209.066173,-383.047749,3404.947333
1386.263059,-16876.695478,689.485948,3404.947333
1386.263371,-12583.501014,919.314598,2220.617826
1386.263682,-7624.121203,689.485948,444.123565
1386.263994,-3775.050304,229.828649,-0.000000
1386.264305,-1184.329507,-612.876398,-0.000000
1386.264616,-2738.761985,-1838.629195,-0.000000
1386.264928,-5921.647536,-1532.190996,962.267725
1386.265239,-9400.615463,-1378.971896,1924.535449
1386.265551,-12139.377449,-1991.848295,2072.576638
1386.265862,-13323.706956,-919.314598,1850.514855
1386.266174,-13545.768739,0.000000,1258.350101
1386.266485,-12065.356855,383.047749,666.185348
1386.266797,-9474.636058,1149.143247,666.185348
1386.267108,-6957.935855,1302.362347,592.164754
1386.267420,-4071.132681,459.657299,888.247130
1386.267731,-3108.864956,-306.438199,-296.082377
1386.268043,-2960.823768,-383.047749,-1036.288319
1386.268354,-4071.132681,536.266849,-296.082377
1386.268665,-7550.100608,459.657299,-0.000000
1386.268977,-11325.150913,-689.485948,962.267725
1386.269288,-14804.118840,-459.657299,1184.329507
1386.269600,-15840.407159,0.000000,1628.453072
1386.269911,-13545.768739,689.485948,1480.411884
1386.270223,-8882.471304,919.314598,666.185348
1386.270534,-6217.729913,0.000000,-444.123565
1386.270846,-3701.029710,-1225.752797,-370.102971
1386.271157,-3478.967927,-919.314598,-888.247130
1386.271469,-4885.359217,-229.828649,-444.123565
1386.271780,-7550.100608,766.095498,370.102971
1386.272091,-11695.253884,-153.219100,592.164754
1386.272403,-14878.139434,-383.047749,370.102971
1386.272714,-15396.283594,306.438199,1480.411884
1386.273026,-14656.077652,919.314598,1406.391290
1386.273337,-11917.315666,612.876398,592.164754
1386.273649,-8290.306550,-612.876398,-444.123565
1386.273960,-4737.318029,-1838.629195,-592.164754
1386.274272,-3775.050304,-1991.848295,-1406.391290
1386.274583,-4293.194464,-842.705048,-1406.391290
1386.274895,-7254.018232,1302.362347,-1184.329507
1386.275206,-11473.192101,1072.533697,-74.020594
1386.275517,-15248.242405,612.876398,1924.535449
1386.275829,-16728.654289,1072.533697,2812.782580
1386.276140,-15470.304188,995.924147,3182.885551
1386.276452,-11473.192101,-536.266849,2294.638420
1386.276763,-5847.626942,-1532.190996,222.061783
1386.277075,-3330.926739,0.000000,-2220.617826
1386.277386,-814.226536,76.609550,-1036.288319
1386.277698,-1702.473667,-766.095498,-888.247130
1386.278009,-6143.709319,-842.705048,222.061783
1386.278321,-9622.677246,0.000000,1702.473667
1386.278632,-12065.356855,229.828649,2146.597232
1386.278944,-12879.583391,153.219100,2368.659014
1386.279255,-11769.274478,1378.971896,1702.473667
1386.279566,-9696.697840,919.314598,-0.000000
1386.279878,-7402.059420,689.485948,-0.000000
1386.280189,-6291.750507,919.314598,370.102971
1386.280501,-5329.482782,306.438199,-0.000000
1386.280812,-5403.503377,-229.828649,-0.000000
1386.281124,-5699.585753,-306.438199,-296.082377
1386.281435,-6217.729913,-383.047749,-74.020594
1386.281747,-7402.059420,-1072.533697,-0.000000
1386.282058,-10362.883188,-612.876398,222.061783
1386.282370,-13027.624579,229.828649,814.226536
1386.282681,-15174.221811,306.438199,1702.473667
1386.282992,-14730.098246,1302.362347,2294.638420
1386.283304,-11843.295072,1302.362347,2294.638420
1386.283615,-8808.450710,536.266849,1406.391290
1386.283927,-5329.482782,-153.219100,-0.000000
1386.284238,-3923.091493,-995.924147,-666.185348
1386.284550,-4071.132681,-229.828649,-814.226536
1386.284861,-6513.812290,-383.047749,-740.205942
1386.285173,-10436.903782,-306.438199,592.164754
1386.285484,-14434.015869,0.000000,1258.350101
1386.285796,-17024.736666,459.657299,3034.844362
1386.286107,-16358.551318,1685.410096,2664.741391
1386.286418,-13249.686362,1762.019645,2960.823768
1386.286730,-7994.224174,689.485948,2886.803174
1386.287041,-4737.318029,0.000000,1924.535449
1386.287353,-2664.741391,-842.705048,1036.288319
1386.287664,-1776.494261,-1225.752797,-74.020594
1386.287976,-1998.556043,-1072.533697,-444.123565
1386.288287,-5477.523971,-383.047749,518.144159
1386.288599,-9992.780217,-306.438199,666.185348
1386.288910,-12657.521608,-459.657299,1850.514855
1386.289222,-14434.015869,-306.438199,2368.659014
1386.289533,-13323.706956,919.314598,2516.700203
1386.289845,-9770.718434,1149.143247,2368.659014
1386.290156,-6439.791695,0.000000,1184.329507
1386.290467,-3478.967927,-689.485948,888.247130
1386.290779,-1258.350101,-1149.143247,-74.020594
1386.291090,-1998.556043,0.000000,-888.247130
1386.291402,-4219.173869,76.609550,-518.144159
1386.291713,-7920.203579,-1378.971896,-592.164754
1386.292025,-11103.089130,-1225.752797,444.123565
1386.292336,-13989.892304,536.266849,592.164754
1386.292648,-16062.468941,1532.190996,888.247130
1386.292959,-14730.098246,1608.800546,962.267725
1386.293271,-10732.986159,1225.752797,444.123565
1386.293582,-6291.750507,76.609550,-962.267725
1386.293893,-2960.823768,-612.876398,-2294.638420
1386.294205,-2516.700203,-536.266849,-3256.906145
1386.294516,-3701.029710,842.705048,-3478.967927
1386.294828,-7179.997637,995.924147,-2812.782580
1386.295139,-12657.521608,0.000000,-1036.288319
1386.295451,-17172.777854,-306.438199,222.061783
1386.295762,-18949.272115,0.000000,518.144159
1386.296074,-16432.571912,1149.143247,814.226536
1386.296385,-11843.295072,0.000000,-518.144159
