#time,accel_x,accel_y,accel_z
1285.550952,-8882.471304,-306.438199,148.041188
1285.551263,-8734.430116,-306.438199,518.144159
1285.551574,-8882.471304,-153.219100,518.144159
1285.551886,-8808.450710,0.000000,518.144159
1285.552197,-8956.491898,0.000000,666.185348
1285.552509,-8808.450710,0.000000,148.041188
1285.552820,-9030.512492,153.219100,740.205942
1285.553132,-8882.471304,0.000000,518.144159
1285.553443,-9030.512492,0.000000,370.102971
1285.553754,-9030.512492,0.000000,518.144159
1285.554066,-9178.553681,0.000000,370.102971
1285.554377,-8882.471304,76.609550,592.164754
1285.554689,-8808.450710,0.000000,740.205942
1285.555000,-8734.430116,76.609550,370.102971
1285.555311,-8660.409521,0.000000,518.144159
1285.555623,-8882.471304,536.266849,444.123565
1285.555934,-9252.574275,0.000000,296.082377
1285.556246,-8808.450710,-229.828649,518.144159
1285.556557,-8808.450710,0.000000,592.164754
1285.556868,-8734.430116,0.000000,518.144159
1285.557180,-9326.594869,0.000000,666.185348
1285.557491,-9104.533087,76.609550,814.226536
1285.557803,-8438.347739,0.000000,444.123565
1285.558114,-9178.553681,0.000000,296.082377
1285.558425,-9030.512492,0.000000,518.144159
1285.558737,-8882.471304,76.609550,666.185348
1285.559048,-8882.471304,0.000000,518.144159
1285.559360,-8808.450710,0.000000,592.164754
1285.559671,-8956.491898,-153.219100,148.041188
1285.559983,-8512.368333,0.000000,740.205942
1285.560294,-8956.491898,-766.095498,370.102971
1285.560605,-8586.388927,-153.219100,444.123565
1285.560917,-8882.471304,76.609550,444.123565
1285.561228,-8660.409521,-306.438199,518.144159
1285.561540,-8882.471304,0.000000,592.164754
1285.561851,-9030.512492,-153.219100,444.123565
1285.562162,-8660.409521,-459.657299,592.164754
1285.562474,-8956.491898,-306.438199,370.102971
1285.562785,-9178.553681,153.219100,518.144159
1285.563097,-8808.450710,-306.438199,666.185348
1285.563408,-8956.491898,0.000000,592.164754
1285.563719,-8956.491898,0.000000,666.185348
1285.564031,-9030.512492,0.000000,518.144159
1285.564342,-8734.430116,76.609550,592.164754
1285.564654,-8808.450710,229.828649,222.061783
1285.564965,-8734.430116,689.485948,518.144159
1285.565276,-8956.491898,-306.438199,370.102971
1285.565588,-8808.450710,153.219100,444.123565
1285.565899,-8956.491898,-153.219100,370.102971
1285.566211,-8808.450710,-229.828649,518.144159
1285.566522,-8808.450710,0.000000,518.144159
1285.566833,-8956.491898,153.219100,666.185348
1285.567145,-8586.388927,153.219100,518.144159
1285.567456,-8808.450710,0.000000,592.164754
1285.567768,-8512.368333,229.828649,666.185348
1285.568079,-8882.471304,0.000000,518.144159
1285.568391,-8956.491898,0.000000,518.144159
1285.568702,-9030.512492,0.000000,592.164754
1285.569013,-9104.533087,0.000000,518.144159
1285.569325,-8956.491898,-229.828649,222.061783
1285.569636,-8956.491898,-229.828649,222.061783
1285.569948,-8882.471304,-153.219100,814.226536
1285.570259,-8364.327145,0.000000,592.164754
1285.570570,-8882.471304,-153.219100,444.123565
1285.570882,-8808.450710,0.000000,444.123565
1285.571193,-8808.450710,-229.828649,592.164754
1285.571505,-9030.512492,-229.828649,444.123565
1285.571816,-8808.450710,0.000000,370.102971
1285.572127,-8364.327145,0.000000,518.144159
1285.572439,-8734.430116,0.000000,370.102971
1285.572750,-9178.553681,0.000000,518.144159
1285.573062,-9030.512492,0.000000,740.205942
1285.573373,-8882.471304,0.000000,370.102971
1285.573684,-9252.574275,0.000000,370.102971
1285.573996,-9030.512492,153.219100,592.164754
1285.574307,-8734.430116,153.219100,518.144159
1285.574619,-8734.430116,-229.828649,370.102971
1285.574930,-8808.450710,0.000000,518.144159
1285.575242,-8734.430116,0.000000,740.205942
1285.575553,-8882.471304,0.000000,444.123565
1285.575864,-8808.450710,-153.219100,518.144159
1285.576176,-8808.450710,-153.219100,518.144159
1285.576487,-9030.512492,-229.828649,444.123565
1285.576799,-9178.553681,0.000000,296.082377
1285.577110,-9030.512492,0.000000,370.102971
1285.577421,-8882.471304,-153.219100,370.102971
1285.577733,-9918.759623,0.000000,296.082377
1285.578044,-11769.274478,1149.143247,148.041188
1285.578356,-10140.821405,3907.087040,592.164754
1285.578667,-8068.244768,4749.792088,592.164754
1285.578978,-7624.121203,2681.334243,962.267725
1285.579290,-6661.853478,229.828649,1110.308913
1285.579601,-7328.038826,-1225.752797,-296.082377
1285.579913,-7254.018232,-612.876398,-0.000000
1285.580224,-8808.450710,-383.047749,-740.205942
1285.580535,-13101.645173,-995.924147,-1184.329507
1285.580847,-11843.295072,689.485948,148.041188
1285.581158,-9622.677246,766.095498,814.226536
1285.581470,-8364.327145,-766.095498,2516.700203
1285.581781,-10362.883188,-536.266849,2368.659014
1285.582093,-10955.047942,1991.848295,1332.370696
1285.582404,-5995.668130,5132.839837,2368.659014
1285.582715,-6143.709319,4136.915689,1776.494261
1285.583027,-7846.182985,2757.943793,296.082377
1285.583338,-6957.935855,3294.210641,-1184.329507
1285.583650,-8512.368333,3217.601092,-2368.659014
1285.583961,-9326.594869,3677.258390,-592.164754
1285.584272,-9918.759623,3447.429741,-962.267725
1285.584584,-14434.015869,1225.752797,-962.267725
1285.584895,-10807.006753,-995.924147,2516.700203
1285.585207,-8660.409521,-1149.143247,1480.411884
1285.585518,-10066.800811,2911.162892,1702.473667
1285.585829,-7328.038826,6894.859482,2590.720797
1285.586141,-8660.409521,4060.306139,1258.350101
1285.586452,-6365.771101,3140.991542,2738.761985
1285.586764,-5921.647536,6818.249932,814.226536
1285.587075,-8142.265362,7048.078582,-518.144159
1285.587386,-9178.553681,5975.544884,-1258.350101
1285.587698,-10140.821405,4596.572988,-814.226536
1285.588009,-9770.718434,5286.058936,-1998.556043
1285.588321,-11473.192101,5592.497135,-74.020594
1285.588632,-11695.253884,5132.839837,518.144159
1285.588943,-10807.006753,3677.258390,2294.638420
1285.589255,-9918.759623,4290.134789,2220.617826
1285.589566,-7105.977043,4903.011187,2220.617826
1285.589878,-6439.791695,4749.792088,518.144159
1285.590189,-5699.585753,5439.278036,518.144159
1285.590501,-5477.523971,5132.839837,222.061783
1285.590812,-6143.709319,4826.401637,-814.226536
1285.591123,-6809.894666,3983.696590,-592.164754
1285.591435,-9252.574275,2987.772442,-888.247130
1285.591746,-9844.739029,2221.676944,-74.020594
1285.592058,-10807.006753,1532.190996,740.205942
1285.592369,-10732.986159,1072.533697,1480.411884
1285.592680,-10955.047942,0.000000,1924.535449
1285.592992,-10066.800811,1532.190996,2294.638420
1285.593303,-8734.430116,2681.334243,1850.514855
1285.593615,-7476.080014,3524.039291,296.082377
1285.593926,-6439.791695,3677.258390,814.226536
1285.594237,-6957.935855,3524.039291,-814.226536
1285.594549,-7031.956449,4136.915689,-888.247130
1285.594860,-6513.812290,2987.772442,-1554.432478
1285.595172,-8290.306550,612.876398,-1036.288319
1285.595483,-9918.759623,-1838.629195,-0.000000
1285.595794,-11399.171507,-2374.896044,962.267725
1285.596106,-13027.624579,-1762.019645,1776.494261
1285.596417,-13545.768739,-1685.410096,2220.617826
1285.596729,-13027.624579,0.000000,1998.556043
1285.597040,-11843.295072,1685.410096,1110.308913
1285.597352,-9474.636058,3830.477490,-0.000000
1285.597663,-7105.977043,4060.306139,-370.102971
1285.597974,-6291.750507,4749.792088,-518.144159
1285.598286,-6069.688724,5209.449386,-0.000000
1285.598597,-6587.832884,4366.744339,222.061783
1285.598909,-8586.388927,2451.505594,-444.123565
1285.599220,-10510.924376,459.657299,518.144159
1285.599531,-11695.253884,-459.657299,222.061783
1285.599843,-13397.727550,-1225.752797,-0.000000
1285.600154,-13693.809927,-1685.410096,592.164754
1285.600466,-13027.624579,0.000000,592.164754
1285.600777,-10732.986159,1455.581446,1332.370696
1285.601088,-8364.327145,2451.505594,1702.473667
1285.601400,-6217.729913,3140.991542,1776.494261
1285.601711,-3997.112087,2911.162892,1110.308913
1285.602023,-1702.473667,4366.744339,-0.000000
1285.602334,-1332.370696,4060.306139,-814.226536
1285.602645,-3627.009116,2068.457845,-888.247130
1285.602957,-7476.080014,689.485948,-888.247130
1285.603268,-11547.212695,0.000000,-0.000000
1285.603580,-14804.118840,459.657299,814.226536
1285.603891,-15396.283594,1149.143247,1850.514855
1285.604203,-13915.871710,1991.848295,2516.700203
1285.604514,-11325.150913,1302.362347,2368.659014
1285.604825,-6735.874072,1149.143247,1776.494261
1285.605137,-3849.070898,2374.896044,740.205942
1285.605448,-1184.329507,4290.134789,296.082377
1285.605760,-1406.391290,3753.867940,-1406.391290
1285.606071,-4145.153275,1838.629195,-1554.432478
1285.606382,-7994.224174,-153.219100,-1258.350101
1285.606694,-10881.027347,-1838.629195,-0.000000
1285.607005,-12657.521608,-2298.286494,740.205942
1285.607317,-14211.954086,-3294.210641,1850.514855
1285.607628,-13767.830521,-4673.182538,2368.659014
1285.607939,-11991.336260,-4826.401637,2294.638420
1285.608251,-9992.780217,-2757.943793,1850.514855
1285.608562,-7624.121203,-1225.752797,740.205942
1285.608874,-7179.997637,0.000000,-74.020594
1285.609185,-7179.997637,1455.581446,-888.247130
1285.609496,-8216.285956,2145.067394,-666.185348
1285.609808,-9548.656652,2221.676944,-1036.288319
1285.610119,-9918.759623,1608.800546,222.061783
1285.610431,-10732.986159,1072.533697,-0.000000
1285.610742,-10658.965565,-766.095498,222.061783
1285.611053,-10214.842000,-1378.971896,-0.000000
1285.611365,-9400.615463,-2221.676944,814.226536
1285.611676,-9548.656652,-2528.115143,1184.329507
1285.611988,-10732.986159,-2528.115143,1110.308913
1285.612299,-10362.883188,0.000000,1036.288319
1285.612611,-9844.739029,2604.724693,370.102971
1285.612922,-9252.574275,3983.696590,-518.144159
1285.613233,-8216.285956,3524.039291,-1110.308913
1285.613545,-7550.100608,2528.115143,-2072.576638
1285.613856,-6365.771101,2145.067394,-1702.473667
1285.614168,-6661.853478,2068.457845,-1110.308913
1285.614479,-7624.121203,459.657299,-296.082377
1285.614790,-9474.636058,-1532.190996,1332.370696
1285.615102,-9696.697840,-2451.505594,2146.597232
1285.615413,-10658.965565,-1762.019645,3256.906145
1285.615725,-11695.253884,-383.047749,3627.009116
1285.616036,-10140.821405,459.657299,2812.782580
1285.616347,-8068.244768,1608.800546,962.267725
1285.616659,-5995.668130,1991.848295,-0.000000
1285.616970,-5625.565159,2528.115143,-1628.453072
1285.617282,-5033.400406,3140.991542,-1924.535449
1285.617593,-5847.626942,2757.943793,-1998.556043
1285.617904,-6809.894666,995.924147,-814.226536
1285.618216,-7698.141797,0.000000,814.226536
1285.618527,-9918.759623,-995.924147,2664.741391
1285.618839,-11325.150913,-2068.457845,3849.070898
1285.619150,-10955.047942,-3217.601092,3627.009116
1285.619462,-9400.615463,-1838.629195,3034.844362
1285.619773,-8216.285956,306.438199,1258.350101
1285.620084,-6661.853478,1149.143247,-962.267725
1285.620396,-6439.791695,1838.629195,-1628.453072
1285.620707,-7179.997637,1225.752797,-2368.659014
1285.621019,-8290.306550,1915.238745,-1776.494261
1285.621330,-9474.636058,919.314598,-370.102971
1285.621641,-10955.047942,-229.828649,814.226536
1285.621953,-11547.212695,-1685.410096,2146.597232
1285.622264,-11325.150913,-3294.210641,3108.864956
1285.622576,-10288.862594,-3830.477490,3701.029710
1285.622887,-9400.615463,-3140.991542,2516.700203
1285.623198,-8734.430116,-1685.410096,1924.535449
1285.623510,-9474.636058,-1915.238745,592.164754
1285.623821,-9400.615463,-536.266849,-444.123565
1285.624133,-9252.574275,536.266849,-1036.288319
1285.624444,-10436.903782,1532.190996,-1776.494261
1285.624756,-10955.047942,2451.505594,-1776.494261
1285.625067,-10288.862594,1455.581446,-1332.370696
1285.625378,-9252.574275,306.438199,-814.226536
1285.625690,-8290.306550,-1302.362347,222.061783
1285.626001,-7476.080014,-2451.505594,1332.370696
1285.626313,-7772.162391,-2757.943793,2294.638420
1285.626624,-9178.553681,-2834.553343,2960.823768
1285.626936,-10436.903782,-2451.505594,2886.803174
1285.627247,-10658.965565,-689.485948,1776.494261
1285.627558,-10288.862594,1762.019645,1036.288319
1285.627870,-9474.636058,2145.067394,-518.144159
1285.628181,-8586.388927,1608.800546,-1258.350101
1285.628493,-6587.832884,2451.505594,-1702.473667
1285.628804,-6143.709319,2451.505594,-1628.453072
1285.629116,-6365.771101,919.314598,-0.000000
1285.629427,-6587.832884,-306.438199,592.164754
1285.629738,-7254.018232,-919.314598,1702.473667
1285.630050,-8216.285956,-383.047749,1998.556043
1285.630361,-9770.718434,383.047749,2146.597232
1285.630673,-9992.780217,306.438199,1998.556043
1285.630984,-9548.656652,766.095498,666.185348
1285.631296,-8068.244768,153.219100,148.041188
1285.631607,-6809.894666,459.657299,-1184.329507
1285.631919,-6217.729913,842.705048,-1850.514855
1285.632230,-5995.668130,536.266849,-1850.514855
1285.632541,-8290.306550,-1378.971896,-1184.329507
1285.632853,-9474.636058,-1225.752797,740.205942
1285.633164,-10288.862594,-536.266849,1110.308913
1285.633476,-11843.295072,-919.314598,2294.638420
1285.633787,-11843.295072,-1455.581446,3256.906145
1285.634099,-10510.924376,-1991.848295,3108.864956
1285.634410,-8586.388927,-1608.800546,2664.741391
1285.634721,-7328.038826,-1149.143247,1480.411884
1285.635033,-7179.997637,-689.485948,-0.000000
1285.635344,-8364.327145,-306.438199,-1628.453072
1285.635656,-9474.636058,536.266849,-2072.576638
1285.635967,-10288.862594,1149.143247,-1554.432478
1285.636279,-11621.233289,1225.752797,-1332.370696
1285.636590,-11917.315666,76.609550,-814.226536
1285.636901,-11251.130318,-766.095498,-148.041188
1285.637213,-9178.553681,-612.876398,962.267725
1285.637524,-9178.553681,-689.485948,1184.329507
1285.637836,-8290.306550,-689.485948,1332.370696
1285.638147,-7846.182985,-1302.362347,1480.411884
1285.638459,-8290.306550,-1455.581446,1480.411884
1285.638770,-8660.409521,-459.657299,1332.370696
1285.639081,-9696.697840,306.438199,222.061783
1285.639393,-10288.862594,1302.362347,-444.123565
1285.639704,-9696.697840,1762.019645,-444.123565
1285.640016,-8660.409521,612.876398,-1110.308913
1285.640327,-7031.956449,0.000000,-222.061783
1285.640639,-7624.121203,-766.095498,518.144159
1285.640950,-7698.141797,-1915.238745,1554.432478
1285.641261,-7698.141797,-2374.896044,2368.659014
1285.641573,-8216.285956,-1838.629195,3182.885551
1285.641884,-9178.553681,-1225.752797,2738.761985
1285.642196,-10066.800811,-383.047749,2072.576638
1285.642507,-9474.636058,766.095498,888.247130
1285.642819,-7772.162391,842.705048,-148.041188
1285.643130,-6587.832884,842.705048,-888.247130
1285.643441,-6291.750507,612.876398,-1702.473667
1285.643753,-7105.977043,76.609550,-1036.288319
1285.644064,-7402.059420,-766.095498,-0.000000
1285.644376,-9030.512492,-1378.971896,296.082377
1285.644687,-9844.739029,-612.876398,1480.411884
1285.644999,-10584.944971,1149.143247,1628.453072
1285.645310,-11399.171507,1072.533697,2294.638420
1285.645622,-10510.924376,689.485948,2590.720797
1285.645933,-9326.594869,229.828649,2368.659014
1285.646244,-7772.162391,383.047749,1406.391290
1285.646556,-6439.791695,612.876398,-74.020594
1285.646867,-6439.791695,766.095498,-1776.494261
1285.647179,-7698.141797,689.485948,-2072.576638
1285.647490,-9178.553681,842.705048,-1702.473667
1285.647802,-10658.965565,766.095498,-1036.288319
1285.648113,-11843.295072,1378.971896,-148.041188
1285.648424,-12139.377449,689.485948,518.144159
1285.648736,-11917.315666,-383.047749,1184.329507
1285.649047,-10510.924376,-306.438199,1702.473667
1285.649359,-7698.141797,766.095498,1998.556043
1285.649670,-7031.956449,459.657299,666.185348
1285.649982,-7105.977043,0.000000,592.164754
1285.650293,-7994.224174,-612.876398,148.041188
1285.650604,-8808.450710,-306.438199,-148.041188
1285.650916,-9918.759623,536.266849,-444.123565
1285.651227,-10510.924376,766.095498,-0.000000
1285.651539,-10584.944971,0.000000,-0.000000
1285.651850,-9474.636058,-766.095498,370.102971
1285.652162,-7698.141797,-995.924147,1110.308913
1285.652473,-7328.038826,-689.485948,1258.350101
1285.652784,-7550.100608,-612.876398,1850.514855
1285.653096,-7772.162391,-1455.581446,1776.494261
1285.653407,-8142.265362,-1225.752797,1628.453072
1285.653719,-8734.430116,-153.219100,1036.288319
1285.654030,-8586.388927,612.876398,370.102971
1285.654342,-8586.388927,0.000000,-444.123565
1285.654653,-7920.203579,-919.314598,-592.164754
1285.654964,-7698.141797,-1532.190996,-666.185348
1285.655276,-7698.141797,-1302.362347,-296.082377
1285.655587,-8216.285956,-1225.752797,518.144159
1285.655899,-9252.574275,-2145.067394,814.226536
1285.656210,-9918.759623,-2068.457845,1258.350101
1285.656522,-10510.924376,-383.047749,1628.453072
1285.656833,-10436.903782,766.095498,1480.411884
1285.657144,-10066.800811,306.438199,1628.453072
1285.657456,-9918.759623,0.000000,1702.473667
1285.657767,-8438.347739,306.438199,962.267725
1285.658079,-6735.874072,612.876398,-0.000000
1285.658390,-6661.853478,306.438199,-888.247130
1285.658702,-6957.935855,-229.828649,-1702.473667
1285.659013,-7698.141797,0.000000,-1036.288319
1285.659325,-8956.491898,-1225.752797,-296.082377
1285.659636,-10658.965565,-153.219100,592.164754
1285.659947,-12953.603985,383.047749,1110.308913
1285.660259,-12583.501014,229.828649,1702.473667
1285.660570,-11325.150913,0.000000,1628.453072
1285.660882,-8882.471304,383.047749,1332.370696
1285.661193,-7476.080014,766.095498,148.041188
1285.661505,-7105.977043,383.047749,-740.205942
1285.661816,-6587.832884,-229.828649,-814.226536
1285.662127,-7624.121203,-153.219100,-666.185348
1285.662439,-8882.471304,842.705048,-0.000000
1285.662750,-10214.842000,919.314598,592.164754
1285.663062,-10658.965565,306.438199,1036.288319
1285.663373,-9770.718434,-153.219100,1110.308913
1285.663685,-8438.347739,0.000000,1184.329507
1285.663996,-7105.977043,459.657299,1258.350101
1285.664307,-7328.038826,459.657299,666.185348
1285.664619,-8068.244768,-842.705048,1110.308913
1285.664930,-7772.162391,-1455.581446,814.226536
1285.665242,-8142.265362,-1072.533697,666.185348
1285.665553,-9252.574275,-459.657299,296.082377
1285.665865,-9252.574275,-383.047749,296.082377
1285.666176,-8660.409521,-1455.581446,-74.020594
1285.666487,-8364.327145,-536.266849,-148.041188
1285.666799,-8142.265362,-612.876398,370.102971
1285.667110,-8216.285956,-842.705048,296.082377
1285.667422,-8364.327145,-612.876398,592.164754
1285.667733,-8882.471304,-1072.533697,740.205942
1285.668045,-9474.636058,-1149.143247,1184.329507
1285.668356,-10066.800811,-153.219100,1258.350101
1285.668667,-10807.006753,1225.752797,1554.432478
1285.668979,-10732.986159,536.266849,1480.411884
1285.669290,-10214.842000,-153.219100,888.247130
1285.669602,-8438.347739,76.609550,444.123565
1285.669913,-6439.791695,306.438199,-74.020594
1285.670225,-5995.668130,0.000000,-666.185348
1285.670536,-6809.894666,-766.095498,-888.247130
1285.670847,-8438.347739,0.000000,-740.205942
1285.671159,-9918.759623,766.095498,-0.000000
1285.671470,-11843.295072,1838.629195,518.144159
1285.671782,-12953.603985,2145.067394,1258.350101
1285.672093,-12065.356855,1072.533697,1332.370696
1285.672405,-10288.862594,612.876398,962.267725
1285.672716,-7846.182985,689.485948,1036.288319
1285.673028,-6439.791695,919.314598,-0.000000
1285.673339,-6365.771101,536.266849,-444.123565
1285.673650,-7105.977043,-383.047749,-148.041188
1285.673962,-8142.265362,766.095498,-0.000000
1285.674273,-9178.553681,1378.971896,370.102971
1285.674585,-10658.965565,1915.238745,888.247130
1285.674896,-11177.109724,1149.143247,1184.329507
1285.675208,-10140.821405,459.657299,1110.308913
1285.675519,-8142.265362,1072.533697,1406.391290
1285.675830,-6809.894666,1225.752797,962.267725
1285.676142,-6883.915261,76.609550,888.247130
1285.676453,-6587.832884,-995.924147,518.144159
1285.676765,-7105.977043,-919.314598,-74.020594
1285.677076,-7920.203579,-306.438199,296.082377
1285.677388,-9844.739029,612.876398,148.041188
1285.677699,-10584.944971,766.095498,-0.000000
1285.678010,-9474.636058,76.609550,444.123565
1285.678322,-8956.491898,-995.924147,370.102971
1285.678633,-7920.203579,-1608.800546,444.123565
1285.678945,-7476.080014,0.000000,666.185348
1285.679256,-8142.265362,-766.095498,592.164754
1285.679568,-8586.388927,-1455.581446,962.267725
1285.679879,-9992.780217,-1149.143247,1110.308913
1285.680190,-10658.965565,-383.047749,1406.391290
1285.680502,-11029.068536,-612.876398,1628.453072
1285.680813,-10732.986159,-689.485948,1406.391290
1285.681125,-9030.512492,-459.657299,962.267725
1285.681436,-8216.285956,0.000000,148.041188
1285.681748,-6439.791695,-1149.143247,222.061783
1285.682059,-6513.812290,-919.314598,-370.102971
1285.682370,-7179.997637,-536.266849,-740.205942
1285.682682,-8956.491898,229.828649,-444.123565
1285.682993,-10658.965565,612.876398,-0.000000
1285.683305,-11695.253884,459.657299,888.247130
1285.683616,-11991.336260,459.657299,1480.411884
1285.683928,-11769.274478,0.000000,1110.308913
1285.684239,-9770.718434,-536.266849,740.205942
1285.684550,-8068.244768,-153.219100,518.144159
1285.684862,-6587.832884,76.609550,-444.123565
1285.685173,-6809.894666,-306.438199,-888.247130
1285.685485,-8290.306550,-459.657299,-74.020594
1285.685796,-9178.553681,306.438199,222.061783
1285.686108,-10955.047942,1225.752797,296.082377
1285.686419,-10955.047942,1915.238745,888.247130
1285.686731,-11103.089130,1149.143247,1258.350101
1285.687042,-9474.636058,306.438199,1702.473667
1285.687353,-7254.018232,229.828649,1480.411884
1285.687665,-6365.771101,612.876398,1036.288319
1285.687976,-6217.729913,229.828649,592.164754
1285.688288,-7254.018232,306.438199,-0.000000
1285.688599,-7772.162391,-76.609550,296.082377
1285.688911,-8512.368333,0.000000,-0.000000
1285.689222,-9474.636058,459.657299,-0.000000
1285.689533,-9400.615463,536.266849,296.082377
1285.689845,-9326.594869,-229.828649,518.144159
1285.690156,-9252.574275,-1302.362347,1036.288319
1285.690468,-8512.368333,-842.705048,1036.288319
1285.690779,-7846.182985,-306.438199,1110.308913
1285.691091,-7920.203579,-612.876398,962.267725
1285.691402,-8586.388927,-995.924147,1184.329507
1285.691713,-9030.512492,-459.657299,1036.288319
1285.692025,-9104.533087,383.047749,1184.329507
1285.692336,-9474.636058,689.485948,1110.308913
1285.692648,-8956.491898,153.219100,1184.329507
1285.692959,-8364.327145,689.485948,814.226536
1285.693271,-7550.100608,-766.095498,370.102971
1285.693582,-6513.812290,-459.657299,-0.000000
1285.693893,-7105.977043,0.000000,-148.041188
1285.694205,-8364.327145,0.000000,-814.226536
1285.694516,-9622.677246,-383.047749,-74.020594
1285.694828,-10584.944971,-306.438199,592.164754
1285.695139,-11325.150913,153.219100,962.267725
1285.695451,-11843.295072,153.219100,1332.370696
1285.695762,-10955.047942,-1149.143247,592.164754
1285.696073,-9178.553681,-459.657299,518.144159
1285.696385,-7105.977043,0.000000,370.102971
1285.696696,-6291.750507,76.609550,-592.164754
1285.697008,-7179.997637,-689.485948,-814.226536
1285.697319,-8290.306550,-1149.143247,-222.061783
1285.697631,-9252.574275,0.000000,-0.000000
1285.697942,-11029.068536,842.705048,666.185348
1285.698253,-11991.336260,995.924147,1110.308913
1285.698565,-12065.356855,306.438199,1332.370696
1285.698876,-10362.883188,-459.657299,1258.350101
1285.699188,-7772.162391,153.219100,814.226536
1285.699499,-6735.874072,153.219100,-0.000000
1285.699811,-7105.977043,0.000000,-370.102971
1285.700122,-7402.059420,-1149.143247,-592.164754
1285.700434,-7920.203579,-1225.752797,-518.144159
1285.700745,-8956.491898,536.266849,-148.041188
1285.701056,-9696.697840,612.876398,148.041188
1285.701368,-10510.924376,0.000000,222.061783
1285.701679,-10066.800811,-459.657299,370.102971
1285.701991,-8956.491898,-383.047749,148.041188
1285.702302,-7994.224174,-536.266849,222.061783
1285.702614,-7698.141797,-306.438199,296.082377
1285.702925,-8290.306550,-1532.190996,592.164754
1285.703236,-8586.388927,-2145.067394,814.226536
1285.703548,-7994.224174,-612.876398,1406.391290
1285.703859,-9178.553681,153.219100,1184.329507
1285.704171,-9622.677246,536.266849,1332.370696
1285.704482,-9474.636058,0.000000,1036.288319
1285.704794,-7698.141797,-229.828649,1332.370696
1285.705105,-5477.523971,-383.047749,518.144159
1285.705416,-6661.853478,-612.876398,-74.020594
1285.705728,-7476.080014,-383.047749,-148.041188
1285.706039,-8586.388927,-689.485948,-296.082377
1285.706351,-9622.677246,0.000000,222.061783
1285.706662,-10807.006753,459.657299,1110.308913
1285.706974,-11547.212695,459.657299,1406.391290
1285.707285,-11103.089130,-842.705048,1776.494261
1285.707596,-10066.800811,-612.876398,1184.329507
1285.707908,-8142.265362,153.219100,1184.329507
1285.708219,-6587.832884,995.924147,-0.000000
1285.708531,-6809.894666,766.095498,-148.041188
1285.708842,-7254.018232,-153.219100,-296.082377
1285.709154,-8068.244768,-536.266849,-74.020594
1285.709465,-9844.739029,459.657299,518.144159
1285.709776,-11547.212695,1685.410096,1628.453072
1285.710088,-11991.336260,1378.971896,1480.411884
1285.710399,-11621.233289,842.705048,1776.494261
1285.710711,-9844.739029,536.266849,1628.453072
1285.711022,-8438.347739,689.485948,962.267725
1285.711334,-7402.059420,383.047749,-74.020594
1285.711645,-6217.729913,0.000000,-518.144159
1285.711956,-6365.771101,-689.485948,-370.102971
1285.712268,-8068.244768,-1302.362347,-74.020594
1285.712579,-9992.780217,-766.095498,518.144159
1285.712891,-10881.027347,-229.828649,814.226536
1285.713202,-10881.027347,-459.657299,962.267725
1285.713514,-9992.780217,-842.705048,740.205942
1285.713825,-8882.471304,-612.876398,-0.000000
1285.714137,-7920.203579,-459.657299,-0.000000
1285.714448,-7179.997637,-229.828649,-0.000000
1285.714759,-7105.977043,-153.219100,370.102971
1285.715071,-8216.285956,-459.657299,592.164754
1285.715382,-9030.512492,-536.266849,1184.329507
1285.715694,-9474.636058,-459.657299,888.247130
1285.716005,-8956.491898,0.000000,1184.329507
1285.716317,-8882.471304,-383.047749,1036.288319
1285.716628,-8216.285956,-842.705048,518.144159
1285.716939,-7698.141797,-1302.362347,444.123565
1285.717251,-7402.059420,-766.095498,222.061783
1285.717562,-7846.182985,-1378.971896,-148.041188
1285.717874,-8808.450710,-842.705048,296.082377
1285.718185,-9844.739029,-306.438199,74.020594
1285.718497,-10214.842000,153.219100,814.226536
1285.718808,-10436.903782,459.657299,592.164754
1285.719119,-10362.883188,306.438199,666.185348
1285.719431,-9178.553681,153.219100,666.185348
1285.719742,-7846.182985,0.000000,-74.020594
1285.720054,-6809.894666,-153.219100,-296.082377
1285.720365,-6513.812290,-229.828649,-222.061783
1285.720677,-8438.347739,-995.924147,-740.205942
1285.720988,-9844.739029,-1149.143247,-0.000000
1285.721299,-11103.089130,-306.438199,444.123565
1285.721611,-11917.315666,459.657299,1332.370696
1285.721922,-12583.501014,76.609550,1554.432478
1285.722234,-11917.315666,-306.438199,1332.370696
1285.722545,-9622.677246,1149.143247,1628.453072
1285.722857,-7254.018232,842.705048,888.247130
1285.723168,-5995.668130,153.219100,370.102971
1285.723480,-6069.688724,-842.705048,-74.020594
1285.723791,-6735.874072,-612.876398,-0.000000
1285.724103,-7772.162391,76.609550,-74.020594
1285.724414,-9474.636058,459.657299,-0.000000
1285.724726,-11177.109724,536.266849,-74.020594
1285.725037,-12065.356855,612.876398,-74.020594
1285.725349,-10214.842000,153.219100,222.061783
1285.725660,-8438.347739,153.219100,444.123565
1285.725972,-7624.121203,229.828649,518.144159
1285.726283,-7179.997637,-536.266849,592.164754
1285.726595,-7179.997637,-1532.190996,888.247130
1285.726906,-7105.977043,-1072.533697,1036.288319
1285.727218,-7476.080014,229.828649,1110.308913
1285.727529,-8808.450710,383.047749,1110.308913
1285.727841,-9474.636058,0.000000,592.164754
1285.728152,-8956.491898,-612.876398,592.164754
1285.728464,-8068.244768,-766.095498,592.164754
1285.728775,-7994.224174,-766.095498,444.123565
1285.729087,-8586.388927,-842.705048,222.061783
1285.729398,-8808.450710,-1225.752797,296.082377
1285.729710,-9326.594869,-995.924147,444.123565
1285.730021,-9400.615463,229.828649,666.185348
1285.730333,-10214.842000,919.314598,444.123565
1285.730644,-10288.862594,1302.362347,-0.000000
1285.730956,-9770.718434,995.924147,148.041188
1285.731267,-8586.388927,1149.143247,-370.102971
1285.731579,-7254.018232,1225.752797,-666.185348
1285.731890,-6439.791695,919.314598,-370.102971
1285.732202,-7476.080014,-536.266849,-222.061783
1285.732514,-8956.491898,-612.876398,-0.000000
1285.732825,-9918.759623,0.000000,518.144159
1285.733137,-11621.233289,842.705048,888.247130
1285.733448,-12213.398043,1302.362347,1554.432478
1285.733760,-11547.212695,1378.971896,1184.329507
1285.734071,-9992.780217,766.095498,1036.288319
1285.734383,-8512.368333,1225.752797,1258.350101
1285.734694,-6883.915261,919.314598,222.061783
1285.735006,-6587.832884,842.705048,-370.102971
1285.735317,-7179.997637,0.000000,-370.102971
1285.735629,-8142.265362,-306.438199,-74.020594
1285.735940,-9178.553681,229.828649,-74.020594
1285.736252,-10732.986159,1225.752797,-0.000000
1285.736563,-10436.903782,689.485948,814.226536
1285.736875,-10510.924376,0.000000,1036.288319
1285.737186,-8956.491898,0.000000,1702.473667
1285.737498,-7698.141797,-306.438199,1110.308913
1285.737809,-7772.162391,-383.047749,444.123565
1285.738121,-7031.956449,-459.657299,740.205942
1285.738432,-7105.977043,-766.095498,444.123565
1285.738744,-7994.224174,-919.314598,666.185348
1285.739055,-9030.512492,-459.657299,518.144159
1285.739367,-9918.759623,229.828649,740.205942
1285.739678,-9844.739029,-383.047749,1184.329507
1285.739990,-9844.739029,-536.266849,1110.308913
1285.740301,-9178.553681,-612.876398,1258.350101
1285.740613,-8216.285956,-842.705048,666.185348
1285.740924,-7994.224174,-995.924147,592.164754
1285.741236,-7402.059420,-612.876398,148.041188
1285.741547,-8438.347739,153.219100,148.041188
1285.741859,-9178.553681,919.314598,592.164754
1285.742170,-10436.903782,0.000000,370.102971
1285.742482,-9696.697840,612.876398,740.205942
1285.742793,-8956.491898,536.266849,444.123565
1285.743105,-9030.512492,-612.876398,222.061783
1285.743416,-7402.059420,153.219100,148.041188
1285.743728,-7920.203579,-536.266849,-444.123565
1285.744039,-7994.224174,-383.047749,-0.000000
1285.744351,-9104.533087,-919.314598,-0.000000
1285.744663,-10807.006753,-229.828649,-74.020594
1285.744974,-11473.192101,383.047749,1258.350101
1285.745286,-11843.295072,919.314598,1850.514855
1285.745597,-11621.233289,612.876398,1850.514855
1285.745909,-10066.800811,612.876398,1480.411884
1285.746220,-8216.285956,536.266849,888.247130
1285.746532,-6291.750507,306.438199,592.164754
1285.746843,-5181.441594,459.657299,-0.000000
1285.747155,-5995.668130,-383.047749,-666.185348
1285.747466,-7254.018232,-536.266849,-444.123565
1285.747778,-9178.553681,0.000000,222.061783
1285.748089,-10584.944971,459.657299,370.102971
1285.748401,-11695.253884,919.314598,666.185348
1285.748712,-11177.109724,306.438199,1110.308913
1285.749024,-9400.615463,153.219100,1110.308913
1285.749335,-7846.182985,153.219100,740.205942
1285.749647,-7179.997637,153.219100,370.102971
1285.749958,-6809.894666,-766.095498,444.123565
1285.750270,-6883.915261,-1149.143247,592.164754
1285.750581,-8068.244768,-766.095498,518.144159
1285.750893,-9474.636058,306.438199,740.205942
1285.751204,-9918.759623,612.876398,1406.391290
1285.751516,-10362.883188,-153.219100,1110.308913
1285.751827,-9474.636058,-995.924147,1332.370696
1285.752139,-8734.430116,-689.485948,666.185348
1285.752450,-8660.409521,-612.876398,518.144159
1285.752762,-8216.285956,-536.266849,592.164754
1285.753073,-8364.327145,-612.876398,-0.000000
1285.753385,-8142.265362,-383.047749,592.164754
1285.753696,-9400.615463,459.657299,222.061783
1285.754008,-10066.800811,842.705048,-0.000000
1285.754319,-9474.636058,919.314598,592.164754
1285.754631,-9104.533087,229.828649,740.205942
1285.754942,-8068.244768,-383.047749,-148.041188
1285.755254,-7698.141797,-306.438199,-222.061783
1285.755565,-7624.121203,-766.095498,-592.164754
1285.755877,-8142.265362,-995.924147,-296.082377
1285.756189,-9400.615463,-842.705048,-148.041188
1285.756500,-10436.903782,-229.828649,740.205942
1285.756812,-11251.130318,536.266849,1258.350101
1285.757123,-11695.253884,536.266849,1554.432478
1285.757435,-11103.089130,383.047749,1850.514855
1285.757746,-9474.636058,306.438199,1036.288319
1285.758058,-7328.038826,689.485948,740.205942
1285.758369,-6291.750507,612.876398,444.123565
1285.758681,-5995.668130,0.000000,-518.144159
1285.758992,-7105.977043,-229.828649,-1110.308913
1285.759304,-8142.265362,-229.828649,-666.185348
1285.759615,-9548.656652,229.828649,-296.082377
1285.759927,-10732.986159,995.924147,-222.061783
1285.760238,-11325.150913,995.924147,222.061783
1285.760550,-10807.006753,536.266849,-0.000000
1285.760861,-9622.677246,766.095498,370.102971
1285.761173,-7402.059420,612.876398,962.267725
1285.761484,-7031.956449,0.000000,592.164754
1285.761796,-6587.832884,-995.924147,888.247130
1285.762107,-7476.080014,-1685.410096,814.226536
1285.762419,-8956.491898,-1072.533697,592.164754
1285.762730,-9992.780217,383.047749,592.164754
1285.763042,-9992.780217,1532.190996,666.185348
1285.763353,-9992.780217,-536.266849,740.205942
1285.763665,-9104.533087,0.000000,962.267725
1285.763976,-8586.388927,-536.266849,740.205942
1285.764288,-8068.244768,383.047749,592.164754
1285.764599,-7846.182985,153.219100,444.123565
1285.764911,-8438.347739,459.657299,296.082377
1285.765222,-8734.430116,919.314598,592.164754
1285.765534,-8734.430116,766.095498,296.082377
1285.765845,-8660.409521,536.266849,666.185348
1285.766157,-9104.533087,229.828649,740.205942
1285.766468,-8216.285956,-229.828649,444.123565
1285.766780,-8068.244768,-766.095498,-0.000000
1285.767091,-7920.203579,-612.876398,-0.000000
1285.767403,-8068.244768,-536.266849,-74.020594
1285.767714,-8438.347739,-995.924147,-0.000000
1285.768026,-9770.718434,-1455.581446,-0.000000
1285.768338,-11177.109724,0.000000,444.123565
1285.768649,-11991.336260,1378.971896,1036.288319
1285.768961,-12287.418637,842.705048,1554.432478
1285.769272,-10732.986159,383.047749,1702.473667
1285.769584,-8660.409521,-306.438199,1258.350101
1285.769895,-6513.812290,-612.876398,814.226536
1285.770207,-5699.585753,-919.314598,-74.020594
1285.770518,-5477.523971,-459.657299,-518.144159
1285.770830,-6513.812290,-1378.971896,-222.061783
1285.771141,-8068.244768,-1455.581446,222.061783
1285.771453,-10140.821405,0.000000,296.082377
1285.771764,-11991.336260,536.266849,592.164754
1285.772076,-12583.501014,612.876398,814.226536
1285.772387,-11473.192101,306.438199,1480.411884
1285.772699,-9178.553681,459.657299,1332.370696
1285.773010,-7624.121203,76.609550,1184.329507
1285.773322,-6735.874072,-1378.971896,1110.308913
1285.773633,-6439.791695,-1915.238745,1184.329507
1285.773945,-7179.997637,-919.314598,1110.308913
1285.774256,-8142.265362,-153.219100,592.164754
1285.774568,-10140.821405,536.266849,814.226536
1285.774879,-11103.089130,536.266849,1184.329507
1285.775191,-10584.944971,229.828649,1702.473667
1285.775502,-8660.409521,-459.657299,1406.391290
1285.775814,-8142.265362,0.000000,962.267725
1285.776125,-7254.018232,-153.219100,370.102971
1285.776437,-7031.956449,153.219100,296.082377
1285.776748,-7624.121203,229.828649,222.061783
1285.777060,-8068.244768,689.485948,296.082377
1285.777371,-8882.471304,919.314598,296.082377
1285.777683,-9844.739029,1072.533697,518.144159
1285.777994,-9548.656652,306.438199,444.123565
1285.778306,-8734.430116,-689.485948,518.144159
1285.778617,-7846.182985,-995.924147,814.226536
1285.778929,-8216.285956,-1302.362347,222.061783
1285.779240,-8142.265362,-1225.752797,-222.061783
1285.779552,-8512.368333,-1149.143247,-0.000000
1285.779863,-9474.636058,-766.095498,518.144159
1285.780175,-10584.944971,0.000000,1110.308913
1285.780487,-11473.192101,1302.362347,1850.514855
1285.780798,-10881.027347,1149.143247,1702.473667
1285.781110,-9844.739029,842.705048,1480.411884
1285.781421,-8068.244768,459.657299,1258.350101
1285.781733,-6217.729913,76.609550,-0.000000
1285.782044,-5773.606348,-842.705048,-962.267725
1285.782356,-6069.688724,-919.314598,-1480.411884
1285.782667,-7624.121203,-536.266849,-1628.453072
1285.782979,-9030.512492,-229.828649,-1184.329507
1285.783290,-11251.130318,153.219100,-370.102971
1285.783602,-12583.501014,0.000000,148.041188
1285.783913,-12361.439231,-766.095498,592.164754
1285.784225,-10658.965565,-919.314598,1036.288319
1285.784536,-8438.347739,-919.314598,962.267725
1285.784848,-6883.915261,-1378.971896,370.102971
1285.785159,-7105.977043,-1915.238745,444.123565
1285.785471,-7550.100608,-2757.943793,222.061783
1285.785782,-8068.244768,-1915.238745,74.020594
1285.786094,-9844.739029,-919.314598,518.144159
1285.786405,-11251.130318,-689.485948,666.185348
1285.786717,-11843.295072,-536.266849,444.123565
1285.787028,-10955.047942,0.000000,740.205942
1285.787340,-8734.430116,76.609550,814.226536
1285.787651,-7920.203579,919.314598,592.164754
1285.787963,-7920.203579,1149.143247,-444.123565
1285.788274,-7254.018232,1532.190996,-222.061783
1285.788586,-7179.997637,1225.752797,-0.000000
1285.788897,-7031.956449,1225.752797,814.226536
1285.789209,-8956.491898,536.266849,222.061783
1285.789520,-9770.718434,766.095498,222.061783
1285.789832,-9252.574275,153.219100,-148.041188
1285.790143,-9474.636058,383.047749,592.164754
1285.790455,-8290.306550,76.609550,-0.000000
1285.790766,-7846.182985,-612.876398,-296.082377
1285.791078,-8586.388927,-1072.533697,518.144159
1285.791389,-9030.512492,-842.705048,1184.329507
1285.791701,-10362.883188,0.000000,1184.329507
1285.792013,-10658.965565,1685.410096,1776.494261
1285.792324,-10807.006753,2528.115143,1998.556043
1285.792636,-9474.636058,919.314598,1998.556043
1285.792947,-8586.388927,919.314598,1406.391290
1285.793259,-7254.018232,1532.190996,962.267725
1285.793570,-5847.626942,1072.533697,518.144159
1285.793882,-5921.647536,0.000000,-444.123565
1285.794193,-6957.935855,-689.485948,-740.205942
1285.794505,-8216.285956,-229.828649,-592.164754
1285.794816,-9104.533087,383.047749,-518.144159
1285.795128,-10510.924376,1149.143247,592.164754
1285.795439,-11177.109724,1072.533697,888.247130
1285.795751,-10658.965565,0.000000,1332.370696
1285.796062,-9178.553681,-229.828649,1924.535449
1285.796374,-7254.018232,-689.485948,1628.453072
1285.796685,-6439.791695,-995.924147,1184.329507
1285.796997,-6587.832884,-1762.019645,444.123565
1285.797308,-7476.080014,-2451.505594,-0.000000
1285.797620,-8586.388927,-1762.019645,444.123565
1285.797931,-10288.862594,-306.438199,888.247130
1285.798243,-11399.171507,0.000000,1036.288319
1285.798554,-11547.212695,-919.314598,1554.432478
1285.798866,-10732.986159,-919.314598,1480.411884
1285.799177,-8734.430116,383.047749,888.247130
1285.799489,-7698.141797,1455.581446,444.123565
1285.799800,-7698.141797,0.000000,-148.041188
1285.800112,-7328.038826,-536.266849,-222.061783
1285.800423,-7550.100608,-306.438199,-0.000000
1285.800735,-8290.306550,-153.219100,148.041188
1285.801046,-9400.615463,-689.485948,444.123565
1285.801358,-10214.842000,-1149.143247,370.102971
1285.801669,-9696.697840,-1532.190996,814.226536
1285.801981,-9252.574275,-1225.752797,-74.020594
1285.802292,-8882.471304,-919.314598,-222.061783
1285.802604,-9104.533087,-689.485948,-296.082377
1285.802915,-9252.574275,-995.924147,-222.061783
1285.803227,-9844.739029,-536.266849,296.082377
1285.803538,-10140.821405,689.485948,518.144159
1285.803850,-11103.089130,1608.800546,1110.308913
1285.804162,-11029.068536,1838.629195,888.247130
1285.804473,-9474.636058,1378.971896,1036.288319
1285.804785,-8216.285956,229.828649,814.226536
1285.805096,-6883.915261,766.095498,148.041188
1285.805408,-6883.915261,306.438199,-0.000000
1285.805719,-7031.956449,0.000000,-592.164754
1285.806031,-7846.182985,0.000000,-666.185348
1285.806342,-8068.244768,76.609550,-296.082377
1285.806654,-9252.574275,766.095498,-444.123565
1285.806965,-9992.780217,536.266849,-0.000000
1285.807277,-9622.677246,766.095498,444.123565
1285.807588,-9992.780217,383.047749,666.185348
1285.807900,-8512.368333,306.438199,1406.391290
1285.808211,-7402.059420,306.438199,1184.329507
1285.808523,-6883.915261,-689.485948,1184.329507
1285.808834,-7105.977043,-1838.629195,296.082377
1285.809146,-7402.059420,-2374.896044,518.144159
1285.809457,-7698.141797,-1225.752797,814.226536
1285.809769,-9992.780217,-842.705048,962.267725
1285.810080,-10955.047942,-306.438199,1258.350101
1285.810392,-10881.027347,-536.266849,1332.370696
1285.810703,-9918.759623,-459.657299,1628.453072
1285.811015,-8512.368333,153.219100,1110.308913
1285.811326,-7031.956449,459.657299,592.164754
1285.811638,-7031.956449,306.438199,222.061783
1285.811949,-6365.771101,-306.438199,518.144159
1285.812261,-7105.977043,0.000000,444.123565
1285.812572,-8586.388927,-76.609550,518.144159
1285.812884,-9844.739029,0.000000,592.164754
1285.813195,-10584.944971,-689.485948,296.082377
1285.813507,-10584.944971,-459.657299,-0.000000
1285.813818,-10362.883188,0.000000,-370.102971
1285.814130,-9178.553681,0.000000,-592.164754
1285.814441,-9326.594869,0.000000,-370.102971
1285.814753,-9104.533087,-153.219100,-0.000000
1285.815064,-10066.800811,-306.438199,518.144159
1285.815376,-10288.862594,612.876398,1480.411884
1285.815688,-10732.986159,1378.971896,1554.432478
1285.815999,-10584.944971,1072.533697,1702.473667
1285.816311,-9622.677246,306.438199,1628.453072
1285.816622,-8512.368333,-459.657299,740.205942
1285.816934,-6883.915261,995.924147,222.061783
1285.817245,-6957.935855,459.657299,-888.247130
1285.817557,-7402.059420,0.000000,-1036.288319
1285.817868,-8216.285956,0.000000,-740.205942
1285.818180,-9252.574275,229.828649,-148.041188
1285.818491,-10288.862594,842.705048,-0.000000
1285.818803,-10881.027347,1991.848295,444.123565
1285.819114,-9992.780217,1608.800546,666.185348
1285.819426,-8068.244768,995.924147,740.205942
1285.819737,-7105.977043,536.266849,370.102971
1285.820049,-6513.812290,229.828649,592.164754
1285.820360,-6513.812290,0.000000,518.144159
1285.820672,-7328.038826,-1302.362347,370.102971
1285.820983,-8216.285956,-1378.971896,370.102971
1285.821295,-9030.512492,-383.047749,518.144159
1285.821606,-10288.862594,689.485948,1332.370696
1285.821918,-10881.027347,306.438199,1036.288319
1285.822229,-10066.800811,153.219100,1110.308913
1285.822541,-8808.450710,766.095498,962.267725
1285.822852,-7328.038826,1225.752797,888.247130
1285.823164,-7402.059420,612.876398,370.102971
1285.823475,-7105.977043,459.657299,222.061783
1285.823787,-6957.935855,76.609550,370.102971
1285.824098,-8142.265362,0.000000,296.082377
1285.824410,-8808.450710,-536.266849,-0.000000
1285.824721,-10510.924376,-459.657299,296.082377
1285.825033,-10881.027347,-1149.143247,444.123565
1285.825344,-10066.800811,-1608.800546,296.082377
1285.825656,-9474.636058,-842.705048,296.082377
1285.825967,-9178.553681,-689.485948,-0.000000
1285.826279,-8882.471304,-1072.533697,666.185348
1285.826590,-9474.636058,-1608.800546,1036.288319
1285.826901,-9326.594869,-995.924147,1258.350101
1285.827212,-9474.636058,536.266849,1776.494261
1285.827524,-10140.821405,689.485948,1776.494261
1285.827835,-10584.944971,306.438199,1776.494261
1285.828146,-9104.533087,229.828649,814.226536
1285.828458,-8142.265362,229.828649,-0.000000
1285.828769,-7402.059420,689.485948,518.144159
1285.829080,-7179.997637,459.657299,-370.102971
1285.829391,-8364.327145,-1225.752797,-592.164754
1285.829703,-9104.533087,-1532.190996,222.061783
1285.830014,-9918.759623,-612.876398,370.102971
1285.830325,-10362.883188,612.876398,666.185348
1285.830637,-10214.842000,995.924147,370.102971
1285.830948,-9252.574275,995.924147,370.102971
1285.831259,-7624.121203,612.876398,888.247130
1285.831570,-6365.771101,153.219100,370.102971
1285.831882,-5921.647536,0.000000,370.102971
1285.832193,-6883.915261,-536.266849,444.123565
1285.832504,-7994.224174,-1532.190996,444.123565
1285.832816,-8956.491898,-1149.143247,592.164754
1285.833127,-10658.965565,-842.705048,444.123565
1285.833438,-11399.171507,0.000000,814.226536
1285.833749,-11399.171507,0.000000,740.205942
1285.834061,-10584.944971,76.609550,-0.000000
1285.834372,-8808.450710,1149.143247,1036.288319
1285.834683,-7624.121203,766.095498,740.205942
1285.834995,-6513.812290,153.219100,666.185348
1285.835306,-6217.729913,-153.219100,518.144159
1285.835617,-6513.812290,306.438199,-0.000000
1285.835928,-7550.100608,0.000000,-0.000000
1285.836240,-9252.574275,306.438199,-0.000000
1285.836551,-9622.677246,0.000000,-0.000000
1285.836862,-10584.944971,-536.266849,-148.041188
1285.837174,-10362.883188,-1149.143247,370.102971
1285.837485,-9622.677246,-229.828649,-0.000000
1285.837796,-9178.553681,-306.438199,-0.000000
1285.838107,-8068.244768,-536.266849,296.082377
1285.838419,-9474.636058,-1225.752797,222.061783
1285.838730,-9252.574275,-229.828649,1406.391290
1285.839041,-9696.697840,995.924147,1480.411884
1285.839353,-10436.903782,612.876398,1702.473667
1285.839664,-9918.759623,0.000000,1702.473667
1285.839975,-9326.594869,-1072.533697,1332.370696
1285.840286,-8364.327145,-842.705048,962.267725
1285.840598,-7254.018232,-842.705048,222.061783
1285.840909,-7105.977043,-842.705048,-370.102971
1285.841220,-7698.141797,-1532.190996,-518.144159
1285.841532,-8882.471304,-1991.848295,-296.082377
1285.841843,-9548.656652,-306.438199,-0.000000
1285.842154,-10510.924376,766.095498,444.123565
1285.842465,-10510.924376,1072.533697,740.205942
1285.842777,-10214.842000,536.266849,518.144159
1285.843088,-9178.553681,-306.438199,814.226536
1285.843399,-6957.935855,76.609550,592.164754
1285.843711,-6735.874072,0.000000,666.185348
1285.844022,-7105.977043,-1915.238745,518.144159
1285.844333,-8216.285956,-3447.429741,444.123565
1285.844645,-9770.718434,-2834.553343,592.164754
1285.844956,-11029.068536,-612.876398,444.123565
1285.845267,-12065.356855,919.314598,296.082377
1285.845578,-12213.398043,1378.971896,740.205942
1285.845890,-11251.130318,1225.752797,-222.061783
1285.846201,-8586.388927,1608.800546,444.123565
1285.846512,-7031.956449,1762.019645,370.102971
1285.846824,-6513.812290,1608.800546,74.020594
1285.847135,-5921.647536,766.095498,-0.000000
1285.847446,-6513.812290,229.828649,-0.000000
1285.847757,-7254.018232,306.438199,-0.000000
1285.848069,-9178.553681,1455.581446,-592.164754
1285.848380,-11029.068536,689.485948,-592.164754
1285.848691,-11251.130318,76.609550,-74.020594
1285.849003,-9992.780217,-306.438199,370.102971
1285.849314,-9252.574275,153.219100,-0.000000
1285.849625,-8438.347739,229.828649,222.061783
1285.849936,-8216.285956,-306.438199,-0.000000
1285.850248,-8068.244768,153.219100,814.226536
1285.850559,-8142.265362,1149.143247,962.267725
1285.850870,-8956.491898,2374.896044,518.144159
1285.851182,-9696.697840,1532.190996,962.267725
1285.851493,-9400.615463,459.657299,1036.288319
1285.851804,-7846.182985,-612.876398,814.226536
1285.852115,-7031.956449,-536.266849,444.123565
1285.852427,-7105.977043,-306.438199,-0.000000
1285.852738,-7920.203579,-1608.800546,-0.000000
1285.853049,-8586.388927,-2145.067394,-444.123565
1285.853361,-9326.594869,-536.266849,444.123565
1285.853672,-10510.924376,306.438199,740.205942
1285.853983,-11029.068536,1225.752797,1036.288319
1285.854294,-10362.883188,1302.362347,1184.329507
1285.854606,-9178.553681,76.609550,814.226536
1285.854917,-7402.059420,76.609550,1184.329507
1285.855228,-6735.874072,-229.828649,1184.329507
1285.855540,-6883.915261,-1378.971896,666.185348
1285.855851,-7698.141797,-1532.190996,222.061783
1285.856162,-9104.533087,-2604.724693,592.164754
1285.856473,-10436.903782,-2221.676944,666.185348
1285.856785,-12509.480420,-689.485948,666.185348
1285.857096,-13545.768739,612.876398,1036.288319
1285.857407,-13027.624579,153.219100,1480.411884
1285.857719,-11251.130318,842.705048,1258.350101
1285.858030,-9252.574275,536.266849,1110.308913
1285.858341,-7031.956449,689.485948,296.082377
1285.858652,-5329.482782,536.266849,-370.102971
1285.858964,-5033.400406,229.828649,-0.000000
1285.859275,-5699.585753,153.219100,-74.020594
1285.859586,-7698.141797,-306.438199,-0.000000
1285.859898,-10288.862594,-229.828649,-0.000000
1285.860209,-11547.212695,76.609550,370.102971
1285.860520,-11029.068536,229.828649,592.164754
1285.860831,-10732.986159,153.219100,222.061783
1285.861143,-9030.512492,919.314598,148.041188
1285.861454,-7846.182985,76.609550,148.041188
1285.861765,-7105.977043,-459.657299,666.185348
1285.862077,-6883.915261,-612.876398,1184.329507
1285.862388,-7031.956449,153.219100,1184.329507
1285.862699,-8216.285956,383.047749,1702.473667
1285.863011,-8586.388927,-306.438199,1702.473667
1285.863322,-8512.368333,-536.266849,1406.391290
1285.863633,-7920.203579,-612.876398,1036.288319
1285.863944,-7550.100608,-229.828649,370.102971
1285.864256,-8068.244768,153.219100,-296.082377
1285.864567,-8216.285956,0.000000,-444.123565
1285.864878,-8734.430116,0.000000,-296.082377
1285.865190,-9696.697840,0.000000,-666.185348
1285.865501,-9918.759623,1149.143247,-0.000000
1285.865812,-10362.883188,2221.676944,-222.061783
1285.866123,-9844.739029,1455.581446,-0.000000
1285.866435,-8364.327145,0.000000,444.123565
1285.866746,-7105.977043,-995.924147,444.123565
1285.867057,-6883.915261,-1378.971896,518.144159
1285.867369,-7994.224174,-1838.629195,-0.000000
1285.867680,-9474.636058,-2374.896044,370.102971
1285.867991,-11029.068536,-2757.943793,444.123565
1285.868302,-11991.336260,-1915.238745,518.144159
1285.868614,-13249.686362,-995.924147,518.144159
1285.868925,-12953.603985,0.000000,1110.308913
1285.869236,-12361.439231,0.000000,814.226536
1285.869548,-10066.800811,383.047749,1258.350101
1285.869859,-8808.450710,153.219100,222.061783
1285.870170,-6735.874072,0.000000,962.267725
1285.870481,-5699.585753,-766.095498,370.102971
1285.870793,-6069.688724,-919.314598,-0.000000
1285.871104,-6735.874072,-842.705048,-0.000000
1285.871415,-8364.327145,-383.047749,-0.000000
1285.871727,-10436.903782,-153.219100,-0.000000
1285.872038,-11103.089130,0.000000,-0.000000
1285.872349,-10658.965565,229.828649,-0.000000
1285.872660,-9548.656652,612.876398,-0.000000
1285.872972,-8734.430116,919.314598,-0.000000
1285.873283,-7698.141797,995.924147,148.041188
1285.873594,-7105.977043,306.438199,518.144159
1285.873906,-6883.915261,-153.219100,962.267725
1285.874217,-6809.894666,306.438199,1332.370696
1285.874528,-7920.203579,689.485948,1554.432478
1285.874839,-9178.553681,-306.438199,1406.391290
1285.875151,-9326.594869,-229.828649,666.185348
1285.875462,-8734.430116,229.828649,888.247130
1285.875773,-8290.306550,153.219100,592.164754
1285.876085,-8364.327145,-229.828649,148.041188
1285.876396,-8882.471304,-306.438199,148.041188
1285.876707,-8808.450710,-229.828649,-0.000000
1285.877018,-9030.512492,995.924147,-0.000000
1285.877330,-9252.574275,2068.457845,-0.000000
1285.877641,-9622.677246,1915.238745,222.061783
1285.877952,-8808.450710,1608.800546,148.041188
1285.878264,-7402.059420,995.924147,148.041188
1285.878575,-6735.874072,919.314598,370.102971
1285.878886,-6217.729913,306.438199,592.164754
1285.879198,-7698.141797,-995.924147,-0.000000
1285.879509,-9178.553681,-1838.629195,518.144159
1285.879820,-10362.883188,-1532.190996,666.185348
1285.880131,-12065.356855,153.219100,888.247130
1285.880443,-13397.727550,995.924147,888.247130
1285.880754,-12805.562797,766.095498,1036.288319
1285.881065,-11325.150913,306.438199,1110.308913
1285.881377,-8290.306550,919.314598,962.267725
1285.881688,-7031.956449,1378.971896,1110.308913
1285.881999,-5699.585753,383.047749,1480.411884
1285.882310,-5551.544565,0.000000,-74.020594
1285.882622,-6291.750507,-306.438199,370.102971
1285.882933,-7476.080014,-229.828649,74.020594
1285.883244,-10140.821405,-229.828649,370.102971
1285.883556,-12287.418637,-306.438199,296.082377
1285.883867,-11843.295072,-459.657299,296.082377
1285.884178,-10807.006753,383.047749,-74.020594
1285.884489,-9474.636058,536.266849,-0.000000
1285.884801,-8142.265362,459.657299,-0.000000
1285.885112,-7476.080014,-689.485948,444.123565
1285.885423,-6883.915261,-1149.143247,962.267725
1285.885735,-7105.977043,-459.657299,1628.453072
1285.886046,-8142.265362,306.438199,1480.411884
1285.886357,-8734.430116,0.000000,1480.411884
1285.886668,-9548.656652,-766.095498,962.267725
1285.886980,-9104.533087,-995.924147,666.185348
1285.887291,-8364.327145,-536.266849,592.164754
1285.887602,-8068.244768,-153.219100,74.020594
1285.887914,-8660.409521,-766.095498,-74.020594
1285.888225,-9030.512492,-1378.971896,370.102971
1285.888536,-8734.430116,-306.438199,370.102971
1285.888847,-9474.636058,612.876398,592.164754
1285.889159,-9770.718434,1608.800546,222.061783
1285.889470,-9400.615463,1378.971896,370.102971
1285.889781,-8808.450710,306.438199,-0.000000
1285.890093,-6957.935855,-306.438199,148.041188
1285.890404,-6365.771101,-306.438199,-0.000000
1285.890715,-7105.977043,-995.924147,-74.020594
1285.891026,-7994.224174,-1225.752797,148.041188
1285.891338,-9844.739029,-1685.410096,370.102971
1285.891649,-10658.965565,-689.485948,814.226536
1285.891960,-12139.377449,153.219100,1332.370696
1285.892272,-12287.418637,766.095498,1110.308913
1285.892583,-11621.233289,766.095498,740.205942
1285.892894,-9844.739029,1149.143247,740.205942
1285.893205,-7698.141797,1455.581446,592.164754
1285.893517,-6883.915261,1225.752797,-0.000000
1285.893828,-6069.688724,-842.705048,-0.000000
1285.894139,-6291.750507,-1225.752797,370.102971
1285.894451,-7698.141797,-1302.362347,370.102971
1285.894762,-9548.656652,-306.438199,-0.000000
1285.895073,-11621.233289,536.266849,-0.000000
1285.895384,-12361.439231,766.095498,222.061783
1285.895696,-11547.212695,689.485948,962.267725
1285.896007,-10362.883188,612.876398,814.226536
1285.896318,-8808.450710,1455.581446,888.247130
1285.896630,-7179.997637,1225.752797,296.082377
1285.896941,-6587.832884,-153.219100,222.061783
1285.897252,-6217.729913,-459.657299,518.144159
1285.897564,-6883.915261,-229.828649,592.164754
1285.897875,-8216.285956,306.438199,1036.288319
1285.898186,-10436.903782,0.000000,1258.350101
1285.898497,-10881.027347,-536.266849,2072.576638
1285.898809,-10288.862594,-612.876398,1258.350101
1285.899120,-9104.533087,-1225.752797,1258.350101
1285.899431,-7846.182985,-919.314598,1110.308913
1285.899743,-7476.080014,-919.314598,296.082377
1285.900054,-7550.100608,-612.876398,222.061783
1285.900365,-8068.244768,-459.657299,592.164754
1285.900676,-8586.388927,0.000000,370.102971
1285.900988,-8512.368333,1302.362347,592.164754
1285.901299,-8660.409521,612.876398,370.102971
1285.901610,-8290.306550,-689.485948,296.082377
1285.901922,-7550.100608,-1378.971896,222.061783
1285.902233,-6957.935855,-1149.143247,296.082377
1285.902544,-7550.100608,-1378.971896,370.102971
1285.902855,-9104.533087,-2451.505594,296.082377
1285.903167,-10881.027347,-3140.991542,740.205942
1285.903478,-10732.986159,-1915.238745,1036.288319
1285.903789,-11843.295072,0.000000,370.102971
1285.904101,-11843.295072,842.705048,740.205942
1285.904412,-11325.150913,1225.752797,444.123565
1285.904723,-9622.677246,842.705048,592.164754
1285.905034,-7402.059420,766.095498,740.205942
1285.905346,-6587.832884,306.438199,148.041188
1285.905657,-5921.647536,0.000000,-222.061783
1285.905968,-6661.853478,-919.314598,-518.144159
1285.906280,-8808.450710,-153.219100,-444.123565
1285.906591,-10436.903782,229.828649,-370.102971
1285.906902,-12065.356855,842.705048,74.020594
1285.907213,-12361.439231,919.314598,296.082377
1285.907525,-11547.212695,459.657299,518.144159
1285.907836,-9992.780217,1072.533697,-0.000000
1285.908147,-7846.182985,1762.019645,-0.000000
1285.908459,-6217.729913,842.705048,-148.041188
1285.908770,-6069.688724,153.219100,-0.000000
1285.909081,-6883.915261,153.219100,370.102971
1285.909392,-8512.368333,383.047749,444.123565
1285.909704,-9770.718434,612.876398,1184.329507
1285.910015,-10732.986159,383.047749,1184.329507
1285.910326,-10288.862594,306.438199,1184.329507
1285.910638,-10288.862594,-306.438199,1036.288319
1285.910949,-8660.409521,-153.219100,1702.473667
1285.911260,-7550.100608,-306.438199,740.205942
1285.911571,-7328.038826,-306.438199,592.164754
1285.911883,-7402.059420,-306.438199,518.144159
1285.912194,-7772.162391,76.609550,370.102971
1285.912505,-8438.347739,536.266849,814.226536
1285.912817,-8660.409521,1532.190996,-0.000000
1285.913128,-8808.450710,689.485948,222.061783
1285.913439,-7402.059420,536.266849,592.164754
1285.913750,-7105.977043,-229.828649,-0.000000
1285.914062,-7105.977043,-766.095498,148.041188
1285.914373,-7994.224174,-1455.581446,-74.020594
1285.914684,-8808.450710,-1915.238745,592.164754
1285.914996,-9696.697840,-1838.629195,296.082377
1285.915307,-10807.006753,-1149.143247,1110.308913
1285.915618,-11325.150913,-1532.190996,1480.411884
1285.915930,-11991.336260,-919.314598,1850.514855
1285.916241,-10881.027347,-1762.019645,2220.617826
1285.916552,-8660.409521,-766.095498,1628.453072
1285.916863,-7550.100608,-842.705048,1406.391290
1285.917175,-6291.750507,-1455.581446,888.247130
1285.917486,-6143.709319,-2145.067394,-0.000000
1285.917797,-7476.080014,-1608.800546,-0.000000
1285.918109,-8882.471304,-153.219100,444.123565
1285.918420,-10807.006753,612.876398,-148.041188
1285.918731,-12361.439231,995.924147,444.123565
1285.919042,-12509.480420,995.924147,1036.288319
1285.919354,-11251.130318,536.266849,518.144159
1285.919665,-9474.636058,1072.533697,-0.000000
1285.919976,-7550.100608,2145.067394,-444.123565
1285.920288,-6735.874072,1915.238745,-444.123565
1285.920599,-7031.956449,689.485948,-222.061783
1285.920910,-6957.935855,-842.705048,666.185348
1285.921221,-7994.224174,-536.266849,814.226536
1285.921533,-9992.780217,-459.657299,1406.391290
1285.921844,-10881.027347,-612.876398,1702.473667
1285.922155,-10881.027347,-383.047749,1332.370696
1285.922467,-9844.739029,0.000000,962.267725
1285.922778,-8364.327145,0.000000,666.185348
1285.923089,-7846.182985,0.000000,-0.000000
1285.923400,-7698.141797,0.000000,-0.000000
1285.923712,-8290.306550,0.000000,-0.000000
1285.924023,-8142.265362,689.485948,148.041188
1285.924334,-8364.327145,1302.362347,814.226536
1285.924646,-8882.471304,842.705048,666.185348
1285.924957,-8512.368333,0.000000,148.041188
1285.925268,-7698.141797,-153.219100,666.185348
1285.925579,-6809.894666,-536.266849,370.102971
1285.925891,-6957.935855,-153.219100,-74.020594
1285.926202,-7105.977043,-995.924147,222.061783
1285.926514,-8438.347739,-2298.286494,-0.000000
1285.926825,-9696.697840,-1685.410096,666.185348
1285.927136,-10362.883188,-229.828649,592.164754
1285.927448,-11325.150913,766.095498,888.247130
1285.927759,-10881.027347,842.705048,666.185348
1285.928070,-9622.677246,0.000000,962.267725
1285.928382,-7994.224174,-306.438199,814.226536
1285.928693,-7105.977043,-383.047749,518.144159
1285.929004,-7105.977043,-766.095498,370.102971
1285.929316,-7105.977043,-1532.190996,-0.000000
1285.929627,-8512.368333,-1838.629195,-0.000000
1285.929938,-9918.759623,-1149.143247,-0.000000
1285.930250,-10807.006753,-766.095498,296.082377
1285.930561,-12657.521608,0.000000,148.041188
1285.930872,-12731.542202,0.000000,296.082377
1285.931184,-11621.233289,-306.438199,222.061783
1285.931495,-9844.739029,612.876398,-0.000000
1285.931806,-7550.100608,689.485948,-222.061783
1285.932118,-6291.750507,153.219100,-74.020594
1285.932429,-6365.771101,-842.705048,296.082377
1285.932740,-7254.018232,-919.314598,814.226536
1285.933052,-9326.594869,-766.095498,592.164754
1285.933363,-10955.047942,229.828649,1332.370696
1285.933674,-11843.295072,459.657299,1258.350101
1285.933986,-11473.192101,536.266849,1036.288319
1285.934297,-9622.677246,919.314598,592.164754
1285.934608,-8290.306550,689.485948,-0.000000
1285.934920,-7550.100608,842.705048,-222.061783
1285.935231,-7105.977043,-995.924147,-0.000000
1285.935542,-7402.059420,0.000000,592.164754
1285.935854,-7994.224174,459.657299,888.247130
1285.936165,-8882.471304,995.924147,666.185348
1285.936476,-9178.553681,1072.533697,296.082377
1285.936788,-8660.409521,842.705048,-0.000000
1285.937099,-7402.059420,229.828649,-0.000000
1285.937410,-6587.832884,536.266849,-0.000000
1285.937722,-6809.894666,306.438199,370.102971
1285.938033,-7698.141797,-1225.752797,592.164754
1285.938344,-9104.533087,-1455.581446,888.247130
1285.938656,-9770.718434,-536.266849,1184.329507
1285.938967,-10140.821405,842.705048,888.247130
1285.939278,-10214.842000,1685.410096,1036.288319
1285.939590,-9992.780217,1378.971896,1406.391290
1285.939901,-9326.594869,536.266849,962.267725
1285.940212,-7698.141797,536.266849,1332.370696
1285.940524,-6735.874072,383.047749,666.185348
1285.940835,-6587.832884,-383.047749,370.102971
1285.941146,-6587.832884,-1455.581446,-148.041188
1285.941458,-7550.100608,-1072.533697,-296.082377
1285.941769,-9474.636058,-459.657299,-222.061783
1285.942080,-11029.068536,153.219100,518.144159
1285.942392,-12583.501014,536.266849,666.185348
1285.942703,-12287.418637,306.438199,888.247130
1285.943014,-10288.862594,229.828649,1036.288319
1285.943326,-8956.491898,536.266849,592.164754
1285.943637,-7105.977043,306.438199,-0.000000
1285.943948,-6217.729913,-153.219100,-0.000000
1285.944260,-6809.894666,-919.314598,370.102971
1285.944571,-7698.141797,-842.705048,592.164754
1285.944882,-9696.697840,459.657299,814.226536
1285.945194,-11103.089130,-76.609550,1258.350101
1285.945505,-11547.212695,-612.876398,1258.350101
1285.945816,-10955.047942,-383.047749,888.247130
1285.946128,-9252.574275,76.609550,814.226536
1285.946439,-8068.244768,76.609550,666.185348
1285.946750,-7772.162391,-612.876398,370.102971
1285.947062,-7624.121203,-1762.019645,814.226536
1285.947373,-7402.059420,-1532.190996,592.164754
1285.947684,-7846.182985,-459.657299,666.185348
1285.947996,-8956.491898,-383.047749,740.205942
1285.948307,-9770.718434,-383.047749,222.061783
1285.948618,-9178.553681,-842.705048,518.144159
1285.948930,-8364.327145,-612.876398,222.061783
1285.949241,-7772.162391,229.828649,370.102971
1285.949552,-8216.285956,-995.924147,222.061783
1285.949864,-8882.471304,-1225.752797,296.082377
1285.950175,-9252.574275,-1225.752797,740.205942
1285.950486,-9474.636058,0.000000,814.226536
1285.950798,-10066.800811,1149.143247,666.185348
1285.951109,-10807.006753,995.924147,814.226536
1285.951420,-10362.883188,766.095498,1184.329507
1285.951732,-8586.388927,842.705048,1110.308913
1285.952043,-6587.832884,766.095498,962.267725
1285.952354,-6587.832884,306.438199,-0.000000
1285.952666,-6513.812290,-612.876398,-0.000000
1285.952977,-7105.977043,-1378.971896,-74.020594
1285.953288,-8068.244768,-306.438199,-148.041188
1285.953600,-9918.759623,536.266849,-370.102971
1285.953911,-12287.418637,1225.752797,148.041188
1285.954222,-12953.603985,612.876398,444.123565
1285.954534,-11621.233289,383.047749,592.164754
1285.954845,-10140.821405,1072.533697,518.144159
1285.955156,-8660.409521,1532.190996,148.041188
1285.955468,-6883.915261,612.876398,370.102971
1285.955779,-6143.709319,-766.095498,-0.000000
1285.956090,-6735.874072,-459.657299,518.144159
1285.956402,-7698.141797,76.609550,296.082377
1285.956713,-9548.656652,612.876398,518.144159
1285.957024,-10955.047942,536.266849,1332.370696
1285.957336,-10881.027347,-612.876398,1554.432478
1285.957647,-10288.862594,-306.438199,1184.329507
1285.957958,-8956.491898,-153.219100,1110.308913
1285.958270,-8068.244768,-229.828649,740.205942
1285.958581,-7550.100608,-766.095498,592.164754
1285.958892,-7179.997637,-612.876398,592.164754
1285.959204,-6957.935855,-689.485948,148.041188
1285.959515,-7179.997637,153.219100,296.082377
1285.959826,-8808.450710,-153.219100,370.102971
1285.960138,-9178.553681,-689.485948,148.041188
1285.960449,-8882.471304,-995.924147,148.041188
1285.960760,-8438.347739,-1225.752797,518.144159
1285.961072,-7994.224174,-1072.533697,370.102971
1285.961383,-8364.327145,-1915.238745,148.041188
1285.961694,-8956.491898,-1685.410096,370.102971
1285.962006,-9474.636058,-1608.800546,-0.000000
1285.962317,-10288.862594,-842.705048,518.144159
1285.962628,-11177.109724,229.828649,1554.432478
1285.962940,-11399.171507,383.047749,1258.350101
1285.963251,-10214.842000,306.438199,1406.391290
1285.963562,-8364.327145,459.657299,962.267725
1285.963874,-6735.874072,383.047749,-148.041188
1285.964185,-6069.688724,229.828649,-444.123565
1285.964497,-6587.832884,-1072.533697,-740.205942
1285.964808,-7772.162391,-229.828649,-1110.308913
1285.965119,-9622.677246,612.876398,-740.205942
1285.965431,-11325.150913,689.485948,74.020594
1285.965742,-12879.583391,612.876398,444.123565
1285.966053,-13027.624579,459.657299,1258.350101
1285.966365,-11251.130318,1225.752797,1184.329507
1285.966676,-9030.512492,1991.848295,814.226536
1285.966987,-6735.874072,1532.190996,592.164754
1285.967299,-5107.421000,1072.533697,-0.000000
1285.967610,-5107.421000,383.047749,-148.041188
1285.967921,-6513.812290,383.047749,-74.020594
1285.968233,-8216.285956,1072.533697,-0.000000
1285.968544,-9696.697840,1608.800546,222.061783
1285.968855,-11769.274478,2145.067394,370.102971
1285.969167,-11325.150913,1072.533697,2072.576638
1285.969478,-9992.780217,612.876398,1184.329507
1285.969789,-8660.409521,689.485948,1332.370696
1285.970101,-7179.997637,842.705048,814.226536
1285.970412,-6439.791695,76.609550,370.102971
1285.970723,-6217.729913,0.000000,296.082377
1285.971035,-6883.915261,0.000000,296.082377
1285.971346,-7254.018232,0.000000,370.102971
1285.971657,-8956.491898,229.828649,222.061783
1285.971969,-9622.677246,-306.438199,296.082377
1285.972280,-9474.636058,-1072.533697,518.144159
1285.972591,-9104.533087,-1762.019645,1184.329507
1285.972903,-8586.388927,-1991.848295,1036.288319
1285.973214,-8956.491898,-1532.190996,1184.329507
1285.973525,-9252.574275,-2451.505594,1184.329507
1285.973837,-9844.739029,-2145.067394,962.267725
1285.974148,-10066.800811,-536.266849,962.267725
1285.974459,-9622.677246,459.657299,1480.411884
1285.974771,-10066.800811,0.000000,1628.453072
1285.975082,-9474.636058,-459.657299,888.247130
1285.975393,-7846.182985,-536.266849,444.123565
1285.975705,-6735.874072,-766.095498,-0.000000
1285.976016,-6661.853478,-1149.143247,-222.061783
1285.976327,-7402.059420,-1838.629195,-296.082377
1285.976639,-9178.553681,-1532.190996,-74.020594
1285.976950,-10807.006753,-1378.971896,222.061783
1285.977261,-12065.356855,0.000000,370.102971
1285.977573,-12805.562797,612.876398,592.164754
1285.977884,-11991.336260,536.266849,666.185348
1285.978195,-9844.739029,766.095498,148.041188
1285.978507,-7772.162391,459.657299,-444.123565
1285.978818,-5773.606348,1225.752797,-666.185348
1285.979129,-6217.729913,459.657299,-1406.391290
1285.979441,-6809.894666,-306.438199,-666.185348
1285.979752,-8216.285956,-459.657299,-0.000000
1285.980063,-9844.739029,0.000000,-0.000000
1285.980375,-11547.212695,229.828649,518.144159
1285.980686,-12139.377449,383.047749,1406.391290
1285.980997,-11177.109724,-153.219100,1406.391290
1285.981309,-9622.677246,-306.438199,1702.473667
1285.981620,-7994.224174,-306.438199,1702.473667
1285.981931,-6809.894666,-383.047749,1406.391290
1285.982243,-5921.647536,-306.438199,444.123565
1285.982554,-6365.771101,-153.219100,518.144159
1285.982865,-6365.771101,536.266849,-0.000000
1285.983177,-7920.203579,995.924147,-222.061783
1285.983488,-9622.677246,612.876398,-0.000000
1285.983799,-9326.594869,1685.410096,370.102971
1285.984111,-8808.450710,612.876398,592.164754
1285.984422,-8882.471304,0.000000,1110.308913
1285.984733,-8660.409521,-153.219100,1110.308913
1285.985045,-7920.203579,-153.219100,888.247130
1285.985356,-7550.100608,0.000000,962.267725
1285.985667,-8438.347739,0.000000,1406.391290
1285.985979,-8956.491898,0.000000,1258.350101
1285.986290,-9696.697840,0.000000,1332.370696
1285.986601,-9622.677246,-459.657299,1628.453072
1285.986913,-8808.450710,-612.876398,1554.432478
1285.987224,-7846.182985,-1149.143247,740.205942
1285.987535,-7328.038826,-1532.190996,518.144159
1285.987847,-7105.977043,-2068.457845,-222.061783
1285.988158,-7772.162391,-1991.848295,-148.041188
1285.988469,-9400.615463,-2221.676944,-0.000000
1285.988781,-10436.903782,-689.485948,740.205942
1285.989092,-11843.295072,-306.438199,1110.308913
1285.989403,-12139.377449,0.000000,1406.391290
1285.989715,-11843.295072,76.609550,1258.350101
1285.990026,-9770.718434,0.000000,1036.288319
1285.990337,-7254.018232,1072.533697,296.082377
1285.990649,-5995.668130,-153.219100,-370.102971
1285.990960,-5403.503377,-306.438199,-1332.370696
1285.991271,-6883.915261,-1225.752797,-1702.473667
1285.991583,-8734.430116,-995.924147,-592.164754
1285.991894,-10881.027347,229.828649,-296.082377
1285.992205,-12361.439231,536.266849,518.144159
1285.992517,-12805.562797,459.657299,1184.329507
1285.992828,-11843.295072,306.438199,1628.453072
1285.993139,-10140.821405,383.047749,962.267725
1285.993451,-7994.224174,919.314598,296.082377
1285.993762,-7031.956449,842.705048,-370.102971
1285.994073,-6957.935855,0.000000,-740.205942
1285.994385,-7105.977043,383.047749,-666.185348
1285.994696,-7846.182985,536.266849,-444.123565
1285.995007,-9474.636058,229.828649,-0.000000
1285.995319,-10288.862594,0.000000,-0.000000
1285.995630,-10288.862594,689.485948,-74.020594
1285.995941,-9474.636058,1149.143247,-0.000000
1285.996253,-8290.306550,689.485948,222.061783
1285.996564,-8216.285956,536.266849,222.061783
1285.996875,-8142.265362,76.609550,444.123565
1285.997187,-8142.265362,0.000000,1036.288319
1285.997498,-8068.244768,1072.533697,1480.411884
1285.997809,-8364.327145,689.485948,1628.453072
1285.998121,-9178.553681,459.657299,1406.391290
1285.998432,-9326.594869,0.000000,888.247130
1285.998743,-8364.327145,-536.266849,222.061783
1285.999055,-7328.038826,306.438199,148.041188
1285.999366,-6957.935855,-229.828649,-0.000000
1285.999677,-7328.038826,-1302.362347,370.102971
1285.999989,-8216.285956,-2298.286494,666.185348
1286.000300,-9622.677246,-1225.752797,962.267725
1286.000611,-10066.800811,76.609550,2368.659014
1286.000923,-11029.068536,1608.800546,1480.411884
1286.001234,-11177.109724,1302.362347,1406.391290
1286.001545,-9918.759623,842.705048,888.247130
1286.001857,-7772.162391,842.705048,444.123565
1286.002168,-6439.791695,536.266849,592.164754
1286.002480,-5921.647536,-383.047749,-148.041188
1286.002791,-6439.791695,-766.095498,-296.082377
1286.003102,-8734.430116,-1378.971896,-592.164754
1286.003414,-9622.677246,-689.485948,814.226536
1286.003725,-10955.047942,-306.438199,1332.370696
1286.004036,-12657.521608,76.609550,1776.494261
1286.004348,-12731.542202,-536.266849,2072.576638
1286.004659,-11547.212695,76.609550,1480.411884
1286.004970,-9252.574275,229.828649,1702.473667
1286.005282,-7328.038826,0.000000,814.226536
1286.005593,-6513.812290,-842.705048,666.185348
1286.005904,-6217.729913,-1991.848295,-0.000000
1286.006216,-6365.771101,-1225.752797,-148.041188
1286.006527,-8142.265362,-842.705048,-148.041188
1286.006838,-9918.759623,0.000000,-0.000000
1286.007150,-10510.924376,0.000000,296.082377
1286.007461,-10658.965565,-766.095498,148.041188
1286.007772,-9844.739029,-689.485948,592.164754
1286.008084,-9696.697840,-383.047749,518.144159
1286.008395,-8956.491898,153.219100,-0.000000
1286.008706,-8290.306550,76.609550,666.185348
1286.009018,-7920.203579,-306.438199,814.226536
1286.009329,-8216.285956,383.047749,1258.350101
1286.009640,-8734.430116,766.095498,1036.288319
1286.009952,-8882.471304,153.219100,666.185348
1286.010263,-8512.368333,0.000000,740.205942
1286.010574,-7254.018232,383.047749,148.041188
1286.010886,-7105.977043,-153.219100,-444.123565
1286.011197,-7105.977043,-766.095498,-74.020594
1286.011508,-7920.203579,-1072.533697,-0.000000
1286.011820,-9252.574275,-766.095498,148.041188
1286.012131,-10066.800811,0.000000,222.061783
1286.012442,-10881.027347,842.705048,1184.329507
1286.012754,-11473.192101,766.095498,888.247130
1286.013065,-10807.006753,-153.219100,888.247130
1286.013376,-9400.615463,-229.828649,740.205942
1286.013688,-7772.162391,0.000000,296.082377
1286.013999,-6661.853478,0.000000,-148.041188
1286.014310,-6587.832884,-306.438199,-444.123565
1286.014622,-6809.894666,-1532.190996,-296.082377
1286.014933,-8364.327145,-1532.190996,-0.000000
1286.015244,-9918.759623,-306.438199,-0.000000
1286.015556,-11399.171507,1532.190996,444.123565
1286.015867,-12657.521608,1378.971896,962.267725
1286.016178,-12287.418637,459.657299,1184.329507
1286.016490,-10214.842000,229.828649,1480.411884
1286.016801,-7772.162391,536.266849,1480.411884
1286.017112,-6439.791695,0.000000,666.185348
1286.017424,-5847.626942,-1532.190996,592.164754
1286.017735,-6143.709319,-2145.067394,-0.000000
1286.018046,-6661.853478,-1532.190996,-74.020594
1286.018358,-8882.471304,-306.438199,-0.000000
1286.018669,-10955.047942,459.657299,-0.000000
1286.018980,-11843.295072,76.609550,148.041188
1286.019292,-11029.068536,0.000000,740.205942
1286.019603,-9252.574275,0.000000,888.247130
1286.019914,-8734.430116,-383.047749,888.247130
1286.020226,-8438.347739,0.000000,814.226536
1286.020537,-8142.265362,-766.095498,-0.000000
1286.020848,-7772.162391,-306.438199,962.267725
1286.021160,-8512.368333,536.266849,740.205942
1286.021471,-9696.697840,459.657299,1036.288319
1286.021782,-10436.903782,0.000000,962.267725
1286.022094,-9178.553681,0.000000,1036.288319
1286.022405,-8216.285956,383.047749,-148.041188
1286.022716,-7624.121203,76.609550,-296.082377
1286.023028,-7920.203579,-153.219100,-222.061783
1286.023339,-8216.285956,-383.047749,-0.000000
1286.023650,-8660.409521,-229.828649,296.082377
1286.023962,-9622.677246,536.266849,1110.308913
1286.024273,-10140.821405,1072.533697,1480.411884
1286.024584,-10658.965565,919.314598,814.226536
1286.024896,-9252.574275,919.314598,1258.350101
1286.025207,-8216.285956,0.000000,962.267725
1286.025518,-6957.935855,612.876398,-0.000000
1286.025830,-6883.915261,536.266849,-370.102971
1286.026141,-6735.874072,306.438199,-592.164754
1286.026452,-7476.080014,153.219100,-370.102971
1286.026764,-9474.636058,383.047749,-0.000000
1286.027075,-10214.842000,1072.533697,222.061783
1286.027387,-11769.274478,919.314598,1110.308913
1286.027698,-11399.171507,1225.752797,1332.370696
1286.028010,-10436.903782,1072.533697,1332.370696
1286.028321,-8734.430116,766.095498,1036.288319
1286.028633,-7328.038826,995.924147,1036.288319
1286.028944,-6291.750507,229.828649,814.226536
1286.029255,-5995.668130,-612.876398,148.041188
1286.029567,-6957.935855,-1455.581446,-0.000000
1286.029878,-7920.203579,-842.705048,-296.082377
1286.030190,-9992.780217,-766.095498,-74.020594
1286.030501,-11547.212695,-306.438199,444.123565
1286.030813,-11695.253884,-766.095498,814.226536
1286.031124,-11029.068536,-842.705048,1184.329507
1286.031436,-9474.636058,-995.924147,1332.370696
1286.031747,-8142.265362,-766.095498,1036.288319
1286.032058,-7328.038826,-1378.971896,1110.308913
1286.032370,-8512.368333,-1608.800546,1110.308913
1286.032681,-7920.203579,-1149.143247,1258.350101
1286.032993,-8512.368333,-383.047749,962.267725
1286.033304,-9178.553681,0.000000,814.226536
1286.033616,-9326.594869,-229.828649,962.267725
1286.033927,-9326.594869,-383.047749,962.267725
1286.034239,-8734.430116,153.219100,370.102971
1286.034550,-8364.327145,0.000000,-0.000000
1286.034861,-8586.388927,153.219100,370.102971
1286.035173,-9252.574275,-536.266849,370.102971
1286.035484,-9548.656652,-612.876398,296.082377
1286.035796,-9474.636058,229.828649,814.226536
1286.036107,-9474.636058,1378.971896,370.102971
1286.036419,-9770.718434,995.924147,740.205942
1286.036730,-9474.636058,229.828649,-0.000000
1286.037042,-8290.306550,-766.095498,296.082377
1286.037353,-7254.018232,-383.047749,-444.123565
1286.037664,-7105.977043,0.000000,-148.041188
1286.037976,-7550.100608,-612.876398,-296.082377
1286.038287,-8734.430116,-1532.190996,-148.041188
1286.038599,-9622.677246,-919.314598,296.082377
1286.038910,-11103.089130,919.314598,740.205942
1286.039222,-11695.253884,1072.533697,1406.391290
1286.039533,-11769.274478,766.095498,1480.411884
1286.039845,-10584.944971,229.828649,666.185348
1286.040156,-8142.265362,689.485948,814.226536
1286.040467,-6069.688724,1072.533697,370.102971
1286.040779,-5477.523971,383.047749,-0.000000
1286.041090,-6143.709319,-306.438199,-592.164754
1286.041402,-6735.874072,-995.924147,-740.205942
1286.041713,-8068.244768,-842.705048,-148.041188
1286.042025,-9992.780217,-153.219100,370.102971
1286.042336,-11177.109724,0.000000,666.185348
1286.042648,-11769.274478,-766.095498,444.123565
1286.042959,-10362.883188,-689.485948,518.144159
1286.043270,-8660.409521,306.438199,740.205942
1286.043582,-7994.224174,153.219100,148.041188
1286.043893,-7994.224174,-689.485948,-0.000000
1286.044205,-7476.080014,-1915.238745,592.164754
1286.044516,-7920.203579,-1225.752797,592.164754
1286.044828,-9030.512492,-612.876398,814.226536
1286.045139,-9918.759623,-689.485948,888.247130
1286.045451,-10658.965565,-1149.143247,1184.329507
1286.045762,-9696.697840,-1685.410096,1258.350101
1286.046073,-8660.409521,-2068.457845,1184.329507
1286.046385,-8290.306550,-1608.800546,814.226536
1286.046696,-8882.471304,-1685.410096,148.041188
1286.047008,-8808.450710,-919.314598,444.123565
1286.047319,-8882.471304,-459.657299,518.144159
1286.047631,-9400.615463,766.095498,592.164754
1286.047942,-9622.677246,1225.752797,1110.308913
1286.048254,-10066.800811,842.705048,1110.308913
1286.048565,-9844.739029,383.047749,814.226536
1286.048876,-8216.285956,612.876398,370.102971
1286.049188,-7846.182985,1302.362347,-370.102971
1286.049499,-7254.018232,1072.533697,-518.144159
1286.049811,-7402.059420,0.000000,-518.144159
1286.050122,-8438.347739,-766.095498,-296.082377
1286.050434,-9474.636058,0.000000,296.082377
1286.050745,-11325.150913,1149.143247,1332.370696
1286.051056,-11695.253884,1608.800546,1776.494261
1286.051368,-11177.109724,612.876398,1924.535449
1286.051679,-8808.450710,689.485948,1776.494261
1286.051991,-7105.977043,459.657299,1184.329507
1286.052302,-6217.729913,919.314598,222.061783
1286.052614,-5773.606348,766.095498,-296.082377
1286.052925,-6661.853478,153.219100,-814.226536
1286.053237,-7920.203579,0.000000,-518.144159
1286.053548,-9474.636058,459.657299,-518.144159
1286.053859,-10807.006753,1532.190996,-222.061783
1286.054171,-11103.089130,1072.533697,-0.000000
1286.054482,-10214.842000,306.438199,296.082377
1286.054794,-8660.409521,153.219100,370.102971
1286.055105,-7476.080014,766.095498,592.164754
1286.055417,-7031.956449,612.876398,740.205942
1286.055728,-7105.977043,-459.657299,1036.288319
1286.056040,-7328.038826,-1378.971896,814.226536
1286.056351,-7994.224174,-1225.752797,518.144159
1286.056662,-9178.553681,-689.485948,222.061783
1286.056974,-9992.780217,-383.047749,592.164754
1286.057285,-9992.780217,-383.047749,592.164754
1286.057597,-9770.718434,-995.924147,370.102971
1286.057908,-9178.553681,-306.438199,296.082377
1286.058220,-8956.491898,459.657299,148.041188
1286.058531,-8438.347739,842.705048,-0.000000
1286.058843,-8364.327145,0.000000,370.102971
1286.059154,-9548.656652,-229.828649,518.144159
1286.059465,-9696.697840,0.000000,814.226536
1286.059777,-10362.883188,76.609550,888.247130
1286.060088,-10510.924376,-689.485948,592.164754
1286.060400,-9326.594869,-1149.143247,518.144159
1286.060711,-8142.265362,-1532.190996,-222.061783
1286.061023,-7994.224174,-1225.752797,-370.102971
1286.061334,-7772.162391,-1532.190996,-148.041188
1286.061646,-8660.409521,-2298.286494,-74.020594
1286.061957,-10214.842000,-1991.848295,814.226536
1286.062268,-10436.903782,-612.876398,962.267725
1286.062580,-11325.150913,459.657299,1258.350101
1286.062891,-11473.192101,1072.533697,2072.576638
1286.063203,-9992.780217,383.047749,1628.453072
1286.063514,-9178.553681,689.485948,888.247130
1286.063826,-7550.100608,612.876398,1036.288319
1286.064137,-6809.894666,766.095498,-0.000000
1286.064449,-6957.935855,-153.219100,-666.185348
1286.064760,-7476.080014,-919.314598,-370.102971
1286.065071,-8290.306550,-766.095498,-0.000000
1286.065383,-9400.615463,229.828649,222.061783
1286.065694,-10510.924376,766.095498,592.164754
1286.066006,-10658.965565,229.828649,962.267725
1286.066317,-9474.636058,0.000000,1184.329507
1286.066629,-8512.368333,383.047749,888.247130
1286.066940,-7328.038826,1378.971896,740.205942
1286.067252,-6957.935855,229.828649,444.123565
1286.067563,-6809.894666,-306.438199,592.164754
1286.067874,-7550.100608,-612.876398,296.082377
1286.068186,-7772.162391,76.609550,1036.288319
1286.068497,-9474.636058,229.828649,1110.308913
1286.068809,-9992.780217,0.000000,1184.329507
1286.069120,-10362.883188,-459.657299,740.205942
1286.069432,-9474.636058,0.000000,888.247130
1286.069743,-8290.306550,459.657299,666.185348
1286.070055,-8438.347739,612.876398,296.082377
1286.070366,-8438.347739,153.219100,444.123565
1286.070677,-7994.224174,0.000000,592.164754
1286.070989,-8142.265362,0.000000,740.205942
1286.071300,-8438.347739,383.047749,1332.370696
1286.071612,-9252.574275,76.609550,888.247130
1286.071923,-9252.574275,-459.657299,444.123565
1286.072235,-8586.388927,-995.924147,222.061783
1286.072546,-8364.327145,-766.095498,-0.000000
1286.072858,-8142.265362,-383.047749,-148.041188
1286.073169,-8808.450710,-1072.533697,-74.020594
1286.073480,-9400.615463,-1149.143247,-0.000000
1286.073792,-10214.842000,-1762.019645,814.226536
1286.074103,-11029.068536,0.000000,962.267725
1286.074415,-11547.212695,689.485948,1480.411884
1286.074726,-11621.233289,766.095498,1406.391290
1286.075038,-10362.883188,612.876398,1110.308913
1286.075349,-7994.224174,306.438199,814.226536
1286.075661,-6217.729913,229.828649,296.082377
1286.075972,-6069.688724,-306.438199,-0.000000
1286.076283,-6069.688724,-1455.581446,-444.123565
1286.076595,-7624.121203,-1762.019645,-592.164754
1286.076906,-8734.430116,-995.924147,-148.041188
1286.077218,-10584.944971,0.000000,-222.061783
1286.077529,-11843.295072,0.000000,296.082377
1286.077841,-11991.336260,-459.657299,148.041188
1286.078152,-10658.965565,-306.438199,370.102971
1286.078464,-8882.471304,459.657299,296.082377
1286.078775,-7254.018232,383.047749,444.123565
1286.079086,-6957.935855,-995.924147,814.226536
1286.079398,-6735.874072,-1685.410096,740.205942
1286.079709,-7105.977043,-1225.752797,962.267725
1286.080021,-8586.388927,153.219100,370.102971
1286.080332,-10732.986159,1455.581446,518.144159
1286.080644,-11103.089130,919.314598,-0.000000
1286.080955,-11029.068536,1455.581446,-0.000000
1286.081266,-9548.656652,1455.581446,444.123565
1286.081578,-7846.182985,1455.581446,296.082377
1286.081889,-7846.182985,612.876398,370.102971
1286.082201,-7550.100608,-76.609550,740.205942
1286.082512,-7031.956449,-383.047749,888.247130
1286.082824,-7920.203579,995.924147,592.164754
1286.083135,-8586.388927,1302.362347,148.041188
1286.083447,-9844.739029,306.438199,-0.000000
1286.083758,-9622.677246,229.828649,-74.020594
1286.084069,-8660.409521,229.828649,-148.041188
1286.084381,-7846.182985,0.000000,-444.123565
1286.084692,-7920.203579,-689.485948,-148.041188
1286.085004,-8068.244768,-1072.533697,962.267725
1286.085315,-8290.306550,-1072.533697,592.164754
1286.085627,-9548.656652,0.000000,740.205942
1286.085938,-10510.924376,1532.190996,1406.391290
1286.086250,-11177.109724,2374.896044,1554.432478
1286.086561,-10807.006753,1149.143247,1702.473667
1286.086872,-9548.656652,229.828649,1332.370696
1286.087184,-8216.285956,459.657299,962.267725
1286.087495,-6513.812290,306.438199,814.226536
1286.087807,-6069.688724,-995.924147,-0.000000
1286.088118,-6365.771101,-1685.410096,-666.185348
1286.088430,-7846.182985,-1225.752797,-518.144159
1286.088741,-9252.574275,-306.438199,-0.000000
1286.089053,-10436.903782,306.438199,148.041188
1286.089364,-12065.356855,536.266849,1110.308913
1286.089675,-11843.295072,153.219100,1184.329507
1286.089987,-10362.883188,-536.266849,1554.432478
1286.090298,-8734.430116,-229.828649,1406.391290
1286.090610,-7254.018232,-842.705048,1036.288319
1286.090921,-6809.894666,-1149.143247,592.164754
1286.091233,-6661.853478,-2221.676944,-0.000000
1286.091544,-7624.121203,-1685.410096,148.041188
1286.091856,-9252.574275,-459.657299,222.061783
1286.092167,-10955.047942,153.219100,740.205942
1286.092478,-11547.212695,-459.657299,888.247130
1286.092790,-11621.233289,-1302.362347,1406.391290
1286.093101,-9992.780217,-612.876398,1406.391290
1286.093413,-8068.244768,536.266849,1480.411884
1286.093724,-7179.997637,-229.828649,1184.329507
1286.094036,-7105.977043,-766.095498,296.082377
1286.094347,-7105.977043,153.219100,-0.000000
1286.094659,-7624.121203,612.876398,-74.020594
1286.094970,-8956.491898,1455.581446,-518.144159
1286.095281,-9548.656652,842.705048,-148.041188
1286.095593,-9474.636058,-536.266849,-0.000000
1286.095904,-8882.471304,-306.438199,-0.000000
1286.096216,-8290.306550,0.000000,-0.000000
1286.096527,-8364.327145,-229.828649,-0.000000
1286.096839,-8660.409521,0.000000,444.123565
1286.097150,-8808.450710,-306.438199,814.226536
1286.097462,-9474.636058,0.000000,592.164754
1286.097773,-10214.842000,1302.362347,1036.288319
1286.098084,-10658.965565,1532.190996,1258.350101
1286.098396,-10214.842000,689.485948,1480.411884
1286.098707,-8808.450710,229.828649,1184.329507
1286.099019,-7476.080014,306.438199,740.205942
1286.099330,-6513.812290,153.219100,296.082377
1286.099642,-6661.853478,0.000000,-148.041188
1286.099953,-7846.182985,-536.266849,-1258.350101
1286.100265,-8586.388927,0.000000,-518.144159
1286.100576,-9474.636058,919.314598,-74.020594
1286.100887,-11029.068536,1302.362347,148.041188
1286.101199,-11325.150913,612.876398,740.205942
1286.101510,-10436.903782,-383.047749,1110.308913
1286.101822,-8956.491898,-229.828649,666.185348
1286.102133,-7328.038826,229.828649,814.226536
1286.102445,-6661.853478,-766.095498,666.185348
1286.102756,-7105.977043,-1991.848295,740.205942
1286.103068,-7994.224174,-2757.943793,518.144159
1286.103379,-9030.512492,-2298.286494,592.164754
1286.103690,-10732.986159,-842.705048,814.226536
1286.104002,-11991.336260,76.609550,888.247130
1286.104313,-11843.295072,-766.095498,1332.370696
1286.104625,-10362.883188,-612.876398,1110.308913
1286.104936,-8290.306550,306.438199,1110.308913
1286.105248,-7402.059420,306.438199,370.102971
1286.105559,-6957.935855,0.000000,518.144159
1286.105871,-6957.935855,-689.485948,296.082377
1286.106182,-7476.080014,-1072.533697,592.164754
1286.106493,-8142.265362,0.000000,740.205942
1286.106805,-9104.533087,-1149.143247,814.226536
1286.107116,-9918.759623,-1225.752797,-0.000000
1286.107428,-9992.780217,-1378.971896,-0.000000
1286.107739,-9474.636058,-1072.533697,-296.082377
1286.108051,-8586.388927,76.609550,-222.061783
1286.108362,-8142.265362,153.219100,-74.020594
1286.108673,-8438.347739,-459.657299,-0.000000
1286.108985,-9326.594869,-766.095498,370.102971
1286.109296,-9474.636058,229.828649,1110.308913
1286.109608,-9622.677246,1915.238745,1258.350101
1286.109919,-9844.739029,2068.457845,1184.329507
1286.110231,-10140.821405,766.095498,888.247130
1286.110542,-8438.347739,229.828649,962.267725
1286.110854,-7550.100608,0.000000,-0.000000
1286.111165,-7105.977043,306.438199,-148.041188
1286.111476,-7105.977043,306.438199,-740.205942
1286.111788,-7402.059420,-612.876398,-888.247130
1286.112099,-7772.162391,0.000000,-222.061783
1286.112411,-9252.574275,0.000000,444.123565
1286.112722,-11103.089130,689.485948,888.247130
1286.113034,-11029.068536,1149.143247,888.247130
1286.113345,-10214.842000,995.924147,666.185348
1286.113657,-8142.265362,1608.800546,666.185348
1286.113968,-6809.894666,919.314598,370.102971
1286.114279,-6143.709319,229.828649,-0.000000
1286.114591,-6883.915261,-1455.581446,444.123565
1286.114902,-8512.368333,-1532.190996,444.123565
1286.115214,-10066.800811,-536.266849,518.144159
1286.115525,-11991.336260,306.438199,888.247130
1286.115837,-11843.295072,306.438199,1406.391290
1286.116148,-11473.192101,-306.438199,1258.350101
1286.116460,-9474.636058,-842.705048,1332.370696
1286.116771,-7772.162391,766.095498,888.247130
1286.117082,-7105.977043,842.705048,666.185348
1286.117394,-6513.812290,229.828649,888.247130
1286.117705,-6587.832884,-153.219100,370.102971
1286.118017,-7179.997637,-383.047749,296.082377
1286.118328,-8512.368333,229.828649,370.102971
1286.118640,-9918.759623,0.000000,296.082377
1286.118951,-9770.718434,-383.047749,222.061783
1286.119263,-10288.862594,-612.876398,-0.000000
1286.119574,-9844.739029,-1149.143247,592.164754
1286.119885,-9104.533087,-1072.533697,592.164754
1286.120197,-9030.512492,-536.266849,518.144159
1286.120508,-9104.533087,-612.876398,814.226536
1286.120820,-9400.615463,-459.657299,1036.288319
1286.121131,-9252.574275,842.705048,1406.391290
1286.121443,-9474.636058,919.314598,1258.350101
1286.121754,-8734.430116,1072.533697,1554.432478
1286.122066,-8734.430116,536.266849,666.185348
1286.122377,-7846.182985,0.000000,444.123565
1286.122688,-6809.894666,0.000000,-0.000000
1286.123000,-6809.894666,-306.438199,-370.102971
1286.123311,-7624.121203,-1225.752797,-444.123565
1286.123623,-8956.491898,-842.705048,-148.041188
1286.123934,-10214.842000,-766.095498,-518.144159
1286.124246,-10658.965565,919.314598,-0.000000
1286.124557,-10955.047942,1072.533697,222.061783
1286.124868,-10140.821405,0.000000,740.205942
1286.125180,-8660.409521,-689.485948,814.226536
1286.125491,-7402.059420,-306.438199,592.164754
1286.125803,-6587.832884,-76.609550,370.102971
1286.126114,-6809.894666,-536.266849,296.082377
1286.126425,-7328.038826,-1915.238745,-74.020594
1286.126737,-9178.553681,-3140.991542,296.082377
1286.127048,-10436.903782,-1762.019645,592.164754
1286.127359,-11695.253884,-459.657299,888.247130
1286.127671,-12731.542202,-76.609550,1110.308913
1286.127982,-11399.171507,-229.828649,962.267725
1286.128294,-9696.697840,919.314598,814.226536
1286.128605,-7846.182985,153.219100,1036.288319
1286.128916,-6735.874072,842.705048,592.164754
1286.129228,-6809.894666,612.876398,-0.000000
1286.129539,-7105.977043,536.266849,-74.020594
1286.129850,-7328.038826,919.314598,370.102971
1286.130162,-9326.594869,306.438199,-0.000000
1286.130473,-10658.965565,229.828649,-0.000000
1286.130784,-11399.171507,153.219100,-148.041188
1286.131096,-10362.883188,0.000000,-74.020594
1286.131407,-9400.615463,0.000000,222.061783
1286.131719,-9030.512492,459.657299,222.061783
1286.132030,-8438.347739,-1072.533697,666.185348
1286.132341,-8512.368333,-1149.143247,1184.329507
1286.132653,-8364.327145,-689.485948,1850.514855
1286.132964,-8660.409521,459.657299,1406.391290
1286.133275,-9326.594869,1455.581446,1554.432478
1286.133587,-9400.615463,536.266849,1480.411884
1286.133898,-8216.285956,-689.485948,1406.391290
1286.134209,-7254.018232,-459.657299,740.205942
1286.134521,-7105.977043,-459.657299,296.082377
1286.134832,-7698.141797,-766.095498,-74.020594
1286.135144,-8290.306550,-1532.190996,-0.000000
1286.135455,-8660.409521,-1149.143247,148.041188
1286.135766,-8956.491898,0.000000,592.164754
1286.136078,-9844.739029,689.485948,296.082377
1286.136389,-10140.821405,919.314598,740.205942
1286.136700,-9770.718434,153.219100,518.144159
1286.137012,-8290.306550,306.438199,-0.000000
1286.137323,-6883.915261,306.438199,518.144159
1286.137635,-6291.750507,-689.485948,444.123565
1286.137946,-7105.977043,-1915.238745,962.267725
1286.138257,-8290.306550,-2374.896044,518.144159
1286.138569,-9474.636058,-1838.629195,296.082377
1286.138880,-11325.150913,0.000000,444.123565
1286.139191,-12065.356855,919.314598,666.185348
1286.139503,-11843.295072,383.047749,888.247130
1286.139814,-11325.150913,229.828649,370.102971
1286.140125,-9178.553681,1072.533697,592.164754
1286.140437,-8142.265362,2068.457845,296.082377
1286.140748,-7476.080014,1915.238745,-0.000000
1286.141060,-7179.997637,919.314598,-296.082377
1286.141371,-7328.038826,-459.657299,-74.020594
1286.141682,-7550.100608,-383.047749,-148.041188
1286.141994,-9474.636058,306.438199,-0.000000
1286.142305,-10881.027347,306.438199,-222.061783
1286.142616,-10881.027347,229.828649,-148.041188
1286.142928,-10436.903782,0.000000,-0.000000
1286.143239,-9326.594869,306.438199,-0.000000
1286.143550,-9030.512492,383.047749,518.144159
1286.143862,-9030.512492,0.000000,370.102971
1286.144173,-8142.265362,76.609550,1184.329507
1286.144485,-8438.347739,995.924147,1036.288319
1286.144796,-9030.512492,1608.800546,1184.329507
1286.145107,-9770.718434,1532.190996,1036.288319
1286.145419,-9178.553681,689.485948,1332.370696
1286.145730,-7772.162391,459.657299,666.185348
1286.146041,-7031.956449,153.219100,888.247130
1286.146353,-6291.750507,0.000000,148.041188
1286.146664,-7402.059420,-842.705048,222.061783
1286.146976,-8438.347739,-1378.971896,148.041188
1286.147287,-8808.450710,-153.219100,444.123565
1286.147598,-9548.656652,1072.533697,222.061783
1286.147910,-10140.821405,1762.019645,148.041188
1286.148221,-10436.903782,1762.019645,814.226536
1286.148532,-9104.533087,536.266849,518.144159
1286.148844,-7772.162391,0.000000,814.226536
1286.149155,-6883.915261,0.000000,1036.288319
1286.149466,-6291.750507,-1225.752797,888.247130
1286.149778,-7031.956449,-2451.505594,740.205942
1286.150089,-7846.182985,-3217.601092,962.267725
1286.150401,-9400.615463,-2911.162892,592.164754
1286.150712,-11473.192101,-1072.533697,592.164754
1286.151023,-12731.542202,612.876398,666.185348
1286.151335,-12509.480420,306.438199,1110.308913
1286.151646,-11325.150913,0.000000,1628.453072
1286.151957,-9622.677246,0.000000,1628.453072
1286.152269,-7846.182985,459.657299,962.267725
1286.152580,-6957.935855,-76.609550,666.185348
1286.152891,-6291.750507,-383.047749,148.041188
1286.153203,-7254.018232,-459.657299,-222.061783
1286.153514,-7920.203579,-383.047749,518.144159
1286.153826,-9918.759623,-306.438199,-74.020594
1286.154137,-10881.027347,229.828649,-0.000000
1286.154448,-11251.130318,536.266849,296.082377
1286.154760,-10658.965565,229.828649,518.144159
1286.155071,-9844.739029,76.609550,296.082377
1286.155382,-8734.430116,536.266849,222.061783
1286.155694,-7920.203579,0.000000,370.102971
1286.156005,-7772.162391,689.485948,-0.000000
1286.156317,-7994.224174,536.266849,518.144159
1286.156628,-8512.368333,1072.533697,1110.308913
1286.156939,-9178.553681,153.219100,1184.329507
1286.157251,-9474.636058,-536.266849,1184.329507
1286.157562,-9030.512492,-536.266849,740.205942
1286.157873,-7920.203579,0.000000,296.082377
1286.158185,-7402.059420,153.219100,-0.000000
1286.158496,-7698.141797,-306.438199,-0.000000
1286.158807,-8512.368333,-612.876398,-370.102971
1286.159119,-9030.512492,0.000000,222.061783
1286.159430,-9696.697840,1149.143247,518.144159
1286.159742,-10288.862594,1838.629195,518.144159
1286.160053,-9474.636058,1302.362347,148.041188
1286.160364,-8438.347739,383.047749,814.226536
1286.160676,-6957.935855,-612.876398,222.061783
1286.160987,-6143.709319,-1225.752797,-0.000000
1286.161298,-6735.874072,-1378.971896,296.082377
1286.161610,-7994.224174,-2451.505594,518.144159
1286.161921,-9548.656652,-2604.724693,370.102971
1286.162232,-10955.047942,-1455.581446,592.164754
1286.162544,-11769.274478,76.609550,888.247130
1286.162855,-11991.336260,-459.657299,1480.411884
1286.163167,-10807.006753,229.828649,1702.473667
1286.163478,-9252.574275,-76.609550,1258.350101
1286.163789,-8216.285956,459.657299,1184.329507
1286.164101,-7254.018232,306.438199,666.185348
1286.164412,-6809.894666,0.000000,-0.000000
1286.164723,-7031.956449,-459.657299,-370.102971
1286.165035,-7254.018232,-536.266849,-592.164754
1286.165346,-8882.471304,306.438199,-666.185348
1286.165658,-10510.924376,-459.657299,-0.000000
1286.165969,-11621.233289,229.828649,592.164754
1286.166280,-11399.171507,-459.657299,740.205942
1286.166592,-10288.862594,-153.219100,666.185348
1286.166903,-9030.512492,76.609550,740.205942
1286.167214,-7550.100608,76.609550,518.144159
1286.167526,-7772.162391,-153.219100,222.061783
1286.167837,-7179.997637,-689.485948,592.164754
1286.168148,-8512.368333,0.000000,148.041188
1286.168460,-9252.574275,536.266849,888.247130
1286.168771,-9918.759623,306.438199,888.247130
1286.169083,-10362.883188,-306.438199,962.267725
1286.169394,-9326.594869,-919.314598,814.226536
1286.169705,-8216.285956,-383.047749,444.123565
1286.170017,-7476.080014,306.438199,222.061783
1286.170328,-7698.141797,76.609550,-0.000000
1286.170639,-7846.182985,-153.219100,296.082377
1286.170951,-8586.388927,459.657299,296.082377
1286.171262,-9030.512492,1455.581446,148.041188
1286.171573,-9622.677246,1685.410096,-0.000000
1286.171885,-9696.697840,1455.581446,-0.000000
1286.172196,-8512.368333,919.314598,-0.000000
1286.172508,-7105.977043,1149.143247,-148.041188
1286.172819,-7254.018232,306.438199,-0.000000
1286.173130,-7105.977043,-536.266849,222.061783
1286.173442,-7920.203579,-995.924147,148.041188
1286.173753,-9844.739029,-1378.971896,370.102971
1286.174064,-10584.944971,-383.047749,518.144159
1286.174376,-11399.171507,1532.190996,666.185348
1286.174687,-11769.274478,1762.019645,962.267725
1286.174999,-9844.739029,766.095498,1184.329507
1286.175310,-8364.327145,612.876398,666.185348
1286.175621,-7254.018232,229.828649,1332.370696
1286.175933,-6365.771101,-153.219100,1184.329507
1286.176244,-6217.729913,-919.314598,444.123565
1286.176555,-7031.956449,-1149.143247,518.144159
1286.176867,-7624.121203,-842.705048,1036.288319
1286.177178,-9178.553681,-1225.752797,-0.000000
1286.177489,-11029.068536,-766.095498,444.123565
1286.177801,-11991.336260,153.219100,592.164754
1286.178112,-11325.150913,0.000000,666.185348
1286.178424,-9844.739029,229.828649,962.267725
1286.178735,-8586.388927,383.047749,888.247130
1286.179046,-7476.080014,-153.219100,666.185348
1286.179358,-7254.018232,-536.266849,740.205942
1286.179669,-7920.203579,0.000000,740.205942
1286.179980,-9178.553681,536.266849,740.205942
1286.180292,-9474.636058,612.876398,1480.411884
1286.180603,-10214.842000,-153.219100,1702.473667
1286.180914,-9918.759623,-1072.533697,1332.370696
1286.181226,-8364.327145,-1149.143247,740.205942
1286.181537,-7846.182985,-153.219100,518.144159
1286.181849,-8068.244768,76.609550,-0.000000
1286.182160,-8808.450710,229.828649,-0.000000
1286.182471,-9030.512492,0.000000,370.102971
1286.182783,-9178.553681,306.438199,-0.000000
1286.183094,-9992.780217,995.924147,370.102971
1286.183405,-9844.739029,842.705048,-0.000000
1286.183717,-9252.574275,919.314598,296.082377
1286.184028,-8438.347739,0.000000,-0.000000
1286.184340,-6957.935855,-612.876398,592.164754
1286.184651,-7179.997637,-1072.533697,444.123565
1286.184962,-7254.018232,-1378.971896,444.123565
1286.185274,-7772.162391,-1915.238745,370.102971
1286.185585,-9474.636058,-1762.019645,370.102971
1286.185896,-10732.986159,-383.047749,444.123565
1286.186208,-11621.233289,612.876398,592.164754
1286.186519,-11177.109724,383.047749,888.247130
1286.186830,-10362.883188,612.876398,740.205942
1286.187142,-8882.471304,1532.190996,592.164754
1286.187453,-6809.894666,459.657299,740.205942
1286.187765,-5699.585753,0.000000,518.144159
1286.188076,-5699.585753,-995.924147,-0.000000
1286.188387,-6587.832884,-689.485948,-296.082377
1286.188699,-8142.265362,-229.828649,-740.205942
1286.189010,-9696.697840,459.657299,-222.061783
1286.189321,-11473.192101,842.705048,-518.144159
1286.189633,-12139.377449,995.924147,-0.000000
1286.189944,-11769.274478,76.609550,296.082377
1286.190255,-10362.883188,229.828649,518.144159
1286.190567,-8216.285956,306.438199,666.185348
1286.190878,-7031.956449,0.000000,222.061783
1286.191190,-5995.668130,-1378.971896,740.205942
1286.191501,-7254.018232,-2145.067394,148.041188
1286.191812,-8364.327145,229.828649,666.185348
1286.192124,-9770.718434,459.657299,962.267725
1286.192435,-11473.192101,536.266849,296.082377
1286.192746,-10510.924376,0.000000,1110.308913
1286.193058,-9474.636058,-689.485948,592.164754
1286.193369,-7920.203579,-766.095498,592.164754
1286.193681,-7698.141797,-1149.143247,444.123565
1286.193992,-8660.409521,-1302.362347,-0.000000
1286.194303,-8068.244768,-1225.752797,740.205942
1286.194615,-9178.553681,-383.047749,592.164754
1286.194926,-9474.636058,76.609550,1036.288319
1286.195237,-9918.759623,306.438199,962.267725
1286.195549,-9030.512492,-229.828649,888.247130
1286.195860,-7402.059420,-842.705048,962.267725
1286.196171,-6957.935855,-1149.143247,444.123565
1286.196483,-7328.038826,-1072.533697,-0.000000
1286.196794,-7920.203579,-612.876398,-74.020594
1286.197106,-9030.512492,-2221.676944,444.123565
1286.197417,-9844.739029,-1302.362347,962.267725
1286.197728,-11399.171507,76.609550,1110.308913
1286.198040,-11917.315666,689.485948,1406.391290
1286.198351,-10955.047942,689.485948,1628.453072
1286.198662,-9770.718434,842.705048,1554.432478
1286.198974,-7105.977043,1378.971896,1036.288319
1286.199285,-5551.544565,459.657299,-0.000000
1286.199596,-5255.462188,153.219100,-148.041188
1286.199908,-5699.585753,0.000000,-296.082377
1286.200219,-8142.265362,0.000000,-592.164754
1286.200531,-9622.677246,536.266849,-0.000000
1286.200842,-11251.130318,995.924147,-0.000000
1286.201153,-12213.398043,842.705048,592.164754
1286.201465,-11103.089130,383.047749,222.061783
1286.201776,-9918.759623,0.000000,222.061783
1286.202087,-8734.430116,536.266849,-0.000000
1286.202399,-7179.997637,766.095498,370.102971
1286.202710,-7031.956449,383.047749,518.144159
1286.203022,-7476.080014,-229.828649,518.144159
1286.203333,-8512.368333,76.609550,814.226536
1286.203644,-9548.656652,766.095498,740.205942
1286.203956,-10955.047942,919.314598,148.041188
1286.204267,-11103.089130,1302.362347,-0.000000
1286.204578,-9992.780217,1149.143247,222.061783
1286.204890,-8956.491898,995.924147,666.185348
1286.205201,-7772.162391,612.876398,518.144159
1286.205512,-8068.244768,-229.828649,518.144159
1286.205824,-8068.244768,-459.657299,518.144159
1286.206135,-8438.347739,459.657299,592.164754
1286.206447,-7846.182985,1072.533697,518.144159
1286.206758,-9178.553681,1532.190996,444.123565
1286.207069,-9252.574275,153.219100,444.123565
1286.207381,-8586.388927,-306.438199,222.061783
1286.207692,-8068.244768,-383.047749,-0.000000
1286.208003,-7624.121203,-536.266849,370.102971
1286.208315,-8364.327145,-1915.238745,518.144159
1286.208626,-8290.306550,-2374.896044,592.164754
1286.208937,-9030.512492,-3064.381992,962.267725
1286.209249,-10066.800811,-1685.410096,1036.288319
1286.209560,-11251.130318,-306.438199,962.267725
1286.209872,-11621.233289,76.609550,1702.473667
1286.210183,-10214.842000,-536.266849,1998.556043
1286.210494,-9474.636058,-842.705048,1850.514855
1286.210806,-7698.141797,-229.828649,1702.473667
1286.211117,-6957.935855,-1225.752797,444.123565
1286.211428,-6957.935855,-919.314598,-518.144159
1286.211740,-6809.894666,-689.485948,-962.267725
1286.212051,-8142.265362,0.000000,-1036.288319
1286.212363,-9474.636058,76.609550,-74.020594
1286.212674,-11473.192101,0.000000,592.164754
1286.212985,-11547.212695,76.609550,1332.370696
1286.213297,-10658.965565,612.876398,962.267725
1286.213608,-9474.636058,536.266849,222.061783
1286.213919,-7624.121203,1302.362347,296.082377
1286.214231,-7550.100608,766.095498,-148.041188
1286.214542,-7105.977043,0.000000,-0.000000
1286.214853,-7846.182985,0.000000,148.041188
1286.215165,-9326.594869,383.047749,666.185348
1286.215476,-10881.027347,842.705048,1110.308913
1286.215788,-11029.068536,612.876398,1554.432478
1286.216099,-11029.068536,0.000000,1258.350101
1286.216410,-9030.512492,0.000000,666.185348
1286.216722,-7402.059420,536.266849,888.247130
1286.217033,-7328.038826,536.266849,370.102971
1286.217344,-7550.100608,0.000000,-0.000000
1286.217656,-7772.162391,229.828649,518.144159
1286.217967,-8216.285956,1072.533697,370.102971
1286.218279,-8882.471304,1455.581446,296.082377
1286.218590,-9474.636058,842.705048,370.102971
1286.218901,-8660.409521,459.657299,-0.000000
1286.219213,-8142.265362,-153.219100,-0.000000
1286.219524,-7624.121203,-229.828649,148.041188
1286.219835,-7476.080014,-612.876398,444.123565
1286.220147,-7550.100608,-1225.752797,666.185348
1286.220458,-7476.080014,-1915.238745,666.185348
1286.220769,-8142.265362,-2068.457845,1036.288319
1286.221081,-10140.821405,-1685.410096,814.226536
1286.221392,-11473.192101,-306.438199,1258.350101
1286.221704,-11917.315666,306.438199,1480.411884
1286.222015,-11399.171507,76.609550,1628.453072
1286.222326,-9770.718434,153.219100,1406.391290
1286.222638,-7698.141797,0.000000,444.123565
1286.222949,-5181.441594,-689.485948,148.041188
1286.223260,-4811.338623,-1302.362347,-444.123565
1286.223572,-5699.585753,-1149.143247,-518.144159
1286.223883,-7179.997637,-1302.362347,-0.000000
1286.224194,-9622.677246,-612.876398,444.123565
1286.224506,-12065.356855,-383.047749,740.205942
1286.224817,-12953.603985,0.000000,888.247130
1286.225129,-12139.377449,0.000000,296.082377
1286.225440,-10510.924376,0.000000,-0.000000
1286.225751,-8068.244768,229.828649,296.082377
1286.226063,-7254.018232,-1378.971896,-666.185348
1286.226374,-7772.162391,-1608.800546,-296.082377
1286.226685,-7772.162391,-1302.362347,592.164754
1286.226997,-8808.450710,-612.876398,962.267725
1286.227308,-10066.800811,306.438199,1184.329507
1286.227619,-11177.109724,76.609550,1406.391290
1286.227931,-11103.089130,-153.219100,888.247130
1286.228242,-9770.718434,76.609550,740.205942
1286.228553,-8068.244768,1915.238745,444.123565
1286.228865,-8290.306550,919.314598,-74.020594
1286.229176,-7994.224174,689.485948,-444.123565
1286.229487,-8068.244768,459.657299,-0.000000
1286.229799,-8290.306550,689.485948,222.061783
1286.230110,-9104.533087,1149.143247,148.041188
1286.230421,-9696.697840,1915.238745,222.061783
1286.230733,-9104.533087,995.924147,-74.020594
1286.231044,-7328.038826,689.485948,222.061783
1286.231355,-6587.832884,229.828649,-148.041188
1286.231667,-6439.791695,153.219100,-148.041188
1286.231978,-7179.997637,-536.266849,-148.041188
1286.232289,-8660.409521,-995.924147,666.185348
1286.232601,-9400.615463,229.828649,962.267725
1286.232912,-10732.986159,383.047749,1258.350101
1286.233223,-11473.192101,842.705048,1702.473667
1286.233535,-11251.130318,459.657299,2072.576638
1286.233846,-9696.697840,306.438199,1184.329507
1286.234157,-7550.100608,383.047749,592.164754
1286.234469,-6069.688724,76.609550,592.164754
1286.234780,-5921.647536,-536.266849,222.061783
1286.235091,-6513.812290,-995.924147,-222.061783
1286.235403,-7328.038826,-536.266849,-370.102971
1286.235714,-9326.594869,-689.485948,-222.061783
1286.236025,-11177.109724,229.828649,592.164754
1286.236337,-12657.521608,229.828649,1184.329507
1286.236648,-12435.459826,76.609550,888.247130
1286.236959,-10584.944971,306.438199,592.164754
1286.237271,-8438.347739,919.314598,222.061783
1286.237582,-7105.977043,1072.533697,-296.082377
1286.237893,-6735.874072,306.438199,-0.000000
1286.238205,-7031.956449,-2068.457845,-296.082377
1286.238516,-7402.059420,-1302.362347,592.164754
1286.238827,-9474.636058,0.000000,518.144159
1286.239138,-11547.212695,383.047749,962.267725
1286.239450,-11917.315666,0.000000,1110.308913
1286.239761,-10732.986159,-842.705048,1480.411884
1286.240072,-8882.471304,0.000000,1406.391290
1286.240384,-7846.182985,0.000000,740.205942
1286.240695,-7698.141797,-459.657299,518.144159
1286.241006,-7328.038826,-1072.533697,444.123565
1286.241318,-7254.018232,-689.485948,740.205942
1286.241629,-7994.224174,-153.219100,1036.288319
1286.241940,-9474.636058,76.609550,666.185348
1286.242252,-9696.697840,766.095498,518.144159
1286.242563,-9474.636058,-229.828649,296.082377
1286.242874,-8216.285956,-919.314598,592.164754
1286.243186,-8216.285956,-995.924147,-148.041188
1286.243497,-8290.306550,-842.705048,370.102971
1286.243808,-8364.327145,-1225.752797,888.247130
1286.244120,-8956.491898,-1685.410096,962.267725
1286.244431,-9622.677246,-1072.533697,1036.288319
1286.244742,-10140.821405,383.047749,1036.288319
1286.245054,-9696.697840,995.924147,1406.391290
1286.245365,-9474.636058,76.609550,1628.453072
1286.245676,-8290.306550,459.657299,888.247130
1286.245988,-7550.100608,459.657299,666.185348
1286.246299,-7105.977043,612.876398,-0.000000
1286.246610,-7031.956449,306.438199,-740.205942
1286.246922,-7698.141797,229.828649,-1332.370696
1286.247233,-8438.347739,612.876398,-814.226536
1286.247544,-9474.636058,306.438199,-0.000000
1286.247856,-10436.903782,842.705048,962.267725
1286.248167,-11547.212695,229.828649,1258.350101
1286.248478,-11325.150913,0.000000,1480.411884
1286.248790,-9992.780217,0.000000,1036.288319
1286.249101,-7994.224174,842.705048,666.185348
1286.249412,-6809.894666,919.314598,-0.000000
1286.249724,-6291.750507,-459.657299,-222.061783
1286.250035,-7624.121203,-1149.143247,-666.185348
1286.250346,-8734.430116,-383.047749,-0.000000
1286.250658,-9844.739029,229.828649,222.061783
1286.250969,-11399.171507,536.266849,1036.288319
1286.251280,-11547.212695,-536.266849,1480.411884
1286.251591,-10288.862594,-766.095498,814.226536
1286.251903,-8068.244768,0.000000,888.247130
1286.252214,-7254.018232,306.438199,-0.000000
1286.252525,-6957.935855,-306.438199,148.041188
1286.252837,-7550.100608,-1149.143247,-74.020594
1286.253148,-7772.162391,-1072.533697,148.041188
1286.253459,-8364.327145,-612.876398,-0.000000
1286.253771,-9696.697840,-229.828649,-0.000000
1286.254082,-10362.883188,-689.485948,148.041188
1286.254393,-10066.800811,-1378.971896,-148.041188
1286.254705,-9104.533087,-842.705048,148.041188
1286.255016,-8216.285956,-1072.533697,148.041188
1286.255327,-8512.368333,-1378.971896,-0.000000
1286.255639,-8956.491898,-919.314598,592.164754
1286.255950,-8882.471304,-1302.362347,1036.288319
1286.256261,-9474.636058,-919.314598,1036.288319
1286.256573,-9992.780217,306.438199,1702.473667
1286.256884,-10362.883188,383.047749,1702.473667
1286.257195,-10658.965565,76.609550,814.226536
1286.257507,-9178.553681,766.095498,666.185348
1286.257818,-8068.244768,842.705048,-0.000000
1286.258129,-7254.018232,383.047749,-296.082377
1286.258441,-6957.935855,0.000000,-814.226536
1286.258752,-7105.977043,-1072.533697,-444.123565
1286.259063,-8364.327145,-1378.971896,148.041188
1286.259375,-9770.718434,306.438199,888.247130
1286.259686,-11177.109724,766.095498,1628.453072
1286.259997,-11991.336260,1149.143247,962.267725
1286.260309,-10288.862594,766.095498,1258.350101
1286.260620,-9104.533087,1072.533697,222.061783
1286.260931,-7402.059420,1608.800546,148.041188
1286.261243,-6735.874072,1455.581446,-0.000000
1286.261554,-6587.832884,536.266849,-0.000000
1286.261865,-7402.059420,76.609550,444.123565
1286.262177,-8660.409521,-229.828649,1036.288319
1286.262488,-9474.636058,842.705048,888.247130
1286.262799,-10881.027347,995.924147,1036.288319
1286.263111,-10881.027347,689.485948,1258.350101
1286.263422,-10066.800811,1072.533697,888.247130
1286.263733,-8364.327145,1378.971896,962.267725
1286.264045,-6809.894666,1378.971896,814.226536
1286.264356,-6661.853478,0.000000,-0.000000
1286.264667,-6809.894666,306.438199,222.061783
1286.264978,-7105.977043,0.000000,370.102971
1286.265290,-8142.265362,459.657299,-148.041188
1286.265601,-9252.574275,459.657299,592.164754
1286.265912,-9918.759623,-459.657299,370.102971
1286.266224,-9474.636058,-995.924147,666.185348
1286.266535,-8734.430116,-1378.971896,666.185348
1286.266846,-8734.430116,-919.314598,148.041188
1286.267158,-8882.471304,-995.924147,-296.082377
1286.267469,-9252.574275,-1608.800546,-148.041188
1286.267780,-9252.574275,-2068.457845,962.267725
1286.268092,-10214.842000,-1532.190996,1332.370696
1286.268403,-10510.924376,-536.266849,1628.453072
1286.268714,-11103.089130,-229.828649,1850.514855
1286.269026,-10436.903782,-842.705048,1998.556043
1286.269337,-8512.368333,-1072.533697,1628.453072
1286.269648,-7031.956449,-919.314598,518.144159
1286.269960,-5921.647536,-995.924147,-0.000000
1286.270271,-7031.956449,-1378.971896,-296.082377
1286.270582,-7920.203579,-995.924147,-518.144159
1286.270894,-9104.533087,0.000000,-222.061783
1286.271205,-10436.903782,459.657299,-0.000000
1286.271516,-11621.233289,766.095498,370.102971
1286.271828,-11843.295072,612.876398,1480.411884
1286.272139,-10214.842000,536.266849,148.041188
1286.272450,-8734.430116,1302.362347,-0.000000
1286.272762,-6957.935855,919.314598,-148.041188
1286.273073,-6809.894666,76.609550,-666.185348
1286.273384,-7772.162391,-842.705048,-0.000000
1286.273696,-8068.244768,-1302.362347,962.267725
1286.274007,-9252.574275,-689.485948,1184.329507
1286.274318,-11029.068536,-306.438199,1184.329507
1286.274630,-11177.109724,153.219100,1628.453072
1286.274941,-11251.130318,0.000000,666.185348
1286.275252,-9770.718434,536.266849,444.123565
1286.275564,-8586.388927,1685.410096,-0.000000
1286.275875,-7846.182985,1838.629195,-518.144159
1286.276186,-7105.977043,842.705048,-222.061783
1286.276498,-6809.894666,0.000000,-0.000000
1286.276809,-7476.080014,-306.438199,1258.350101
1286.277120,-7920.203579,612.876398,814.226536
1286.277431,-8956.491898,536.266849,518.144159
1286.277743,-9104.533087,76.609550,-0.000000
1286.278054,-8956.491898,76.609550,-0.000000
1286.278365,-8586.388927,0.000000,-74.020594
1286.278677,-8512.368333,-383.047749,-0.000000
1286.278988,-8660.409521,-612.876398,370.102971
1286.279299,-8956.491898,-1149.143247,962.267725
1286.279611,-9474.636058,-1915.238745,1332.370696
1286.279922,-9696.697840,-1149.143247,1850.514855
1286.280233,-9400.615463,-459.657299,1332.370696
1286.280545,-9326.594869,306.438199,1258.350101
1286.280856,-8660.409521,0.000000,1258.350101
1286.281167,-8068.244768,-612.876398,888.247130
1286.281479,-7624.121203,-919.314598,888.247130
1286.281790,-7105.977043,-766.095498,962.267725
1286.282101,-7402.059420,-1072.533697,222.061783
1286.282413,-8660.409521,-1149.143247,-0.000000
1286.282724,-9474.636058,-536.266849,-0.000000
1286.283035,-10140.821405,229.828649,-0.000000
1286.283347,-10807.006753,612.876398,222.061783
1286.283658,-10732.986159,0.000000,296.082377
1286.283969,-9548.656652,76.609550,740.205942
1286.284281,-8512.368333,0.000000,-0.000000
1286.284592,-7105.977043,-229.828649,-0.000000
1286.284903,-6883.915261,-1455.581446,-0.000000
1286.285215,-7476.080014,-2145.067394,222.061783
1286.285526,-8734.430116,-1762.019645,666.185348
1286.285837,-10140.821405,-919.314598,518.144159
1286.286149,-11843.295072,1302.362347,666.185348
1286.286460,-13101.645173,766.095498,740.205942
1286.286771,-11695.253884,612.876398,888.247130
1286.287083,-9844.739029,995.924147,740.205942
1286.287394,-7920.203579,1608.800546,592.164754
1286.287705,-6809.894666,995.924147,148.041188
1286.288017,-6957.935855,-229.828649,-0.000000
1286.288328,-7179.997637,-229.828649,-74.020594
1286.288639,-8142.265362,766.095498,-518.144159
1286.288951,-8882.471304,1838.629195,-296.082377
1286.289262,-9844.739029,1455.581446,-74.020594
1286.289573,-10362.883188,689.485948,-0.000000
1286.289884,-8956.491898,153.219100,222.061783
1286.290196,-7402.059420,76.609550,-0.000000
1286.290507,-7772.162391,-306.438199,296.082377
1286.290818,-7476.080014,-459.657299,444.123565
1286.291130,-8216.285956,-689.485948,444.123565
1286.291441,-8734.430116,0.000000,740.205942
1286.291752,-9252.574275,919.314598,592.164754
1286.292064,-10436.903782,919.314598,1184.329507
1286.292375,-10436.903782,536.266849,1628.453072
1286.292686,-9252.574275,0.000000,1258.350101
1286.292998,-7476.080014,-306.438199,962.267725
1286.293309,-6735.874072,0.000000,444.123565
1286.293620,-6143.709319,76.609550,888.247130
1286.293932,-7624.121203,-1378.971896,-0.000000
1286.294243,-8586.388927,-919.314598,-0.000000
1286.294554,-9474.636058,459.657299,444.123565
1286.294866,-10955.047942,1302.362347,962.267725
1286.295177,-11843.295072,306.438199,1110.308913
1286.295488,-10955.047942,0.000000,1036.288319
1286.295800,-9400.615463,-612.876398,962.267725
1286.296111,-7179.997637,689.485948,518.144159
1286.296422,-6957.935855,-229.828649,-296.082377
1286.296734,-7105.977043,-995.924147,-74.020594
1286.297045,-7624.121203,-1608.800546,148.041188
1286.297356,-8882.471304,-1149.143247,296.082377
1286.297668,-10362.883188,-153.219100,666.185348
1286.297979,-11843.295072,536.266849,1258.350101
1286.298290,-12879.583391,229.828649,1110.308913
1286.298602,-11547.212695,383.047749,1850.514855
1286.298913,-9400.615463,-153.219100,1110.308913
1286.299224,-8364.327145,459.657299,592.164754
1286.299536,-7550.100608,229.828649,-0.000000
1286.299847,-6513.812290,306.438199,-444.123565
1286.300158,-6587.832884,0.000000,-370.102971
1286.300470,-7328.038826,-306.438199,-814.226536
1286.300781,-9252.574275,383.047749,-222.061783
1286.301092,-10584.944971,459.657299,-0.000000
1286.301404,-10066.800811,0.000000,-0.000000
1286.301715,-9474.636058,-306.438199,518.144159
1286.302026,-8956.491898,-229.828649,370.102971
1286.302337,-8216.285956,-995.924147,296.082377
1286.302649,-7624.121203,-1302.362347,592.164754
1286.302960,-7402.059420,-995.924147,814.226536
1286.303271,-7920.203579,-1685.410096,1850.514855
1286.303583,-9326.594869,-383.047749,1480.411884
1286.303894,-9844.739029,-766.095498,2294.638420
1286.304205,-9474.636058,-536.266849,1480.411884
1286.304517,-8216.285956,459.657299,740.205942
1286.304828,-7698.141797,995.924147,296.082377
1286.305139,-7624.121203,306.438199,-0.000000
1286.305451,-7772.162391,-612.876398,-222.061783
1286.305762,-7846.182985,-459.657299,666.185348
1286.306073,-8586.388927,-689.485948,370.102971
1286.306385,-10066.800811,306.438199,1184.329507
1286.306696,-10732.986159,612.876398,1406.391290
1286.307007,-10362.883188,459.657299,1258.350101
1286.307319,-9918.759623,0.000000,666.185348
1286.307630,-8364.327145,153.219100,444.123565
1286.307941,-7254.018232,689.485948,-222.061783
1286.308253,-7031.956449,383.047749,-296.082377
1286.308564,-7105.977043,-612.876398,-0.000000
1286.308875,-8512.368333,-995.924147,-222.061783
1286.309187,-9474.636058,-383.047749,222.061783
1286.309498,-11251.130318,459.657299,370.102971
1286.309809,-12731.542202,995.924147,1258.350101
1286.310121,-12953.603985,536.266849,1258.350101
1286.310432,-11399.171507,766.095498,1258.350101
1286.310743,-9030.512492,842.705048,1184.329507
1286.311055,-6883.915261,459.657299,888.247130
1286.311366,-5921.647536,-919.314598,666.185348
1286.311677,-5995.668130,-2145.067394,-0.000000
1286.311989,-6883.915261,-1225.752797,-0.000000
1286.312300,-8216.285956,0.000000,148.041188
1286.312611,-9696.697840,0.000000,-148.041188
1286.312923,-10362.883188,0.000000,296.082377
1286.313234,-10436.903782,-306.438199,444.123565
1286.313545,-9696.697840,-689.485948,-222.061783
1286.313857,-8068.244768,766.095498,148.041188
1286.314168,-7698.141797,229.828649,-148.041188
1286.314479,-7846.182985,-1072.533697,370.102971
1286.314790,-7846.182985,-1532.190996,296.082377
1286.315102,-7550.100608,-1225.752797,592.164754
1286.315413,-8734.430116,-306.438199,666.185348
1286.315724,-9696.697840,-689.485948,962.267725
1286.316036,-9992.780217,-1072.533697,888.247130
1286.316347,-9400.615463,-842.705048,370.102971
1286.316658,-8512.368333,-153.219100,148.041188
1286.316970,-8438.347739,-229.828649,-148.041188
1286.317281,-8438.347739,-459.657299,-296.082377
1286.317592,-8142.265362,-459.657299,-518.144159
1286.317904,-8660.409521,383.047749,-148.041188
1286.318215,-9992.780217,1302.362347,-0.000000
1286.318526,-11103.089130,1532.190996,592.164754
1286.318838,-10807.006753,766.095498,592.164754
1286.319149,-9696.697840,689.485948,148.041188
1286.319460,-7846.182985,995.924147,-0.000000
1286.319772,-7254.018232,306.438199,-666.185348
1286.320083,-6883.915261,229.828649,-814.226536
1286.320394,-7476.080014,0.000000,-814.226536
1286.320706,-9178.553681,-306.438199,-0.000000
1286.321017,-10140.821405,689.485948,592.164754
1286.321328,-11843.295072,919.314598,1184.329507
1286.321640,-12361.439231,689.485948,1850.514855
1286.321951,-10955.047942,689.485948,1850.514855
1286.322262,-9400.615463,0.000000,1036.288319
1286.322574,-7328.038826,1608.800546,888.247130
1286.322885,-6143.709319,1225.752797,444.123565
1286.323196,-5995.668130,-536.266849,-148.041188
1286.323508,-6809.894666,-459.657299,-0.000000
1286.323819,-7698.141797,0.000000,296.082377
1286.324130,-9326.594869,536.266849,962.267725
1286.324442,-10658.965565,0.000000,1184.329507
1286.324753,-10214.842000,76.609550,1184.329507
1286.325064,-9770.718434,-383.047749,740.205942
1286.325376,-7920.203579,0.000000,518.144159
1286.325687,-7254.018232,229.828649,666.185348
1286.325998,-7179.997637,-612.876398,370.102971
1286.326310,-7254.018232,-1455.581446,1036.288319
1286.326621,-7476.080014,-1991.848295,1406.391290
1286.326932,-8068.244768,-995.924147,1406.391290
1286.327244,-9474.636058,0.000000,1554.432478
1286.327555,-10288.862594,612.876398,1332.370696
1286.327866,-9696.697840,-383.047749,740.205942
1286.328178,-8882.471304,0.000000,888.247130
1286.328489,-7994.224174,76.609550,222.061783
1286.328801,-8068.244768,-306.438199,222.061783
1286.329112,-8364.327145,-1302.362347,370.102971
1286.329424,-8808.450710,-1072.533697,-0.000000
