#time,accel_x,accel_y,accel_z
1485.965659,-8068.244768,76.609550,518.144159
1485.965970,-8734.430116,-153.219100,370.102971
1485.966281,-8956.491898,-76.609550,518.144159
1485.966593,-9030.512492,-229.828649,518.144159
1485.966904,-8956.491898,0.000000,444.123565
1485.967215,-8956.491898,306.438199,1036.288319
1485.967527,-9030.512492,-153.219100,444.123565
1485.967838,-8882.471304,0.000000,148.041188
1485.968149,-8586.388927,0.000000,370.102971
1485.968461,-8808.450710,0.000000,444.123565
1485.968772,-8956.491898,76.609550,592.164754
1485.969083,-8882.471304,-153.219100,666.185348
1485.969395,-9104.533087,0.000000,518.144159
1485.969706,-9178.553681,0.000000,444.123565
1485.970017,-9030.512492,76.609550,666.185348
1485.970329,-9104.533087,-536.266849,518.144159
1485.970640,-8734.430116,0.000000,444.123565
1485.970951,-8734.430116,-153.219100,592.164754
1485.971263,-8808.450710,0.000000,518.144159
1485.971574,-8956.491898,76.609550,592.164754
1485.971885,-8808.450710,0.000000,666.185348
1485.972197,-8808.450710,536.266849,814.226536
1485.972508,-8882.471304,0.000000,518.144159
1485.972819,-8438.347739,0.000000,666.185348
1485.973131,-9104.533087,0.000000,370.102971
1485.973442,-8956.491898,0.000000,518.144159
1485.973753,-8808.450710,0.000000,592.164754
1485.974065,-9030.512492,0.000000,518.144159
1485.974376,-8956.491898,76.609550,518.144159
1485.974687,-8734.430116,-306.438199,444.123565
1485.974999,-8808.450710,76.609550,444.123565
1485.975310,-8586.388927,76.609550,296.082377
1485.975621,-8660.409521,-306.438199,740.205942
1485.975933,-8882.471304,-306.438199,666.185348
1485.976244,-8956.491898,0.000000,666.185348
1485.976555,-8882.471304,-229.828649,666.185348
1485.976867,-8808.450710,0.000000,1036.288319
1485.977178,-9030.512492,153.219100,370.102971
1485.977489,-8956.491898,0.000000,666.185348
1485.977801,-8808.450710,-459.657299,444.123565
1485.978112,-8808.450710,0.000000,592.164754
1485.978423,-9030.512492,153.219100,592.164754
1485.978735,-9030.512492,-153.219100,666.185348
1485.979046,-8882.471304,-383.047749,740.205942
1485.979357,-8882.471304,153.219100,444.123565
1485.979669,-8586.388927,0.000000,592.164754
1485.979980,-8808.450710,-306.438199,740.205942
1485.980291,-8882.471304,-612.876398,740.205942
1485.980603,-8808.450710,0.000000,592.164754
1485.980914,-8956.491898,0.000000,518.144159
1485.981225,-8956.491898,0.000000,518.144159
1485.981537,-8882.471304,-766.095498,666.185348
1485.981848,-8660.409521,-229.828649,592.164754
1485.982159,-8882.471304,0.000000,296.082377
1485.982471,-9030.512492,229.828649,148.041188
1485.982782,-8882.471304,76.609550,518.144159
1485.983093,-9252.574275,0.000000,666.185348
1485.983405,-9178.553681,0.000000,592.164754
1485.983716,-9178.553681,0.000000,592.164754
1485.984027,-8882.471304,-459.657299,592.164754
1485.984339,-8734.430116,306.438199,296.082377
1485.984650,-8956.491898,0.000000,370.102971
1485.984961,-8586.388927,383.047749,592.164754
1485.985273,-8882.471304,0.000000,370.102971
1485.985584,-8956.491898,-306.438199,740.205942
1485.985895,-8882.471304,-229.828649,518.144159
1485.986207,-8882.471304,-229.828649,444.123565
1485.986518,-8586.388927,-383.047749,222.061783
1485.986829,-8882.471304,76.609550,666.185348
1485.987141,-8808.450710,0.000000,-0.000000
1485.987452,-8956.491898,0.000000,518.144159
1485.987763,-9030.512492,-153.219100,444.123565
1485.988075,-9178.553681,-383.047749,592.164754
1485.988386,-9030.512492,0.000000,518.144159
1485.988697,-9104.533087,0.000000,444.123565
1485.989009,-8734.430116,229.828649,296.082377
1485.989320,-9030.512492,459.657299,666.185348
1485.989631,-8660.409521,-229.828649,444.123565
1485.989943,-9178.553681,76.609550,296.082377
1485.990254,-8956.491898,76.609550,518.144159
1485.990565,-8882.471304,0.000000,666.185348
1485.990877,-8734.430116,0.000000,592.164754
1485.991188,-8660.409521,689.485948,740.205942
1485.991499,-8808.450710,-459.657299,592.164754
1485.991811,-9030.512492,76.609550,370.102971
1485.992122,-8660.409521,153.219100,370.102971
1485.992433,-8660.409521,-306.438199,888.247130
1485.992745,-8882.471304,0.000000,592.164754
1485.993056,-8808.450710,0.000000,518.144159
1485.993367,-10510.924376,306.438199,370.102971
1485.993679,-11843.295072,1685.410096,296.082377
1485.993990,-9400.615463,4366.744339,888.247130
1485.994301,-7550.100608,4596.572988,370.102971
1485.994613,-6883.915261,2298.286494,1110.308913
1485.994924,-6365.771101,-536.266849,814.226536
1485.995235,-7328.038826,-1532.190996,-74.020594
1485.995547,-7179.997637,-459.657299,-74.020594
1485.995858,-10288.862594,-842.705048,-962.267725
1485.996169,-13101.645173,-612.876398,-666.185348
1485.996481,-10955.047942,536.266849,592.164754
1485.996792,-9400.615463,-306.438199,1184.329507
1485.997103,-8512.368333,-306.438199,2812.782580
1485.997415,-11399.171507,0.000000,1850.514855
1485.997726,-9992.780217,2987.772442,2294.638420
1485.998037,-5329.482782,5592.497135,2220.617826
1485.998349,-6809.894666,4136.915689,1332.370696
1485.998660,-8364.327145,2528.115143,-444.123565
1485.998971,-7105.977043,2757.943793,-2072.576638
1485.999283,-9104.533087,3447.429741,-2442.679609
1485.999594,-8586.388927,4290.134789,-222.061783
1485.999905,-10881.027347,2911.162892,-1332.370696
1486.000217,-14730.098246,-612.876398,-74.020594
1486.000528,-9326.594869,-1455.581446,2812.782580
1486.000839,-9178.553681,229.828649,1110.308913
1486.001151,-9400.615463,4213.525239,2146.597232
1486.001462,-7476.080014,6052.154434,1924.535449
1486.001773,-7698.141797,3447.429741,1702.473667
1486.002085,-6587.832884,3370.820191,2516.700203
1486.002396,-7402.059420,6281.983084,1036.288319
1486.002707,-8882.471304,7048.078582,-518.144159
1486.003019,-9104.533087,5439.278036,-1406.391290
1486.003330,-9326.594869,4443.353888,-1332.370696
1486.003641,-10066.800811,4749.792088,-1702.473667
1486.003953,-11621.233289,5822.325785,-0.000000
1486.004264,-11917.315666,5362.668486,666.185348
1486.004575,-10510.924376,4136.915689,1702.473667
1486.004887,-9622.677246,4903.011187,2368.659014
1486.005198,-7772.162391,5745.716235,2220.617826
1486.005509,-5921.647536,5745.716235,-0.000000
1486.005821,-5107.421000,5592.497135,370.102971
1486.006132,-4589.276840,5975.544884,-0.000000
1486.006443,-5995.668130,4903.011187,-1110.308913
1486.006755,-7105.977043,4213.525239,-592.164754
1486.007066,-8956.491898,3064.381992,-1036.288319
1486.007377,-10288.862594,2298.286494,962.267725
1486.007689,-10881.027347,536.266849,962.267725
1486.008000,-11325.150913,76.609550,1924.535449
1486.008311,-10881.027347,0.000000,1702.473667
1486.008623,-9918.759623,2068.457845,2368.659014
1486.008934,-7920.203579,3294.210641,1998.556043
1486.009245,-6587.832884,3907.087040,-0.000000
1486.009557,-6291.750507,3370.820191,-74.020594
1486.009868,-7105.977043,3217.601092,-666.185348
1486.010179,-7254.018232,3830.477490,-518.144159
1486.010491,-7328.038826,2834.553343,-1110.308913
1486.010802,-9178.553681,-306.438199,-740.205942
1486.011113,-10288.862594,-2068.457845,-222.061783
1486.011425,-11843.295072,-2604.724693,666.185348
1486.011736,-12583.501014,-1915.238745,1628.453072
1486.012047,-12953.603985,-1072.533697,1628.453072
1486.012359,-12361.439231,842.705048,1480.411884
1486.012670,-11695.253884,2451.505594,222.061783
1486.012981,-8808.450710,4903.011187,-0.000000
1486.013293,-6957.935855,4979.620737,-74.020594
1486.013604,-6365.771101,4673.182538,814.226536
1486.013915,-6217.729913,3907.087040,1110.308913
1486.014227,-7698.141797,3140.991542,444.123565
1486.014538,-9622.677246,1838.629195,-148.041188
1486.014849,-11621.233289,766.095498,-444.123565
1486.015161,-12509.480420,0.000000,-148.041188
1486.015472,-13915.871710,-612.876398,-74.020594
1486.015783,-13989.892304,383.047749,-0.000000
1486.016095,-12657.521608,2757.943793,814.226536
1486.016406,-10066.800811,3907.087040,2072.576638
1486.016717,-8142.265362,3907.087040,1998.556043
1486.017029,-5477.523971,4596.572988,2368.659014
1486.017340,-2294.638420,5669.106685,666.185348
1486.017651,-1702.473667,6435.202183,-592.164754
1486.017963,-1924.535449,5592.497135,-1628.453072
1486.018274,-4959.379811,3983.696590,-2442.679609
1486.018585,-9474.636058,2451.505594,-1184.329507
1486.018897,-13323.706956,3370.820191,-0.000000
1486.019208,-15914.427753,2987.772442,1480.411884
1486.019519,-16358.551318,3140.991542,3330.926739
1486.019831,-13397.727550,3524.039291,4071.132681
1486.020142,-8882.471304,3217.601092,3034.844362
1486.020453,-4441.235652,3830.477490,2072.576638
1486.020765,-2368.659014,5822.325785,-148.041188
1486.021076,-1406.391290,7354.516781,-1480.411884
1486.021387,-2516.700203,7277.907231,-2516.700203
1486.021699,-5551.544565,5669.106685,-2220.617826
1486.022010,-8068.244768,3677.258390,-666.185348
1486.022321,-9548.656652,1302.362347,518.144159
1486.022633,-11473.192101,-1149.143247,1110.308913
1486.022944,-11991.336260,-3677.258390,1702.473667
1486.023255,-12731.542202,-2681.334243,1924.535449
1486.023567,-12879.583391,-306.438199,1628.453072
1486.023878,-12583.501014,1915.238745,2072.576638
1486.024189,-11547.212695,3370.820191,1924.535449
1486.024501,-9770.718434,5056.230287,1850.514855
1486.024812,-7105.977043,6052.154434,2294.638420
1486.025123,-5699.585753,5132.839837,1406.391290
1486.025435,-6365.771101,3294.210641,-222.061783
1486.025746,-6513.812290,2987.772442,-1776.494261
1486.026057,-8142.265362,3064.381992,-2960.823768
1486.026369,-10140.821405,3600.648841,-2590.720797
1486.026680,-11769.274478,3983.696590,-1628.453072
1486.026991,-12435.459826,3140.991542,-666.185348
1486.027303,-12213.398043,1378.971896,1776.494261
1486.027614,-11769.274478,766.095498,2590.720797
1486.027925,-12287.418637,2374.896044,2368.659014
1486.028237,-10658.965565,5669.106685,2072.576638
1486.028548,-9030.512492,6665.030833,148.041188
1486.028859,-6439.791695,6358.592633,-0.000000
1486.029171,-5477.523971,4366.744339,-1184.329507
1486.029482,-6143.709319,2451.505594,-1184.329507
1486.029793,-7254.018232,1532.190996,-1036.288319
1486.030105,-9104.533087,1915.238745,-0.000000
1486.030416,-9400.615463,842.705048,518.144159
1486.030727,-8956.491898,-842.705048,1702.473667
1486.031039,-8216.285956,-3524.039291,2368.659014
1486.031350,-7772.162391,-2068.457845,1998.556043
1486.031661,-8216.285956,2374.896044,592.164754
1486.031973,-9696.697840,6818.249932,-888.247130
1486.032284,-10288.862594,9039.926876,-740.205942
1486.032595,-10066.800811,8963.317327,666.185348
1486.032907,-10066.800811,5286.058936,1258.350101
1486.033218,-8808.450710,3753.867940,1628.453072
1486.033529,-8216.285956,3447.429741,666.185348
1486.033841,-7772.162391,4060.306139,740.205942
1486.034152,-5995.668130,3217.601092,592.164754
1486.034463,-4811.338623,995.924147,592.164754
1486.034775,-5625.565159,-459.657299,-222.061783
1486.035086,-6883.915261,0.000000,-148.041188
1486.035397,-9474.636058,3830.477490,-1480.411884
1486.035709,-11843.295072,6358.592633,-962.267725
1486.036020,-12879.583391,7048.078582,962.267725
1486.036331,-13767.830521,3830.477490,2886.803174
1486.036643,-14582.057057,1149.143247,3404.947333
1486.036954,-11547.212695,2451.505594,3849.070898
1486.037265,-7920.203579,3370.820191,2146.597232
1486.037577,-5477.523971,1455.581446,1850.514855
1486.037888,-3256.906145,-2221.676944,814.226536
1486.038200,-3256.906145,-5209.449386,-814.226536
1486.038511,-5033.400406,-3447.429741,-814.226536
1486.038822,-6809.894666,1991.848295,-888.247130
1486.039134,-10955.047942,5286.058936,-1554.432478
1486.039445,-14582.057057,5286.058936,296.082377
1486.039757,-16950.716072,3217.601092,1776.494261
1486.040068,-17172.777854,3524.039291,2886.803174
1486.040379,-13101.645173,6665.030833,3108.864956
1486.040691,-9030.512492,6588.421283,1776.494261
1486.041002,-4663.297435,2911.162892,444.123565
1486.041314,-2220.617826,-1072.533697,-888.247130
1486.041625,-740.205942,-766.095498,-1924.535449
1486.041936,-1258.350101,2451.505594,-1628.453072
1486.042248,-5477.523971,3600.648841,-814.226536
1486.042559,-12065.356855,1762.019645,444.123565
1486.042870,-16062.468941,1762.019645,296.082377
1486.043182,-16062.468941,3830.477490,888.247130
1486.043493,-13545.768739,5898.935335,962.267725
1486.043805,-11621.233289,4826.401637,-814.226536
1486.044116,-10658.965565,2298.286494,-1924.535449
1486.044427,-7254.018232,2374.896044,-1554.432478
1486.044739,-3923.091493,3064.381992,-148.041188
1486.045050,-4737.318029,2757.943793,1332.370696
1486.045362,-6587.832884,229.828649,3108.864956
1486.045673,-10436.903782,-2374.896044,3256.906145
1486.045984,-9696.697840,-612.876398,3108.864956
1486.046296,-8956.491898,5592.497135,1110.308913
1486.046607,-9770.718434,9039.926876,-2294.638420
1486.046919,-9252.574275,8656.879127,-4145.153275
1486.047230,-7624.121203,5669.106685,-5403.503377
1486.047541,-7105.977043,7277.907231,-2886.803174
1486.047853,-10510.924376,8810.098227,-814.226536
1486.048164,-14730.098246,6818.249932,962.267725
1486.048476,-13915.871710,2374.896044,4145.153275
1486.048787,-10362.883188,-1225.752797,5625.565159
1486.049098,-7476.080014,-1991.848295,3923.091493
1486.049410,-4663.297435,689.485948,-0.000000
1486.049721,-2442.679609,3064.381992,-1998.556043
1486.050032,-2886.803174,2451.505594,-1924.535449
1486.050344,-5921.647536,3524.039291,-962.267725
1486.050655,-12583.501014,5745.716235,-148.041188
1486.050967,-15840.407159,5898.935335,2146.597232
1486.051278,-15100.201217,4903.011187,4145.153275
1486.051589,-11843.295072,3753.867940,3552.988522
1486.051901,-8364.327145,3907.087040,592.164754
1486.052212,-4589.276840,2374.896044,-444.123565
1486.052524,-2738.761985,-153.219100,-592.164754
1486.052835,-5255.462188,-1455.581446,1110.308913
1486.053146,-7105.977043,229.828649,1850.514855
1486.053458,-8956.491898,-919.314598,2220.617826
1486.053769,-11547.212695,-3064.381992,3256.906145
1486.054081,-9844.739029,-2451.505594,2960.823768
1486.054392,-7994.224174,536.266849,-740.205942
1486.054703,-6513.812290,2987.772442,-2072.576638
1486.055015,-7846.182985,2911.162892,-1036.288319
1486.055326,-11177.109724,2987.772442,-1258.350101
1486.055638,-11843.295072,4443.353888,592.164754
1486.055949,-11991.336260,3677.258390,2664.741391
1486.056260,-11621.233289,383.047749,3330.926739
1486.056572,-9548.656652,1149.143247,2294.638420
1486.056883,-8290.306550,3753.867940,1110.308913
1486.057195,-6883.915261,3677.258390,-0.000000
1486.057506,-6957.935855,4136.915689,-962.267725
1486.057817,-9252.574275,5132.839837,-2220.617826
1486.058129,-11251.130318,5362.668486,-2812.782580
1486.058440,-10955.047942,3677.258390,-3256.906145
1486.058751,-9252.574275,3753.867940,-3404.947333
1486.059063,-10214.842000,5362.668486,-3034.844362
1486.059374,-10658.965565,3217.601092,370.102971
1486.059686,-10658.965565,-1608.800546,2294.638420
1486.059997,-11029.068536,-4366.744339,3997.112087
1486.060308,-10436.903782,-2451.505594,5995.668130
1486.060620,-8882.471304,-919.314598,3330.926739
1486.060931,-6291.750507,459.657299,-518.144159
1486.061243,-4515.256246,1532.190996,-2220.617826
1486.061554,-5403.503377,1991.848295,-3256.906145
1486.061865,-6883.915261,3983.696590,-2590.720797
1486.062177,-9474.636058,5056.230287,-1776.494261
1486.062488,-12361.439231,1838.629195,1110.308913
1486.062800,-12361.439231,-2145.067394,1850.514855
1486.063111,-9548.656652,-2451.505594,1332.370696
1486.063422,-8142.265362,-1608.800546,1036.288319
1486.063734,-6809.894666,-1225.752797,1258.350101
1486.064045,-7254.018232,-1225.752797,740.205942
1486.064357,-8808.450710,-153.219100,1776.494261
1486.064668,-7179.997637,612.876398,3775.050304
1486.064979,-6661.853478,842.705048,2072.576638
1486.065291,-4959.379811,383.047749,1702.473667
1486.065602,-5255.462188,459.657299,-370.102971
1486.065913,-3701.029710,1302.362347,-1850.514855
1486.066225,-5625.565159,2451.505594,-3108.864956
1486.066536,-11473.192101,1608.800546,-666.185348
1486.066848,-12657.521608,0.000000,-0.000000
1486.067159,-13915.871710,-3753.867940,666.185348
1486.067470,-15766.386565,-4290.134789,2886.803174
1486.067782,-13397.727550,-2911.162892,4441.235652
1486.068093,-12361.439231,-1991.848295,1998.556043
1486.068405,-10214.842000,-766.095498,2368.659014
1486.068716,-6513.812290,-1762.019645,2294.638420
1486.069027,-3849.070898,-536.266849,296.082377
1486.069339,-4515.256246,2298.286494,-1036.288319
1486.069650,-5921.647536,3677.258390,-2146.597232
1486.069962,-6735.874072,2681.334243,-2664.741391
1486.070273,-10807.006753,1225.752797,-1258.350101
1486.070584,-13989.892304,1225.752797,-74.020594
1486.070896,-13545.768739,-76.609550,-0.000000
1486.071207,-13471.748144,-2528.115143,1628.453072
1486.071519,-12361.439231,-3983.696590,3256.906145
1486.071830,-12065.356855,-4136.915689,1998.556043
1486.072141,-10807.006753,-1532.190996,1628.453072
1486.072453,-9104.533087,1302.362347,1628.453072
1486.072764,-7179.997637,2451.505594,740.205942
1486.073075,-3923.091493,2987.772442,148.041188
1486.073387,-1924.535449,3677.258390,-1258.350101
1486.073698,-2220.617826,2834.553343,-1332.370696
1486.074010,-4959.379811,1915.238745,-1332.370696
1486.074321,-8734.430116,2528.115143,-1036.288319
1486.074632,-11547.212695,919.314598,518.144159
1486.074944,-12509.480420,-2374.896044,1480.411884
1486.075255,-11843.295072,-3370.820191,1628.453072
1486.075567,-10881.027347,-2604.724693,740.205942
1486.075878,-10066.800811,-1455.581446,-0.000000
1486.076189,-7254.018232,-1532.190996,1036.288319
1486.076501,-7105.977043,-459.657299,666.185348
1486.076812,-7402.059420,842.705048,1036.288319
1486.077124,-4293.194464,612.876398,592.164754
1486.077435,-2294.638420,1072.533697,-370.102971
1486.077746,-2664.741391,1838.629195,-740.205942
1486.078058,-5107.421000,1838.629195,-962.267725
1486.078369,-9178.553681,229.828649,-1036.288319
1486.078681,-13841.851115,-1685.410096,296.082377
1486.078992,-16506.592507,-1455.581446,1480.411884
1486.079303,-15470.304188,-1302.362347,1924.535449
1486.079615,-14952.160028,-995.924147,888.247130
1486.079926,-14285.974681,-1991.848295,592.164754
1486.080238,-10066.800811,-383.047749,-0.000000
1486.080549,-9104.533087,2221.676944,-444.123565
1486.080860,-7994.224174,3447.429741,-0.000000
1486.081172,-4441.235652,2681.334243,-740.205942
1486.081483,-4441.235652,1762.019645,-1850.514855
1486.081794,-3404.947333,1915.238745,296.082377
1486.082106,-4145.153275,1532.190996,740.205942
1486.082417,-9178.553681,-1378.971896,666.185348
1486.082729,-14582.057057,-2604.724693,2368.659014
1486.083040,-17098.757260,-2834.553343,2960.823768
1486.083351,-15470.304188,-2757.943793,3627.009116
1486.083663,-13323.706956,-2298.286494,1480.411884
1486.083974,-11251.130318,-536.266849,-370.102971
1486.084286,-8586.388927,0.000000,-1628.453072
1486.084597,-6957.935855,1302.362347,-2368.659014
1486.084908,-6365.771101,2987.772442,-1184.329507
1486.085220,-3627.009116,2604.724693,-222.061783
1486.085531,-962.267725,612.876398,814.226536
1486.085843,-666.185348,-3217.601092,2368.659014
1486.086154,-2072.576638,-5822.325785,3404.947333
1486.086465,-6143.709319,-6665.030833,3330.926739
1486.086777,-12953.603985,-5592.497135,2886.803174
1486.087088,-15248.242405,-2834.553343,3701.029710
1486.087400,-15470.304188,-2374.896044,2960.823768
1486.087711,-15100.201217,-2068.457845,1406.391290
1486.088022,-12435.459826,-459.657299,-222.061783
1486.088334,-9252.574275,2911.162892,-2368.659014
1486.088645,-7031.956449,6971.469032,-3256.906145
1486.088956,-5033.400406,8427.050478,-1998.556043
1486.089268,-1850.514855,6435.202183,-962.267725
1486.089579,814.226536,3294.210641,-74.020594
1486.089891,518.144159,689.485948,1406.391290
1486.090202,-3182.885551,-995.924147,1110.308913
1486.090513,-9992.780217,-1072.533697,518.144159
1486.090825,-16728.654289,-689.485948,1110.308913
1486.091136,-20651.745782,-842.705048,1258.350101
1486.091448,-18949.272115,-1302.362347,1776.494261
1486.091759,-17024.736666,-1762.019645,740.205942
1486.092070,-13989.892304,-1608.800546,-1406.391290
1486.092382,-9252.574275,1072.533697,-2146.597232
1486.092693,-5477.523971,4443.353888,-1924.535449
1486.093005,-3923.091493,4443.353888,-296.082377
1486.093316,-1554.432478,689.485948,1776.494261
1486.093627,0.000000,-1532.190996,1332.370696
1486.093939,-3034.844362,-3064.381992,1924.535449
1486.094250,-7254.018232,-2451.505594,1184.329507
1486.094562,-11991.336260,-2374.896044,1110.308913
1486.094873,-16580.613101,-2834.553343,1850.514855
1486.095184,-17468.860231,-3983.696590,4367.215058
1486.095496,-16136.489536,-4519.963438,3478.967927
1486.095807,-13471.748144,-2987.772442,1036.288319
1486.096119,-9696.697840,-766.095498,-1110.308913
1486.096430,-6587.832884,1762.019645,-3182.885551
1486.096741,-3552.988522,4903.011187,-2738.761985
1486.097053,-3552.988522,5745.716235,-1776.494261
1486.097364,-2590.720797,3370.820191,-0.000000
1486.097675,-592.164754,-153.219100,1628.453072
1486.097987,-1554.432478,-1608.800546,2590.720797
1486.098298,-3701.029710,-2374.896044,2590.720797
1486.098610,-7846.182985,-2834.553343,1998.556043
1486.098921,-15174.221811,-2681.334243,1924.535449
1486.099232,-18875.251521,-1149.143247,1924.535449
1486.099544,-18727.210333,0.000000,1258.350101
1486.099855,-17468.860231,1378.971896,-518.144159
1486.100167,-14285.974681,2757.943793,-1850.514855
1486.100478,-9474.636058,2757.943793,-1924.535449
1486.100789,-4959.379811,1455.581446,-1406.391290
1486.101101,-3182.885551,0.000000,592.164754
1486.101412,-2442.679609,-1072.533697,1776.494261
1486.101724,-2442.679609,-1149.143247,592.164754
1486.102035,-5625.565159,-536.266849,222.061783
1486.102346,-9548.656652,-383.047749,-296.082377
1486.102658,-12287.418637,0.000000,592.164754
1486.102969,-15692.365970,0.000000,2072.576638
1486.103281,-16950.716072,-459.657299,4071.132681
1486.103592,-14582.057057,-2528.115143,2738.761985
1486.103903,-10955.047942,-1762.019645,518.144159
1486.104215,-6365.771101,1225.752797,-592.164754
1486.104526,-2886.803174,2681.334243,-2886.803174
1486.104837,-2368.659014,2451.505594,-3923.091493
1486.105149,-4885.359217,1838.629195,-2590.720797
1486.105460,-5403.503377,1225.752797,-518.144159
1486.105772,-4515.256246,153.219100,1406.391290
1486.106083,-7254.018232,-1302.362347,2664.741391
1486.106394,-10214.842000,-3524.039291,3108.864956
1486.106706,-10584.944971,-2757.943793,3108.864956
1486.107017,-12435.459826,-1378.971896,2368.659014
1486.107329,-13619.789333,995.924147,1998.556043
1486.107640,-12509.480420,2528.115143,-666.185348
1486.107951,-10140.821405,2528.115143,-2664.741391
1486.108263,-7772.162391,2374.896044,-2738.761985
1486.108574,-4885.359217,2068.457845,-1850.514855
1486.108886,-3552.988522,842.705048,-592.164754
1486.109197,-7698.141797,-1225.752797,-592.164754
1486.109508,-8216.285956,-1532.190996,1184.329507
1486.109820,-5477.523971,-383.047749,1480.411884
1486.110131,-7846.182985,-459.657299,1480.411884
1486.110443,-8956.491898,-1455.581446,2886.803174
1486.110754,-10658.965565,-1915.238745,2146.597232
1486.111065,-14285.974681,-1455.581446,2072.576638
1486.111377,-15766.386565,459.657299,3182.885551
1486.111688,-15100.201217,-306.438199,666.185348
1486.112000,-11843.295072,0.000000,-370.102971
1486.112311,-7846.182985,76.609550,-148.041188
1486.112622,-6069.688724,0.000000,-518.144159
1486.112934,-6365.771101,-995.924147,-814.226536
1486.113245,-8216.285956,0.000000,-0.000000
1486.113556,-8216.285956,-536.266849,2664.741391
1486.113868,-6587.832884,-1915.238745,2738.761985
1486.114179,-6513.812290,-2298.286494,2812.782580
1486.114491,-5847.626942,-2298.286494,2960.823768
1486.114802,-6661.853478,-3447.429741,1776.494261
1486.115113,-8438.347739,-842.705048,1702.473667
1486.115425,-10955.047942,995.924147,-0.000000
1486.115736,-12435.459826,612.876398,-74.020594
1486.116048,-11103.089130,-306.438199,-1110.308913
1486.116359,-9474.636058,229.828649,-2294.638420
1486.116670,-9030.512492,1532.190996,-2960.823768
1486.116982,-7031.956449,2451.505594,-2146.597232
1486.117293,-7402.059420,1838.629195,-444.123565
1486.117605,-8586.388927,612.876398,2368.659014
1486.117916,-4885.359217,-383.047749,4071.132681
1486.118227,-5403.503377,-1225.752797,2590.720797
1486.118539,-6587.832884,-1378.971896,2886.803174
1486.118850,-6809.894666,-459.657299,148.041188
1486.119162,-10436.903782,0.000000,-1554.432478
1486.119473,-13767.830521,1149.143247,-2294.638420
1486.119784,-15618.345376,1072.533697,-3552.988522
1486.120096,-13767.830521,919.314598,-2738.761985
1486.120407,-12879.583391,1455.581446,-1554.432478
1486.120718,-12583.501014,-153.219100,-592.164754
1486.121030,-10510.924376,76.609550,-148.041188
1486.121341,-8660.409521,1838.629195,1332.370696
1486.121653,-6513.812290,2911.162892,2886.803174
1486.121964,-5033.400406,2987.772442,3552.988522
1486.122275,-5033.400406,2374.896044,1702.473667
1486.122587,-4811.338623,1225.752797,444.123565
1486.122898,-5477.523971,1762.019645,-1184.329507
1486.123210,-8660.409521,1532.190996,-1628.453072
1486.123521,-11399.171507,1608.800546,-1184.329507
1486.123832,-13175.665768,-1762.019645,-222.061783
1486.124144,-11843.295072,-4903.011187,962.267725
1486.124455,-11103.089130,-3600.648841,1110.308913
1486.124767,-9622.677246,-1378.971896,592.164754
1486.125078,-8142.265362,919.314598,888.247130
1486.125389,-8734.430116,766.095498,2294.638420
1486.125701,-7105.977043,459.657299,4959.379811
1486.126012,-2960.823768,689.485948,4663.297435
1486.126324,-814.226536,-1762.019645,4219.173869
1486.126635,-962.267725,-3370.820191,2442.679609
1486.126946,-2220.617826,-2834.553343,1184.329507
1486.127258,-5255.462188,-2068.457845,-1628.453072
1486.127569,-11325.150913,-2451.505594,-1110.308913
1486.127881,-13545.768739,-3217.601092,-370.102971
1486.128192,-14952.160028,-3064.381992,296.082377
1486.128503,-16876.695478,-2451.505594,296.082377
1486.128815,-16580.613101,-1455.581446,1184.329507
1486.129126,-14508.036463,995.924147,1110.308913
1486.129437,-10955.047942,4596.572988,2072.576638
1486.129749,-6735.874072,4749.792088,3182.885551
1486.130060,-2812.782580,1378.971896,2738.761985
1486.130372,-222.061783,536.266849,592.164754
1486.130683,-666.185348,1532.190996,-1702.473667
1486.130994,-4515.256246,2604.724693,-3256.906145
1486.131306,-9474.636058,3370.820191,-3478.967927
1486.131617,-15544.324782,1762.019645,-2590.720797
1486.131929,-19837.519246,-2221.676944,-814.226536
1486.132240,-18579.169144,-3447.429741,2146.597232
1486.132551,-17024.736666,-2374.896044,1258.350101
1486.132863,-15026.180623,-229.828649,1776.494261
1486.133174,-10066.800811,842.705048,2072.576638
1486.133486,-7031.956449,689.485948,1184.329507
1486.133797,-4145.153275,2145.067394,1998.556043
1486.134108,370.102971,2374.896044,1850.514855
1486.134420,-1036.288319,612.876398,-1480.411884
1486.134731,-3627.009116,229.828649,-1406.391290
1486.135043,-4441.235652,612.876398,-3552.988522
1486.135354,-7698.141797,-229.828649,-1850.514855
1486.135665,-11917.315666,-2451.505594,296.082377
1486.135977,-15544.324782,-4213.525239,2072.576638
1486.136288,-13249.686362,-4596.572988,2220.617826
1486.136599,-11473.192101,-3140.991542,-0.000000
1486.136911,-9474.636058,-536.266849,592.164754
1486.137222,-6365.771101,1072.533697,-518.144159
1486.137533,-4515.256246,2298.286494,-222.061783
1486.137845,-2664.741391,2145.067394,1480.411884
1486.138156,-2960.823768,919.314598,1110.308913
1486.138467,-3478.967927,536.266849,2146.597232
1486.138778,-4293.194464,-842.705048,592.164754
1486.139090,-6143.709319,-1991.848295,962.267725
1486.139401,-9252.574275,-1455.581446,-0.000000
1486.139712,-14878.139434,-612.876398,296.082377
1486.140024,-18209.066173,-1378.971896,-0.000000
1486.140335,-16580.613101,-919.314598,-74.020594
1486.140646,-13915.871710,766.095498,-74.020594
1486.140958,-12435.459826,842.705048,-148.041188
1486.141269,-10807.006753,153.219100,-296.082377
1486.141580,-8956.491898,1685.410096,-814.226536
1486.141891,-7846.182985,4060.306139,1184.329507
1486.142203,-4885.359217,3983.696590,2072.576638
1486.142514,-4145.153275,306.438199,1036.288319
1486.142825,-6439.791695,-383.047749,1406.391290
1486.143137,-7105.977043,-612.876398,1924.535449
1486.143448,-9326.594869,-1302.362347,1036.288319
1486.143759,-13397.727550,-919.314598,1776.494261
1486.144071,-15026.180623,-1532.190996,1332.370696
1486.144382,-12805.562797,-3140.991542,296.082377
1486.144693,-8882.471304,-2145.067394,-74.020594
1486.145004,-8586.388927,-1072.533697,-1258.350101
1486.145316,-8142.265362,383.047749,-1406.391290
1486.145627,-8142.265362,2145.067394,-1036.288319
1486.145938,-9474.636058,3140.991542,666.185348
1486.146250,-7402.059420,3600.648841,2738.761985
1486.146561,-3627.009116,1378.971896,4071.132681
1486.146872,-1998.556043,-1378.971896,3627.009116
1486.147184,-2072.576638,-2451.505594,3997.112087
1486.147495,-4441.235652,-3447.429741,2220.617826
1486.147806,-6883.915261,-2451.505594,1332.370696
1486.148117,-8216.285956,-919.314598,740.205942
1486.148429,-10140.821405,-2528.115143,-1258.350101
1486.148740,-10584.944971,-2068.457845,-3404.947333
1486.149051,-12139.377449,1149.143247,-4737.318029
1486.149363,-11991.336260,3753.867940,-3108.864956
1486.149674,-12657.521608,3447.429741,-1776.494261
1486.149985,-13101.645173,2834.553343,1036.288319
1486.150297,-11103.089130,2374.896044,4293.194464
1486.150608,-5033.400406,1455.581446,5699.585753
1486.150919,-370.102971,229.828649,4219.173869
1486.151230,-1110.308913,-1149.143247,1332.370696
1486.151542,-3849.070898,-1685.410096,-1850.514855
1486.151853,-8660.409521,-1532.190996,-4219.173869
1486.152164,-15396.283594,536.266849,-3849.070898
1486.152476,-18579.169144,1455.581446,-2664.741391
1486.152787,-17838.963202,0.000000,-1776.494261
1486.153098,-18505.148550,-2298.286494,-1332.370696
1486.153410,-16728.654289,-1838.629195,222.061783
1486.153721,-11621.233289,536.266849,1110.308913
1486.154032,-8586.388927,919.314598,1702.473667
1486.154343,-3923.091493,1225.752797,4885.359217
1486.154655,2368.659014,536.266849,5255.462188
1486.154966,1258.350101,-2911.162892,3997.112087
1486.155277,74.020594,-5209.449386,1554.432478
1486.155589,-2886.803174,-2451.505594,-74.020594
1486.155900,-8068.244768,-2374.896044,-1998.556043
1486.156211,-15174.221811,-1302.362347,-0.000000
1486.156523,-18431.127956,-3140.991542,-740.205942
1486.156834,-16580.613101,-2604.724693,-2294.638420
1486.157145,-16284.530724,-689.485948,148.041188
1486.157456,-12509.480420,0.000000,888.247130
1486.157768,-10066.800811,2528.115143,-0.000000
1486.158079,-6957.935855,3370.820191,1406.391290
1486.158390,-888.247130,2681.334243,1924.535449
1486.158702,2368.659014,995.924147,4959.379811
1486.159013,4441.235652,-459.657299,4811.338623
1486.159324,3404.947333,-3217.601092,2442.679609
1486.159636,-2442.679609,-2911.162892,-222.061783
1486.159947,-11251.130318,-1302.362347,-1924.535449
1486.160258,-19541.436869,1378.971896,-2664.741391
1486.160569,-22798.343014,2911.162892,-1850.514855
1486.160881,-21317.931130,1991.848295,-1850.514855
1486.161192,-17987.004391,1762.019645,-518.144159
1486.161503,-13767.830521,919.314598,296.082377
1486.161815,-7920.203579,842.705048,2072.576638
1486.162126,-3627.009116,1455.581446,4219.173869
1486.162437,814.226536,2221.676944,5551.544565
1486.162749,-888.247130,1302.362347,3849.070898
1486.163060,-4367.215058,76.609550,-74.020594
1486.163371,-5403.503377,689.485948,-2960.823768
1486.163682,-6587.832884,3294.210641,-4145.153275
1486.163994,-10362.883188,2604.724693,-3108.864956
1486.164305,-16654.633695,-153.219100,-740.205942
1486.164616,-19393.395680,-4136.915689,2368.659014
1486.164928,-15174.221811,-4673.182538,3182.885551
1486.165239,-11621.233289,-1991.848295,3923.091493
1486.165550,-8660.409521,306.438199,1554.432478
1486.165862,-6439.791695,2298.286494,-1036.288319
1486.166173,-2590.720797,4290.134789,-2368.659014
1486.166484,74.020594,4060.306139,-0.000000
1486.166795,-444.123565,2298.286494,1406.391290
1486.167107,-2368.659014,-919.314598,962.267725
1486.167418,-7254.018232,-4443.353888,370.102971
1486.167729,-9474.636058,-4213.525239,1702.473667
1486.168041,-11103.089130,-2911.162892,1554.432478
1486.168352,-16506.592507,-2068.457845,1998.556043
1486.168663,-16950.716072,-3217.601092,1850.514855
1486.168975,-15174.221811,-3983.696590,-74.020594
1486.169286,-12213.398043,0.000000,-296.082377
1486.169597,-9474.636058,2987.772442,-740.205942
1486.169908,-6217.729913,3140.991542,-666.185348
1486.170220,-5181.441594,1225.752797,-0.000000
1486.170531,-4515.256246,306.438199,2368.659014
1486.170842,-370.102971,919.314598,1924.535449
1486.171154,-1036.288319,995.924147,-222.061783
1486.171465,-6735.874072,306.438199,-2368.659014
1486.171776,-10658.965565,0.000000,-1554.432478
1486.172087,-14211.954086,459.657299,-2072.576638
1486.172399,-19171.333898,919.314598,370.102971
1486.172710,-20059.581028,-536.266849,2664.741391
1486.173021,-17172.777854,-2757.943793,2442.679609
1486.173333,-13101.645173,-2834.553343,2294.638420
1486.173644,-8290.306550,-1225.752797,1110.308913
1486.173955,-4515.256246,0.000000,-0.000000
1486.174267,-3849.070898,383.047749,-0.000000
1486.174578,-3478.967927,2298.286494,666.185348
1486.174889,-3330.926739,1455.581446,-1258.350101
1486.175200,-3552.988522,459.657299,-1702.473667
1486.175512,-5033.400406,1455.581446,-518.144159
1486.175823,-8364.327145,-536.266849,1184.329507
1486.176134,-11103.089130,-4060.306139,2294.638420
1486.176446,-14211.954086,-4136.915689,4219.173869
1486.176757,-15470.304188,-1685.410096,4589.276840
1486.177068,-13841.851115,0.000000,3034.844362
1486.177380,-9548.656652,0.000000,148.041188
1486.177691,-5403.503377,1149.143247,-2886.803174
1486.178002,-1332.370696,1532.190996,-3775.050304
1486.178313,-962.267725,2757.943793,-3701.029710
1486.178625,-4737.318029,2911.162892,-666.185348
1486.178936,-5255.462188,-153.219100,1258.350101
1486.179247,-4589.276840,-2757.943793,3404.947333
1486.179559,-6883.915261,-3830.477490,4145.153275
1486.179870,-9696.697840,-2068.457845,3701.029710
1486.180181,-12065.356855,-1685.410096,3330.926739
1486.180493,-15026.180623,-1072.533697,666.185348
1486.180804,-17912.983796,766.095498,-0.000000
1486.181115,-15322.262999,2451.505594,-1036.288319
1486.181426,-12213.398043,1378.971896,-1776.494261
1486.181738,-9474.636058,995.924147,-740.205942
1486.182049,-6069.688724,459.657299,-1258.350101
1486.182360,-5255.462188,-153.219100,-888.247130
1486.182672,-6809.894666,766.095498,-74.020594
1486.182983,-7031.956449,2604.724693,814.226536
1486.183294,-6957.935855,1915.238745,1776.494261
1486.183606,-7550.100608,306.438199,1184.329507
1486.183917,-9474.636058,0.000000,444.123565
1486.184228,-12139.377449,0.000000,-222.061783
1486.184539,-13841.851115,1149.143247,1036.288319
1486.184851,-14656.077652,0.000000,1702.473667
1486.185162,-12509.480420,-2604.724693,1480.411884
1486.185473,-10288.862594,-3753.867940,222.061783
1486.185785,-7550.100608,-1302.362347,-962.267725
1486.186096,-6217.729913,0.000000,-2664.741391
1486.186407,-5107.421000,1762.019645,-2072.576638
1486.186719,-5995.668130,1455.581446,-518.144159
1486.187030,-7254.018232,0.000000,2072.576638
1486.187341,-5033.400406,-1149.143247,3404.947333
1486.187652,-5255.462188,-1838.629195,3701.029710
1486.187964,-5625.565159,-2298.286494,4293.194464
1486.188275,-7179.997637,-3447.429741,2072.576638
1486.188586,-10658.965565,-2451.505594,444.123565
1486.188898,-12287.418637,-306.438199,-962.267725
1486.189209,-10955.047942,995.924147,-1036.288319
1486.189520,-10214.842000,459.657299,-2072.576638
1486.189832,-11399.171507,0.000000,-2368.659014
1486.190143,-9474.636058,0.000000,-814.226536
1486.190454,-6661.853478,842.705048,-0.000000
1486.190765,-6439.791695,1532.190996,2664.741391
1486.191077,-6291.750507,1838.629195,3627.009116
1486.191388,-5181.441594,459.657299,2812.782580
1486.191699,-6291.750507,153.219100,666.185348
1486.192011,-7772.162391,919.314598,814.226536
1486.192322,-9400.615463,2604.724693,-1702.473667
1486.192633,-12657.521608,1838.629195,-2294.638420
1486.192945,-16210.510130,-766.095498,-1332.370696
1486.193256,-15988.448347,-1991.848295,-74.020594
1486.193567,-13323.706956,-1838.629195,-0.000000
1486.193878,-12213.398043,-919.314598,-74.020594
1486.194190,-10214.842000,0.000000,1480.411884
1486.194501,-7105.977043,766.095498,1480.411884
1486.194812,-5033.400406,1532.190996,1776.494261
1486.195124,-5255.462188,1608.800546,2146.597232
1486.195435,-4737.318029,306.438199,2442.679609
1486.195746,-3627.009116,-459.657299,-296.082377
1486.196058,-5403.503377,-459.657299,-148.041188
1486.196369,-6291.750507,-1072.533697,-370.102971
1486.196680,-9622.677246,-1762.019645,-296.082377
1486.196991,-13693.809927,-1838.629195,518.144159
1486.197303,-13619.789333,-3217.601092,1258.350101
1486.197614,-12287.418637,-3064.381992,592.164754
1486.197925,-11843.295072,-2145.067394,-666.185348
1486.198237,-11399.171507,383.047749,-296.082377
1486.198548,-8660.409521,1302.362347,-666.185348
1486.198859,-5551.544565,2987.772442,1184.329507
1486.199171,-4589.276840,1838.629195,3997.112087
1486.199482,-1924.535449,-919.314598,2960.823768
1486.199793,-1998.556043,-2068.457845,1850.514855
1486.200104,-3552.988522,-612.876398,666.185348
1486.200416,-4293.194464,612.876398,-814.226536
1486.200727,-9918.759623,-459.657299,-2664.741391
1486.201038,-16062.468941,-229.828649,-1776.494261
1486.201350,-16580.613101,766.095498,-888.247130
1486.201661,-14730.098246,459.657299,-0.000000
1486.201972,-13397.727550,-306.438199,1776.494261
1486.202284,-12583.501014,-1072.533697,1480.411884
1486.202595,-9696.697840,0.000000,1480.411884
1486.202906,-5551.544565,2681.334243,1258.350101
1486.203217,-4811.338623,3677.258390,1702.473667
1486.203529,-3701.029710,2834.553343,1184.329507
1486.203840,-5773.606348,689.485948,-962.267725
1486.204151,-6883.915261,306.438199,-592.164754
1486.204463,-6661.853478,1072.533697,-592.164754
1486.204774,-10732.986159,-229.828649,-0.000000
1486.205085,-14508.036463,-2068.457845,1554.432478
1486.205397,-15840.407159,-4213.525239,1776.494261
1486.205708,-13323.706956,-3983.696590,1850.514855
1486.206019,-10658.965565,-1149.143247,814.226536
1486.206330,-9696.697840,536.266849,-1184.329507
1486.206642,-7179.997637,1915.238745,-518.144159
1486.206953,-6365.771101,2145.067394,-370.102971
1486.207264,-5329.482782,3524.039291,962.267725
1486.207576,-4663.297435,1455.581446,2738.761985
1486.207887,-2886.803174,-1455.581446,1924.535449
1486.208198,-4219.173869,-3370.820191,2368.659014
1486.208510,-6957.935855,-3600.648841,592.164754
1486.208821,-7476.080014,-1378.971896,370.102971
1486.209132,-11769.274478,-766.095498,-0.000000
1486.209443,-13471.748144,-2068.457845,666.185348
1486.209755,-11991.336260,-3140.991542,518.144159
1486.210066,-11621.233289,-2374.896044,-1036.288319
1486.210377,-10807.006753,689.485948,148.041188
1486.210689,-9252.574275,1378.971896,-0.000000
1486.211000,-8808.450710,2068.457845,1036.288319
1486.211311,-7550.100608,1685.410096,2886.803174
1486.211622,-3997.112087,1532.190996,1850.514855
1486.211934,-1702.473667,1991.848295,518.144159
1486.212245,-4145.153275,2145.067394,-370.102971
1486.212556,-6291.750507,306.438199,-888.247130
1486.212868,-10066.800811,-1072.533697,-2072.576638
1486.213179,-15544.324782,-383.047749,-518.144159
1486.213490,-17394.839637,-153.219100,-518.144159
1486.213802,-17394.839637,-689.485948,-370.102971
1486.214113,-14582.057057,-1149.143247,-222.061783
1486.214424,-12657.521608,689.485948,-518.144159
1486.214735,-9252.574275,1455.581446,222.061783
1486.215047,-7550.100608,2068.457845,814.226536
1486.215358,-5921.647536,1991.848295,3404.947333
1486.215669,-4367.215058,383.047749,3034.844362
1486.215981,-3404.947333,-1608.800546,1998.556043
1486.216292,-3256.906145,-153.219100,-666.185348
1486.216603,-4367.215058,1072.533697,-1036.288319
1486.216915,-6883.915261,-536.266849,-1850.514855
1486.217226,-11103.089130,-3064.381992,-518.144159
1486.217537,-12953.603985,-5132.839837,1184.329507
1486.217848,-13027.624579,-5898.935335,2220.617826
1486.218160,-12805.562797,-4366.744339,444.123565
1486.218471,-13619.789333,229.828649,-888.247130
1486.218782,-11251.130318,3447.429741,-148.041188
1486.219094,-9104.533087,4290.134789,-2146.597232
1486.219405,-5773.606348,6665.030833,1332.370696
1486.219716,-2294.638420,4673.182538,2738.761985
1486.220028,1036.288319,-153.219100,2590.720797
1486.220339,1554.432478,-1991.848295,3997.112087
1486.220650,-1924.535449,-2834.553343,962.267725
1486.220961,-6513.812290,-2068.457845,-1258.350101
1486.221273,-11843.295072,0.000000,-2368.659014
1486.221584,-16580.613101,536.266849,-1924.535449
1486.221895,-17987.004391,-536.266849,-1628.453072
1486.222207,-17542.880825,-1762.019645,-1184.329507
1486.222518,-17542.880825,-842.705048,-0.000000
1486.222829,-15026.180623,766.095498,1480.411884
1486.223141,-9992.780217,1991.848295,2590.720797
1486.223452,-6143.709319,1991.848295,3775.050304
1486.223763,-2368.659014,76.609550,3997.112087
1486.224074,888.247130,612.876398,3108.864956
1486.224386,-666.185348,0.000000,1406.391290
1486.224697,-3404.947333,0.000000,-2368.659014
1486.225008,-6883.915261,383.047749,-1184.329507
1486.225320,-12953.603985,-1915.238745,-2664.741391
1486.225631,-16432.571912,-2451.505594,296.082377
1486.225942,-16728.654289,-3294.210641,1480.411884
1486.226254,-16210.510130,-3677.258390,1258.350101
1486.226565,-15396.283594,-2528.115143,1850.514855
1486.226876,-12509.480420,1072.533697,296.082377
1486.227187,-9104.533087,4290.134789,296.082377
1486.227499,-5181.441594,5209.449386,1036.288319
1486.227810,-888.247130,3830.477490,3330.926739
1486.228121,2368.659014,-689.485948,3701.029710
1486.228433,2960.823768,-3524.039291,1776.494261
1486.228744,-370.102971,-4596.572988,666.185348
1486.229055,-4811.338623,-3524.039291,-1850.514855
1486.229367,-11547.212695,-1378.971896,-1628.453072
1486.229678,-16950.716072,-842.705048,-370.102971
1486.229989,-17764.942608,-1685.410096,-888.247130
1486.230300,-18505.148550,-1302.362347,-1036.288319
1486.230612,-17542.880825,1455.581446,-148.041188
1486.230923,-14137.933492,3217.601092,518.144159
1486.231234,-9030.512492,4443.353888,1850.514855
1486.231546,-4367.215058,4443.353888,3330.926739
1486.231857,148.041188,2451.505594,4071.132681
1486.232168,4885.359217,1072.533697,1554.432478
1486.232480,2886.803174,0.000000,-1628.453072
1486.232791,-3849.070898,-383.047749,-3775.050304
1486.233102,-9844.739029,766.095498,-4663.297435
1486.233413,-16284.530724,459.657299,-3478.967927
1486.233725,-20799.786970,0.000000,-0.000000
1486.234036,-20577.725188,-1838.629195,1702.473667
1486.234347,-18727.210333,-3600.648841,1480.411884
1486.234659,-16284.530724,-1991.848295,1924.535449
1486.234970,-10955.047942,1455.581446,1184.329507
1486.235281,-6513.812290,3907.087040,1110.308913
1486.235593,-3108.864956,5056.230287,1850.514855
1486.235904,-222.061783,1378.971896,3404.947333
1486.236215,1184.329507,-2604.724693,1554.432478
1486.236527,0.000000,-3064.381992,-370.102971
1486.236838,-4441.235652,-2298.286494,-1332.370696
1486.237149,-9030.512492,-1915.238745,-962.267725
1486.237461,-13693.809927,-2451.505594,740.205942
1486.237772,-16728.654289,-3600.648841,2368.659014
1486.238084,-17394.839637,-4826.401637,1776.494261
1486.238395,-14211.954086,-2987.772442,592.164754
1486.238707,-12879.583391,1378.971896,-1110.308913
1486.239018,-9622.677246,4136.915689,-1036.288319
1486.239329,-5477.523971,3370.820191,-888.247130
1486.239641,-3701.029710,2451.505594,-370.102971
1486.239952,-3034.844362,1072.533697,2294.638420
1486.240264,1110.308913,-995.924147,3627.009116
1486.240575,2294.638420,-2451.505594,3404.947333
1486.240886,-3256.906145,-3447.429741,1480.411884
1486.241198,-8512.368333,-3217.601092,-296.082377
1486.241509,-12213.398043,-1455.581446,-1036.288319
1486.241821,-17838.963202,76.609550,-1184.329507
1486.242132,-21317.931130,-612.876398,-0.000000
1486.242443,-19023.292709,-1532.190996,-740.205942
1486.242755,-15544.324782,459.657299,-1406.391290
1486.243066,-13101.645173,2681.334243,148.041188
1486.243378,-8438.347739,1991.848295,222.061783
1486.243689,-4811.338623,2451.505594,740.205942
1486.244000,-1554.432478,3140.991542,3108.864956
1486.244312,74.020594,1455.581446,2738.761985
1486.244623,-2368.659014,-459.657299,740.205942
1486.244935,-6069.688724,1149.143247,-1184.329507
1486.245246,-7476.080014,2374.896044,518.144159
1486.245558,-12435.459826,1532.190996,-814.226536
1486.245869,-15914.427753,536.266849,1332.370696
1486.246180,-15026.180623,-1762.019645,518.144159
1486.246492,-13397.727550,-4060.306139,148.041188
1486.246803,-10066.800811,-2604.724693,-74.020594
1486.247115,-8364.327145,2145.067394,-2516.700203
1486.247426,-7772.162391,4366.744339,-3478.967927
1486.247737,-7105.977043,3677.258390,-1776.494261
1486.248049,-5551.544565,2145.067394,1702.473667
1486.248360,-2516.700203,153.219100,3478.967927
1486.248672,-2146.597232,-2374.896044,5477.523971
1486.248983,-4367.215058,-4826.401637,5625.565159
1486.249294,-7105.977043,-5898.935335,2812.782580
1486.249606,-8068.244768,-2604.724693,2294.638420
1486.249917,-10066.800811,-1225.752797,-0.000000
1486.250229,-14211.954086,-919.314598,-1776.494261
1486.250540,-11769.274478,-306.438199,-3108.864956
1486.250851,-11473.192101,0.000000,-3701.029710
1486.251163,-12731.542202,383.047749,-1924.535449
1486.251474,-10584.944971,1225.752797,-74.020594
1486.251786,-11325.150913,2451.505594,-962.267725
1486.252097,-10214.842000,3217.601092,1850.514855
1486.252408,-6809.894666,2757.943793,3701.029710
1486.252720,-1480.411884,1532.190996,3478.967927
1486.253031,-148.041188,-229.828649,1924.535449
1486.253343,-2590.720797,-1225.752797,1554.432478
1486.253654,-7550.100608,-612.876398,-370.102971
1486.253966,-14211.954086,0.000000,-1924.535449
1486.254277,-17172.777854,383.047749,-1184.329507
1486.254588,-17394.839637,-1991.848295,-1110.308913
1486.254900,-16950.716072,-2987.772442,-1332.370696
1486.255211,-15100.201217,-306.438199,-740.205942
1486.255523,-13101.645173,1302.362347,-1110.308913
1486.255834,-11251.130318,1685.410096,666.185348
1486.256145,-7550.100608,1838.629195,3108.864956
1486.256457,-3552.988522,1302.362347,4589.276840
1486.256768,148.041188,-383.047749,4293.194464
1486.257080,1554.432478,-2681.334243,2590.720797
1486.257391,-2220.617826,-2681.334243,592.164754
1486.257702,-5329.482782,-1915.238745,-518.144159
1486.258014,-9400.615463,229.828649,-1406.391290
1486.258325,-13989.892304,-383.047749,-370.102971
1486.258637,-14211.954086,-1762.019645,-518.144159
1486.258948,-15026.180623,-3447.429741,-2220.617826
1486.259259,-14137.933492,-1455.581446,-2442.679609
1486.259571,-11251.130318,2298.286494,-1184.329507
1486.259882,-8364.327145,4290.134789,-74.020594
1486.260194,-6661.853478,3217.601092,1702.473667
1486.260505,-4663.297435,842.705048,4145.153275
1486.260817,-814.226536,-1608.800546,5329.482782
1486.261128,1332.370696,-1838.629195,4589.276840
1486.261439,-518.144159,-919.314598,2294.638420
1486.261751,-5255.462188,-1302.362347,-1036.288319
1486.262062,-11769.274478,-1378.971896,-2664.741391
1486.262374,-16284.530724,0.000000,-2886.803174
1486.262685,-17024.736666,1762.019645,-1406.391290
1486.262996,-16580.613101,1072.533697,-1998.556043
1486.263308,-17394.839637,-383.047749,-740.205942
1486.263619,-15248.242405,153.219100,296.082377
1486.263931,-11103.089130,1455.581446,-296.082377
1486.264242,-8142.265362,2834.553343,1628.453072
1486.264553,-3923.091493,2298.286494,3404.947333
1486.264865,370.102971,612.876398,3552.988522
1486.265176,518.144159,-689.485948,1332.370696
1486.265488,-1850.514855,-536.266849,740.205942
1486.265799,-7254.018232,1302.362347,-1776.494261
1486.266110,-12435.459826,3064.381992,-1924.535449
1486.266422,-18135.045579,2145.067394,-888.247130
1486.266733,-19023.292709,-1149.143247,-0.000000
1486.267045,-14285.974681,-2987.772442,740.205942
1486.267356,-12287.418637,-3294.210641,888.247130
1486.267668,-11325.150913,-1991.848295,296.082377
1486.267979,-6809.894666,-612.876398,-888.247130
1486.268290,-5773.606348,1991.848295,-666.185348
1486.268602,-4885.359217,1455.581446,2146.597232
1486.268913,-814.226536,0.000000,962.267725
1486.269225,-518.144159,-995.924147,962.267725
1486.269536,-1258.350101,-2374.896044,3552.988522
1486.269847,-1776.494261,-3983.696590,4811.338623
1486.270159,-8734.430116,-3983.696590,2220.617826
1486.270470,-14656.077652,-1532.190996,3256.906145
1486.270782,-15100.201217,-1991.848295,2960.823768
1486.271093,-13471.748144,-1762.019645,-740.205942
1486.271404,-12435.459826,1455.581446,-1406.391290
1486.271716,-11917.315666,1762.019645,-2442.679609
1486.272027,-9548.656652,306.438199,-1924.535449
1486.272339,-8956.491898,1532.190996,-1036.288319
1486.272650,-8216.285956,3064.381992,-148.041188
1486.272961,-5403.503377,3294.210641,-1110.308913
1486.273273,-4959.379811,1302.362347,444.123565
1486.273584,-3256.906145,-306.438199,3108.864956
1486.273896,-1850.514855,-1378.971896,2368.659014
1486.274207,-7105.977043,-1378.971896,1924.535449
1486.274519,-15100.201217,-383.047749,1554.432478
1486.274830,-18875.251521,0.000000,2072.576638
1486.275141,-16876.695478,919.314598,-148.041188
1486.275453,-14582.057057,3140.991542,-2220.617826
1486.275764,-12287.418637,2374.896044,-1702.473667
1486.276076,-8364.327145,459.657299,-2368.659014
1486.276387,-7476.080014,-459.657299,-1554.432478
1486.276698,-6957.935855,-536.266849,-0.000000
1486.277010,-5107.421000,536.266849,1332.370696
1486.277321,-5107.421000,459.657299,1554.432478
1486.277633,-5995.668130,0.000000,2442.679609
1486.277944,-6587.832884,-1225.752797,2368.659014
1486.278255,-8660.409521,-3140.991542,2368.659014
1486.278567,-11843.295072,-1685.410096,3108.864956
1486.278878,-12731.542202,-612.876398,2812.782580
1486.279190,-11325.150913,-995.924147,1332.370696
1486.279501,-7920.203579,-919.314598,-222.061783
1486.279812,-5255.462188,-2374.896044,-2738.761985
1486.280124,-3330.926739,0.000000,-3997.112087
1486.280435,-5477.523971,3217.601092,-4959.379811
1486.280747,-7402.059420,4903.011187,-2220.617826
1486.281058,-7179.997637,3064.381992,-740.205942
1486.281370,-8586.388927,-383.047749,1406.391290
1486.281681,-9474.636058,-842.705048,3404.947333
1486.281992,-7031.956449,-612.876398,3775.050304
1486.282304,-6809.894666,-1225.752797,2960.823768
1486.282615,-10436.903782,-1762.019645,2368.659014
1486.282927,-11991.336260,-1455.581446,1850.514855
1486.283238,-12065.356855,-612.876398,-962.267725
1486.283549,-11399.171507,-153.219100,-1702.473667
1486.283861,-11621.233289,459.657299,-2294.638420
1486.284172,-11251.130318,229.828649,-2220.617826
1486.284484,-10362.883188,995.924147,-1776.494261
1486.284795,-11325.150913,-536.266849,-74.020594
1486.285106,-9400.615463,-229.828649,1184.329507
1486.285418,-7624.121203,306.438199,1628.453072
1486.285729,-5477.523971,766.095498,2590.720797
1486.286041,-5699.585753,-1532.190996,2072.576638
1486.286352,-7994.224174,-2604.724693,1998.556043
1486.286663,-9770.718434,-995.924147,1628.453072
1486.286975,-11917.315666,0.000000,1184.329507
1486.287286,-12361.439231,-306.438199,222.061783
1486.287598,-13027.624579,-1072.533697,-888.247130
1486.287909,-11621.233289,-919.314598,-1850.514855
1486.288221,-8068.244768,-612.876398,-1702.473667
1486.288532,-7624.121203,0.000000,-1480.411884
1486.288843,-8438.347739,1685.410096,-0.000000
1486.289155,-8216.285956,1762.019645,444.123565
1486.289466,-7920.203579,536.266849,518.144159
1486.289778,-4959.379811,1991.848295,1850.514855
1486.290089,-2886.803174,842.705048,3330.926739
1486.290400,-3182.885551,-2068.457845,3701.029710
1486.290712,-5255.462188,-3983.696590,2664.741391
1486.291023,-10288.862594,-4596.572988,2072.576638
1486.291335,-9844.739029,-1991.848295,1924.535449
1486.291646,-10881.027347,229.828649,-962.267725
1486.291957,-12879.583391,919.314598,-1554.432478
1486.292269,-12509.480420,689.485948,-2368.659014
1486.292580,-10140.821405,2374.896044,-1480.411884
1486.292892,-9548.656652,4519.963438,-444.123565
1486.293203,-7624.121203,4979.620737,1998.556043
1486.293514,-3923.091493,2374.896044,3404.947333
1486.293826,-2220.617826,-306.438199,3404.947333
1486.294137,-2220.617826,-1072.533697,2812.782580
1486.294449,-4515.256246,-229.828649,-518.144159
1486.294760,-9622.677246,76.609550,-2368.659014
1486.295071,-14285.974681,1225.752797,-2368.659014
1486.295383,-15840.407159,153.219100,-1110.308913
1486.295694,-16654.633695,-1532.190996,-888.247130
1486.296006,-16950.716072,-2451.505594,1184.329507
1486.296317,-15248.242405,-2911.162892,1850.514855
1486.296629,-10881.027347,-919.314598,1184.329507
1486.296940,-7698.141797,1685.410096,1998.556043
1486.297251,-4811.338623,2145.067394,2072.576638
1486.297563,-1998.556043,995.924147,222.061783
1486.297874,-1480.411884,842.705048,444.123565
1486.298186,-3256.906145,0.000000,-740.205942
1486.298497,-5921.647536,-229.828649,-962.267725
1486.298808,-10066.800811,0.000000,-296.082377
1486.299120,-14508.036463,-1991.848295,1554.432478
1486.299431,-14730.098246,-5056.230287,2516.700203
1486.299743,-13101.645173,-6358.592633,1332.370696
1486.300054,-12139.377449,-5286.058936,666.185348
1486.300365,-8956.491898,-3600.648841,444.123565
1486.300677,-7328.038826,-1455.581446,-222.061783
1486.300988,-6365.771101,-995.924147,444.123565
1486.301300,-4145.153275,-2068.457845,1332.370696
1486.301611,-2886.803174,-4673.182538,2146.597232
1486.301922,-3330.926739,-4596.572988,740.205942
1486.302234,-4071.132681,-2604.724693,370.102971
1486.302545,-4663.297435,-1838.629195,-666.185348
1486.302857,-7624.121203,-2604.724693,-296.082377
1486.303168,-12879.583391,-3600.648841,1184.329507
1486.303480,-15026.180623,-3753.867940,1258.350101
1486.303791,-15914.427753,-3447.429741,666.185348
1486.304102,-14211.954086,-1838.629195,740.205942
1486.304414,-13027.624579,-1225.752797,592.164754
1486.304725,-10658.965565,-1532.190996,-592.164754
1486.305037,-8734.430116,-1302.362347,-444.123565
1486.305348,-7846.182985,-1149.143247,518.144159
1486.305659,-6735.874072,-1608.800546,370.102971
1486.305971,-4737.318029,229.828649,-1036.288319
1486.306282,-5255.462188,612.876398,-814.226536
1486.306594,-6291.750507,-1762.019645,1332.370696
1486.306905,-7550.100608,-4519.963438,444.123565
1486.307216,-10288.862594,-3830.477490,2368.659014
1486.307528,-13471.748144,-5362.668486,2368.659014
1486.307839,-13693.809927,-6971.469032,2960.823768
1486.308151,-12213.398043,-6128.763984,1332.370696
1486.308462,-10140.821405,-3753.867940,-1998.556043
1486.308773,-7994.224174,-4213.525239,-2146.597232
1486.309085,-6883.915261,-3294.210641,-2146.597232
1486.309396,-8512.368333,-1455.581446,-1480.411884
1486.309708,-8438.347739,306.438199,-740.205942
1486.310019,-7328.038826,-1149.143247,1628.453072
1486.310331,-6735.874072,-4519.963438,2664.741391
1486.310642,-4959.379811,-6588.421283,2442.679609
1486.310953,-3034.844362,-7048.078582,1776.494261
1486.311265,-4589.276840,-5439.278036,666.185348
1486.311576,-8438.347739,-3294.210641,740.205942
1486.311888,-11843.295072,-1915.238745,-148.041188
1486.312199,-12731.542202,-1532.190996,370.102971
1486.312510,-12731.542202,-3140.991542,-666.185348
1486.312822,-12065.356855,-3447.429741,-1184.329507
1486.313133,-9104.533087,-153.219100,-1554.432478
1486.313445,-6143.709319,1991.848295,-1628.453072
1486.313756,-6439.791695,-1455.581446,-592.164754
1486.314067,-8660.409521,-4213.525239,1258.350101
1486.314379,-9770.718434,-2451.505594,3627.009116
1486.314690,-10066.800811,-2068.457845,4145.153275
1486.315002,-8808.450710,-3064.381992,3034.844362
1486.315313,-7328.038826,-2298.286494,740.205942
1486.315624,-6217.729913,-919.314598,-1258.350101
1486.315936,-5699.585753,-1302.362347,-1554.432478
1486.316247,-9474.636058,-2068.457845,-962.267725
1486.316559,-13619.789333,-995.924147,444.123565
1486.316870,-15618.345376,-536.266849,1110.308913
1486.317182,-12435.459826,-2451.505594,1776.494261
1486.317493,-9548.656652,-4903.011187,1776.494261
1486.317804,-6661.853478,-5822.325785,1332.370696
1486.318116,-3923.091493,-6588.421283,-1036.288319
1486.318427,-4515.256246,-6435.202183,-222.061783
1486.318739,-7105.977043,-4903.011187,1628.453072
1486.319050,-10214.842000,-3830.477490,1998.556043
1486.319361,-13915.871710,-3983.696590,3627.009116
1486.319673,-13397.727550,-3524.039291,4663.297435
1486.319984,-9844.739029,-3064.381992,3849.070898
1486.320296,-5625.565159,-1302.362347,1554.432478
1486.320607,-3552.988522,-1225.752797,-740.205942
1486.320918,-2516.700203,-2221.676944,-3775.050304
1486.321230,-1776.494261,-2451.505594,-3256.906145
1486.321541,-3256.906145,-1302.362347,-1702.473667
1486.321853,-8290.306550,-2298.286494,-222.061783
1486.322164,-13027.624579,-5209.449386,1998.556043
1486.322475,-14508.036463,-6052.154434,3034.844362
1486.322787,-13693.809927,-4443.353888,3330.926739
1486.323098,-10436.903782,-3294.210641,2516.700203
1486.323410,-9622.677246,-5362.668486,-370.102971
1486.323721,-8512.368333,-5056.230287,-2368.659014
1486.324033,-5181.441594,-2834.553343,-3108.864956
1486.324344,-3775.050304,-153.219100,-2368.659014
1486.324655,-6069.688724,-1072.533697,-666.185348
1486.324967,-9918.759623,-4826.401637,1332.370696
1486.325278,-11991.336260,-7354.516781,3034.844362
1486.325590,-11991.336260,-5132.839837,3923.091493
1486.325901,-12435.459826,-1302.362347,2516.700203
1486.326212,-12065.356855,-2834.553343,740.205942
1486.326524,-9696.697840,-4749.792088,-1332.370696
1486.326835,-7994.224174,-4673.182538,-2812.782580
1486.327147,-7402.059420,-2068.457845,-2812.782580
1486.327458,-9918.759623,459.657299,-2590.720797
1486.327769,-12065.356855,229.828649,-0.000000
1486.328081,-11695.253884,-2068.457845,2146.597232
1486.328392,-11251.130318,-5209.449386,2442.679609
1486.328704,-10955.047942,-3983.696590,2220.617826
1486.329015,-8290.306550,-1302.362347,1036.288319
1486.329326,-7846.182985,-153.219100,-296.082377
1486.329638,-5921.647536,-1838.629195,-740.205942
1486.329949,-5255.462188,-2681.334243,-2146.597232
1486.330261,-5995.668130,-2987.772442,-1998.556043
1486.330572,-6809.894666,-1991.848295,-814.226536
1486.330884,-9696.697840,-766.095498,-0.000000
1486.331195,-11177.109724,383.047749,1850.514855
1486.331506,-11843.295072,536.266849,1036.288319
1486.331818,-10584.944971,383.047749,2368.659014
1486.332129,-9030.512492,-536.266849,1628.453072
1486.332441,-8586.388927,-766.095498,1480.411884
1486.332752,-7846.182985,-536.266849,222.061783
1486.333063,-5847.626942,-919.314598,296.082377
1486.333375,-4515.256246,-2834.553343,-222.061783
1486.333686,-3108.864956,-5209.449386,1184.329507
1486.333998,-4145.153275,-8580.269578,888.247130
1486.334309,-5551.544565,-9806.022374,1480.411884
1486.334620,-8734.430116,-7890.783629,1554.432478
1486.334932,-11621.233289,-4136.915689,1480.411884
1486.335243,-13323.706956,-2221.676944,1850.514855
1486.335555,-13545.768739,-2834.553343,2516.700203
1486.335866,-11843.295072,-4290.134789,3701.029710
1486.336177,-9474.636058,-4826.401637,2812.782580
1486.336489,-6883.915261,-3983.696590,2368.659014
1486.336800,-4737.318029,-3447.429741,666.185348
1486.337112,-3330.926739,-4290.134789,-592.164754
1486.337423,-3404.947333,-4673.182538,-1184.329507
1486.337734,-4885.359217,-4826.401637,-1110.308913
1486.338046,-7254.018232,-4596.572988,-1332.370696
1486.338357,-9474.636058,-4443.353888,-740.205942
1486.338669,-12805.562797,-4290.134789,-0.000000
1486.338980,-14952.160028,-2987.772442,666.185348
1486.339292,-15840.407159,-2068.457845,1480.411884
1486.339603,-16062.468941,-2068.457845,1702.473667
1486.339914,-14137.933492,-1532.190996,1628.453072
1486.340226,-11843.295072,-1149.143247,814.226536
1486.340537,-8882.471304,-2145.067394,-592.164754
1486.340849,-5847.626942,-4519.963438,-0.000000
1486.341160,-3256.906145,-6665.030833,-444.123565
1486.341472,-3552.988522,-6894.859482,-814.226536
1486.341783,-6883.915261,-5669.106685,-1702.473667
1486.342095,-7846.182985,-4290.134789,-1702.473667
1486.342406,-9992.780217,-1685.410096,-2072.576638
1486.342717,-13101.645173,-2145.067394,-962.267725
1486.343029,-14211.954086,-1685.410096,666.185348
1486.343340,-14211.954086,-2068.457845,1184.329507
1486.343652,-11769.274478,-919.314598,666.185348
1486.343963,-9548.656652,-919.314598,888.247130
1486.344275,-6513.812290,-2221.676944,-148.041188
1486.344586,-4145.153275,-2068.457845,-666.185348
1486.344898,-3849.070898,-2221.676944,-0.000000
1486.345209,-3997.112087,-2221.676944,814.226536
1486.345520,-6143.709319,-2451.505594,1628.453072
1486.345832,-7772.162391,-1991.848295,1036.288319
1486.346143,-8438.347739,-2681.334243,1110.308913
1486.346455,-8364.327145,-2528.115143,370.102971
1486.346766,-8142.265362,-1225.752797,-0.000000
1486.347078,-9252.574275,-2221.676944,-0.000000
1486.347389,-9696.697840,-3524.039291,296.082377
1486.347700,-9696.697840,-2911.162892,1184.329507
1486.348012,-10140.821405,-1762.019645,1184.329507
1486.348323,-9104.533087,-3524.039291,1628.453072
1486.348635,-7772.162391,-4060.306139,1554.432478
1486.348946,-7328.038826,-3677.258390,962.267725
1486.349258,-6513.812290,-2834.553343,518.144159
1486.349569,-6661.853478,-2451.505594,-296.082377
1486.349881,-7105.977043,-2145.067394,222.061783
1486.350192,-7476.080014,-1685.410096,-0.000000
1486.350503,-8512.368333,-2451.505594,222.061783
1486.350815,-9844.739029,-3294.210641,592.164754
1486.351126,-10881.027347,-3447.429741,1332.370696
1486.351438,-11325.150913,-4136.915689,1036.288319
1486.351749,-11695.253884,-4826.401637,1702.473667
1486.352061,-11769.274478,-4443.353888,2072.576638
1486.352372,-10807.006753,-4749.792088,1776.494261
1486.352683,-9770.718434,-3447.429741,1998.556043
1486.352995,-8364.327145,-2298.286494,1406.391290
1486.353306,-7846.182985,-1762.019645,740.205942
1486.353618,-7476.080014,-1762.019645,370.102971
1486.353929,-7105.977043,-1991.848295,148.041188
1486.354241,-7920.203579,-2221.676944,148.041188
1486.354552,-9104.533087,-2604.724693,-148.041188
1486.354864,-9844.739029,-3064.381992,-74.020594
1486.355175,-10955.047942,-3753.867940,296.082377
1486.355486,-11473.192101,-3064.381992,444.123565
1486.355798,-11251.130318,-4136.915689,814.226536
1486.356109,-11251.130318,-5056.230287,1332.370696
1486.356421,-9622.677246,-5362.668486,1628.453072
1486.356732,-7994.224174,-4673.182538,1554.432478
1486.357044,-6661.853478,-3524.039291,1110.308913
1486.357355,-6661.853478,-1608.800546,888.247130
1486.357666,-6735.874072,-1991.848295,-0.000000
1486.357978,-7105.977043,-1455.581446,-222.061783
1486.358289,-7476.080014,-383.047749,-444.123565
1486.358601,-7698.141797,-689.485948,-962.267725
1486.358912,-8586.388927,-1072.533697,-666.185348
1486.359224,-9326.594869,-1991.848295,-0.000000
1486.359535,-8438.347739,-2757.943793,370.102971
1486.359847,-8438.347739,-2451.505594,814.226536
1486.360158,-6661.853478,-2987.772442,1702.473667
1486.360469,-8364.327145,-4136.915689,222.061783
1486.360781,-7698.141797,-3447.429741,1110.308913
1486.361092,-6513.812290,-2451.505594,-0.000000
1486.361404,-7476.080014,-3140.991542,-0.000000
1486.361715,-8882.471304,-3600.648841,888.247130
1486.362027,-11769.274478,-3753.867940,-0.000000
1486.362338,-11621.233289,-1838.629195,592.164754
1486.362650,-9992.780217,-306.438199,1554.432478
1486.362961,-10214.842000,-2221.676944,1850.514855
1486.363272,-9474.636058,-3447.429741,1480.411884
1486.363584,-9030.512492,-3983.696590,1554.432478
1486.363895,-8512.368333,-2374.896044,1924.535449
1486.364207,-9474.636058,-842.705048,1850.514855
1486.364518,-12139.377449,229.828649,888.247130
1486.364830,-11843.295072,383.047749,1628.453072
1486.365141,-11029.068536,-995.924147,1258.350101
1486.365452,-8734.430116,-306.438199,2072.576638
1486.365764,-7920.203579,0.000000,962.267725
1486.366075,-8660.409521,-2068.457845,1998.556043
1486.366387,-8512.368333,-4136.915689,3182.885551
1486.366698,-9400.615463,-3447.429741,3182.885551
1486.367010,-9030.512492,-1532.190996,5625.565159
1486.367321,-12213.398043,-2145.067394,4515.256246
1486.367633,-11399.171507,-2145.067394,6217.729913
1486.367944,-8068.244768,-995.924147,4071.132681
1486.368255,-7179.997637,536.266849,4145.153275
1486.368567,-6217.729913,306.438199,3552.988522
1486.368878,-6291.750507,-689.485948,2664.741391
1486.369190,-7698.141797,-1378.971896,2738.761985
1486.369501,-5329.482782,536.266849,4293.194464
1486.369813,-9030.512492,459.657299,2442.679609
1486.370124,-10584.944971,459.657299,5033.400406
1486.370435,-10362.883188,306.438199,5995.668130
1486.370747,-8586.388927,-1149.143247,5773.606348
1486.371058,-7328.038826,-1455.581446,6143.709319
1486.371370,-8068.244768,0.000000,4737.318029
1486.371681,-6513.812290,842.705048,5329.482782
1486.371993,-5847.626942,766.095498,3627.009116
1486.372304,-5995.668130,766.095498,3552.988522
1486.372616,-7476.080014,1762.019645,3256.906145
1486.372927,-9400.615463,1532.190996,4515.256246
1486.373238,-9030.512492,1072.533697,4663.297435
1486.373550,-8142.265362,0.000000,4959.379811
1486.373861,-8142.265362,-306.438199,4811.338623
1486.374173,-8364.327145,-842.705048,4663.297435
1486.374484,-8512.368333,-995.924147,4589.276840
1486.374796,-7624.121203,-306.438199,4737.318029
1486.375107,-8142.265362,995.924147,4663.297435
1486.375419,-9696.697840,1532.190996,3997.112087
1486.375730,-11251.130318,1225.752797,4293.194464
1486.376041,-10658.965565,2374.896044,4515.256246
1486.376353,-9400.615463,1762.019645,3997.112087
1486.376664,-8586.388927,766.095498,3478.967927
1486.376976,-7698.141797,-383.047749,2516.700203
1486.377287,-7179.997637,-229.828649,1924.535449
1486.377599,-5847.626942,76.609550,2220.617826
1486.377910,-6883.915261,-995.924147,2146.597232
1486.378221,-8586.388927,-1072.533697,2886.803174
1486.378533,-10288.862594,-1072.533697,3404.947333
1486.378844,-11399.171507,-1149.143247,3701.029710
1486.379156,-12065.356855,-612.876398,4219.173869
1486.379467,-12139.377449,-153.219100,4737.318029
1486.379779,-11177.109724,153.219100,3478.967927
1486.380090,-9770.718434,-153.219100,2516.700203
1486.380402,-8364.327145,306.438199,1924.535449
1486.380713,-8142.265362,229.828649,1924.535449
1486.381024,-9400.615463,0.000000,2886.803174
1486.381336,-8882.471304,-1378.971896,3034.844362
1486.381647,-9474.636058,-1991.848295,3627.009116
1486.381959,-8216.285956,-1072.533697,4663.297435
1486.382270,-8290.306550,-1225.752797,3997.112087
1486.382582,-7920.203579,-919.314598,2886.803174
1486.382893,-7105.977043,612.876398,2368.659014
1486.383204,-7105.977043,1608.800546,1480.411884
1486.383516,-7772.162391,1149.143247,518.144159
1486.383827,-8808.450710,995.924147,666.185348
1486.384139,-10214.842000,1072.533697,1406.391290
1486.384450,-11251.130318,1378.971896,2738.761985
1486.384762,-11843.295072,0.000000,3330.926739
1486.385073,-11843.295072,-1072.533697,4293.194464
1486.385385,-10362.883188,-1991.848295,4219.173869
1486.385696,-7402.059420,-2451.505594,3478.967927
1486.386007,-4515.256246,-2145.067394,2368.659014
1486.386319,-3849.070898,-1838.629195,1406.391290
1486.386630,-5625.565159,-1378.971896,518.144159
1486.386942,-7846.182985,-459.657299,1628.453072
1486.387253,-10658.965565,612.876398,3404.947333
1486.387565,-13545.768739,1608.800546,4959.379811
1486.387876,-15100.201217,919.314598,5773.606348
1486.388188,-13915.871710,153.219100,5847.626942
1486.388499,-9844.739029,76.609550,4219.173869
1486.388810,-5551.544565,383.047749,2516.700203
1486.389122,-3701.029710,612.876398,592.164754
1486.389433,-3034.844362,612.876398,-0.000000
1486.389745,-3849.070898,536.266849,962.267725
1486.390056,-7328.038826,536.266849,2146.597232
1486.390368,-11473.192101,919.314598,3849.070898
1486.390679,-14137.933492,1072.533697,5477.523971
1486.390990,-13619.789333,459.657299,6365.771101
1486.391302,-11177.109724,0.000000,5403.503377
1486.391613,-9326.594869,-2298.286494,4663.297435
1486.391925,-7179.997637,-1762.019645,4071.132681
1486.392236,-6217.729913,-919.314598,3552.988522
1486.392548,-6217.729913,-536.266849,4737.318029
1486.392859,-7698.141797,-612.876398,5625.565159
1486.393171,-10066.800811,229.828649,7105.977043
1486.393482,-10955.047942,0.000000,7402.059420
1486.393793,-10510.924376,689.485948,6143.709319
1486.394105,-7476.080014,1532.190996,4441.235652
1486.394416,-5773.606348,2451.505594,2294.638420
1486.394728,-5773.606348,2374.896044,592.164754
1486.395039,-5551.544565,1915.238745,518.144159
1486.395351,-7105.977043,1838.629195,1702.473667
1486.395662,-9918.759623,1455.581446,3256.906145
1486.395973,-11843.295072,-229.828649,5921.647536
1486.396285,-12657.521608,-2068.457845,7328.038826
1486.396596,-12509.480420,-2298.286494,8734.430116
1486.396908,-11029.068536,-1149.143247,8734.430116
1486.397219,-8660.409521,-995.924147,7624.121203
1486.397531,-6957.935855,-383.047749,5625.565159
1486.397842,-4811.338623,612.876398,3552.988522
1486.398154,-3034.844362,1915.238745,814.226536
1486.398465,-1998.556043,2681.334243,296.082377
1486.398776,-4145.153275,2221.676944,666.185348
1486.399088,-7105.977043,1378.971896,2072.576638
1486.399399,-10066.800811,-612.876398,3997.112087
1486.399711,-13323.706956,-1762.019645,5995.668130
1486.400022,-15988.448347,-1915.238745,7624.121203
1486.400334,-16506.592507,-2374.896044,7994.224174
1486.400645,-13693.809927,-1225.752797,7031.956449
1486.400956,-10066.800811,-1072.533697,4885.359217
1486.401268,-6365.771101,-76.609550,3330.926739
1486.401579,-3552.988522,153.219100,2146.597232
1486.401891,-1332.370696,612.876398,1628.453072
1486.402202,-1406.391290,766.095498,1110.308913
1486.402514,-3478.967927,459.657299,814.226536
1486.402825,-6143.709319,229.828649,740.205942
1486.403137,-9474.636058,76.609550,1332.370696
1486.403448,-13323.706956,-536.266849,2220.617826
1486.403759,-15470.304188,-1149.143247,3701.029710
1486.404071,-17838.963202,-995.924147,5033.400406
1486.404382,-17246.798449,-536.266849,5699.585753
1486.404694,-14656.077652,229.828649,5551.544565
1486.405005,-10140.821405,612.876398,5033.400406
1486.405317,-5699.585753,153.219100,4219.173869
1486.405628,-2590.720797,0.000000,2072.576638
1486.405940,962.267725,689.485948,-1184.329507
1486.406251,1924.535449,1225.752797,-3256.906145
1486.406562,-962.267725,1532.190996,-3182.885551
1486.406874,-7328.038826,766.095498,-1184.329507
1486.407185,-15248.242405,-536.266849,2368.659014
1486.407497,-21317.931130,-1838.629195,6217.729913
1486.407808,-23908.651927,-2451.505594,8956.491898
1486.408120,-19837.519246,-1762.019645,9992.780217
1486.408431,-13915.871710,-1838.629195,7698.141797
1486.408742,-6365.771101,-2068.457845,4811.338623
1486.409054,740.205942,-1455.581446,740.205942
1486.409365,5181.441594,-306.438199,-2220.617826
1486.409677,4515.256246,1838.629195,-4071.132681
1486.409988,-518.144159,3064.381992,-2294.638420
1486.410300,-8216.285956,2987.772442,-1036.288319
1486.410611,-15322.262999,1915.238745,2368.659014
1486.410923,-19763.498651,1302.362347,5181.441594
1486.411234,-20355.663405,306.438199,7254.018232
1486.411545,-16210.510130,-1225.752797,7105.977043
1486.411857,-11325.150913,-2757.943793,5699.585753
1486.412168,-6439.791695,-2681.334243,3701.029710
1486.412480,-1924.535449,-1915.238745,1554.432478
1486.412791,74.020594,153.219100,888.247130
1486.413103,-1184.329507,995.924147,1332.370696
1486.413414,-6513.812290,1149.143247,2368.659014
1486.413725,-10881.027347,919.314598,3034.844362
1486.414037,-12509.480420,2068.457845,4219.173869
1486.414348,-12509.480420,2911.162892,4589.276840
1486.414660,-11621.233289,1072.533697,3701.029710
1486.414971,-11399.171507,-1225.752797,2960.823768
1486.415283,-10955.047942,-2757.943793,3404.947333
1486.415594,-9474.636058,-383.047749,5847.626942
1486.415906,-9474.636058,842.705048,7254.018232
1486.416217,-10732.986159,306.438199,7994.224174
1486.416528,-10732.986159,-1378.971896,7920.203579
1486.416840,-7846.182985,-2145.067394,7179.997637
1486.417151,-3552.988522,-689.485948,4885.359217
1486.417463,-222.061783,1072.533697,-0.000000
1486.417774,0.000000,2604.724693,-3182.885551
1486.418086,-2886.803174,2298.286494,-2812.782580
1486.418397,-7254.018232,1378.971896,1036.288319
1486.418709,-13397.727550,459.657299,5921.647536
1486.419020,-19615.457463,-1149.143247,10658.965565
1486.419331,-21836.075289,-2451.505594,13323.706956
1486.419643,-16136.489536,-2911.162892,12583.501014
1486.419954,-7846.182985,-2757.943793,8734.430116
1486.420266,-888.247130,-2068.457845,4145.153275
1486.420577,2516.700203,612.876398,518.144159
1486.420889,2294.638420,2757.943793,-2590.720797
1486.421200,0.000000,4979.620737,-2442.679609
1486.421511,-6069.688724,5362.668486,-222.061783
1486.421823,-11103.089130,3753.867940,2368.659014
1486.422134,-14211.954086,612.876398,4959.379811
1486.422446,-14211.954086,-842.705048,6291.750507
1486.422757,-13323.706956,-1378.971896,7105.977043
1486.423069,-14063.912898,-1532.190996,6809.894666
1486.423380,-12805.562797,-2757.943793,6439.791695
1486.423692,-7994.224174,-4443.353888,4441.235652
1486.424003,-4515.256246,-3907.087040,592.164754
1486.424314,-3404.947333,536.266849,518.144159
1486.424626,-7105.977043,2221.676944,-0.000000
1486.424937,-10510.924376,1072.533697,-0.000000
1486.425249,-11103.089130,0.000000,1258.350101
1486.425560,-11251.130318,-1072.533697,1702.473667
1486.425872,-8438.347739,-229.828649,1628.453072
1486.426183,-7772.162391,-536.266849,-0.000000
1486.426494,-7402.059420,-1378.971896,-1184.329507
1486.426806,-8586.388927,-1072.533697,-1406.391290
1486.427117,-10584.944971,459.657299,1998.556043
1486.427429,-13619.789333,383.047749,4145.153275
1486.427740,-16062.468941,383.047749,4737.318029
1486.428052,-13027.624579,459.657299,3701.029710
1486.428363,-8808.450710,1225.752797,296.082377
1486.428675,-3701.029710,2298.286494,-2368.659014
1486.428986,0.000000,1149.143247,-4441.235652
1486.429297,666.185348,459.657299,-7105.977043
1486.429609,-1406.391290,919.314598,-5921.647536
1486.429920,-7105.977043,612.876398,-2664.741391
1486.430232,-12879.583391,-1302.362347,1184.329507
1486.430543,-16580.613101,-2451.505594,4959.379811
1486.430855,-16802.674883,-3294.210641,6809.894666
1486.431166,-14211.954086,-4213.525239,5255.462188
1486.431478,-9992.780217,-3217.601092,3997.112087
1486.431789,-7328.038826,0.000000,-1406.391290
1486.432100,-5477.523971,2145.067394,-3404.947333
1486.432412,-4737.318029,2604.724693,-4737.318029
1486.432723,-7624.121203,1762.019645,-4737.318029
1486.433035,-8438.347739,1225.752797,-3997.112087
1486.433346,-9400.615463,306.438199,-1554.432478
1486.433658,-10140.821405,229.828649,-148.041188
1486.433969,-10362.883188,153.219100,2368.659014
1486.434280,-10881.027347,-1378.971896,3552.988522
1486.434592,-13323.706956,-2374.896044,5033.400406
1486.434903,-14211.954086,-2068.457845,4441.235652
1486.435215,-11325.150913,0.000000,2886.803174
1486.435526,-8586.388927,1149.143247,-0.000000
1486.435838,-7031.956449,2374.896044,-962.267725
1486.436149,-7105.977043,1762.019645,-2294.638420
1486.436461,-7550.100608,229.828649,-1702.473667
1486.436772,-8290.306550,-229.828649,-0.000000
1486.437083,-11177.109724,-995.924147,1628.453072
1486.437395,-13915.871710,-459.657299,3627.009116
1486.437706,-12583.501014,0.000000,4737.318029
1486.438018,-7994.224174,-1149.143247,3849.070898
1486.438329,-2368.659014,-1838.629195,1406.391290
1486.438636,296.082377,459.657299,-0.000000
1486.438948,-2664.741391,2757.943793,1628.453072
1486.439259,-8660.409521,2145.067394,2516.700203
1486.439570,-14137.933492,1378.971896,3552.988522
1486.439882,-15544.324782,1991.848295,3404.947333
1486.440193,-11991.336260,689.485948,2072.576638
1486.440504,-6809.894666,-459.657299,518.144159
1486.440816,-3034.844362,-1532.190996,-2590.720797
1486.441127,-3701.029710,-1225.752797,-3701.029710
1486.441439,-3923.091493,-383.047749,-1036.288319
1486.441750,-5403.503377,-1072.533697,2368.659014
1486.442061,-10066.800811,-1532.190996,5107.421000
1486.442373,-13249.686362,-1838.629195,6143.709319
1486.442684,-11917.315666,-1225.752797,4589.276840
1486.442995,-9548.656652,1149.143247,3108.864956
1486.443307,-5699.585753,3294.210641,370.102971
1486.443618,-4885.359217,2298.286494,-2220.617826
1486.443929,-7105.977043,1072.533697,-3997.112087
1486.444241,-8438.347739,842.705048,-3775.050304
1486.444552,-11843.295072,383.047749,-2220.617826
1486.444863,-12361.439231,-1378.971896,740.205942
1486.445175,-12805.562797,-2451.505594,2220.617826
1486.445486,-11029.068536,-3064.381992,3404.947333
1486.445798,-9770.718434,-3064.381992,3404.947333
1486.446109,-8660.409521,-689.485948,3182.885551
1486.446420,-7105.977043,1915.238745,666.185348
1486.446732,-6291.750507,2987.772442,-296.082377
1486.447043,-6957.935855,2451.505594,-2220.617826
1486.447354,-6143.709319,689.485948,-4367.215058
1486.447666,-7031.956449,1455.581446,-5773.606348
1486.447977,-8586.388927,1838.629195,-3849.070898
1486.448288,-10066.800811,-229.828649,-2368.659014
1486.448600,-14063.912898,-2374.896044,592.164754
1486.448911,-17172.777854,-3677.258390,3552.988522
1486.449222,-16876.695478,-4673.182538,4293.194464
1486.449534,-13397.727550,-3370.820191,2812.782580
1486.449845,-7105.977043,-612.876398,814.226536
1486.450157,-2442.679609,1762.019645,-1998.556043
1486.450468,-962.267725,995.924147,-3182.885551
1486.450779,-2146.597232,1608.800546,-2664.741391
1486.451091,-6217.729913,1378.971896,-1406.391290
1486.451402,-11103.089130,-153.219100,666.185348
1486.451713,-14211.954086,-919.314598,1480.411884
1486.452025,-12731.542202,-2757.943793,-666.185348
1486.452336,-8660.409521,-1225.752797,-2072.576638
1486.452647,-7328.038826,-1072.533697,-1480.411884
1486.452959,-9548.656652,-383.047749,148.041188
1486.453270,-14137.933492,-842.705048,2590.720797
1486.453581,-17024.736666,-2068.457845,4959.379811
1486.453893,-13989.892304,0.000000,4959.379811
1486.454204,-7254.018232,2911.162892,2146.597232
1486.454516,-1998.556043,2911.162892,-1998.556043
1486.454827,1628.453072,2298.286494,-5181.441594
1486.455138,666.185348,153.219100,-6365.771101
1486.455450,-3256.906145,842.705048,-4219.173869
1486.455761,-10214.842000,919.314598,-1110.308913
1486.456072,-16876.695478,-1302.362347,2146.597232
1486.456384,-18949.272115,-2298.286494,4959.379811
1486.456695,-16950.716072,-2374.896044,4663.297435
1486.457006,-12139.377449,-2145.067394,4737.318029
1486.457318,-8216.285956,-766.095498,3330.926739
1486.457629,-5625.565159,-153.219100,666.185348
1486.457940,-3404.947333,1455.581446,-1258.350101
1486.458252,-3182.885551,2911.162892,-2368.659014
1486.458563,-3478.967927,3370.820191,-2442.679609
1486.458875,-4145.153275,4060.306139,-2738.761985
1486.459186,-6143.709319,1915.238745,-3182.885551
1486.459497,-7624.121203,306.438199,-296.082377
1486.459809,-10362.883188,-612.876398,2516.700203
1486.460120,-14508.036463,-1072.533697,4959.379811
1486.460431,-16876.695478,-1608.800546,6069.688724
1486.460743,-17098.757260,-2451.505594,6365.771101
1486.461054,-13027.624579,-1149.143247,5107.421000
1486.461365,-7476.080014,-306.438199,2738.761985
1486.461677,-4737.318029,0.000000,-222.061783
1486.461988,-2590.720797,-229.828649,-1998.556043
1486.462299,0.000000,76.609550,-3182.885551
1486.462611,-1924.535449,766.095498,-1998.556043
1486.462922,-7031.956449,689.485948,296.082377
1486.463234,-11251.130318,-1378.971896,2590.720797
1486.463545,-14211.954086,-2681.334243,4145.153275
1486.463856,-14656.077652,-1991.848295,5477.523971
1486.464168,-14434.015869,-995.924147,5107.421000
1486.464479,-13767.830521,-229.828649,4367.215058
1486.464790,-12657.521608,459.657299,3701.029710
1486.465102,-11103.089130,383.047749,3849.070898
1486.465413,-9400.615463,-2145.067394,1924.535449
1486.465724,-5995.668130,-1149.143247,-0.000000
1486.466036,-1554.432478,766.095498,-2960.823768
1486.466347,592.164754,842.705048,-4737.318029
1486.466658,-444.123565,1149.143247,-4145.153275
1486.466970,-5329.482782,2298.286494,-2220.617826
1486.467281,-11621.233289,766.095498,1184.329507
1486.467593,-15470.304188,-536.266849,4367.215058
1486.467904,-16136.489536,-383.047749,5329.482782
1486.468215,-13693.809927,612.876398,3182.885551
1486.468527,-9030.512492,919.314598,296.082377
1486.468838,-6661.853478,0.000000,-1628.453072
1486.469149,-5255.462188,1532.190996,-3034.844362
1486.469461,-5181.441594,1302.362347,-2886.803174
1486.469772,-7772.162391,842.705048,-2812.782580
1486.470083,-9918.759623,76.609550,-1924.535449
1486.470395,-8586.388927,459.657299,-2738.761985
1486.470706,-5477.523971,612.876398,-3849.070898
1486.471017,-4071.132681,0.000000,-3404.947333
1486.471329,-5107.421000,-2451.505594,-2442.679609
1486.471640,-7476.080014,-1915.238745,-1036.288319
1486.471952,-10584.944971,-842.705048,1036.288319
1486.472263,-15396.283594,-306.438199,2886.803174
1486.472574,-18727.210333,-1149.143247,3701.029710
1486.472886,-17172.777854,-1149.143247,2220.617826
1486.473197,-12879.583391,0.000000,-222.061783
1486.473508,-8734.430116,536.266849,-2886.803174
1486.473820,-4515.256246,-383.047749,-3775.050304
1486.474131,-3034.844362,-459.657299,-4737.318029
1486.474442,-5329.482782,-1149.143247,-3478.967927
1486.474754,-6883.915261,-1302.362347,148.041188
1486.475065,-10214.842000,-1378.971896,2146.597232
1486.475376,-13471.748144,-383.047749,3404.947333
1486.475688,-14137.933492,-229.828649,3627.009116
1486.475999,-12953.603985,-1838.629195,3997.112087
1486.476311,-11547.212695,153.219100,3108.864956
1486.476622,-11547.212695,766.095498,2220.617826
1486.476933,-11695.253884,229.828649,296.082377
1486.477245,-9696.697840,76.609550,-0.000000
1486.477556,-5699.585753,919.314598,-0.000000
1486.477867,-4293.194464,-229.828649,-1998.556043
1486.478179,-5255.462188,153.219100,-592.164754
1486.478490,-6513.812290,842.705048,-148.041188
1486.478801,-6883.915261,2298.286494,740.205942
1486.479113,-7105.977043,1608.800546,3182.885551
1486.479424,-7846.182985,0.000000,3552.988522
1486.479735,-9178.553681,153.219100,2886.803174
1486.480047,-7550.100608,0.000000,3330.926739
1486.480358,-6217.729913,383.047749,1702.473667
1486.480670,-7179.997637,1149.143247,666.185348
1486.480981,-8956.491898,2145.067394,1554.432478
1486.481292,-11547.212695,919.314598,1998.556043
1486.481604,-11177.109724,-919.314598,2738.761985
1486.481915,-8882.471304,-919.314598,1628.453072
1486.482226,-5995.668130,-766.095498,-518.144159
1486.482538,-3775.050304,-229.828649,-740.205942
1486.482849,-2960.823768,-383.047749,-592.164754
1486.483160,-4293.194464,-459.657299,-0.000000
1486.483472,-8512.368333,0.000000,2590.720797
1486.483783,-13915.871710,-995.924147,4737.318029
1486.484094,-14434.015869,-1915.238745,5477.523971
1486.484406,-11917.315666,-2298.286494,2516.700203
1486.484717,-8068.244768,-459.657299,370.102971
1486.485029,-7846.182985,1302.362347,-444.123565
1486.485340,-10066.800811,229.828649,-222.061783
1486.485651,-9696.697840,-919.314598,370.102971
1486.485963,-10955.047942,-2528.115143,-296.082377
1486.486274,-10955.047942,-1455.581446,1036.288319
1486.486585,-10214.842000,1072.533697,-0.000000
1486.486897,-8438.347739,2221.676944,-888.247130
1486.487208,-7031.956449,1378.971896,-1480.411884
1486.487519,-6883.915261,0.000000,-1480.411884
1486.487831,-6735.874072,0.000000,222.061783
1486.488142,-9474.636058,229.828649,-592.164754
1486.488453,-10436.903782,766.095498,-444.123565
1486.488765,-10807.006753,0.000000,444.123565
1486.489076,-11103.089130,383.047749,296.082377
1486.489388,-11177.109724,919.314598,1480.411884
1486.489699,-10288.862594,76.609550,1480.411884
1486.490010,-8586.388927,-919.314598,444.123565
1486.490322,-7772.162391,536.266849,-222.061783
1486.490633,-6661.853478,1072.533697,-1924.535449
1486.490944,-5329.482782,995.924147,-1628.453072
1486.491256,-4737.318029,1378.971896,-1036.288319
1486.491567,-5329.482782,995.924147,-1924.535449
1486.491878,-7402.059420,-383.047749,-1628.453072
1486.492190,-9770.718434,-842.705048,444.123565
1486.492501,-11843.295072,0.000000,814.226536
1486.492812,-11843.295072,306.438199,2516.700203
1486.493124,-13101.645173,-766.095498,2664.741391
1486.493435,-13323.706956,-1685.410096,2368.659014
1486.493747,-10955.047942,-2068.457845,2738.761985
1486.494058,-7328.038826,-1378.971896,2442.679609
1486.494369,-5329.482782,-1915.238745,222.061783
1486.494681,-5699.585753,-2145.067394,-740.205942
1486.494992,-6513.812290,-842.705048,-1184.329507
1486.495303,-7328.038826,383.047749,-370.102971
1486.495615,-7846.182985,0.000000,-222.061783
1486.495926,-9178.553681,-1149.143247,-148.041188
1486.496237,-9770.718434,-2221.676944,-0.000000
1486.496549,-10658.965565,-1072.533697,814.226536
1486.496860,-11769.274478,229.828649,1258.350101
1486.497171,-12953.603985,1302.362347,2368.659014
1486.497483,-13693.809927,76.609550,2960.823768
1486.497794,-12805.562797,-1072.533697,3108.864956
1486.498106,-9548.656652,-1302.362347,1406.391290
1486.498417,-6069.688724,0.000000,-1036.288319
1486.498728,-3775.050304,919.314598,-3478.967927
1486.499040,-3182.885551,766.095498,-4589.276840
1486.499351,-4441.235652,1072.533697,-3701.029710
1486.499662,-5773.606348,1685.410096,-1850.514855
1486.499974,-9400.615463,1072.533697,-1036.288319
1486.500285,-13027.624579,612.876398,740.205942
1486.500596,-13693.809927,536.266849,2738.761985
1486.500908,-13397.727550,2451.505594,2886.803174
1486.501219,-11843.295072,2451.505594,2516.700203
1486.501530,-10955.047942,995.924147,1702.473667
1486.501842,-9030.512492,76.609550,740.205942
1486.502153,-5477.523971,306.438199,-666.185348
1486.502465,-5107.421000,995.924147,-1554.432478
1486.502776,-6735.874072,1302.362347,-1036.288319
1486.503087,-8734.430116,306.438199,1184.329507
1486.503399,-7476.080014,-2987.772442,888.247130
1486.503710,-4663.297435,-4060.306139,740.205942
1486.504021,-4515.256246,-1838.629195,1998.556043
1486.504333,-8364.327145,-689.485948,3404.947333
1486.504644,-11843.295072,-1532.190996,4515.256246
1486.504955,-13767.830521,-2681.334243,4811.338623
1486.505267,-15100.201217,-1608.800546,7402.059420
1486.505578,-11991.336260,-919.314598,5033.400406
1486.505889,-7105.977043,-842.705048,2738.761985
1486.506201,-3997.112087,-383.047749,-0.000000
1486.506512,-3552.988522,-1149.143247,-888.247130
1486.506824,-4885.359217,-842.705048,-814.226536
1486.507135,-6883.915261,689.485948,-888.247130
1486.507446,-9696.697840,2987.772442,1110.308913
1486.507758,-10214.842000,1685.410096,1776.494261
1486.508069,-8586.388927,536.266849,1702.473667
1486.508380,-6365.771101,-536.266849,-74.020594
1486.508692,-5625.565159,306.438199,-370.102971
1486.509003,-6883.915261,2374.896044,518.144159
1486.509314,-10066.800811,2528.115143,592.164754
1486.509626,-14730.098246,1991.848295,740.205942
1486.509937,-16284.530724,-153.219100,888.247130
1486.510248,-11547.212695,153.219100,666.185348
1486.510560,-5699.585753,919.314598,-3034.844362
1486.510871,-3997.112087,1608.800546,-4589.276840
1486.511183,-5107.421000,-153.219100,-4589.276840
1486.511494,-6143.709319,-383.047749,-3034.844362
1486.511805,-7920.203579,995.924147,-518.144159
1486.512117,-11177.109724,-536.266849,1258.350101
1486.512428,-14434.015869,-2451.505594,1628.453072
1486.512739,-13915.871710,-2068.457845,148.041188
1486.513051,-10732.986159,0.000000,-592.164754
1486.513362,-8586.388927,-689.485948,-1850.514855
1486.513673,-8512.368333,-1302.362347,-1998.556043
1486.513985,-9622.677246,-1455.581446,-2368.659014
1486.514296,-9992.780217,-1455.581446,-518.144159
1486.514607,-11177.109724,-1915.238745,1924.535449
1486.514919,-12805.562797,-842.705048,1702.473667
1486.515230,-12065.356855,0.000000,1776.494261
1486.515542,-8586.388927,229.828649,888.247130
1486.515853,-5699.585753,229.828649,-0.000000
1486.516164,-5033.400406,383.047749,-2294.638420
1486.516476,-6069.688724,0.000000,-2812.782580
1486.516787,-7476.080014,-1915.238745,-1776.494261
1486.517098,-9474.636058,-1838.629195,-0.000000
1486.517410,-13175.665768,0.000000,888.247130
1486.517721,-15248.242405,1149.143247,2146.597232
1486.518032,-15544.324782,0.000000,4885.359217
1486.518344,-12953.603985,-1685.410096,5921.647536
1486.518655,-8438.347739,-1762.019645,3330.926739
1486.518966,-4811.338623,-459.657299,814.226536
1486.519278,-1332.370696,1378.971896,-666.185348
1486.519589,-222.061783,3217.601092,-666.185348
1486.519901,-1554.432478,3064.381992,-1702.473667
1486.520212,-4737.318029,1915.238745,-666.185348
1486.520523,-8882.471304,0.000000,814.226536
1486.520835,-9400.615463,536.266849,2368.659014
1486.521146,-9992.780217,2451.505594,1702.473667
1486.521457,-11547.212695,1838.629195,1258.350101
1486.521769,-10584.944971,-76.609550,1702.473667
1486.522080,-10066.800811,-766.095498,2886.803174
1486.522391,-7476.080014,0.000000,2664.741391
1486.522703,-6661.853478,-383.047749,1184.329507
1486.523014,-7476.080014,0.000000,1406.391290
1486.523325,-7846.182985,1072.533697,1554.432478
1486.523637,-7105.977043,1532.190996,962.267725
1486.523948,-5847.626942,-612.876398,148.041188
1486.524260,-7179.997637,-536.266849,-592.164754
1486.524571,-7105.977043,-612.876398,-148.041188
1486.524882,-7846.182985,-1915.238745,-1184.329507
1486.525194,-11029.068536,-1838.629195,-0.000000
1486.525505,-14656.077652,-919.314598,1924.535449
1486.525816,-15396.283594,-536.266849,4441.235652
1486.526128,-15766.386565,-2298.286494,4959.379811
1486.526439,-13619.789333,-2604.724693,4885.359217
1486.526750,-10658.965565,-2068.457845,2664.741391
1486.527062,-7402.059420,-995.924147,-0.000000
1486.527373,-3478.967927,1072.533697,-1776.494261
1486.527684,-2886.803174,1225.752797,-3330.926739
1486.527996,-3997.112087,153.219100,-3478.967927
1486.528307,-6069.688724,689.485948,-2368.659014
1486.528619,-9696.697840,76.609550,-888.247130
1486.528930,-11843.295072,0.000000,888.247130
1486.529241,-14434.015869,995.924147,1998.556043
1486.529553,-15470.304188,919.314598,2294.638420
1486.529864,-13471.748144,689.485948,2516.700203
1486.530175,-11177.109724,306.438199,1036.288319
1486.530487,-7476.080014,1378.971896,222.061783
1486.530798,-5181.441594,2145.067394,-2368.659014
1486.531109,-3997.112087,766.095498,-2368.659014
1486.531421,-2960.823768,-383.047749,-2516.700203
1486.531732,-3627.009116,689.485948,-2368.659014
1486.532043,-5107.421000,2451.505594,-1850.514855
1486.532355,-7994.224174,2068.457845,148.041188
1486.532666,-13175.665768,306.438199,1702.473667
1486.532978,-14211.954086,-995.924147,3627.009116
1486.533289,-11399.171507,-1532.190996,2516.700203
1486.533600,-8734.430116,-1225.752797,-74.020594
1486.533912,-5921.647536,612.876398,-0.000000
1486.534223,-5847.626942,383.047749,-1036.288319
1486.534534,-7698.141797,459.657299,814.226536
1486.534846,-9326.594869,-1455.581446,2812.782580
1486.535157,-11621.233289,-2604.724693,3552.988522
1486.535468,-11029.068536,-1302.362347,3997.112087
1486.535780,-7550.100608,0.000000,1628.453072
1486.536091,-3552.988522,76.609550,-592.164754
1486.536402,-2294.638420,-306.438199,-2368.659014
1486.536714,-3997.112087,-689.485948,-2220.617826
1486.537025,-8808.450710,-2145.067394,-370.102971
1486.537337,-12953.603985,-995.924147,2368.659014
1486.537648,-17690.922014,-153.219100,3923.091493
1486.537959,-18801.230927,766.095498,3775.050304
1486.538271,-16432.571912,536.266849,2516.700203
1486.538582,-10732.986159,0.000000,1554.432478
1486.538893,-5033.400406,-1378.971896,-888.247130
1486.539205,-2368.659014,-1225.752797,-3997.112087
1486.539516,-2368.659014,1225.752797,-4737.318029
1486.539827,-5329.482782,1915.238745,-2664.741391
1486.540139,-8068.244768,612.876398,-0.000000
1486.540450,-11547.212695,0.000000,1628.453072
1486.540761,-14582.057057,0.000000,2220.617826
1486.541073,-14211.954086,76.609550,1332.370696
1486.541384,-11103.089130,766.095498,1406.391290
1486.541696,-9474.636058,1608.800546,-0.000000
1486.542007,-8364.327145,306.438199,-1776.494261
1486.542318,-7994.224174,0.000000,-2368.659014
1486.542630,-7476.080014,842.705048,-1258.350101
1486.542941,-6513.812290,1302.362347,-1036.288319
1486.543252,-5921.647536,-536.266849,-1110.308913
1486.543564,-7105.977043,-612.876398,-666.185348
1486.543875,-9252.574275,-1302.362347,592.164754
1486.544187,-8142.265362,-766.095498,1998.556043
1486.544498,-8364.327145,-306.438199,740.205942
1486.544809,-9696.697840,0.000000,666.185348
1486.545121,-10214.842000,-689.485948,1110.308913
1486.545432,-9030.512492,-1149.143247,2072.576638
1486.545744,-8290.306550,-306.438199,518.144159
1486.546055,-7772.162391,306.438199,1332.370696
1486.546366,-8586.388927,-383.047749,814.226536
1486.546678,-10881.027347,-1608.800546,2072.576638
1486.546989,-12657.521608,-383.047749,2664.741391
1486.547300,-12139.377449,-1532.190996,2294.638420
1486.547612,-8438.347739,-2451.505594,666.185348
1486.547923,-4589.276840,-612.876398,-1850.514855
1486.548235,-1702.473667,2604.724693,-1480.411884
1486.548546,-3330.926739,2911.162892,518.144159
1486.548857,-9030.512492,0.000000,3627.009116
1486.549169,-13471.748144,-1608.800546,5255.462188
1486.549480,-14508.036463,-689.485948,6143.709319
1486.549792,-11695.253884,1149.143247,4737.318029
1486.550103,-8068.244768,2374.896044,2220.617826
1486.550414,-5477.523971,919.314598,-1998.556043
1486.550726,-3627.009116,-459.657299,-3256.906145
1486.551037,-4071.132681,-229.828649,-3256.906145
1486.551348,-6587.832884,1302.362347,-1554.432478
1486.551660,-9844.739029,1455.581446,1258.350101
1486.551971,-13323.706956,0.000000,1480.411884
1486.552283,-12139.377449,153.219100,2368.659014
1486.552594,-9400.615463,1838.629195,2960.823768
1486.552905,-8068.244768,2221.676944,2590.720797
1486.553217,-7920.203579,459.657299,370.102971
1486.553528,-6661.853478,-229.828649,-1776.494261
1486.553839,-7105.977043,536.266849,-2442.679609
1486.554151,-8956.491898,612.876398,-2516.700203
1486.554462,-11177.109724,689.485948,-1480.411884
1486.554774,-13175.665768,-1378.971896,-296.082377
1486.555085,-13693.809927,-4060.306139,1258.350101
1486.555396,-13693.809927,-3753.867940,2220.617826
1486.555708,-11177.109724,-2681.334243,2886.803174
1486.556019,-7624.121203,-2068.457845,1332.370696
1486.556331,-6661.853478,-1225.752797,-0.000000
1486.556642,-4959.379811,-229.828649,-1332.370696
1486.556953,-4737.318029,919.314598,-1480.411884
1486.557265,-5477.523971,1455.581446,-1332.370696
1486.557576,-8364.327145,612.876398,-518.144159
1486.557887,-11843.295072,306.438199,444.123565
1486.558199,-14804.118840,0.000000,1406.391290
1486.558510,-14730.098246,0.000000,518.144159
1486.558822,-13027.624579,-842.705048,-0.000000
1486.559133,-10288.862594,-2221.676944,-814.226536
1486.559444,-6883.915261,-1838.629195,-2220.617826
1486.559756,-4737.318029,-306.438199,-2664.741391
1486.560067,-4515.256246,1302.362347,-1332.370696
1486.560379,-4737.318029,1685.410096,148.041188
1486.560690,-6661.853478,689.485948,1776.494261
1486.561001,-9474.636058,229.828649,3034.844362
1486.561313,-10807.006753,766.095498,2368.659014
1486.561624,-9918.759623,1915.238745,1332.370696
1486.561935,-8882.471304,2451.505594,-666.185348
1486.562247,-7846.182985,1455.581446,-1998.556043
1486.562558,-7772.162391,306.438199,-2072.576638
1486.562870,-10362.883188,383.047749,-592.164754
1486.563181,-11843.295072,1149.143247,2146.597232
1486.563492,-12435.459826,-2221.676944,2368.659014
1486.563804,-9030.512492,-2451.505594,2220.617826
1486.564115,-5255.462188,-2221.676944,1332.370696
1486.564426,-1998.556043,306.438199,740.205942
1486.564738,-1702.473667,1532.190996,592.164754
1486.565049,-5921.647536,1915.238745,666.185348
1486.565361,-9696.697840,229.828649,2516.700203
1486.565672,-11843.295072,0.000000,3627.009116
1486.565983,-12657.521608,0.000000,4737.318029
1486.566295,-11769.274478,-306.438199,3701.029710
1486.566606,-10658.965565,-2221.676944,1998.556043
1486.566918,-9030.512492,-2911.162892,370.102971
1486.567229,-7105.977043,-1762.019645,-0.000000
1486.567540,-8364.327145,-1225.752797,-518.144159
1486.567852,-10510.924376,-1225.752797,592.164754
1486.568163,-11769.274478,-229.828649,962.267725
1486.568474,-9992.780217,766.095498,444.123565
1486.568786,-8216.285956,2604.724693,962.267725
1486.569097,-7328.038826,2451.505594,1702.473667
1486.569409,-7772.162391,-153.219100,2368.659014
1486.569720,-8956.491898,-2604.724693,2516.700203
1486.570031,-10214.842000,-1838.629195,1554.432478
1486.570343,-9474.636058,-536.266849,-74.020594
1486.570654,-8734.430116,919.314598,-1776.494261
1486.570966,-10214.842000,842.705048,-1628.453072
1486.571277,-12509.480420,-919.314598,-1184.329507
1486.571588,-12805.562797,-995.924147,-1184.329507
1486.571900,-11325.150913,1608.800546,-740.205942
1486.572211,-9178.553681,3524.039291,-74.020594
1486.572522,-5181.441594,2681.334243,-814.226536
1486.572834,-3034.844362,1455.581446,-2294.638420
1486.573145,-3034.844362,995.924147,-1850.514855
1486.573457,-4811.338623,995.924147,-888.247130
1486.573768,-7402.059420,1149.143247,-0.000000
1486.574079,-10732.986159,153.219100,1036.288319
1486.574391,-12731.542202,-1302.362347,1110.308913
1486.574702,-12435.459826,-2834.553343,814.226536
1486.575013,-10214.842000,-2374.896044,-0.000000
1486.575325,-7698.141797,-1838.629195,-0.000000
1486.575636,-5995.668130,-2145.067394,-2072.576638
1486.575948,-5329.482782,-1915.238745,-1776.494261
1486.576259,-6439.791695,459.657299,-518.144159
1486.576570,-8586.388927,1455.581446,888.247130
1486.576882,-10214.842000,1302.362347,1184.329507
1486.577193,-10881.027347,1762.019645,1850.514855
1486.577505,-10658.965565,1915.238745,2664.741391
1486.577816,-10584.944971,229.828649,3330.926739
1486.578127,-9992.780217,-2911.162892,2812.782580
1486.578439,-7624.121203,-4290.134789,370.102971
1486.578750,-6587.832884,-2834.553343,-222.061783
1486.579061,-9326.594869,-383.047749,-592.164754
1486.579373,-12065.356855,459.657299,666.185348
1486.579684,-12953.603985,-306.438199,1258.350101
1486.579996,-13175.665768,-1378.971896,1776.494261
1486.580307,-9844.739029,229.828649,3034.844362
1486.580618,-6291.750507,2298.286494,1406.391290
1486.580930,-5625.565159,2451.505594,814.226536
1486.581241,-5181.441594,0.000000,444.123565
1486.581553,-4293.194464,-1378.971896,444.123565
1486.581864,-5847.626942,-383.047749,-296.082377
1486.582175,-8290.306550,766.095498,1628.453072
1486.582487,-11103.089130,536.266849,-444.123565
1486.582798,-11991.336260,-459.657299,222.061783
1486.583109,-12065.356855,766.095498,-296.082377
1486.583421,-13249.686362,766.095498,962.267725
1486.583732,-12139.377449,-459.657299,2368.659014
1486.584044,-10436.903782,-383.047749,740.205942
1486.584355,-7476.080014,1532.190996,222.061783
1486.584666,-4885.359217,1378.971896,-296.082377
1486.584978,-3552.988522,689.485948,-1184.329507
1486.585289,-3182.885551,1225.752797,-148.041188
1486.585600,-4367.215058,-766.095498,-222.061783
1486.585912,-6143.709319,-2681.334243,-296.082377
1486.586223,-9252.574275,-1991.848295,-148.041188
1486.586535,-11621.233289,-536.266849,740.205942
1486.586846,-12213.398043,-1685.410096,592.164754
1486.587157,-13989.892304,-1455.581446,370.102971
1486.587469,-15100.201217,-153.219100,666.185348
1486.587780,-13027.624579,536.266849,666.185348
1486.588092,-10214.842000,306.438199,518.144159
1486.588403,-8438.347739,842.705048,-0.000000
1486.588714,-6143.709319,383.047749,-296.082377
1486.589026,-4367.215058,-919.314598,-962.267725
1486.589337,-2368.659014,-459.657299,-1628.453072
1486.589648,-2664.741391,-766.095498,-1184.329507
1486.589960,-5699.585753,-1838.629195,-1036.288319
1486.590271,-9252.574275,-1608.800546,-370.102971
1486.590583,-13323.706956,-306.438199,666.185348
1486.590894,-15544.324782,1149.143247,1924.535449
1486.591205,-16654.633695,1838.629195,2146.597232
1486.591517,-15174.221811,995.924147,2072.576638
1486.591828,-11325.150913,1838.629195,1258.350101
1486.592139,-9178.553681,2451.505594,666.185348
1486.592451,-6587.832884,2604.724693,1110.308913
1486.592762,-2960.823768,306.438199,-666.185348
1486.593074,-296.082377,-1225.752797,-2738.761985
1486.593385,1998.556043,-383.047749,-2072.576638
1486.593696,-518.144159,0.000000,-1332.370696
1486.594008,-6069.688724,-995.924147,-1258.350101
1486.594319,-12509.480420,-1455.581446,222.061783
1486.594631,-19097.313304,-1149.143247,3701.029710
1486.594942,-20059.581028,153.219100,7105.977043
1486.595253,-20281.642811,842.705048,5773.606348
1486.595565,-15914.427753,-1072.533697,3404.947333
1486.595876,-7031.956449,-2221.676944,814.226536
1486.596187,-296.082377,-1225.752797,-3108.864956
1486.596499,2590.720797,1608.800546,-2664.741391
1486.596810,-1406.391290,1532.190996,-2072.576638
1486.597122,-6735.874072,-1685.410096,-74.020594
1486.597433,-9400.615463,-1532.190996,1850.514855
1486.597744,-11473.192101,-612.876398,2146.597232
1486.598056,-11029.068536,0.000000,2590.720797
1486.598367,-10362.883188,-536.266849,1258.350101
1486.598679,-11843.295072,-766.095498,592.164754
1486.598990,-11325.150913,-306.438199,1480.411884
1486.599301,-12287.418637,-766.095498,2220.617826
1486.599613,-14285.974681,-153.219100,3330.926739
1486.599924,-11251.130318,-229.828649,3627.009116
1486.600235,-7476.080014,-2298.286494,1554.432478
1486.600547,-4811.338623,-1685.410096,-814.226536
1486.600858,-2812.782580,766.095498,-1628.453072
1486.601170,-2516.700203,1072.533697,-3108.864956
1486.601481,-4219.173869,766.095498,-2664.741391
1486.601792,-7179.997637,-459.657299,-1406.391290
1486.602104,-10658.965565,76.609550,-1258.350101
1486.602415,-13693.809927,766.095498,666.185348
1486.602726,-13915.871710,1915.238745,2442.679609
1486.603038,-13915.871710,1225.752797,2072.576638
1486.603349,-12287.418637,919.314598,2590.720797
1486.603661,-10955.047942,-383.047749,2294.638420
1486.603972,-8290.306550,-919.314598,222.061783
1486.604283,-4663.297435,-995.924147,-2220.617826
1486.604595,-2590.720797,919.314598,-3404.947333
1486.604906,-2294.638420,919.314598,-4441.235652
1486.605218,-3034.844362,1302.362347,-4071.132681
1486.605529,-5107.421000,1225.752797,-2664.741391
1486.605840,-8142.265362,0.000000,518.144159
1486.606152,-12805.562797,-612.876398,2886.803174
1486.606463,-15840.407159,-766.095498,3330.926739
1486.606774,-15766.386565,-995.924147,2738.761985
1486.607086,-11769.274478,-612.876398,1850.514855
1486.607397,-8660.409521,612.876398,1184.329507
1486.607709,-8586.388927,0.000000,962.267725
1486.608020,-8142.265362,-1455.581446,1036.288319
1486.608331,-9030.512492,-2451.505594,888.247130
1486.608643,-8660.409521,-1685.410096,1332.370696
1486.608954,-8586.388927,383.047749,962.267725
1486.609266,-5921.647536,-306.438199,222.061783
1486.609577,-4811.338623,-1149.143247,-1628.453072
1486.609888,-4219.173869,-153.219100,-2664.741391
1486.610200,-6439.791695,1072.533697,-1332.370696
1486.610511,-12805.562797,2145.067394,1036.288319
1486.610822,-18135.045579,1532.190996,5107.421000
1486.611134,-20059.581028,-612.876398,4737.318029
1486.611445,-16284.530724,-842.705048,3997.112087
1486.611757,-9696.697840,612.876398,1036.288319
1486.612068,-3627.009116,842.705048,-1480.411884
1486.612379,222.061783,306.438199,-3108.864956
1486.612691,-1554.432478,-842.705048,-3923.091493
1486.613002,-6957.935855,0.000000,-962.267725
1486.613313,-11621.233289,306.438199,2368.659014
1486.613625,-13397.727550,1072.533697,4811.338623
1486.613936,-12139.377449,1072.533697,3552.988522
1486.614248,-8808.450710,-689.485948,1924.535449
1486.614559,-5255.462188,-2221.676944,1332.370696
1486.614870,-3108.864956,-1149.143247,-74.020594
1486.615182,-3997.112087,919.314598,-518.144159
1486.615493,-7994.224174,459.657299,-0.000000
1486.615805,-10510.924376,-536.266849,1110.308913
1486.616116,-11029.068536,76.609550,2294.638420
1486.616427,-10214.842000,1455.581446,1850.514855
1486.616739,-8142.265362,1532.190996,962.267725
1486.617050,-6809.894666,0.000000,296.082377
1486.617361,-6365.771101,-153.219100,518.144159
1486.617673,-5847.626942,229.828649,518.144159
1486.617984,-6513.812290,0.000000,-222.061783
1486.618296,-7624.121203,-995.924147,-888.247130
1486.618607,-8512.368333,-1838.629195,-370.102971
1486.618918,-9030.512492,-1915.238745,-222.061783
1486.619230,-10807.006753,-1838.629195,666.185348
1486.619541,-13841.851115,-306.438199,1184.329507
1486.619853,-14508.036463,-766.095498,1406.391290
1486.620164,-14878.139434,-1225.752797,2812.782580
1486.620475,-14434.015869,-689.485948,2812.782580
1486.620787,-11177.109724,-153.219100,814.226536
1486.621098,-6957.935855,-536.266849,-1110.308913
1486.621409,-2294.638420,1072.533697,-2590.720797
1486.621721,-962.267725,3140.991542,-1110.308913
1486.622032,-5551.544565,1685.410096,-814.226536
1486.622344,-10362.883188,229.828649,1406.391290
1486.622655,-13693.809927,-842.705048,2220.617826
1486.622966,-13545.768739,0.000000,2368.659014
1486.623278,-11843.295072,1608.800546,1332.370696
1486.623589,-8660.409521,153.219100,-592.164754
1486.623900,-5995.668130,-383.047749,-1998.556043
1486.624212,-5255.462188,-919.314598,-3034.844362
1486.624523,-5107.421000,612.876398,-814.226536
1486.624835,-10066.800811,2068.457845,1406.391290
1486.625146,-14730.098246,383.047749,4219.173869
1486.625457,-14508.036463,-842.705048,3478.967927
1486.625769,-8512.368333,-766.095498,1258.350101
1486.626080,-962.267725,383.047749,-1332.370696
1486.626392,1406.391290,153.219100,-4145.153275
1486.626703,666.185348,-995.924147,-4885.359217
1486.627014,-4885.359217,-1378.971896,-3256.906145
1486.627326,-11991.336260,0.000000,-888.247130
1486.627637,-18357.107362,766.095498,4515.256246
1486.627948,-20873.807564,0.000000,6365.771101
1486.628260,-17098.757260,-1225.752797,5403.503377
1486.628571,-11325.150913,-2451.505594,2960.823768
1486.628883,-5181.441594,-2221.676944,1406.391290
1486.629194,-1406.391290,-766.095498,-1480.411884
1486.629505,-740.205942,612.876398,-3034.844362
1486.629817,-3775.050304,612.876398,-1406.391290
1486.630128,-7476.080014,-612.876398,-222.061783
1486.630440,-10140.821405,-612.876398,1184.329507
1486.630751,-12731.542202,536.266849,1332.370696
1486.631062,-11843.295072,536.266849,2886.803174
1486.631374,-11621.233289,-1072.533697,2294.638420
1486.631685,-12287.418637,-1378.971896,1480.411884
1486.631996,-13027.624579,0.000000,1110.308913
1486.632308,-12731.542202,995.924147,1406.391290
1486.632619,-10288.862594,842.705048,1332.370696
1486.632931,-8956.491898,0.000000,-370.102971
1486.633242,-7105.977043,0.000000,-1184.329507
1486.633553,-5329.482782,919.314598,-1406.391290
1486.633865,-5477.523971,2221.676944,-1406.391290
1486.634176,-6957.935855,2604.724693,-962.267725
1486.634487,-9400.615463,1072.533697,370.102971
1486.634799,-11547.212695,-1532.190996,222.061783
1486.635110,-9770.718434,-1149.143247,-1184.329507
1486.635422,-8142.265362,1455.581446,-1850.514855
1486.635733,-7624.121203,2987.772442,370.102971
1486.636044,-8734.430116,153.219100,888.247130
1486.636356,-12361.439231,-1072.533697,2886.803174
1486.636667,-12731.542202,-3064.381992,5033.400406
1486.636979,-10288.862594,-2987.772442,4145.153275
1486.637290,-6735.874072,-229.828649,2442.679609
1486.637601,-2738.761985,0.000000,-1110.308913
1486.637913,1480.411884,-306.438199,-3627.009116
1486.638224,2368.659014,-306.438199,-4367.215058
1486.638535,-1924.535449,1608.800546,-2368.659014
1486.638847,-9770.718434,1225.752797,1406.391290
1486.639158,-16580.613101,-612.876398,5181.441594
1486.639470,-20207.622217,-1455.581446,6957.935855
1486.639781,-18135.045579,-689.485948,5847.626942
1486.640092,-12287.418637,-76.609550,2220.617826
1486.640404,-6143.709319,-459.657299,-814.226536
1486.640715,-2294.638420,-919.314598,-2516.700203
1486.641027,-3182.885551,-919.314598,-4219.173869
1486.641338,-6069.688724,-689.485948,-1258.350101
1486.641649,-10807.006753,-459.657299,1036.288319
1486.641961,-13175.665768,-306.438199,4219.173869
1486.642272,-12583.501014,-842.705048,3034.844362
1486.642584,-10140.821405,-689.485948,1776.494261
1486.642895,-8586.388927,612.876398,444.123565
1486.643207,-6883.915261,0.000000,-0.000000
1486.643518,-7550.100608,153.219100,-2072.576638
1486.643830,-11843.295072,919.314598,-2516.700203
1486.644141,-13915.871710,1302.362347,148.041188
1486.644453,-14804.118840,689.485948,518.144159
1486.644764,-11843.295072,306.438199,1480.411884
1486.645075,-8364.327145,-689.485948,-148.041188
1486.645387,-6439.791695,-1302.362347,-1258.350101
1486.645698,-4367.215058,0.000000,-1036.288319
1486.646010,-4589.276840,1072.533697,-814.226536
1486.646321,-5699.585753,612.876398,-1554.432478
1486.646633,-6661.853478,459.657299,-1332.370696
1486.646944,-7772.162391,842.705048,-0.000000
1486.647256,-7772.162391,689.485948,-1332.370696
1486.647567,-9548.656652,1532.190996,444.123565
1486.647879,-12583.501014,306.438199,888.247130
1486.648190,-14211.954086,229.828649,2294.638420
1486.648501,-14063.912898,-459.657299,2294.638420
1486.648813,-9918.759623,-2911.162892,666.185348
1486.649124,-7031.956449,-3294.210641,-2812.782580
1486.649436,-3923.091493,-995.924147,-2590.720797
1486.649747,-3182.885551,1072.533697,-2368.659014
1486.650059,-5847.626942,0.000000,-222.061783
1486.650370,-10140.821405,76.609550,3404.947333
1486.650682,-12731.542202,-995.924147,5107.421000
1486.650993,-12953.603985,-1838.629195,5107.421000
1486.651304,-10510.924376,-2068.457845,4737.318029
1486.651616,-8808.450710,-1149.143247,2220.617826
1486.651927,-6217.729913,0.000000,-148.041188
1486.652239,-4589.276840,-1072.533697,-2442.679609
1486.652550,-6069.688724,383.047749,-1628.453072
1486.652862,-10288.862594,1225.752797,1850.514855
1486.653173,-12953.603985,153.219100,2664.741391
1486.653485,-12805.562797,-229.828649,3478.967927
1486.653796,-11769.274478,842.705048,1924.535449
1486.654108,-7698.141797,2374.896044,2590.720797
1486.654419,-3923.091493,2145.067394,-592.164754
1486.654730,-2072.576638,2451.505594,-1258.350101
1486.655042,-3108.864956,1455.581446,-1554.432478
1486.655353,-7402.059420,383.047749,-0.000000
1486.655665,-10066.800811,536.266849,2812.782580
1486.655976,-12435.459826,689.485948,2960.823768
1486.656288,-14063.912898,-689.485948,3256.906145
1486.656599,-15100.201217,-2068.457845,2960.823768
1486.656911,-10881.027347,-1762.019645,2368.659014
1486.657222,-5699.585753,-1225.752797,-148.041188
1486.657534,-4219.173869,-1455.581446,-1184.329507
1486.657845,-3997.112087,-1072.533697,-2072.576638
1486.658156,-5921.647536,1685.410096,-1998.556043
1486.658468,-6809.894666,2145.067394,666.185348
1486.658779,-9548.656652,995.924147,1702.473667
1486.659091,-11029.068536,-229.828649,3182.885551
1486.659402,-10288.862594,-766.095498,1554.432478
1486.659714,-9030.512492,383.047749,1332.370696
1486.660025,-10214.842000,-459.657299,-0.000000
1486.660337,-9622.677246,-1072.533697,-74.020594
1486.660648,-10436.903782,-2145.067394,-1702.473667
1486.660959,-10732.986159,-2451.505594,-1184.329507
1486.661271,-10288.862594,-1762.019645,-0.000000
1486.661582,-10658.965565,-766.095498,-518.144159
1486.661894,-10658.965565,0.000000,518.144159
1486.662205,-9178.553681,-1532.190996,592.164754
1486.662517,-6957.935855,-1915.238745,-888.247130
1486.662828,-5181.441594,1072.533697,-1998.556043
1486.663140,-5847.626942,2451.505594,-962.267725
1486.663451,-8438.347739,383.047749,-1850.514855
1486.663763,-11991.336260,-306.438199,-592.164754
1486.664074,-14656.077652,1378.971896,-0.000000
1486.664385,-13397.727550,2221.676944,1332.370696
1486.664697,-11917.315666,1378.971896,1036.288319
1486.665008,-10584.944971,-919.314598,518.144159
1486.665320,-8512.368333,-1455.581446,-370.102971
1486.665631,-6439.791695,-2221.676944,-1036.288319
1486.665943,-3256.906145,-766.095498,-1184.329507
1486.666254,-3478.967927,0.000000,-2220.617826
1486.666566,-3849.070898,919.314598,-2146.597232
1486.666877,-4293.194464,2834.553343,-444.123565
1486.667189,-8512.368333,3370.820191,1406.391290
1486.667500,-9548.656652,2221.676944,2146.597232
1486.667811,-11325.150913,919.314598,3256.906145
1486.668123,-11695.253884,-229.828649,3034.844362
1486.668434,-8290.306550,306.438199,888.247130
1486.668746,-7550.100608,1072.533697,-592.164754
1486.669057,-6661.853478,0.000000,-1702.473667
1486.669369,-6439.791695,-689.485948,-2664.741391
1486.669680,-6143.709319,-1149.143247,-3108.864956
1486.669992,-6439.791695,-229.828649,-2072.576638
1486.670303,-10214.842000,-306.438199,-370.102971
1486.670614,-11695.253884,-1455.581446,1332.370696
1486.670926,-11103.089130,-1225.752797,2590.720797
1486.671237,-10732.986159,-995.924147,2590.720797
1486.671549,-9844.739029,-1532.190996,3108.864956
1486.671860,-7179.997637,-2221.676944,740.205942
1486.672172,-6291.750507,-1685.410096,-2368.659014
1486.672483,-6957.935855,229.828649,-3552.988522
1486.672795,-8808.450710,0.000000,-3775.050304
1486.673106,-11547.212695,0.000000,-3256.906145
1486.673418,-13175.665768,229.828649,-2812.782580
1486.673729,-13915.871710,-1378.971896,-2072.576638
1486.674040,-14508.036463,-1991.848295,-1850.514855
1486.674352,-12879.583391,0.000000,-1110.308913
1486.674663,-9474.636058,1072.533697,-2664.741391
1486.674975,-7105.977043,766.095498,-3182.885551
1486.675286,-5699.585753,689.485948,-3330.926739
1486.675598,-5699.585753,1302.362347,-3923.091493
1486.675909,-7402.059420,766.095498,-3701.029710
1486.676221,-9548.656652,-153.219100,-1554.432478
1486.676532,-9844.739029,-1762.019645,-1258.350101
1486.676844,-9326.594869,-2834.553343,-3330.926739
1486.677155,-8068.244768,-1685.410096,-4737.318029
1486.677466,-7179.997637,229.828649,-5551.544565
1486.677778,-9030.512492,1455.581446,-5995.668130
1486.678089,-10881.027347,1685.410096,-5921.647536
1486.678401,-11843.295072,1685.410096,-4885.359217
1486.678712,-10510.924376,1532.190996,-2516.700203
1486.679024,-7105.977043,1838.629195,-2294.638420
1486.679335,-4885.359217,919.314598,-2368.659014
1486.679647,-5773.606348,-1608.800546,-2664.741391
1486.679958,-6513.812290,-1455.581446,-1924.535449
1486.680269,-7254.018232,0.000000,-1924.535449
1486.680581,-9030.512492,229.828649,-2146.597232
1486.680892,-10214.842000,-995.924147,-3256.906145
1486.681204,-9992.780217,-2911.162892,-4589.276840
1486.681515,-6365.771101,-1225.752797,-5403.503377
1486.681827,-6143.709319,76.609550,-5773.606348
1486.682138,-8586.388927,1608.800546,-3182.885551
1486.682450,-13249.686362,306.438199,-1184.329507
1486.682761,-15544.324782,-1072.533697,888.247130
1486.683073,-14730.098246,-536.266849,1998.556043
1486.683384,-13101.645173,459.657299,740.205942
1486.683695,-7846.182985,1302.362347,-1480.411884
1486.684007,-4219.173869,-766.095498,-4515.256246
1486.684318,-3627.009116,-1455.581446,-4811.338623
1486.684630,-7402.059420,-1455.581446,-3330.926739
1486.684941,-11991.336260,-1685.410096,-1332.370696
1486.685253,-14359.995275,-2068.457845,-222.061783
1486.685564,-14804.118840,-1149.143247,592.164754
1486.685876,-12435.459826,-689.485948,-0.000000
1486.686187,-8364.327145,536.266849,-2516.700203
1486.686499,-4219.173869,995.924147,-3849.070898
1486.686810,-3404.947333,2068.457845,-3997.112087
1486.687121,-6069.688724,2451.505594,-2886.803174
1486.687433,-9252.574275,2451.505594,-962.267725
1486.687744,-11843.295072,1072.533697,666.185348
1486.688056,-13767.830521,0.000000,1480.411884
1486.688367,-11769.274478,-383.047749,1406.391290
1486.688679,-7179.997637,-1302.362347,-962.267725
1486.688990,-5107.421000,-2757.943793,-3478.967927
1486.689302,-3701.029710,-2604.724693,-4071.132681
1486.689613,-3627.009116,-1302.362347,-5477.523971
1486.689925,-5847.626942,0.000000,-4219.173869
1486.690236,-9400.615463,383.047749,-1480.411884
1486.690547,-13101.645173,229.828649,370.102971
1486.690859,-13767.830521,1532.190996,1924.535449
1486.691170,-11991.336260,2451.505594,1480.411884
1486.691482,-9474.636058,1455.581446,148.041188
1486.691793,-6217.729913,153.219100,-2960.823768
1486.692105,-3182.885551,229.828649,-6069.688724
1486.692416,-1332.370696,229.828649,-7105.977043
1486.692728,-3627.009116,-383.047749,-6217.729913
1486.693039,-9030.512492,-766.095498,-3997.112087
1486.693350,-13471.748144,-919.314598,-2368.659014
1486.693662,-15692.365970,0.000000,296.082377
1486.693973,-16802.674883,-536.266849,1554.432478
1486.694285,-14359.995275,612.876398,1332.370696
1486.694596,-10732.986159,842.705048,-1480.411884
1486.694908,-6069.688724,995.924147,-4145.153275
1486.695219,-1776.494261,1225.752797,-6217.729913
1486.695531,518.144159,612.876398,-7328.038826
1486.695842,-592.164754,0.000000,-7105.977043
1486.696154,-6143.709319,-1149.143247,-5625.565159
1486.696465,-12805.562797,-306.438199,-1110.308913
1486.696776,-18949.272115,-1149.143247,1036.288319
1486.697088,-21836.075289,-689.485948,2220.617826
1486.697399,-18949.272115,-459.657299,814.226536
1486.697711,-11769.274478,-612.876398,-2294.638420
1486.698022,-2664.741391,536.266849,-4811.338623
1486.698334,2516.700203,1302.362347,-9548.656652
1486.698645,3256.906145,0.000000,-9400.615463
1486.698957,-962.267725,-612.876398,-7254.018232
1486.699268,-7550.100608,-766.095498,-2812.782580
1486.699580,-16062.468941,-2068.457845,666.185348
1486.699891,-22132.157666,-2145.067394,2590.720797
1486.700202,-22724.322419,-919.314598,2146.597232
1486.700514,-17542.880825,76.609550,444.123565
1486.700825,-10362.883188,306.438199,-2072.576638
1486.701137,-5107.421000,-766.095498,-4885.359217
1486.701448,-444.123565,-612.876398,-5551.544565
1486.701760,666.185348,-612.876398,-6217.729913
1486.702071,-1480.411884,229.828649,-4811.338623
1486.702383,-5773.606348,995.924147,-3108.864956
1486.702694,-10732.986159,229.828649,-1924.535449
1486.703005,-13841.851115,-995.924147,-740.205942
1486.703317,-15692.365970,-383.047749,-1036.288319
1486.703628,-15618.345376,-689.485948,-1702.473667
1486.703940,-13619.789333,229.828649,-2294.638420
1486.704251,-11029.068536,-612.876398,-1776.494261
1486.704563,-8734.430116,-1072.533697,-1998.556043
1486.704874,-6439.791695,-766.095498,-1998.556043
1486.705186,-3627.009116,-383.047749,-2368.659014
1486.705497,-1998.556043,383.047749,-3404.947333
1486.705809,-2368.659014,459.657299,-4219.173869
1486.706120,-3997.112087,1225.752797,-5403.503377
1486.706431,-7328.038826,1225.752797,-5477.523971
1486.706743,-10436.903782,1302.362347,-5255.462188
1486.707054,-12435.459826,766.095498,-4367.215058
1486.707366,-14211.954086,-612.876398,-3404.947333
1486.707677,-14582.057057,-1838.629195,-1924.535449
1486.707989,-12657.521608,-1991.848295,148.041188
1486.708300,-11547.212695,-842.705048,666.185348
1486.708612,-9474.636058,-612.876398,444.123565
1486.708923,-7402.059420,-306.438199,-814.226536
1486.709235,-5995.668130,459.657299,-2072.576638
1486.709546,-3478.967927,1838.629195,-4219.173869
1486.709857,-1850.514855,2757.943793,-6513.812290
1486.710169,-2294.638420,2911.162892,-7994.224174
1486.710480,-4367.215058,1455.581446,-8068.244768
1486.710792,-7994.224174,306.438199,-5921.647536
1486.711103,-13693.809927,-689.485948,-3108.864956
1486.711415,-18579.169144,-1685.410096,592.164754
1486.711726,-21095.869347,-3140.991542,2886.803174
1486.712038,-18949.272115,-3600.648841,3849.070898
1486.712349,-13101.645173,-2757.943793,2072.576638
1486.712660,-6735.874072,-1455.581446,-1036.288319
1486.712972,-1850.514855,-1302.362347,-3108.864956
1486.713283,888.247130,-919.314598,-5773.606348
1486.713595,592.164754,995.924147,-5625.565159
1486.713906,-4367.215058,766.095498,-4515.256246
1486.714218,-10362.883188,612.876398,-1998.556043
1486.714529,-15914.427753,76.609550,-740.205942
1486.714841,-18579.169144,383.047749,1184.329507
1486.715152,-17542.880825,536.266849,1332.370696
1486.715464,-13619.789333,-306.438199,296.082377
1486.715775,-8956.491898,612.876398,-1184.329507
1486.716086,-4959.379811,459.657299,-2664.741391
1486.716398,-2886.803174,0.000000,-3330.926739
1486.716709,-2960.823768,1072.533697,-3701.029710
1486.717021,-4293.194464,2298.286494,-3552.988522
1486.717332,-6513.812290,2374.896044,-3034.844362
1486.717644,-8734.430116,1532.190996,-2738.761985
1486.717955,-10066.800811,1149.143247,-2960.823768
1486.718267,-10066.800811,995.924147,-2960.823768
1486.718578,-10510.924376,-383.047749,-2664.741391
1486.718890,-9770.718434,-1915.238745,-1628.453072
1486.719201,-8512.368333,-2834.553343,-888.247130
1486.719512,-7328.038826,-3447.429741,-296.082377
1486.719824,-7105.977043,-2987.772442,-148.041188
1486.720135,-7179.997637,-1762.019645,-592.164754
1486.720447,-7105.977043,0.000000,-1702.473667
1486.720758,-7920.203579,1455.581446,-2886.803174
1486.721070,-9548.656652,2757.943793,-3849.070898
1486.721381,-10510.924376,2834.553343,-5329.482782
1486.721693,-10732.986159,2451.505594,-5181.441594
1486.722004,-10066.800811,1685.410096,-4737.318029
1486.722315,-9770.718434,0.000000,-3404.947333
1486.722627,-9918.759623,-2221.676944,-1702.473667
1486.722938,-10510.924376,-3370.820191,-444.123565
1486.723250,-10955.047942,-4136.915689,518.144159
1486.723561,-10658.965565,-3677.258390,814.226536
1486.723873,-10140.821405,-2604.724693,-74.020594
1486.724184,-9548.656652,-536.266849,-1924.535449
