#time,accel_x,accel_y,accel_z
1420.874415,-8882.471304,-153.219100,592.164754
1420.874726,-8882.471304,-153.219100,592.164754
1420.875038,-8660.409521,229.828649,592.164754
1420.875350,-8290.306550,0.000000,370.102971
1420.875662,-8808.450710,0.000000,222.061783
1420.875974,-8660.409521,-306.438199,370.102971
1420.876285,-8956.491898,-229.828649,518.144159
1420.876597,-8956.491898,-306.438199,592.164754
1420.876909,-8882.471304,0.000000,666.185348
1420.877221,-8882.471304,0.000000,518.144159
1420.877532,-8734.430116,0.000000,296.082377
1420.877844,-8956.491898,0.000000,-0.000000
1420.878156,-8808.450710,0.000000,518.144159
1420.878468,-8882.471304,-306.438199,444.123565
1420.878780,-8882.471304,0.000000,518.144159
1420.879091,-8956.491898,0.000000,592.164754
1420.879403,-9030.512492,0.000000,518.144159
1420.879715,-8882.471304,153.219100,444.123565
1420.880027,-8956.491898,0.000000,222.061783
1420.880339,-8660.409521,0.000000,296.082377
1420.880650,-8882.471304,383.047749,296.082377
1420.880962,-8734.430116,-306.438199,222.061783
1420.881274,-8956.491898,0.000000,444.123565
1420.881586,-8956.491898,0.000000,592.164754
1420.881898,-9030.512492,-306.438199,666.185348
1420.882209,-9104.533087,-153.219100,444.123565
1420.882521,-8956.491898,0.000000,666.185348
1420.882833,-8586.388927,0.000000,370.102971
1420.883145,-8882.471304,0.000000,592.164754
1420.883457,-8808.450710,0.000000,444.123565
1420.883768,-8956.491898,-229.828649,592.164754
1420.884080,-9030.512492,-153.219100,666.185348
1420.884392,-8956.491898,0.000000,666.185348
1420.884704,-9030.512492,0.000000,518.144159
1420.885016,-8734.430116,229.828649,296.082377
1420.885327,-8956.491898,153.219100,-0.000000
1420.885639,-8956.491898,229.828649,592.164754
1420.885951,-8882.471304,76.609550,666.185348
1420.886263,-8882.471304,0.000000,666.185348
1420.886575,-9104.533087,0.000000,592.164754
1420.886886,-9030.512492,-76.609550,370.102971
1420.887198,-8734.430116,76.609550,518.144159
1420.887510,-9030.512492,76.609550,296.082377
1420.887822,-8956.491898,-536.266849,518.144159
1420.888134,-8882.471304,-383.047749,592.164754
1420.888445,-8882.471304,-229.828649,370.102971
1420.888757,-8882.471304,0.000000,592.164754
1420.889069,-8956.491898,0.000000,666.185348
1420.889381,-8956.491898,-383.047749,518.144159
1420.889693,-8660.409521,0.000000,592.164754
1420.890004,-8882.471304,-383.047749,444.123565
1420.890316,-8734.430116,153.219100,370.102971
1420.890628,-9104.533087,-76.609550,518.144159
1420.890940,-9178.553681,0.000000,592.164754
1420.891251,-8956.491898,-229.828649,666.185348
1420.891563,-8882.471304,0.000000,444.123565
1420.891875,-8808.450710,-229.828649,518.144159
1420.892187,-8734.430116,76.609550,666.185348
1420.892499,-9400.615463,0.000000,148.041188
1420.892810,-9326.594869,153.219100,-0.000000
1420.893122,-9030.512492,0.000000,592.164754
1420.893434,-9178.553681,0.000000,518.144159
1420.893746,-8956.491898,-153.219100,518.144159
1420.894058,-8956.491898,0.000000,222.061783
1420.894369,-9030.512492,153.219100,370.102971
1420.894681,-8586.388927,0.000000,592.164754
1420.894993,-8956.491898,153.219100,-74.020594
1420.895305,-8660.409521,459.657299,814.226536
1420.895617,-8882.471304,-229.828649,592.164754
1420.895928,-8734.430116,-229.828649,518.144159
1420.896240,-9030.512492,0.000000,592.164754
1420.896552,-8882.471304,0.000000,592.164754
1420.896864,-8512.368333,76.609550,666.185348
1420.897176,-8660.409521,-306.438199,518.144159
1420.897487,-8660.409521,-306.438199,370.102971
1420.897799,-8882.471304,0.000000,222.061783
1420.898111,-9178.553681,0.000000,592.164754
1420.898423,-8808.450710,-229.828649,518.144159
1420.898735,-8882.471304,0.000000,518.144159
1420.899046,-9030.512492,0.000000,370.102971
1420.899358,-8808.450710,153.219100,592.164754
1420.899670,-8734.430116,0.000000,666.185348
1420.899982,-8808.450710,459.657299,592.164754
1420.900294,-8734.430116,0.000000,592.164754
1420.900605,-8808.450710,0.000000,592.164754
1420.900917,-8808.450710,-153.219100,592.164754
1420.901229,-8882.471304,0.000000,518.144159
1420.901541,-9104.533087,459.657299,370.102971
1420.901853,-8808.450710,0.000000,222.061783
1420.902164,-8512.368333,0.000000,518.144159
1420.902476,-8882.471304,383.047749,666.185348
1420.902788,-8882.471304,-153.219100,1110.308913
1420.903100,-9104.533087,0.000000,444.123565
1420.903412,-8956.491898,-229.828649,592.164754
1420.903723,-9030.512492,0.000000,296.082377
1420.904035,-9030.512492,229.828649,962.267725
1420.904347,-8734.430116,-153.219100,296.082377
1420.904659,-8512.368333,-229.828649,518.144159
1420.904970,-9030.512492,-306.438199,370.102971
1420.905282,-8808.450710,76.609550,444.123565
1420.905594,-9104.533087,0.000000,592.164754
1420.905906,-8882.471304,0.000000,592.164754
1420.906218,-8808.450710,-153.219100,740.205942
1420.906529,-8734.430116,0.000000,444.123565
1420.906841,-8290.306550,-306.438199,740.205942
1420.907153,-8660.409521,0.000000,370.102971
1420.907465,-8882.471304,306.438199,296.082377
1420.907777,-9104.533087,0.000000,666.185348
1420.908088,-9104.533087,0.000000,592.164754
1420.908400,-9030.512492,0.000000,518.144159
1420.908712,-8956.491898,0.000000,518.144159
1420.909024,-8734.430116,0.000000,740.205942
1420.909336,-8586.388927,-306.438199,370.102971
1420.909647,-8586.388927,0.000000,444.123565
1420.909959,-8956.491898,76.609550,666.185348
1420.910271,-8956.491898,76.609550,592.164754
1420.910583,-8956.491898,-153.219100,518.144159
1420.910895,-9474.636058,76.609550,518.144159
1420.911206,-11621.233289,1072.533697,148.041188
1420.911518,-10214.842000,3294.210641,370.102971
1420.911830,-8364.327145,4826.401637,592.164754
1420.912142,-7402.059420,3370.820191,1110.308913
1420.912454,-6439.791695,153.219100,1332.370696
1420.912765,-7179.997637,-1455.581446,-0.000000
1420.913077,-7402.059420,-919.314598,-0.000000
1420.913389,-8216.285956,-306.438199,-592.164754
1420.913701,-12583.501014,-842.705048,-1406.391290
1420.914013,-12139.377449,612.876398,-74.020594
1420.914324,-9474.636058,536.266849,592.164754
1420.914636,-8660.409521,-306.438199,2368.659014
1420.914948,-10140.821405,-689.485948,2590.720797
1420.915260,-11769.274478,1685.410096,1850.514855
1420.915572,-6661.853478,5209.449386,2590.720797
1420.915883,-5255.462188,4749.792088,1776.494261
1420.916195,-7772.162391,2681.334243,370.102971
1420.916507,-7105.977043,2987.772442,-1258.350101
1420.916819,-7179.997637,3064.381992,-2146.597232
1420.917131,-9400.615463,3677.258390,-814.226536
1420.917442,-9400.615463,3447.429741,-296.082377
1420.917754,-14285.974681,842.705048,-962.267725
1420.918066,-12287.418637,-1225.752797,2146.597232
1420.918378,-8512.368333,-919.314598,1998.556043
1420.918689,-10214.842000,2068.457845,1110.308913
1420.919001,-7846.182985,6205.373534,2590.720797
1420.919313,-7624.121203,5209.449386,1110.308913
1420.919625,-6513.812290,3217.601092,2294.638420
1420.919937,-6513.812290,5209.449386,1850.514855
1420.920248,-8216.285956,7048.078582,-74.020594
1420.920560,-8216.285956,6435.202183,-1184.329507
1420.920872,-9252.574275,4979.620737,-1258.350101
1420.921184,-9548.656652,5822.325785,-1702.473667
1420.921496,-11029.068536,5669.106685,-666.185348
1420.921807,-12065.356855,4979.620737,-148.041188
1420.922119,-10955.047942,4060.306139,1924.535449
1420.922431,-10288.862594,3753.867940,2072.576638
1420.922743,-8808.450710,5209.449386,2442.679609
1420.923055,-5773.606348,5286.058936,592.164754
1420.923366,-5403.503377,5898.935335,666.185348
1420.923678,-5329.482782,4366.744339,888.247130
1420.923990,-5033.400406,5286.058936,-1036.288319
1420.924302,-7105.977043,5362.668486,-962.267725
1420.924614,-8660.409521,3907.087040,-1480.411884
1420.924925,-9992.780217,2757.943793,-0.000000
1420.925237,-10955.047942,1225.752797,666.185348
1420.925549,-10881.027347,459.657299,1406.391290
1420.925861,-11029.068536,0.000000,1850.514855
1420.926173,-10214.842000,1838.629195,2368.659014
1420.926484,-9030.512492,2681.334243,2294.638420
1420.926796,-7254.018232,3983.696590,1036.288319
1420.927108,-6143.709319,3524.039291,222.061783
1420.927420,-6365.771101,3907.087040,-444.123565
1420.927732,-6513.812290,3830.477490,-962.267725
1420.928043,-6809.894666,3294.210641,-1332.370696
1420.928355,-8068.244768,1532.190996,-1036.288319
1420.928667,-9696.697840,-1762.019645,-148.041188
1420.928979,-11399.171507,-2604.724693,888.247130
1420.929291,-13101.645173,-2298.286494,1110.308913
1420.929602,-13249.686362,-1455.581446,1924.535449
1420.929914,-13323.706956,-306.438199,1554.432478
1420.930226,-12213.398043,1685.410096,592.164754
1420.930538,-10288.862594,3524.039291,-0.000000
1420.930849,-7846.182985,4290.134789,222.061783
1420.931161,-5921.647536,3753.867940,222.061783
1420.931473,-5699.585753,4673.182538,666.185348
1420.931785,-6957.935855,3753.867940,666.185348
1420.932097,-8364.327145,2221.676944,148.041188
1420.932408,-10510.924376,1302.362347,296.082377
1420.932720,-12657.521608,612.876398,-74.020594
1420.933032,-14434.015869,766.095498,-740.205942
1420.933344,-13989.892304,459.657299,-74.020594
1420.933656,-13249.686362,1378.971896,444.123565
1420.933967,-11177.109724,2987.772442,1332.370696
1420.934279,-8882.471304,4060.306139,1702.473667
1420.934591,-6069.688724,4749.792088,2146.597232
1420.934903,-3627.009116,5515.887586,1258.350101
1420.935215,-2072.576638,6511.811733,222.061783
1420.935526,-1776.494261,5975.544884,-1184.329507
1420.935838,-3627.009116,4443.353888,-1924.535449
1420.936150,-8216.285956,2451.505594,-2368.659014
1420.936462,-11769.274478,2911.162892,-370.102971
1420.936774,-14804.118840,3140.991542,740.205942
1420.937085,-15766.386565,3140.991542,2812.782580
1420.937397,-14508.036463,2604.724693,3552.988522
1420.937709,-10732.986159,2528.115143,3701.029710
1420.938021,-6217.729913,3677.258390,2442.679609
1420.938333,-3182.885551,4213.525239,740.205942
1420.938644,-1110.308913,7048.078582,-370.102971
1420.938956,-2294.638420,7890.783629,-2220.617826
1420.939268,-4515.256246,6741.640382,-2072.576638
1420.939580,-7179.997637,4443.353888,-2146.597232
1420.939892,-8956.491898,2528.115143,222.061783
1420.940203,-10510.924376,0.000000,444.123565
1420.940515,-11991.336260,-2451.505594,1554.432478
1420.940827,-12731.542202,-3753.867940,2220.617826
1420.941139,-12287.418637,-2911.162892,2220.617826
1420.941451,-12731.542202,0.000000,2294.638420
1420.941762,-11843.295072,2681.334243,1628.453072
1420.942074,-10658.965565,5056.230287,1998.556043
1420.942386,-7772.162391,6052.154434,1924.535449
1420.942698,-6365.771101,5592.497135,1628.453072
1420.943010,-5699.585753,4519.963438,-0.000000
1420.943321,-6217.729913,3140.991542,-1480.411884
1420.943633,-7846.182985,3524.039291,-2516.700203
1420.943945,-9474.636058,4136.915689,-2590.720797
1420.944257,-11843.295072,3600.648841,-2516.700203
1420.944568,-12657.521608,2681.334243,-666.185348
1420.944880,-12213.398043,1608.800546,1332.370696
1420.945192,-12731.542202,1455.581446,2146.597232
1420.945504,-12509.480420,2145.067394,2738.761985
1420.945816,-11621.233289,4596.572988,2220.617826
1420.946127,-8956.491898,7354.516781,888.247130
1420.946439,-7031.956449,7277.907231,-148.041188
1420.946751,-5847.626942,5439.278036,-1184.329507
1420.947063,-5995.668130,3370.820191,-1554.432478
1420.947374,-7254.018232,2451.505594,-1258.350101
1420.947686,-8438.347739,2528.115143,-74.020594
1420.947997,-9474.636058,1762.019645,-74.020594
1420.948309,-9474.636058,-536.266849,1406.391290
1420.948620,-7698.141797,-3370.820191,2368.659014
1420.948932,-7402.059420,-2834.553343,1924.535449
1420.949244,-7772.162391,995.924147,1480.411884
1420.949555,-8586.388927,5592.497135,-0.000000
1420.949867,-9844.739029,8886.707777,-740.205942
1420.950178,-9918.759623,9652.803275,740.205942
1420.950490,-11399.171507,6588.421283,-0.000000
1420.950801,-9622.677246,4673.182538,1184.329507
1420.951113,-8290.306550,4443.353888,666.185348
1420.951425,-7476.080014,4749.792088,666.185348
1420.951736,-5181.441594,3677.258390,592.164754
1420.952048,-4145.153275,919.314598,370.102971
1420.952359,-5107.421000,-1225.752797,740.205942
1420.952671,-6661.853478,-919.314598,444.123565
1420.952982,-8660.409521,3370.820191,-1258.350101
1420.953294,-11029.068536,6281.983084,-296.082377
1420.953605,-12657.521608,6665.030833,-0.000000
1420.953917,-13619.789333,4443.353888,2146.597232
1420.954229,-14582.057057,2068.457845,3256.906145
1420.954540,-13175.665768,1991.848295,3478.967927
1420.954852,-9992.780217,2757.943793,3034.844362
1420.955163,-6809.894666,3140.991542,1554.432478
1420.955475,-3701.029710,-153.219100,1036.288319
1420.955786,-2442.679609,-4979.620737,-370.102971
1420.956098,-4367.215058,-6281.983084,-444.123565
1420.956410,-5699.585753,-1455.581446,-518.144159
1420.956721,-8660.409521,4213.525239,-1036.288319
1420.957033,-13101.645173,5286.058936,222.061783
1420.957344,-17098.757260,2987.772442,1110.308913
1420.957656,-18061.024985,2221.676944,2960.823768
1420.957967,-15322.262999,5132.839837,3108.864956
1420.958279,-10288.862594,7584.345430,2294.638420
1420.958590,-5699.585753,5209.449386,370.102971
1420.958902,-2368.659014,-229.828649,-518.144159
1420.959214,-222.061783,-2834.553343,-1036.288319
1420.959525,666.185348,-306.438199,-1184.329507
1420.959837,-3552.988522,2451.505594,-592.164754
1420.960148,-10288.862594,1608.800546,-296.082377
1420.960460,-15618.345376,-1685.410096,444.123565
1420.960771,-17468.860231,-153.219100,962.267725
1420.961083,-15544.324782,3524.039291,1258.350101
1420.961395,-12139.377449,3140.991542,-74.020594
1420.961706,-10658.965565,0.000000,-1258.350101
1420.962018,-8586.388927,-1532.190996,-1998.556043
1420.962329,-4219.173869,153.219100,-2664.741391
1420.962641,-3034.844362,2451.505594,-518.144159
1420.962952,-5477.523971,2451.505594,2072.576638
1420.963264,-8216.285956,-2451.505594,4145.153275
1420.963576,-10881.027347,-3907.087040,4219.173869
1420.963887,-9844.739029,1149.143247,3404.947333
1420.964199,-9474.636058,6665.030833,444.123565
1420.964510,-11251.130318,6281.983084,-3256.906145
1420.964822,-9992.780217,4519.963438,-5107.421000
1420.965133,-7105.977043,4213.525239,-5181.441594
1420.965445,-7772.162391,5439.278036,-4441.235652
1420.965756,-10658.965565,4596.572988,-888.247130
1420.966068,-14508.036463,0.000000,1406.391290
1420.966380,-14211.954086,-2987.772442,4293.194464
1420.966691,-9548.656652,-3600.648841,6143.709319
1420.967003,-5329.482782,-1838.629195,4885.359217
1420.967314,-4071.132681,-1838.629195,2294.638420
1420.967626,-2812.782580,-3753.867940,-1628.453072
1420.967937,-1258.350101,-2298.286494,-2738.761985
1420.968249,-4737.318029,689.485948,-2294.638420
1420.968561,-12139.377449,3294.210641,-740.205942
1420.968872,-18431.127956,459.657299,2072.576638
1420.969184,-18579.169144,-1685.410096,3997.112087
1420.969495,-14285.974681,-2068.457845,4367.215058
1420.969807,-9548.656652,153.219100,3108.864956
1420.970118,-7031.956449,-229.828649,-222.061783
1420.970430,-3478.967927,-2681.334243,-1702.473667
1420.970741,1998.556043,-1378.971896,-1258.350101
1420.971053,148.041188,306.438199,518.144159
1420.971365,-5995.668130,76.609550,1184.329507
1420.971676,-11177.109724,-2221.676944,2368.659014
1420.971988,-12213.398043,-2298.286494,3775.050304
1420.972299,-11251.130318,-1685.410096,4293.194464
1420.972611,-11251.130318,-2911.162892,1850.514855
1420.972922,-12139.377449,-4596.572988,-1998.556043
1420.973234,-9252.574275,-3907.087040,-3849.070898
1420.973546,-5773.606348,-1762.019645,-2886.803174
1420.973857,-7624.121203,-1149.143247,-1628.453072
1420.974169,-13027.624579,-2451.505594,814.226536
1420.974480,-15618.345376,-2221.676944,3404.947333
1420.974792,-12435.459826,-689.485948,6439.791695
1420.975103,-9326.594869,1302.362347,5477.523971
1420.975415,-6661.853478,2681.334243,2442.679609
1420.975727,-4589.276840,2451.505594,-2368.659014
1420.976038,-2960.823768,2528.115143,-4589.276840
1420.976350,-3108.864956,4366.744339,-5699.585753
1420.976661,-8882.471304,6205.373534,-5551.544565
1420.976973,-16728.654289,4290.134789,-3034.844362
1420.977284,-19911.539840,1225.752797,666.185348
1420.977596,-16580.613101,-229.828649,4589.276840
1420.977907,-12361.439231,-995.924147,4441.235652
1420.978219,-8808.450710,-2911.162892,2886.803174
1420.978531,-4737.318029,-3600.648841,444.123565
1420.978842,-370.102971,76.609550,-592.164754
1420.979154,222.061783,4673.182538,-2368.659014
1420.979465,-5477.523971,4136.915689,-3923.091493
1420.979777,-11917.315666,2834.553343,-2664.741391
1420.980088,-13989.892304,1532.190996,814.226536
1420.980400,-11695.253884,2451.505594,3775.050304
1420.980712,-11177.109724,229.828649,3701.029710
1420.981023,-11473.192101,-3217.601092,1850.514855
1420.981335,-8882.471304,-4060.306139,-74.020594
1420.981646,-4367.215058,-1302.362347,-1036.288319
1420.981958,-3182.885551,2757.943793,-740.205942
1420.982269,-6809.894666,4903.011187,-1258.350101
1420.982581,-9918.759623,2374.896044,888.247130
1420.982893,-10066.800811,1378.971896,2516.700203
1420.983204,-8216.285956,1838.629195,3923.091493
1420.983516,-5995.668130,229.828649,2738.761985
1420.983827,-6661.853478,-3907.087040,1184.329507
1420.984139,-5699.585753,-5745.716235,-222.061783
1420.984450,-4367.215058,-4136.915689,-1110.308913
1420.984762,-6587.832884,-2298.286494,-518.144159
1420.985073,-10881.027347,-2221.676944,1184.329507
1420.985385,-14582.057057,-4060.306139,3478.967927
1420.985697,-15248.242405,-4060.306139,5033.400406
1420.986008,-13101.645173,-1838.629195,5551.544565
1420.986320,-9622.677246,-306.438199,3478.967927
1420.986631,-6957.935855,-995.924147,296.082377
1420.986943,-3182.885551,-612.876398,-2146.597232
1420.987254,-1036.288319,229.828649,-3182.885551
1420.987566,-4293.194464,1378.971896,-4145.153275
1420.987878,-9474.636058,1378.971896,-2812.782580
1420.988189,-15766.386565,-306.438199,296.082377
1420.988501,-17394.839637,-1608.800546,3627.009116
1420.988812,-15692.365970,-3447.429741,4959.379811
1420.989124,-13841.851115,-3600.648841,4145.153275
1420.989435,-10436.903782,-4443.353888,2146.597232
1420.989747,-5921.647536,-2987.772442,148.041188
1420.990058,-2368.659014,536.266849,-1924.535449
1420.990370,-4441.235652,2374.896044,-2812.782580
1420.990682,-9474.636058,2604.724693,-3108.864956
1420.990993,-12065.356855,2145.067394,-1036.288319
1420.991305,-12139.377449,3677.258390,592.164754
1420.991616,-11695.253884,2987.772442,1332.370696
1420.991928,-10732.986159,1225.752797,-148.041188
1420.992239,-10362.883188,-153.219100,-888.247130
1420.992551,-6883.915261,919.314598,-0.000000
1420.992863,-4885.359217,3064.381992,-296.082377
1420.993174,-7846.182985,3907.087040,-74.020594
1420.993486,-11843.295072,2911.162892,-148.041188
1420.993797,-11695.253884,2528.115143,666.185348
1420.994109,-7846.182985,3447.429741,1480.411884
1420.994420,-5847.626942,2911.162892,-370.102971
1420.994732,-5625.565159,-536.266849,-1998.556043
1420.995044,-4737.318029,-2604.724693,-2664.741391
1420.995355,-4367.215058,-1915.238745,-1184.329507
1420.995667,-5255.462188,-1685.410096,444.123565
1420.995978,-9030.512492,-1455.581446,-148.041188
1420.996290,-12287.418637,-1915.238745,3256.906145
1420.996601,-13249.686362,-3064.381992,3701.029710
1420.996913,-11547.212695,-459.657299,5255.462188
1420.997224,-8364.327145,2068.457845,3923.091493
1420.997536,-8512.368333,306.438199,-0.000000
1420.997848,-6291.750507,0.000000,-592.164754
1420.998159,-2516.700203,1455.581446,-2220.617826
1420.998471,-4219.173869,2298.286494,-2812.782580
1420.998782,-6143.709319,0.000000,-1406.391290
1420.999094,-10732.986159,-2451.505594,-592.164754
1420.999405,-12287.418637,-2987.772442,2738.761985
1420.999717,-11399.171507,-2681.334243,3552.988522
1421.000029,-11103.089130,-3907.087040,3404.947333
1421.000340,-10807.006753,-5669.106685,2220.617826
1421.000652,-8808.450710,-4749.792088,1776.494261
1421.000963,-6587.832884,-2604.724693,-0.000000
1421.001275,-7698.141797,-689.485948,-296.082377
1421.001586,-10510.924376,0.000000,-148.041188
1421.001898,-12731.542202,-766.095498,-0.000000
1421.002209,-12287.418637,0.000000,1998.556043
1421.002521,-10732.986159,1072.533697,1480.411884
1421.002833,-9918.759623,383.047749,-444.123565
1421.003144,-9400.615463,-919.314598,-1406.391290
1421.003456,-6513.812290,-383.047749,-518.144159
1421.003767,-5403.503377,995.924147,-1258.350101
1421.004079,-9918.759623,1762.019645,666.185348
1421.004390,-14211.954086,1455.581446,1110.308913
1421.004702,-16358.551318,1455.581446,2368.659014
1421.005014,-13767.830521,3217.601092,3330.926739
1421.005325,-9622.677246,3524.039291,1998.556043
1421.005637,-7254.018232,995.924147,-1184.329507
1421.005948,-4367.215058,-229.828649,-2664.741391
1421.006260,-1036.288319,229.828649,-2886.803174
1421.006571,-2590.720797,1302.362347,-2960.823768
1421.006883,-8142.265362,1378.971896,-740.205942
1421.007195,-11991.336260,1532.190996,-0.000000
1421.007506,-13545.768739,1302.362347,3256.906145
1421.007818,-11991.336260,2834.553343,5255.462188
1421.008129,-8956.491898,3677.258390,3478.967927
1421.008441,-8512.368333,2528.115143,222.061783
1421.008752,-6957.935855,1455.581446,-962.267725
1421.009064,-1184.329507,2528.115143,-2220.617826
1421.009375,-1776.494261,5745.716235,-3775.050304
1421.009687,-6291.750507,4213.525239,-3404.947333
1421.009999,-9844.739029,0.000000,-1628.453072
1421.010310,-11399.171507,-1838.629195,1702.473667
1421.010622,-9696.697840,-842.705048,4367.215058
1421.010933,-9178.553681,-2451.505594,3849.070898
1421.011245,-9844.739029,-5209.449386,1924.535449
1421.011556,-7772.162391,-3753.867940,666.185348
1421.011868,-3627.009116,-2374.896044,-0.000000
1421.012180,-4589.276840,0.000000,-1332.370696
1421.012491,-8956.491898,0.000000,814.226536
1421.012803,-12139.377449,-1838.629195,888.247130
1421.013114,-11843.295072,-3370.820191,3552.988522
1421.013426,-10214.842000,-2451.505594,3923.091493
1421.013737,-9992.780217,-3140.991542,1850.514855
1421.014049,-10214.842000,-5056.230287,-666.185348
1421.014360,-7402.059420,-5286.058936,-1850.514855
1421.014672,-5255.462188,-3753.867940,-1850.514855
1421.014984,-7402.059420,-1838.629195,-1036.288319
1421.015295,-13101.645173,-2374.896044,518.144159
1421.015607,-16580.613101,-2604.724693,2146.597232
1421.015918,-15396.283594,0.000000,3997.112087
1421.016230,-12731.542202,1378.971896,3997.112087
1421.016541,-10955.047942,229.828649,1184.329507
1421.016853,-9104.533087,-459.657299,-1628.453072
1421.017165,-5403.503377,0.000000,-2368.659014
1421.017476,-3256.906145,1532.190996,-2886.803174
1421.017788,-6439.791695,2834.553343,-2294.638420
1421.018099,-12065.356855,1991.848295,-592.164754
1421.018411,-13841.851115,1072.533697,2812.782580
1421.018722,-13027.624579,689.485948,4071.132681
1421.019034,-11769.274478,2221.676944,3997.112087
1421.019346,-11473.192101,2221.676944,962.267725
1421.019657,-9918.759623,1378.971896,-1628.453072
1421.019969,-6143.709319,2528.115143,-2812.782580
1421.020280,-3256.906145,4903.011187,-2516.700203
1421.020592,-7031.956449,5132.839837,-2072.576638
1421.020903,-9844.739029,2451.505594,222.061783
1421.021215,-11029.068536,995.924147,2220.617826
1421.021526,-9696.697840,536.266849,4293.194464
1421.021838,-6143.709319,842.705048,3849.070898
1421.022150,-6883.915261,76.609550,222.061783
1421.022461,-5847.626942,-459.657299,-962.267725
1421.022773,-370.102971,1532.190996,-1332.370696
1421.023084,-370.102971,3677.258390,-2294.638420
1421.023396,-6069.688724,3064.381992,-444.123565
1421.023707,-11991.336260,1072.533697,2072.576638
1421.024019,-13175.665768,76.609550,4367.215058
1421.024331,-10288.862594,1762.019645,5033.400406
1421.024642,-8068.244768,995.924147,2960.823768
1421.024954,-7105.977043,-1149.143247,-888.247130
1421.025265,-3997.112087,-689.485948,-2812.782580
1421.025577,296.082377,995.924147,-4219.173869
1421.025888,-2738.761985,-229.828649,-2146.597232
1421.026200,-9770.718434,-1225.752797,518.144159
1421.026511,-14878.139434,-3370.820191,2738.761985
1421.026823,-15988.448347,-4060.306139,5403.503377
1421.027135,-13767.830521,-2757.943793,6661.853478
1421.027446,-11621.233289,-2987.772442,4071.132681
1421.027758,-9622.677246,-4366.744339,-0.000000
1421.028069,-6069.688724,-3600.648841,-1776.494261
1421.028381,-3034.844362,-1838.629195,-3108.864956
1421.028692,-6365.771101,-1455.581446,-1628.453072
1421.029004,-11843.295072,-1915.238745,-962.267725
1421.029316,-14730.098246,-2528.115143,296.082377
1421.029627,-15026.180623,-766.095498,3034.844362
1421.029939,-13915.871710,229.828649,3182.885551
1421.030250,-12879.583391,-536.266849,518.144159
1421.030562,-11917.315666,-766.095498,-2072.576638
1421.030873,-7994.224174,1378.971896,-1998.556043
1421.031185,-5403.503377,2834.553343,-3034.844362
1421.031497,-8290.306550,1915.238745,-1480.411884
1421.031808,-12657.521608,-536.266849,222.061783
1421.032120,-14063.912898,-1378.971896,2812.782580
1421.032431,-12657.521608,-459.657299,4589.276840
1421.032743,-11325.150913,612.876398,3404.947333
1421.033054,-11325.150913,-1149.143247,-444.123565
1421.033366,-8142.265362,-1838.629195,-2590.720797
1421.033677,-3849.070898,766.095498,-2294.638420
1421.033989,-3552.988522,2604.724693,-2590.720797
1421.034301,-6809.894666,2298.286494,-1184.329507
1421.034612,-11325.150913,1378.971896,1184.329507
1421.034924,-11399.171507,1762.019645,3923.091493
1421.035235,-9326.594869,3907.087040,5033.400406
1421.035547,-8216.285956,4136.915689,3478.967927
1421.035858,-7105.977043,2757.943793,814.226536
1421.036170,-4367.215058,2145.067394,-1850.514855
1421.036482,814.226536,4136.915689,-3627.009116
1421.036793,1110.308913,5056.230287,-3627.009116
1421.037105,-5403.503377,3140.991542,-2590.720797
1421.037416,-11473.192101,-995.924147,962.267725
1421.037728,-12361.439231,-1685.410096,3552.988522
1421.038039,-10807.006753,-995.924147,4663.297435
1421.038351,-9178.553681,-536.266849,4071.132681
1421.038662,-9326.594869,-3294.210641,1776.494261
1421.038974,-6661.853478,-4673.182538,-296.082377
1421.039286,-1850.514855,-2221.676944,-1406.391290
1421.039597,-2516.700203,383.047749,-1036.288319
1421.039909,-8290.306550,-689.485948,-74.020594
1421.040220,-12583.501014,-3140.991542,2146.597232
1421.040532,-13323.706956,-4903.011187,4293.194464
1421.040843,-11473.192101,-3217.601092,4589.276840
1421.041155,-9622.677246,-1915.238745,2664.741391
1421.041467,-9992.780217,-2068.457845,-1184.329507
1421.041778,-7846.182985,-1532.190996,-2590.720797
1421.042090,-5033.400406,-536.266849,-3256.906145
1421.042401,-7920.203579,689.485948,-1776.494261
1421.042713,-13027.624579,612.876398,148.041188
1421.043024,-16580.613101,536.266849,1110.308913
1421.043336,-16062.468941,536.266849,3108.864956
1421.043648,-11917.315666,76.609550,2886.803174
1421.043959,-10066.800811,-2298.286494,1110.308913
1421.044271,-8956.491898,-2757.943793,-1554.432478
1421.044582,-6143.709319,-1149.143247,-3256.906145
1421.044894,-4737.318029,383.047749,-3034.844362
1421.045205,-8438.347739,-153.219100,-1554.432478
1421.045517,-14434.015869,-1302.362347,1036.288319
1421.045828,-16432.571912,-1302.362347,3330.926739
1421.046140,-14952.160028,229.828649,4811.338623
1421.046452,-11917.315666,2145.067394,3775.050304
1421.046763,-9844.739029,306.438199,888.247130
1421.047075,-7328.038826,306.438199,-2072.576638
1421.047386,-1998.556043,2987.772442,-2664.741391
1421.047698,-1554.432478,4443.353888,-2294.638420
1421.048009,-6513.812290,2911.162892,-1406.391290
1421.048321,-11177.109724,1302.362347,296.082377
1421.048632,-13027.624579,919.314598,2368.659014
1421.048944,-9474.636058,2068.457845,4515.256246
1421.049255,-7846.182985,1225.752797,3404.947333
1421.049567,-6809.894666,-153.219100,1628.453072
1421.049878,-5107.421000,-1455.581446,-1776.494261
1421.050190,-666.185348,306.438199,-1998.556043
1421.050502,0.000000,4060.306139,-1998.556043
1421.050813,-6735.874072,3370.820191,-148.041188
1421.051125,-11917.315666,306.438199,2220.617826
1421.051436,-11991.336260,-1685.410096,4663.297435
1421.051748,-9178.553681,-459.657299,5033.400406
1421.052059,-7105.977043,229.828649,3034.844362
1421.052371,-6957.935855,-1378.971896,-518.144159
1421.052682,-5329.482782,-2757.943793,-3182.885551
1421.052994,-1554.432478,-2221.676944,-3034.844362
1421.053305,-3997.112087,-459.657299,-2072.576638
1421.053617,-10807.006753,-1072.533697,-0.000000
1421.053928,-16136.489536,-2528.115143,1480.411884
1421.054240,-16210.510130,-3983.696590,3923.091493
1421.054551,-11843.295072,-4060.306139,4959.379811
1421.054863,-10510.924376,-4519.963438,1924.535449
1421.055175,-10288.862594,-4826.401637,-1184.329507
1421.055486,-7105.977043,-3294.210641,-3034.844362
1421.055798,-5773.606348,-1532.190996,-2516.700203
1421.056109,-7476.080014,-919.314598,-296.082377
1421.056421,-12509.480420,-1991.848295,-0.000000
1421.056732,-16358.551318,-2604.724693,2886.803174
1421.057044,-14137.933492,0.000000,4367.215058
1421.057355,-12435.459826,1685.410096,2960.823768
1421.057667,-11621.233289,1991.848295,-592.164754
1421.057978,-9104.533087,1225.752797,-2220.617826
1421.058290,-6069.688724,1149.143247,-4145.153275
1421.058601,-4219.173869,2834.553343,-3182.885551
1421.058913,-8216.285956,2757.943793,-2220.617826
1421.059224,-13027.624579,306.438199,296.082377
1421.059536,-15100.201217,-1838.629195,1924.535449
1421.059848,-13915.871710,-459.657299,4145.153275
1421.060159,-11325.150913,153.219100,3034.844362
1421.060471,-8512.368333,-995.924147,-0.000000
1421.060782,-7846.182985,-1225.752797,-888.247130
1421.061094,-4737.318029,229.828649,-740.205942
1421.061405,-592.164754,3600.648841,-2220.617826
1421.061717,-4589.276840,3907.087040,-0.000000
1421.062028,-10881.027347,2374.896044,1258.350101
1421.062340,-13989.892304,1378.971896,3775.050304
1421.062651,-10881.027347,3753.867940,5403.503377
1421.062963,-7624.121203,4903.011187,2590.720797
1421.063274,-6957.935855,2298.286494,1554.432478
1421.063586,-4219.173869,306.438199,-2072.576638
1421.063897,-1036.288319,2987.772442,-3256.906145
1421.064209,-518.144159,3907.087040,-3108.864956
1421.064521,-4367.215058,2451.505594,-888.247130
1421.064832,-9622.677246,-306.438199,2294.638420
1421.065144,-12953.603985,-1302.362347,3404.947333
1421.065455,-10955.047942,-459.657299,4885.359217
1421.065767,-8512.368333,-383.047749,2960.823768
1421.066078,-8068.244768,-536.266849,1184.329507
1421.066390,-5477.523971,-2528.115143,-1258.350101
1421.066701,-1850.514855,-2987.772442,-2590.720797
1421.067013,-2442.679609,-1915.238745,-888.247130
1421.067324,-8808.450710,-2604.724693,888.247130
1421.067636,-14359.995275,-5209.449386,2738.761985
1421.067947,-15396.283594,-4519.963438,5699.585753
1421.068259,-13175.665768,-2068.457845,5477.523971
1421.068570,-11547.212695,-1455.581446,2220.617826
1421.068882,-10955.047942,-2221.676944,-1406.391290
1421.069194,-6513.812290,-1378.971896,-3330.926739
1421.069505,-3627.009116,229.828649,-4515.256246
1421.069817,-6143.709319,536.266849,-2738.761985
1421.070128,-12583.501014,0.000000,-1850.514855
1421.070440,-17246.798449,-1302.362347,814.226536
1421.070751,-15248.242405,-1915.238745,3701.029710
1421.071063,-13841.851115,-2757.943793,3552.988522
1421.071374,-11917.315666,-1991.848295,888.247130
1421.071686,-9918.759623,-3140.991542,-1332.370696
1421.071997,-6439.791695,-3600.648841,-2590.720797
1421.072309,-3701.029710,-1838.629195,-2812.782580
1421.072620,-8216.285956,229.828649,-2072.576638
1421.072932,-13323.706956,383.047749,-222.061783
1421.073243,-15988.448347,306.438199,1480.411884
1421.073555,-15322.262999,2451.505594,3552.988522
1421.073867,-11991.336260,3753.867940,2886.803174
1421.074178,-10658.965565,1608.800546,-222.061783
1421.074490,-7698.141797,-306.438199,-1776.494261
1421.074801,-3256.906145,1455.581446,-2590.720797
1421.075113,-2368.659014,3217.601092,-2516.700203
1421.075424,-6291.750507,2681.334243,-1480.411884
1421.075736,-11473.192101,306.438199,1480.411884
1421.076047,-12583.501014,76.609550,4293.194464
1421.076359,-9770.718434,1225.752797,5477.523971
1421.076670,-6587.832884,1762.019645,2812.782580
1421.076982,-6883.915261,612.876398,222.061783
1421.077293,-5921.647536,-536.266849,-1036.288319
1421.077605,1258.350101,1532.190996,-2368.659014
1421.077916,1998.556043,5439.278036,-2368.659014
1421.078228,-5255.462188,2604.724693,-74.020594
1421.078539,-11843.295072,-153.219100,2368.659014
1421.078851,-12435.459826,-536.266849,5033.400406
1421.079163,-10584.944971,1302.362347,5329.482782
1421.079474,-9252.574275,1532.190996,4737.318029
1421.079786,-7994.224174,-76.609550,222.061783
1421.080097,-6439.791695,-612.876398,-2146.597232
1421.080409,-1406.391290,-459.657299,-3034.844362
1421.080720,-1480.411884,995.924147,-1702.473667
1421.081032,-8290.306550,689.485948,-148.041188
1421.081343,-13471.748144,-2374.896044,2368.659014
1421.081655,-15322.262999,-5592.497135,5033.400406
1421.081966,-11991.336260,-3983.696590,5625.565159
1421.082278,-10510.924376,-2681.334243,3552.988522
1421.082589,-9548.656652,-4826.401637,148.041188
1421.082901,-6957.935855,-4366.744339,-2072.576638
1421.083212,-4589.276840,-1072.533697,-2812.782580
1421.083524,-6143.709319,-842.705048,-1406.391290
1421.083836,-11917.315666,-1608.800546,148.041188
1421.084147,-16876.695478,-1685.410096,1702.473667
1421.084459,-15766.386565,1532.190996,2886.803174
1421.084770,-12583.501014,2145.067394,2072.576638
1421.085082,-11621.233289,306.438199,-148.041188
1421.085393,-10066.800811,-536.266849,-2294.638420
1421.085705,-6143.709319,536.266849,-3775.050304
1421.086016,-4663.297435,2221.676944,-3849.070898
1421.086328,-8586.388927,2145.067394,-1480.411884
1421.086639,-14508.036463,-919.314598,222.061783
1421.086951,-16580.613101,-2298.286494,2146.597232
1421.087262,-13989.892304,-612.876398,3997.112087
1421.087574,-11843.295072,766.095498,2738.761985
1421.087885,-10436.903782,-383.047749,-148.041188
1421.088197,-7031.956449,-1915.238745,-2664.741391
1421.088509,-2812.782580,-383.047749,-3330.926739
1421.088820,-3182.885551,2757.943793,-2812.782580
1421.089132,-7254.018232,3524.039291,-740.205942
1421.089443,-12435.459826,2528.115143,962.267725
1421.089755,-13249.686362,2068.457845,3775.050304
1421.090066,-10066.800811,3600.648841,5847.626942
1421.090378,-8364.327145,3447.429741,2960.823768
1421.090689,-6883.915261,2987.772442,148.041188
1421.091001,-4293.194464,1991.848295,-2220.617826
1421.091312,0.000000,3140.991542,-3256.906145
1421.091624,1702.473667,5132.839837,-2368.659014
1421.091935,-5551.544565,2604.724693,-1628.453072
1421.092247,-10955.047942,-689.485948,1554.432478
1421.092558,-10807.006753,-1608.800546,4515.256246
1421.092870,-8734.430116,-383.047749,5773.606348
1421.093182,-7105.977043,-1302.362347,3404.947333
1421.093493,-7920.203579,-3370.820191,1258.350101
1421.093805,-5033.400406,-4749.792088,-666.185348
1421.094116,74.020594,-2757.943793,-1184.329507
1421.094428,-3552.988522,-2834.553343,-518.144159
1421.094739,-10658.965565,-2834.553343,1258.350101
1421.095051,-16580.613101,-3217.601092,3108.864956
1421.095362,-16580.613101,-2221.676944,4959.379811
1421.095674,-12435.459826,689.485948,5403.503377
1421.095985,-10881.027347,-383.047749,2146.597232
1421.096297,-8586.388927,-2068.457845,-1036.288319
1421.096608,-5181.441594,-1532.190996,-2960.823768
1421.096920,-1924.535449,689.485948,-3775.050304
1421.097231,-5403.503377,1685.410096,-1110.308913
1421.097543,-12435.459826,-1608.800546,-0.000000
1421.097855,-17468.860231,-3447.429741,1850.514855
1421.098166,-16580.613101,-1532.190996,4145.153275
1421.098478,-14285.974681,-229.828649,2960.823768
1421.098789,-13027.624579,-1685.410096,592.164754
1421.099101,-10658.965565,-2757.943793,-2220.617826
1421.099412,-6439.791695,-1378.971896,-3627.009116
1421.099724,-4071.132681,1072.533697,-3923.091493
1421.100035,-7772.162391,1991.848295,-1776.494261
1421.100347,-13989.892304,1302.362347,-444.123565
1421.100658,-16506.592507,1455.581446,2146.597232
1421.100970,-13249.686362,3294.210641,5107.421000
1421.101281,-10955.047942,2834.553343,4515.256246
1421.101593,-10584.944971,0.000000,1702.473667
1421.101904,-7698.141797,-1455.581446,-1628.453072
1421.102216,-3108.864956,1532.190996,-3404.947333
1421.102528,-3330.926739,5209.449386,-3849.070898
1421.102839,-7105.977043,4903.011187,-1998.556043
1421.103151,-11325.150913,2374.896044,-962.267725
1421.103462,-12509.480420,-153.219100,1850.514855
1421.103774,-9622.677246,995.924147,4515.256246
1421.104085,-7105.977043,1838.629195,2664.741391
1421.104397,-7179.997637,689.485948,888.247130
1421.104708,-3997.112087,-1302.362347,-1184.329507
1421.105020,1776.494261,-306.438199,-2220.617826
1421.105331,962.267725,3370.820191,-1702.473667
1421.105643,-5255.462188,2528.115143,740.205942
1421.105954,-12435.459826,-1378.971896,2072.576638
1421.106266,-12805.562797,-995.924147,5329.482782
1421.106577,-8734.430116,1072.533697,6069.688724
1421.106889,-7846.182985,153.219100,3256.906145
1421.107201,-8512.368333,-1149.143247,148.041188
1421.107512,-5773.606348,-1225.752797,-2220.617826
1421.107824,-148.041188,0.000000,-3775.050304
1421.108135,-2516.700203,1608.800546,-3108.864956
1421.108447,-9474.636058,689.485948,-296.082377
1421.108758,-14656.077652,-2298.286494,2146.597232
1421.109070,-15692.365970,-4519.963438,5921.647536
1421.109381,-11991.336260,-3600.648841,6513.812290
1421.109693,-11029.068536,-3830.477490,3552.988522
1421.110004,-10066.800811,-4749.792088,-0.000000
1421.110316,-6735.874072,-4136.915689,-2072.576638
1421.110627,-4367.215058,-2068.457845,-2590.720797
1421.110939,-6365.771101,-689.485948,-1036.288319
1421.111250,-12879.583391,-1838.629195,-296.082377
1421.111562,-17912.983796,-2604.724693,1110.308913
1421.111874,-15840.407159,995.924147,3701.029710
1421.112185,-13101.645173,2451.505594,2368.659014
1421.112497,-11621.233289,842.705048,-0.000000
1421.112808,-9918.759623,-842.705048,-1406.391290
1421.113120,-6661.853478,-536.266849,-2886.803174
1421.113431,-4441.235652,2451.505594,-2886.803174
1421.113743,-8512.368333,2911.162892,-1554.432478
1421.114054,-14730.098246,0.000000,-0.000000
1421.114366,-16506.592507,-1685.410096,2516.700203
1421.114677,-13619.789333,0.000000,4663.297435
1421.114989,-10658.965565,229.828649,3034.844362
1421.115300,-8438.347739,-536.266849,-0.000000
1421.115612,-5551.544565,-612.876398,-1924.535449
1421.115923,-2960.823768,229.828649,-2738.761985
1421.116235,-1332.370696,2451.505594,-1998.556043
1421.116547,-6069.688724,3677.258390,-1480.411884
1421.116858,-11991.336260,3217.601092,1110.308913
1421.117170,-14434.015869,1915.238745,3997.112087
1421.117481,-11251.130318,1915.238745,5403.503377
1421.117793,-7846.182985,3064.381992,2368.659014
1421.118104,-6735.874072,2221.676944,592.164754
1421.118416,-2146.597232,536.266849,-3182.885551
1421.118727,592.164754,2987.772442,-3997.112087
1421.119039,444.123565,4136.915689,-3330.926739
1421.119350,-5921.647536,2374.896044,-2220.617826
1421.119662,-11843.295072,-766.095498,1776.494261
1421.119973,-11917.315666,0.000000,4145.153275
1421.120285,-10732.986159,-689.485948,5033.400406
1421.120596,-8808.450710,-2374.896044,3256.906145
1421.120908,-7550.100608,-3217.601092,1850.514855
1421.121220,-5033.400406,-4749.792088,-1258.350101
1421.121531,-1110.308913,-2987.772442,-1776.494261
1421.121843,-3701.029710,-1532.190996,-518.144159
1421.122154,-9548.656652,-1991.848295,296.082377
1421.122466,-15174.221811,-4060.306139,3034.844362
1421.122777,-15470.304188,-3370.820191,4663.297435
1421.123089,-12731.542202,306.438199,4515.256246
1421.123400,-11325.150913,306.438199,1332.370696
1421.123712,-10140.821405,-2681.334243,-1110.308913
1421.124023,-7624.121203,-2374.896044,-3330.926739
1421.124335,-4737.318029,1762.019645,-3923.091493
1421.124646,-7179.997637,1838.629195,-1924.535449
1421.124958,-14359.995275,-1455.581446,-666.185348
1421.125269,-17912.983796,-1532.190996,1998.556043
1421.125581,-15988.448347,0.000000,4219.173869
1421.125893,-13323.706956,76.609550,3552.988522
1421.126204,-11547.212695,-1225.752797,1850.514855
1421.126516,-10140.821405,-2298.286494,-1628.453072
1421.126827,-5107.421000,-1302.362347,-2738.761985
1421.127139,-2368.659014,995.924147,-2664.741391
1421.127450,-7328.038826,995.924147,-2146.597232
1421.127762,-13767.830521,459.657299,-148.041188
1421.128073,-15766.386565,0.000000,2368.659014
1421.128385,-14508.036463,919.314598,4663.297435
1421.128696,-13397.727550,1762.019645,3701.029710
1421.129008,-10807.006753,1225.752797,1850.514855
1421.129319,-7179.997637,536.266849,-1406.391290
1421.129631,-2738.761985,2298.286494,-2220.617826
1421.129942,-1110.308913,3064.381992,-1702.473667
1421.130254,-4367.215058,3983.696590,-2812.782580
1421.130566,-8956.491898,2834.553343,592.164754
1421.130877,-11103.089130,536.266849,2664.741391
1421.131189,-8660.409521,612.876398,3627.009116
1421.131500,-6661.853478,1762.019645,2960.823768
1421.131812,-7031.956449,0.000000,1110.308913
1421.132123,-3997.112087,-2068.457845,-1924.535449
1421.132435,-370.102971,1302.362347,-2886.803174
1421.132746,-1110.308913,3447.429741,-2516.700203
1421.133058,-6735.874072,766.095498,-222.061783
1421.133369,-13027.624579,-2068.457845,2146.597232
1421.133681,-12657.521608,-1149.143247,4441.235652
1421.133992,-9992.780217,612.876398,4811.338623
1421.134304,-7550.100608,-1225.752797,3478.967927
1421.134615,-7254.018232,-2298.286494,666.185348
1421.134927,-5329.482782,-3600.648841,-2294.638420
1421.135239,-740.205942,-2681.334243,-2812.782580
1421.135550,-3701.029710,-995.924147,-1850.514855
1421.135862,-10066.800811,-766.095498,-888.247130
1421.136173,-15174.221811,-3907.087040,1406.391290
1421.136485,-16580.613101,-4519.963438,4663.297435
1421.136796,-13767.830521,-2145.067394,5329.482782
1421.137108,-12139.377449,-2757.943793,2960.823768
1421.137419,-10658.965565,-4366.744339,370.102971
1421.137731,-7698.141797,-3447.429741,-1702.473667
1421.138042,-5107.421000,-612.876398,-2960.823768
1421.138354,-6069.688724,766.095498,-2738.761985
1421.138665,-11843.295072,612.876398,-1850.514855
1421.138977,-15174.221811,-153.219100,370.102971
1421.139288,-14508.036463,689.485948,2146.597232
1421.139600,-12657.521608,842.705048,2664.741391
1421.139912,-13323.706956,229.828649,1036.288319
1421.140223,-12435.459826,-766.095498,-0.000000
1421.140535,-7772.162391,0.000000,-1184.329507
1421.140846,-4811.338623,1991.848295,-2368.659014
1421.141158,-8142.265362,1991.848295,-1184.329507
1421.141469,-12879.583391,0.000000,-1036.288319
1421.141781,-14285.974681,-229.828649,740.205942
1421.142092,-12213.398043,1838.629195,3108.864956
1421.142404,-10066.800811,1608.800546,2146.597232
1421.142715,-8438.347739,76.609550,-0.000000
1421.143027,-7476.080014,-1455.581446,-1184.329507
1421.143338,-2368.659014,-229.828649,-1110.308913
1421.143650,74.020594,2681.334243,-1554.432478
1421.143961,-5551.544565,3907.087040,-444.123565
1421.144273,-12731.542202,2221.676944,1702.473667
1421.144585,-13471.748144,1608.800546,4071.132681
1421.144896,-8438.347739,4596.572988,4293.194464
1421.145208,-6217.729913,5515.887586,2590.720797
1421.145519,-5625.565159,2757.943793,-1036.288319
1421.145831,-3108.864956,2068.457845,-2960.823768
1421.146142,1332.370696,3524.039291,-2812.782580
1421.146454,1184.329507,2987.772442,-2960.823768
1421.146765,-5625.565159,1838.629195,-592.164754
1421.147076,-12657.521608,-536.266849,444.123565
1421.147388,-13989.892304,-1685.410096,3849.070898
1421.147699,-10140.821405,-1991.848295,5329.482782
1421.148011,-9400.615463,-2221.676944,4145.153275
1421.148322,-9252.574275,-4979.620737,2220.617826
1421.148633,-6957.935855,-7201.297681,-296.082377
1421.148945,-3034.844362,-4979.620737,-444.123565
1421.149256,-3923.091493,-1685.410096,-1480.411884
1421.149568,-9326.594869,-1685.410096,-0.000000
1421.149879,-14582.057057,-3447.429741,1332.370696
1421.150190,-14656.077652,-2374.896044,3997.112087
1421.150502,-12213.398043,-229.828649,3627.009116
1421.150813,-11399.171507,-1762.019645,1850.514855
1421.151125,-11251.130318,-3140.991542,-148.041188
1421.151436,-8142.265362,-1378.971896,-2368.659014
1421.151747,-4811.338623,306.438199,-3182.885551
1421.152059,-7772.162391,-383.047749,-2368.659014
1421.152370,-14211.954086,-1378.971896,-1036.288319
1421.152682,-17172.777854,-1378.971896,1480.411884
1421.152993,-15470.304188,0.000000,2960.823768
1421.153304,-14285.974681,459.657299,2812.782580
1421.153616,-12953.603985,-1149.143247,1110.308913
1421.153927,-9770.718434,-2374.896044,-1258.350101
1421.154239,-6365.771101,-2451.505594,-2146.597232
1421.154550,-3330.926739,1302.362347,-2368.659014
1421.154861,-7105.977043,2298.286494,-1184.329507
1421.155173,-12583.501014,153.219100,592.164754
1421.155484,-14285.974681,-766.095498,3404.947333
1421.155796,-13175.665768,536.266849,4515.256246
1421.156107,-11843.295072,2298.286494,3034.844362
1421.156418,-9178.553681,2757.943793,222.061783
1421.156730,-7994.224174,2298.286494,-2368.659014
1421.157041,-4071.132681,2757.943793,-1850.514855
1421.157353,-740.205942,4366.744339,-3923.091493
1421.157664,-4219.173869,5209.449386,-1628.453072
1421.157976,-10288.862594,3753.867940,518.144159
1421.158287,-11325.150913,1915.238745,3552.988522
1421.158598,-7031.956449,3217.601092,4367.215058
1421.158910,-6143.709319,2298.286494,2368.659014
1421.159221,-5477.523971,76.609550,1036.288319
1421.159533,-3478.967927,-995.924147,-1628.453072
1421.159844,-148.041188,689.485948,-1776.494261
1421.160155,-1628.453072,919.314598,-1480.411884
1421.160467,-7994.224174,-229.828649,518.144159
1421.160778,-12657.521608,-612.876398,2442.679609
1421.161090,-13175.665768,-612.876398,4737.318029
1421.161401,-10066.800811,459.657299,4737.318029
1421.161712,-7179.997637,0.000000,2368.659014
1421.162024,-7179.997637,-1532.190996,-518.144159
1421.162335,-4959.379811,-3064.381992,-3552.988522
1421.162647,-1406.391290,-459.657299,-3627.009116
1421.162958,-4811.338623,612.876398,-1850.514855
1421.163269,-11621.233289,-1532.190996,814.226536
1421.163581,-17468.860231,-5209.449386,2516.700203
1421.163892,-17468.860231,-3677.258390,4737.318029
1421.164204,-13693.809927,-1685.410096,5329.482782
1421.164515,-11547.212695,-2298.286494,2294.638420
1421.164826,-9770.718434,-3983.696590,-740.205942
1421.165138,-6735.874072,-2604.724693,-2516.700203
1421.165449,-3404.947333,-306.438199,-3701.029710
1421.165761,-5477.523971,1302.362347,-1554.432478
1421.166072,-11843.295072,-459.657299,222.061783
1421.166383,-15692.365970,-1762.019645,1998.556043
1421.166695,-15026.180623,-1149.143247,3997.112087
1421.167006,-13989.892304,-153.219100,3552.988522
1421.167318,-13767.830521,383.047749,1184.329507
1421.167629,-11621.233289,-306.438199,-1628.453072
1421.167940,-7624.121203,1149.143247,-2368.659014
1421.168252,-4959.379811,2604.724693,-2960.823768
1421.168563,-8142.265362,1991.848295,-888.247130
1421.168875,-12583.501014,-612.876398,1184.329507
1421.169186,-14063.912898,-1302.362347,3256.906145
1421.169497,-10955.047942,1149.143247,4145.153275
1421.169809,-8882.471304,1915.238745,2738.761985
1421.170120,-7624.121203,689.485948,-0.000000
1421.170432,-5403.503377,459.657299,-2220.617826
1421.170743,-888.247130,2221.676944,-2368.659014
1421.171054,-444.123565,3983.696590,-2516.700203
1421.171366,-7550.100608,3217.601092,-0.000000
1421.171677,-13767.830521,1225.752797,2072.576638
1421.171989,-13619.789333,1149.143247,3775.050304
1421.172300,-8512.368333,3983.696590,5181.441594
1421.172612,-6365.771101,4136.915689,2590.720797
1421.172923,-6809.894666,1915.238745,-666.185348
1421.173234,-3034.844362,995.924147,-3330.926739
1421.173546,1924.535449,2528.115143,-3701.029710
1421.173857,1258.350101,2757.943793,-2516.700203
1421.174169,-5773.606348,842.705048,-1258.350101
1421.174480,-12805.562797,-2221.676944,1110.308913
1421.174791,-13915.871710,-3217.601092,4293.194464
1421.175103,-11177.109724,-1685.410096,6291.750507
1421.175414,-10140.821405,-2298.286494,3997.112087
1421.175726,-10436.903782,-3983.696590,1332.370696
1421.176037,-7994.224174,-5592.497135,-222.061783
1421.176348,-3330.926739,-3907.087040,-2146.597232
1421.176660,-3404.947333,-306.438199,-1332.370696
1421.176971,-9178.553681,-919.314598,-814.226536
1421.177283,-14434.015869,-3600.648841,1332.370696
1421.177594,-14582.057057,-3217.601092,3775.050304
1421.177905,-12287.418637,-612.876398,3552.988522
1421.178217,-11769.274478,-153.219100,1776.494261
1421.178528,-11251.130318,-3753.867940,-444.123565
1421.178840,-8364.327145,-2528.115143,-2590.720797
1421.179151,-5847.626942,-306.438199,-3404.947333
1421.179462,-7105.977043,612.876398,-1554.432478
1421.179774,-13767.830521,-1302.362347,-74.020594
1421.180085,-17246.798449,-2298.286494,1998.556043
1421.180397,-14285.974681,-1225.752797,4219.173869
1421.180708,-11917.315666,-76.609550,3108.864956
1421.181019,-10658.965565,-1225.752797,962.267725
1421.181331,-7698.141797,-2374.896044,-1184.329507
1421.181642,-4885.359217,-1915.238745,-2590.720797
1421.181954,-3034.844362,76.609550,-2294.638420
1421.182265,-7179.997637,1149.143247,-1110.308913
1421.182576,-14656.077652,459.657299,-0.000000
1421.182888,-16506.592507,612.876398,3627.009116
1421.183199,-13545.768739,2911.162892,4811.338623
1421.183511,-11103.089130,3217.601092,3701.029710
1421.183822,-10436.903782,2911.162892,740.205942
1421.184133,-6143.709319,2374.896044,-1702.473667
1421.184445,-740.205942,4213.525239,-3775.050304
1421.184756,888.247130,5362.668486,-3627.009116
1421.185068,-3478.967927,4979.620737,-3034.844362
1421.185379,-11473.192101,1915.238745,666.185348
1421.185690,-12287.418637,995.924147,3034.844362
1421.186002,-8438.347739,2451.505594,3849.070898
1421.186313,-6957.935855,1685.410096,2664.741391
1421.186625,-7476.080014,-766.095498,1036.288319
1421.186936,-5773.606348,-1532.190996,-1110.308913
1421.187247,-1406.391290,383.047749,-1850.514855
1421.187559,-814.226536,3140.991542,-1036.288319
1421.187870,-7476.080014,1532.190996,-148.041188
1421.188182,-13841.851115,-1302.362347,1924.535449
1421.188493,-13027.624579,-766.095498,4219.173869
1421.188805,-8142.265362,383.047749,4811.338623
1421.189116,-6957.935855,-842.705048,3108.864956
1421.189427,-7772.162391,-2451.505594,-74.020594
1421.189739,-5921.647536,-4060.306139,-2368.659014
1421.190050,-3034.844362,-2451.505594,-2442.679609
1421.190362,-4737.318029,-536.266849,-962.267725
1421.190673,-11325.150913,-919.314598,-74.020594
1421.190984,-16358.551318,-3370.820191,1332.370696
1421.191296,-15248.242405,-4903.011187,3923.091493
1421.191607,-11843.295072,-3677.258390,4367.215058
1421.191919,-10362.883188,-4136.915689,1850.514855
1421.192230,-9770.718434,-4903.011187,-888.247130
1421.192541,-7254.018232,-4290.134789,-2886.803174
1421.192853,-5551.544565,-1838.629195,-3404.947333
1421.193164,-8216.285956,-229.828649,-1480.411884
1421.193476,-13027.624579,-1225.752797,-370.102971
1421.193787,-16876.695478,-2451.505594,1850.514855
1421.194098,-15544.324782,-612.876398,4293.194464
1421.194410,-13915.871710,1532.190996,3256.906145
1421.194721,-13101.645173,76.609550,370.102971
1421.195033,-9992.780217,536.266849,-1406.391290
1421.195344,-5255.462188,1991.848295,-3108.864956
1421.195655,-3923.091493,3064.381992,-3404.947333
1421.195967,-6957.935855,2298.286494,-1332.370696
1421.196278,-11843.295072,-383.047749,666.185348
1421.196590,-14508.036463,-766.095498,3034.844362
1421.196901,-12879.583391,766.095498,3997.112087
1421.197212,-10955.047942,919.314598,2590.720797
1421.197524,-11177.109724,-229.828649,222.061783
1421.197835,-7402.059420,-459.657299,-1702.473667
1421.198147,-1480.411884,2145.067394,-2516.700203
1421.198458,-1184.329507,3524.039291,-1628.453072
1421.198769,-6587.832884,2757.943793,666.185348
1421.199081,-12065.356855,1378.971896,2516.700203
1421.199392,-11547.212695,2604.724693,3923.091493
1421.199704,-7105.977043,5592.497135,4589.276840
1421.200015,-4959.379811,4903.011187,740.205942
1421.200326,-5477.523971,2374.896044,-1998.556043
1421.200638,-3701.029710,1225.752797,-3627.009116
1421.200949,518.144159,2681.334243,-3923.091493
1421.201261,-1110.308913,3294.210641,-1776.494261
1421.201572,-7698.141797,1225.752797,296.082377
1421.201883,-12583.501014,-3140.991542,3182.885551
1421.202195,-12583.501014,-4903.011187,4515.256246
1421.202506,-8438.347739,-1225.752797,6217.729913
1421.202818,-8364.327145,-1608.800546,2738.761985
1421.203129,-9326.594869,-3447.429741,148.041188
1421.203440,-6365.771101,-4290.134789,-1184.329507
1421.203752,-3034.844362,-1762.019645,-2368.659014
1421.204063,-4589.276840,-383.047749,-518.144159
1421.204375,-10436.903782,-1762.019645,-0.000000
1421.204686,-16062.468941,-3370.820191,1924.535449
1421.204998,-15174.221811,-2757.943793,4367.215058
1421.205309,-13175.665768,-919.314598,4515.256246
1421.205620,-12583.501014,-1378.971896,2146.597232
1421.205932,-10955.047942,-2145.067394,-1258.350101
1421.206243,-7772.162391,-1532.190996,-3478.967927
1421.206555,-4071.132681,766.095498,-4145.153275
1421.206866,-6661.853478,1149.143247,-2368.659014
1421.207177,-13175.665768,-919.314598,-1184.329507
1421.207489,-16432.571912,-3447.429741,1406.391290
1421.207800,-15100.201217,-2757.943793,3404.947333
1421.208112,-13619.789333,-1455.581446,2664.741391
1421.208423,-12805.562797,-1378.971896,740.205942
1421.208734,-10066.800811,-2681.334243,-1628.453072
1421.209046,-7179.997637,-1532.190996,-2516.700203
1421.209357,-4737.318029,0.000000,-1628.453072
1421.209669,-8068.244768,612.876398,-74.020594
1421.209980,-13989.892304,0.000000,814.226536
1421.210291,-15248.242405,76.609550,3404.947333
1421.210603,-11917.315666,2451.505594,4145.153275
1421.210914,-10066.800811,3677.258390,2072.576638
1421.211226,-9918.759623,3064.381992,-222.061783
1421.211537,-6661.853478,2068.457845,-3330.926739
1421.211848,-296.082377,4749.792088,-4441.235652
1421.212160,888.247130,5745.716235,-3330.926739
1421.212471,-5699.585753,4060.306139,-1628.453072
1421.212783,-12065.356855,1685.410096,2368.659014
1421.213094,-11991.336260,1072.533697,4367.215058
1421.213405,-7328.038826,3524.039291,5477.523971
1421.213717,-5625.565159,2604.724693,2812.782580
1421.214028,-6587.832884,842.705048,-0.000000
1421.214340,-4885.359217,-919.314598,-1924.535449
1421.214651,888.247130,306.438199,-3478.967927
1421.214962,-444.123565,2298.286494,-1480.411884
1421.215274,-7476.080014,1225.752797,-222.061783
1421.215585,-14730.098246,-2298.286494,2294.638420
1421.215897,-14730.098246,-2911.162892,5107.421000
1421.216208,-8808.450710,-383.047749,6143.709319
1421.216519,-9030.512492,-383.047749,3701.029710
1421.216831,-8882.471304,-2911.162892,2146.597232
1421.217142,-6069.688724,-3447.429741,-1406.391290
1421.217454,-2072.576638,-689.485948,-2812.782580
1421.217765,-2664.741391,1762.019645,-1110.308913
1421.218076,-9400.615463,-536.266849,-370.102971
1421.218388,-14804.118840,-3600.648841,1850.514855
1421.218699,-13693.809927,-3907.087040,4589.276840
1421.219011,-11103.089130,-2221.676944,4367.215058
1421.219322,-11103.089130,-2911.162892,2886.803174
1421.219634,-11991.336260,-4290.134789,-814.226536
1421.219945,-8586.388927,-3524.039291,-2442.679609
1421.220256,-4959.379811,-1532.190996,-3627.009116
1421.220568,-7994.224174,0.000000,-1332.370696
1421.220879,-14063.912898,-2451.505594,-370.102971
1421.221191,-17468.860231,-2757.943793,296.082377
1421.221502,-15840.407159,-383.047749,3849.070898
1421.221813,-13471.748144,919.314598,3330.926739
1421.222125,-13767.830521,-842.705048,1480.411884
1421.222436,-11177.109724,-1455.581446,-1554.432478
1421.222748,-5329.482782,1072.533697,-3182.885551
1421.223059,-2146.597232,3524.039291,-3775.050304
1421.223370,-4959.379811,2911.162892,-1554.432478
1421.223682,-10955.047942,-612.876398,-148.041188
1421.223993,-13693.809927,-2145.067394,2738.761985
1421.224305,-12583.501014,-383.047749,5033.400406
1421.224616,-10510.924376,1991.848295,3034.844362
1421.224927,-11843.295072,1302.362347,-666.185348
1421.225239,-10214.842000,0.000000,-1850.514855
1421.225550,-2220.617826,1072.533697,-2368.659014
1421.225862,592.164754,3907.087040,-2738.761985
1421.226173,-5699.585753,3140.991542,-444.123565
1421.226484,-13027.624579,1915.238745,1554.432478
1421.226796,-12435.459826,689.485948,4441.235652
1421.227107,-7179.997637,4749.792088,5551.544565
1421.227419,-5995.668130,3983.696590,3108.864956
1421.227730,-7476.080014,1762.019645,-888.247130
1421.228041,-5107.421000,1838.629195,-2442.679609
1421.228353,592.164754,4366.744339,-3552.988522
1421.228664,-222.061783,5209.449386,-3108.864956
1421.228976,-7476.080014,4060.306139,-1628.453072
1421.229287,-13397.727550,229.828649,1554.432478
1421.229598,-11991.336260,-1608.800546,4219.173869
1421.229910,-7328.038826,229.828649,4811.338623
1421.230221,-7254.018232,306.438199,2738.761985
1421.230533,-8438.347739,-3064.381992,-0.000000
1421.230844,-6883.915261,-5132.839837,-1406.391290
1421.231155,-2072.576638,-1455.581446,-2072.576638
1421.231467,-4367.215058,306.438199,-370.102971
1421.231778,-11917.315666,-2374.896044,1332.370696
1421.232090,-17172.777854,-5515.887586,3775.050304
1421.232401,-15914.427753,-3830.477490,5329.482782
1421.232712,-11547.212695,-995.924147,5403.503377
1421.233024,-10362.883188,-1762.019645,2960.823768
1421.233335,-10066.800811,-3600.648841,-74.020594
1421.233647,-6957.935855,-3064.381992,-2368.659014
1421.233958,-3701.029710,-536.266849,-4071.132681
1421.234269,-5403.503377,842.705048,-1924.535449
1421.234581,-12213.398043,-536.266849,-740.205942
1421.234892,-15544.324782,-3140.991542,1702.473667
1421.235204,-14434.015869,-3447.429741,3404.947333
1421.235515,-12361.439231,-2451.505594,3404.947333
1421.235827,-11991.336260,-2298.286494,1036.288319
1421.236138,-11991.336260,-3294.210641,-2146.597232
1421.236449,-7105.977043,-1149.143247,-2442.679609
1421.236761,-5551.544565,689.485948,-3330.926739
1421.237072,-8882.471304,919.314598,-1258.350101
1421.237384,-15322.262999,0.000000,-0.000000
1421.237695,-16062.468941,-153.219100,2812.782580
1421.238006,-12583.501014,2068.457845,4737.318029
1421.238318,-9252.574275,2451.505594,3627.009116
1421.238629,-7328.038826,1991.848295,1480.411884
1421.238941,-6883.915261,919.314598,-1258.350101
1421.239252,-2960.823768,1915.238745,-2368.659014
1421.239563,-888.247130,5439.278036,-3330.926739
1421.239875,-6587.832884,5669.106685,-2368.659014
1421.240186,-13767.830521,3064.381992,148.041188
1421.240498,-14359.995275,1225.752797,3775.050304
1421.240809,-8290.306550,1915.238745,4293.194464
1421.241120,-5551.544565,1455.581446,2960.823768
1421.241432,-5551.544565,-612.876398,-370.102971
1421.241743,-2812.782580,-612.876398,-2072.576638
1421.242055,1036.288319,1302.362347,-2590.720797
1421.242366,888.247130,3064.381992,-2886.803174
1421.242677,-5181.441594,2221.676944,370.102971
1421.242989,-12657.521608,153.219100,1332.370696
1421.243300,-13915.871710,-766.095498,4737.318029
1421.243612,-9474.636058,0.000000,5921.647536
1421.243923,-7994.224174,536.266849,3034.844362
1421.244234,-9030.512492,-1455.581446,148.041188
1421.244546,-6439.791695,-3447.429741,-2368.659014
1421.244857,-2146.597232,-689.485948,-3256.906145
1421.245169,-3330.926739,1685.410096,-2368.659014
1421.245480,-10955.047942,-1149.143247,-0.000000
1421.245791,-16432.571912,-4673.182538,2886.803174
1421.246101,-15766.386565,-3753.867940,5477.523971
1421.246412,-12583.501014,-2604.724693,5995.668130
1421.246724,-10288.862594,-4749.792088,3775.050304
1421.247035,-9844.739029,-5056.230287,-74.020594
1421.247347,-7402.059420,-2451.505594,-1924.535449
1421.247658,-2960.823768,-459.657299,-3701.029710
1421.247970,-6069.688724,919.314598,-2368.659014
1421.248281,-12583.501014,76.609550,148.041188
1421.248593,-16580.613101,-1302.362347,1184.329507
1421.248904,-14878.139434,-766.095498,3849.070898
1421.249215,-12953.603985,766.095498,3256.906145
1421.249527,-12065.356855,536.266849,666.185348
1421.249838,-9696.697840,-1915.238745,-2516.700203
1421.250150,-6661.853478,-689.485948,-3923.091493
1421.250461,-5625.565159,1838.629195,-4145.153275
1421.250773,-9030.512492,2145.067394,-2886.803174
1421.251084,-14730.098246,-689.485948,-0.000000
1421.251395,-16506.592507,-2221.676944,3182.885551
1421.251707,-12731.542202,-383.047749,5329.482782
1421.252018,-9104.533087,0.000000,3701.029710
1421.252330,-8364.327145,-536.266849,518.144159
1421.252641,-7402.059420,-1072.533697,-1702.473667
1421.252953,-1776.494261,0.000000,-2960.823768
1421.253264,-592.164754,3294.210641,-2368.659014
1421.253575,-7105.977043,2757.943793,-1036.288319
1421.253887,-15396.283594,1302.362347,666.185348
1421.254198,-15248.242405,536.266849,5033.400406
1421.254510,-8142.265362,2757.943793,5107.421000
1421.254821,-5847.626942,1685.410096,3182.885551
1421.255133,-4811.338623,383.047749,-296.082377
1421.255444,-2442.679609,1991.848295,-3923.091493
1421.255755,2294.638420,4290.134789,-4219.173869
1421.256067,1406.391290,5822.325785,-2590.720797
1421.256378,-6735.874072,2911.162892,-0.000000
1421.256690,-12287.418637,689.485948,1332.370696
1421.257001,-12435.459826,-766.095498,4811.338623
1421.257313,-8364.327145,-689.485948,5995.668130
1421.257624,-7846.182985,-1302.362347,3034.844362
1421.257936,-9104.533087,-3064.381992,-296.082377
1421.258247,-5773.606348,-3983.696590,-2442.679609
1421.258558,-3997.112087,-995.924147,-2960.823768
1421.258870,-4071.132681,689.485948,-518.144159
1421.259181,-11621.233289,-2145.067394,814.226536
1421.259493,-17172.777854,-5592.497135,3552.988522
1421.259804,-14878.139434,-3677.258390,5625.565159
1421.260116,-11399.171507,842.705048,4589.276840
1421.260427,-11103.089130,-306.438199,2294.638420
1421.260738,-10807.006753,-2834.553343,-592.164754
1421.261050,-6957.935855,-1455.581446,-2590.720797
1421.261361,-3997.112087,1915.238745,-2812.782580
1421.261673,-7550.100608,2528.115143,-1554.432478
1421.261984,-14137.933492,-919.314598,370.102971
1421.262296,-16580.613101,-2528.115143,1776.494261
1421.262607,-13619.789333,-1685.410096,3330.926739
1421.262918,-10732.986159,-995.924147,2664.741391
1421.263230,-10658.965565,-2145.067394,592.164754
1421.263541,-9400.615463,-3600.648841,-1702.473667
1421.263853,-6291.750507,-3217.601092,-2146.597232
1421.264164,-5033.400406,-766.095498,-1998.556043
1421.264476,-9696.697840,1149.143247,-1258.350101
1421.264787,-13989.892304,-383.047749,592.164754
1421.265098,-14804.118840,-1378.971896,2072.576638
1421.265410,-10955.047942,1302.362347,4145.153275
1421.265721,-9696.697840,1915.238745,2294.638420
1421.266033,-10066.800811,536.266849,666.185348
1421.266344,-6587.832884,76.609550,-1406.391290
1421.266656,-2220.617826,3524.039291,-2294.638420
1421.266967,-1998.556043,4673.182538,-2146.597232
1421.267278,-6809.894666,4213.525239,-1998.556043
1421.267590,-13323.706956,1608.800546,296.082377
1421.267901,-12805.562797,766.095498,2812.782580
1421.268213,-7994.224174,3524.039291,4145.153275
1421.268524,-6957.935855,1762.019645,1332.370696
1421.268836,-8364.327145,-1302.362347,222.061783
1421.269147,-4663.297435,-2681.334243,-1332.370696
1421.269459,1110.308913,0.000000,-2368.659014
1421.269770,0.000000,2068.457845,-2220.617826
1421.270081,-6439.791695,612.876398,-518.144159
1421.270393,-13027.624579,-1685.410096,1628.453072
1421.270704,-12583.501014,-459.657299,4219.173869
1421.271016,-8734.430116,2374.896044,4367.215058
1421.271327,-8882.471304,1991.848295,2146.597232
1421.271639,-9696.697840,0.000000,-888.247130
1421.271950,-6661.853478,0.000000,-2590.720797
1421.272261,-2294.638420,995.924147,-2812.782580
1421.272573,-4367.215058,1685.410096,-814.226536
1421.272884,-11029.068536,-459.657299,444.123565
1421.273196,-16654.633695,-3907.087040,2072.576638
1421.273507,-15396.283594,-3217.601092,4663.297435
1421.273819,-11769.274478,-1072.533697,4367.215058
1421.274130,-11177.109724,-2221.676944,2368.659014
1421.274441,-11029.068536,-4060.306139,-888.247130
1421.274753,-7105.977043,-2987.772442,-2368.659014
1421.275064,-4515.256246,0.000000,-2960.823768
1421.275376,-7994.224174,0.000000,-1406.391290
1421.275687,-12879.583391,-995.924147,222.061783
1421.275999,-15396.283594,-1532.190996,1702.473667
1421.276310,-12731.542202,76.609550,4145.153275
1421.276621,-11029.068536,0.000000,3552.988522
1421.276933,-11325.150913,-842.705048,1184.329507
1421.277244,-8734.430116,-536.266849,-740.205942
1421.277556,-5477.523971,-383.047749,-2368.659014
1421.277867,-4219.173869,1072.533697,-2738.761985
1421.278179,-7994.224174,1838.629195,-1258.350101
1421.278490,-13397.727550,-459.657299,-444.123565
1421.278801,-14211.954086,-995.924147,1480.411884
1421.279113,-12361.439231,1608.800546,3182.885551
1421.279424,-11103.089130,1532.190996,2664.741391
1421.279736,-9918.759623,-1991.848295,1628.453072
1421.280047,-6143.709319,-3064.381992,370.102971
1421.280359,-1850.514855,-1455.581446,-444.123565
1421.280670,-1184.329507,1455.581446,-592.164754
1421.280982,-7772.162391,1762.019645,-518.144159
1421.281293,-13915.871710,1302.362347,1184.329507
1421.281604,-12805.562797,2757.943793,3404.947333
1421.281916,-8512.368333,4519.963438,3478.967927
1421.282227,-8364.327145,3064.381992,888.247130
1421.282539,-8438.347739,1762.019645,-666.185348
1421.282850,-4515.256246,689.485948,-2368.659014
1421.283162,222.061783,2068.457845,-3034.844362
1421.283473,-222.061783,3064.381992,-2294.638420
1421.283784,-8512.368333,459.657299,-1480.411884
1421.284096,-14508.036463,-1991.848295,1628.453072
1421.284407,-12657.521608,-383.047749,4367.215058
1421.284719,-9770.718434,1762.019645,4219.173869
1421.285030,-9400.615463,995.924147,1850.514855
1421.285342,-9474.636058,-1762.019645,-962.267725
1421.285653,-5625.565159,-2834.553343,-2294.638420
1421.285964,-888.247130,-536.266849,-2590.720797
1421.286276,-3330.926739,536.266849,-1776.494261
1421.286587,-10807.006753,-1225.752797,-444.123565
1421.286899,-16136.489536,-2911.162892,2664.741391
1421.287210,-14359.995275,-2298.286494,5033.400406
1421.287522,-12287.418637,-766.095498,4293.194464
1421.287833,-10881.027347,-1378.971896,3108.864956
1421.288144,-9326.594869,-2757.943793,-296.082377
1421.288456,-6735.874072,-1762.019645,-2516.700203
1421.288767,-3108.864956,536.266849,-2294.638420
1421.289079,-6513.812290,1225.752797,-2516.700203
1421.289390,-13175.665768,-2221.676944,-0.000000
1421.289702,-14952.160028,-2145.067394,2368.659014
1421.290013,-13545.768739,-1455.581446,4219.173869
1421.290325,-11695.253884,-766.095498,3256.906145
1421.290636,-10658.965565,-1608.800546,2294.638420
1421.290947,-9992.780217,-3217.601092,-1036.288319
1421.291259,-5255.462188,-1991.848295,-1332.370696
1421.291570,-4145.153275,2068.457845,-2368.659014
1421.291882,-8734.430116,766.095498,-740.205942
1421.292193,-12805.562797,-306.438199,592.164754
1421.292505,-15470.304188,0.000000,3552.988522
1421.292816,-12805.562797,459.657299,4959.379811
1421.293127,-10436.903782,766.095498,3256.906145
1421.293439,-9474.636058,612.876398,1110.308913
1421.293750,-7105.977043,1455.581446,-2368.659014
1421.294062,-2368.659014,2451.505594,-2886.803174
1421.294373,-1406.391290,4749.792088,-3478.967927
1421.294685,-7105.977043,3983.696590,-1998.556043
1421.294996,-12287.418637,1302.362347,1184.329507
1421.295307,-12213.398043,689.485948,3701.029710
1421.295619,-10658.965565,2145.067394,4737.318029
1421.295930,-9696.697840,919.314598,2590.720797
1421.296242,-8734.430116,306.438199,888.247130
1421.296553,-3552.988522,459.657299,-1924.535449
1421.296865,1184.329507,3064.381992,-2812.782580
1421.297176,296.082377,2145.067394,-3034.844362
1421.297487,-6069.688724,-306.438199,-0.000000
1421.297799,-12065.356855,-1455.581446,1480.411884
1421.298110,-12139.377449,-459.657299,3997.112087
1421.298422,-10584.944971,1685.410096,3923.091493
1421.298733,-10066.800811,766.095498,1924.535449
1421.299045,-10510.924376,-1915.238745,-888.247130
1421.299356,-5847.626942,-2145.067394,-2664.741391
1421.299667,-1776.494261,842.705048,-2960.823768
1421.299979,-5477.523971,612.876398,-888.247130
1421.300290,-11843.295072,-2528.115143,888.247130
1421.300602,-16432.571912,-5132.839837,2960.823768
1421.300913,-14137.933492,-3140.991542,5033.400406
1421.301225,-10288.862594,-383.047749,3849.070898
1421.301536,-9770.718434,-1991.848295,666.185348
1421.301848,-8068.244768,-2528.115143,-1258.350101
1421.302159,-4737.318029,-2757.943793,-2368.659014
1421.302470,-3923.091493,-2374.896044,-1554.432478
1421.302782,-8660.409521,-1302.362347,-888.247130
1421.303093,-14211.954086,-2221.676944,1036.288319
1421.303405,-16876.695478,-2604.724693,2220.617826
1421.303716,-14730.098246,-995.924147,3849.070898
1421.304028,-12065.356855,919.314598,1850.514855
1421.304339,-11917.315666,306.438199,444.123565
1421.304650,-8660.409521,-229.828649,-1554.432478
1421.304962,-5255.462188,153.219100,-2516.700203
1421.305273,-4367.215058,2298.286494,-1776.494261
1421.305585,-8586.388927,2145.067394,-1702.473667
1421.305896,-12657.521608,842.705048,-0.000000
1421.306208,-13323.706956,612.876398,1850.514855
1421.306519,-11621.233289,2068.457845,3182.885551
1421.306830,-10288.862594,1685.410096,2072.576638
1421.307142,-10807.006753,-1378.971896,1258.350101
1421.307453,-7402.059420,-1455.581446,-74.020594
1421.307765,-2294.638420,842.705048,-592.164754
1421.308076,-3404.947333,2221.676944,-1036.288319
1421.308388,-8586.388927,2604.724693,-0.000000
1421.308699,-11991.336260,2221.676944,1406.391290
1421.309010,-11029.068536,2221.676944,2812.782580
1421.309322,-8068.244768,4596.572988,3552.988522
1421.309633,-7476.080014,2911.162892,962.267725
1421.309945,-7476.080014,1762.019645,-1036.288319
1421.310256,-4145.153275,1302.362347,-1924.535449
1421.310568,1036.288319,2451.505594,-1850.514855
1421.310879,-1332.370696,2451.505594,-2072.576638
1421.311190,-8586.388927,459.657299,518.144159
1421.311502,-12953.603985,-1608.800546,2960.823768
1421.311813,-11843.295072,-1302.362347,4441.235652
1421.312125,-8734.430116,689.485948,5033.400406
1421.312436,-8216.285956,-1225.752797,2220.617826
1421.312748,-8068.244768,-3983.696590,-1184.329507
1421.313059,-4515.256246,-3217.601092,-2442.679609
1421.313371,-518.144159,-689.485948,-2590.720797
1421.313682,-3627.009116,-689.485948,-814.226536
1421.313993,-12435.459826,-2604.724693,814.226536
1421.314305,-17320.819043,-3753.867940,2960.823768
1421.314616,-15396.283594,-2221.676944,4737.318029
1421.314928,-12657.521608,153.219100,3404.947333
1421.315239,-11103.089130,-306.438199,888.247130
1421.315551,-9326.594869,-1838.629195,-1998.556043
1421.315862,-5329.482782,-1149.143247,-3182.885551
1421.316173,-4071.132681,-229.828649,-2146.597232
1421.316485,-8808.450710,-306.438199,-1702.473667
1421.316796,-14656.077652,-842.705048,740.205942
1421.317108,-16876.695478,-995.924147,1924.535449
1421.317419,-13841.851115,-153.219100,2516.700203
1421.317731,-10510.924376,-459.657299,1406.391290
1421.318042,-8438.347739,-2757.943793,-370.102971
1421.318353,-7698.141797,-3140.991542,-2886.803174
1421.318665,-5921.647536,-1685.410096,-2072.576638
1421.318976,-7698.141797,919.314598,-1110.308913
1421.319288,-12583.501014,1378.971896,222.061783
1421.319599,-17098.757260,-153.219100,1924.535449
1421.319911,-16136.489536,-306.438199,3775.050304
1421.320222,-10955.047942,2374.896044,3404.947333
1421.320533,-8438.347739,4060.306139,1184.329507
1421.320845,-7402.059420,1455.581446,-296.082377
1421.321156,-2886.803174,76.609550,-2664.741391
1421.321468,370.102971,2987.772442,-2812.782580
1421.321779,-1628.453072,2528.115143,-1406.391290
1421.322091,-9104.533087,76.609550,-0.000000
1421.322402,-14211.954086,-2068.457845,3108.864956
1421.322713,-13619.789333,-2221.676944,4219.173869
1421.323025,-8290.306550,-995.924147,4663.297435
1421.323336,-6217.729913,-1838.629195,2220.617826
1421.323648,-5995.668130,-3677.258390,-0.000000
1421.323959,-2146.597232,-3830.477490,-1628.453072
1421.324271,1628.453072,-1915.238745,-2294.638420
1421.324582,74.020594,919.314598,-888.247130
1421.324894,-7105.977043,76.609550,888.247130
1421.325205,-12731.542202,-4749.792088,3775.050304
1421.325516,-13249.686362,-5362.668486,5477.523971
1421.325828,-10288.862594,-1608.800546,5329.482782
1421.326139,-8808.450710,-1455.581446,2368.659014
1421.326451,-8512.368333,-3830.477490,-148.041188
1421.326762,-6883.915261,-4903.011187,-2368.659014
1421.327074,-3627.009116,-3983.696590,-3627.009116
1421.327385,-4145.153275,-1915.238745,-2442.679609
1421.327696,-10140.821405,-2834.553343,-814.226536
1421.328008,-15618.345376,-4519.963438,1628.453072
1421.328319,-15470.304188,-4596.572988,3330.926739
1421.328631,-12287.418637,-3677.258390,3478.967927
1421.328942,-9400.615463,-4673.182538,2294.638420
1421.329254,-7846.182985,-7354.516781,-74.020594
1421.329565,-7179.997637,-8273.831378,-3034.844362
1421.329876,-5773.606348,-6588.421283,-3478.967927
1421.330188,-7698.141797,-4596.572988,-2960.823768
1421.330499,-12583.501014,-4213.525239,-0.000000
1421.330811,-16654.633695,-6511.811733,2516.700203
1421.331122,-18283.086767,-7890.783629,3997.112087
1421.331434,-16210.510130,-6128.763984,3701.029710
1421.331745,-13693.809927,-2451.505594,1480.411884
1421.332056,-10510.924376,-153.219100,-962.267725
1421.332368,-7105.977043,-842.705048,-3256.906145
1421.332679,-4515.256246,-1915.238745,-4293.194464
1421.332991,-4219.173869,-1378.971896,-3701.029710
1421.333302,-7476.080014,1225.752797,-2886.803174
1421.333614,-9844.739029,2528.115143,518.144159
1421.333925,-11473.192101,536.266849,3182.885551
1421.334237,-12139.377449,-4060.306139,4293.194464
1421.334548,-11177.109724,-3677.258390,3849.070898
1421.334859,-10362.883188,-1072.533697,1628.453072
1421.335171,-7328.038826,1072.533697,-370.102971
1421.335482,-2738.761985,1072.533697,-2072.576638
1421.335794,-814.226536,-459.657299,-2738.761985
1421.336105,-2738.761985,-2757.943793,-2368.659014
1421.336417,-4663.297435,-3370.820191,-592.164754
1421.336728,-7105.977043,-2604.724693,1332.370696
1421.337039,-9252.574275,-2374.896044,2590.720797
1421.337351,-10140.821405,-2604.724693,3478.967927
1421.337662,-11473.192101,-3370.820191,2886.803174
1421.337974,-10955.047942,-3983.696590,3256.906145
1421.338285,-9474.636058,-3294.210641,2738.761985
1421.338597,-7772.162391,-1225.752797,1998.556043
1421.338908,-5995.668130,612.876398,296.082377
1421.339219,-4885.359217,0.000000,-518.144159
1421.339531,-2738.761985,-2451.505594,-518.144159
1421.339842,-2072.576638,-3907.087040,-1184.329507
1421.340154,-2664.741391,-4290.134789,-592.164754
1421.340465,-6735.874072,-3600.648841,-888.247130
1421.340777,-12287.418637,-2451.505594,-740.205942
1421.341088,-14730.098246,-995.924147,666.185348
1421.341399,-15322.262999,-2757.943793,3108.864956
1421.341711,-15988.448347,-5515.887586,4737.318029
1421.342022,-15100.201217,-5439.278036,4885.359217
1421.342334,-11991.336260,-4519.963438,2886.803174
1421.342645,-8216.285956,-4136.915689,888.247130
1421.342957,-4367.215058,-3370.820191,-222.061783
1421.343268,-3034.844362,-4136.915689,-1776.494261
1421.343579,-2442.679609,-4673.182538,-3182.885551
1421.343891,-4441.235652,-5209.449386,-2738.761985
1421.344202,-7328.038826,-4749.792088,-2072.576638
1421.344514,-10881.027347,-4749.792088,-592.164754
1421.344825,-14359.995275,-6205.373534,962.267725
1421.345137,-16802.674883,-6665.030833,2886.803174
1421.345448,-17320.819043,-7507.735880,4589.276840
1421.345760,-16062.468941,-5669.106685,3923.091493
1421.346071,-13989.892304,-4443.353888,2442.679609
1421.346382,-10140.821405,-4443.353888,1776.494261
1421.346694,-6735.874072,-5209.449386,518.144159
1421.347005,-2738.761985,-6052.154434,-0.000000
1421.347317,-2368.659014,-4903.011187,-1850.514855
1421.347628,-2812.782580,-3140.991542,-2664.741391
1421.347940,-4441.235652,-1608.800546,-2738.761985
1421.348251,-7624.121203,-1225.752797,-1332.370696
1421.348562,-11547.212695,-842.705048,-296.082377
1421.348874,-14952.160028,-766.095498,1332.370696
1421.349185,-15248.242405,-383.047749,2294.638420
1421.349497,-13915.871710,-383.047749,2072.576638
1421.349808,-10140.821405,-919.314598,1480.411884
1421.350120,-6883.915261,-1225.752797,-148.041188
1421.350431,-4959.379811,-1072.533697,-1332.370696
1421.350742,-4367.215058,-306.438199,-1332.370696
1421.351054,-3552.988522,0.000000,-1406.391290
1421.351365,-4293.194464,-229.828649,-1110.308913
1421.351677,-5107.421000,-1608.800546,-370.102971
1421.351988,-5255.462188,-3370.820191,-74.020594
1421.352300,-6957.935855,-3907.087040,592.164754
1421.352611,-8586.388927,-4749.792088,592.164754
1421.352922,-11177.109724,-4673.182538,1110.308913
1421.353234,-13989.892304,-4366.744339,1480.411884
1421.353545,-14434.015869,-2374.896044,1850.514855
1421.353857,-13249.686362,-2145.067394,1776.494261
1421.354168,-10807.006753,-2528.115143,1406.391290
1421.354480,-8068.244768,-2145.067394,444.123565
1421.354791,-5033.400406,-1225.752797,-740.205942
1421.355103,-4293.194464,-919.314598,-1406.391290
1421.355414,-4515.256246,-1149.143247,-1480.411884
1421.355726,-5107.421000,-1225.752797,-1702.473667
1421.356037,-6217.729913,-2528.115143,-740.205942
1421.356349,-8364.327145,-4213.525239,666.185348
1421.356660,-10288.862594,-4673.182538,1776.494261
1421.356972,-11621.233289,-6128.763984,2516.700203
1421.357283,-11991.336260,-7737.564530,3404.947333
1421.357595,-12287.418637,-8350.440928,2960.823768
1421.357907,-12583.501014,-6435.202183,2516.700203
1421.358218,-11843.295072,-3447.429741,1258.350101
1421.358530,-10658.965565,-1072.533697,222.061783
1421.358841,-8216.285956,536.266849,-148.041188
1421.359153,-7254.018232,1378.971896,-0.000000
1421.359464,-6143.709319,1149.143247,-148.041188
1421.359776,-5699.585753,-383.047749,740.205942
1421.360087,-6957.935855,-2451.505594,1332.370696
1421.360399,-7846.182985,-3677.258390,2442.679609
1421.360711,-9918.759623,-4596.572988,2220.617826
1421.361022,-11769.274478,-4749.792088,1924.535449
1421.361334,-12287.418637,-4903.011187,1628.453072
1421.361645,-12213.398043,-5286.058936,1184.329507
1421.361957,-10881.027347,-5898.935335,1332.370696
1421.362268,-9030.512492,-4979.620737,740.205942
1421.362580,-7476.080014,-4903.011187,592.164754
1421.362891,-6143.709319,-3753.867940,444.123565
1421.363203,-5255.462188,-2528.115143,-0.000000
1421.363515,-4885.359217,-2374.896044,-0.000000
1421.363826,-5625.565159,-2068.457845,370.102971
1421.364138,-5699.585753,-1608.800546,1850.514855
1421.364449,-7179.997637,-2221.676944,1110.308913
1421.364761,-8808.450710,-3753.867940,1924.535449
1421.365072,-11029.068536,-4443.353888,962.267725
1421.365384,-10881.027347,-3983.696590,888.247130
1421.365695,-11325.150913,-2221.676944,-814.226536
1421.366007,-8808.450710,-459.657299,-1184.329507
1421.366318,-8808.450710,-919.314598,-2368.659014
1421.366630,-7994.224174,-766.095498,-1702.473667
1421.366942,-5699.585753,-766.095498,-1258.350101
1421.367253,-6439.791695,-995.924147,-1184.329507
1421.367565,-7846.182985,-2987.772442,1628.453072
1421.367876,-10436.903782,-3907.087040,1036.288319
1421.368188,-10807.006753,-2451.505594,1258.350101
1421.368499,-10510.924376,-1072.533697,1110.308913
1421.368811,-10362.883188,-2145.067394,1776.494261
1421.369122,-10436.903782,-3294.210641,222.061783
1421.369434,-9770.718434,-3064.381992,-0.000000
1421.369746,-10066.800811,-1991.848295,-222.061783
1421.370057,-10288.862594,-1149.143247,-74.020594
1421.370369,-12361.439231,-153.219100,74.020594
1421.370680,-11103.089130,76.609550,962.267725
1421.370992,-9844.739029,-1532.190996,1480.411884
1421.371303,-8290.306550,-1608.800546,2442.679609
1421.371615,-7031.956449,-1302.362347,3404.947333
1421.371926,-8808.450710,-3447.429741,3478.967927
1421.372238,-8068.244768,-4903.011187,5107.421000
1421.372549,-9474.636058,-4903.011187,4515.256246
1421.372861,-9104.533087,-2451.505594,5921.647536
1421.373173,-11769.274478,-1532.190996,4737.318029
1421.373484,-11547.212695,-1072.533697,5625.565159
1421.373796,-8068.244768,306.438199,3404.947333
1421.374107,-6513.812290,2987.772442,3108.864956
1421.374419,-6143.709319,2757.943793,2294.638420
1421.374730,-5403.503377,1072.533697,2664.741391
1421.375042,-7105.977043,-306.438199,2442.679609
1421.375353,-4811.338623,383.047749,5107.421000
1421.375665,-7920.203579,-1225.752797,4367.215058
1421.375977,-10732.986159,-1915.238745,6365.771101
1421.376288,-11029.068536,-1378.971896,7328.038826
1421.376600,-9622.677246,-2528.115143,6587.832884
1421.376911,-7402.059420,-2145.067394,6587.832884
1421.377223,-8586.388927,-383.047749,3923.091493
1421.377534,-7105.977043,536.266849,4293.194464
1421.377846,-6143.709319,766.095498,2812.782580
1421.378157,-5625.565159,1378.971896,3849.070898
1421.378469,-7254.018232,2911.162892,3182.885551
1421.378781,-9474.636058,2451.505594,3849.070898
1421.379092,-9474.636058,1838.629195,4959.379811
1421.379404,-8216.285956,0.000000,5477.523971
1421.379715,-8438.347739,0.000000,4959.379811
1421.380027,-8586.388927,-612.876398,5255.462188
1421.380338,-8734.430116,-1455.581446,4885.359217
1421.380650,-7772.162391,-153.219100,4367.215058
1421.380961,-7920.203579,1608.800546,4441.235652
1421.381273,-8956.491898,2681.334243,2886.803174
1421.381584,-9844.739029,2145.067394,3478.967927
1421.381896,-9030.512492,2757.943793,3627.009116
1421.382208,-7698.141797,1608.800546,3182.885551
1421.382519,-7920.203579,383.047749,3330.926739
1421.382831,-7402.059420,-1532.190996,3552.988522
1421.383142,-7846.182985,-2298.286494,3404.947333
1421.383454,-6957.935855,-1991.848295,3627.009116
1421.383765,-7105.977043,-2298.286494,3478.967927
1421.384077,-9326.594869,-2604.724693,3478.967927
1421.384388,-10288.862594,-1072.533697,3849.070898
1421.384700,-11251.130318,-689.485948,4367.215058
1421.385012,-11177.109724,76.609550,4219.173869
1421.385323,-11399.171507,1455.581446,3997.112087
1421.385635,-10807.006753,1532.190996,2812.782580
1421.385946,-9178.553681,2451.505594,1998.556043
1421.386258,-7328.038826,1991.848295,962.267725
1421.386569,-6513.812290,2374.896044,1554.432478
1421.386881,-8068.244768,536.266849,1702.473667
1421.387192,-8660.409521,-1072.533697,2886.803174
1421.387504,-9992.780217,-2221.676944,4219.173869
1421.387816,-10214.842000,-2987.772442,4663.297435
1421.388127,-9548.656652,-2451.505594,4367.215058
1421.388439,-8808.450710,-2298.286494,2664.741391
1421.388750,-7328.038826,-306.438199,1554.432478
1421.389062,-6883.915261,0.000000,296.082377
1421.389373,-7254.018232,153.219100,-74.020594
1421.389685,-9474.636058,766.095498,148.041188
1421.389996,-11473.192101,383.047749,1332.370696
1421.390308,-12879.583391,536.266849,2960.823768
1421.390619,-13101.645173,0.000000,3997.112087
1421.390931,-11843.295072,-612.876398,4293.194464
1421.391243,-10066.800811,-1072.533697,3923.091493
1421.391554,-7179.997637,-1685.410096,3034.844362
1421.391866,-4737.318029,-1762.019645,1924.535449
1421.392177,-4589.276840,-842.705048,1184.329507
1421.392489,-5551.544565,0.000000,814.226536
1421.392800,-7920.203579,766.095498,1184.329507
1421.393112,-10066.800811,1991.848295,2812.782580
1421.393423,-11843.295072,2911.162892,4145.153275
1421.393735,-13027.624579,2221.676944,4885.359217
1421.394047,-11769.274478,842.705048,5107.421000
1421.394358,-9178.553681,383.047749,4811.338623
1421.394670,-6735.874072,-536.266849,3849.070898
1421.394981,-5181.441594,-612.876398,2590.720797
1421.395293,-3923.091493,-612.876398,1406.391290
1421.395604,-3627.009116,0.000000,1184.329507
1421.395916,-5551.544565,0.000000,2072.576638
1421.396227,-9770.718434,76.609550,3330.926739
1421.396539,-12731.542202,-153.219100,4737.318029
1421.396851,-14063.912898,306.438199,5773.606348
1421.397162,-11843.295072,-383.047749,5773.606348
1421.397474,-9178.553681,-1378.971896,4737.318029
1421.397785,-6513.812290,-1225.752797,3997.112087
1421.398097,-5921.647536,-459.657299,3552.988522
1421.398408,-6217.729913,306.438199,5181.441594
1421.398720,-8956.491898,689.485948,6365.771101
1421.399031,-11251.130318,229.828649,7254.018232
1421.399343,-11843.295072,0.000000,7328.038826
1421.399654,-10066.800811,383.047749,5773.606348
1421.399966,-7179.997637,2374.896044,3552.988522
1421.400278,-5699.585753,3524.039291,1628.453072
1421.400589,-4885.359217,4060.306139,666.185348
1421.400901,-6587.832884,2451.505594,1184.329507
1421.401212,-8512.368333,1762.019645,2886.803174
1421.401524,-10584.944971,153.219100,4737.318029
1421.401835,-12139.377449,-689.485948,6661.853478
1421.402147,-12435.459826,-2528.115143,8068.244768
1421.402458,-12139.377449,-3217.601092,8882.471304
1421.402770,-11251.130318,-2757.943793,9252.574275
1421.403082,-9844.739029,-1991.848295,7920.203579
1421.403393,-7402.059420,-1225.752797,6513.812290
1421.403705,-5329.482782,-383.047749,3701.029710
1421.404016,-2516.700203,1455.581446,1702.473667
1421.404328,-1480.411884,2528.115143,296.082377
1421.404639,-3478.967927,2451.505594,666.185348
1421.404951,-6365.771101,1915.238745,2368.659014
1421.405262,-9770.718434,459.657299,4219.173869
1421.405574,-12657.521608,-1149.143247,5477.523971
1421.405886,-14730.098246,-1532.190996,6587.832884
1421.406197,-15174.221811,-1838.629195,6291.750507
1421.406509,-12657.521608,-995.924147,4885.359217
1421.406820,-9104.533087,-383.047749,3923.091493
1421.407132,-6883.915261,-459.657299,3330.926739
1421.407443,-4959.379811,0.000000,2738.761985
1421.407755,-3997.112087,612.876398,2664.741391
1421.408066,-2886.803174,1608.800546,2294.638420
1421.408378,-4515.256246,1302.362347,888.247130
1421.408689,-4885.359217,1302.362347,888.247130
1421.409001,-6439.791695,1225.752797,-222.061783
1421.409313,-10066.800811,536.266849,962.267725
1421.409624,-13989.892304,-536.266849,3256.906145
1421.409936,-17098.757260,-1762.019645,4737.318029
1421.410247,-17764.942608,-2451.505594,5107.421000
1421.410559,-14952.160028,-1991.848295,5329.482782
1421.410870,-10436.903782,-229.828649,5477.523971
1421.411182,-7624.121203,0.000000,4219.173869
1421.411493,-4885.359217,-383.047749,3552.988522
1421.411805,-2516.700203,-612.876398,-0.000000
1421.412117,-1036.288319,689.485948,-1628.453072
1421.412428,-1258.350101,1838.629195,-2516.700203
1421.412740,-4293.194464,1149.143247,-2886.803174
1421.413051,-10214.842000,0.000000,-740.205942
1421.413363,-16062.468941,-995.924147,1998.556043
1421.413674,-20725.766376,-1378.971896,6439.791695
1421.413986,-22502.260637,-1455.581446,9030.512492
1421.414297,-19985.560434,-2298.286494,9474.636058
1421.414609,-12953.603985,-3140.991542,6809.894666
1421.414921,-4589.276840,-2451.505594,1924.535449
1421.415232,3404.947333,536.266849,-2812.782580
1421.415544,6587.832884,2374.896044,-5033.400406
1421.415855,3923.091493,2528.115143,-5033.400406
1421.416167,-3923.091493,2374.896044,-3108.864956
1421.416478,-11843.295072,2145.067394,518.144159
1421.416790,-19097.313304,1762.019645,4367.215058
1421.417101,-21688.034101,1915.238745,6661.853478
1421.417413,-18801.230927,536.266849,6291.750507
1421.417724,-13027.624579,-1608.800546,4737.318029
1421.418036,-6957.935855,-3983.696590,2516.700203
1421.418348,-1776.494261,-2374.896044,-0.000000
1421.418659,1702.473667,0.000000,-740.205942
1421.418971,592.164754,153.219100,-2072.576638
1421.419282,-3627.009116,0.000000,518.144159
1421.419594,-9548.656652,76.609550,814.226536
1421.419905,-12287.418637,1455.581446,2812.782580
1421.420217,-13397.727550,2834.553343,2368.659014
1421.420528,-12509.480420,2757.943793,2886.803174
1421.420840,-10658.965565,76.609550,1184.329507
1421.421152,-9474.636058,-2528.115143,-0.000000
1421.421463,-7105.977043,-2757.943793,222.061783
1421.421775,-6809.894666,-1072.533697,1332.370696
1421.422086,-9400.615463,76.609550,2738.761985
1421.422398,-12139.377449,-612.876398,3701.029710
1421.422709,-13989.892304,-1378.971896,4515.256246
1421.423021,-10732.986159,0.000000,4219.173869
1421.423332,-5107.421000,689.485948,370.102971
1421.423644,-1998.556043,1838.629195,-3404.947333
1421.423956,-444.123565,1608.800546,-6143.709319
1421.424267,-2664.741391,766.095498,-5107.421000
1421.424579,-7328.038826,536.266849,-1628.453072
1421.424890,-14878.139434,-459.657299,2812.782580
1421.425202,-23094.425390,-2145.067394,8068.244768
1421.425513,-25685.146187,-2604.724693,11399.171507
1421.425825,-20503.704593,-2374.896044,10066.800811
1421.426136,-10732.986159,-2221.676944,5921.647536
1421.426448,-2368.659014,-689.485948,148.041188
1421.426759,3849.070898,383.047749,-4663.297435
1421.427071,7031.956449,1685.410096,-7328.038826
1421.427383,4145.153275,3983.696590,-6365.771101
1421.427694,-4515.256246,4213.525239,-2738.761985
1421.428006,-13989.892304,3447.429741,2664.741391
1421.428317,-20059.581028,919.314598,8290.306550
1421.428629,-19689.478057,-1532.190996,10658.965565
1421.428940,-15840.407159,-4060.306139,8290.306550
1421.429252,-9252.574275,-4903.011187,3552.988522
1421.429563,-1332.370696,-4290.134789,-2294.638420
1421.429875,3923.091493,-2068.457845,-4663.297435
1421.430187,1998.556043,-306.438199,-4071.132681
1421.430498,-5773.606348,-383.047749,-2368.659014
1421.430810,-12879.583391,1302.362347,518.144159
1421.431121,-16284.530724,2681.334243,3923.091493
1421.431433,-13101.645173,2145.067394,4515.256246
1421.431744,-8216.285956,536.266849,1850.514855
1421.432056,-4737.318029,-459.657299,-2738.761985
1421.432367,-2516.700203,-1915.238745,-5181.441594
1421.432679,-2368.659014,-1149.143247,-5551.544565
1421.432991,-7328.038826,306.438199,-2664.741391
1421.433302,-15544.324782,1532.190996,370.102971
1421.433614,-20947.828159,-536.266849,3034.844362
1421.433925,-19911.539840,0.000000,4441.235652
1421.434237,-13545.768739,1225.752797,2590.720797
1421.434548,-5847.626942,1838.629195,-2368.659014
1421.434860,-666.185348,459.657299,-7402.059420
1421.435171,2368.659014,689.485948,-10510.924376
1421.435483,444.123565,1455.581446,-9548.656652
1421.435794,-6587.832884,1685.410096,-5995.668130
1421.436106,-15396.283594,-306.438199,-888.247130
1421.436418,-22576.281231,-2911.162892,3182.885551
1421.436729,-24648.857869,-4136.915689,7254.018232
1421.437041,-20059.581028,-5056.230287,7920.203579
1421.437352,-13027.624579,-6128.763984,3404.947333
1421.437664,-6439.791695,-4826.401637,-1184.329507
1421.437975,-1850.514855,-3217.601092,-5329.482782
1421.438287,740.205942,0.000000,-6661.853478
1421.438598,-1258.350101,3983.696590,-7254.018232
1421.438910,-6809.894666,4749.792088,-4071.132681
1421.439222,-13027.624579,3294.210641,-74.020594
1421.439533,-14878.139434,1072.533697,4145.153275
1421.439845,-13619.789333,536.266849,4811.338623
1421.440156,-12065.356855,-1532.190996,3923.091493
1421.440468,-8734.430116,-2757.943793,1702.473667
1421.440779,-6661.853478,-2221.676944,-1036.288319
1421.441091,-3404.947333,-612.876398,-2072.576638
1421.441402,-4441.235652,153.219100,-962.267725
1421.441714,-8142.265362,842.705048,296.082377
1421.442025,-10288.862594,1072.533697,2146.597232
1421.442337,-8956.491898,612.876398,2368.659014
1421.442649,-5329.482782,0.000000,1406.391290
1421.442960,-4737.318029,0.000000,-0.000000
1421.443272,-5181.441594,229.828649,-1628.453072
1421.443583,-6143.709319,536.266849,-1406.391290
1421.443895,-8956.491898,1378.971896,-518.144159
1421.444206,-11991.336260,2221.676944,1924.535449
1421.444518,-15174.221811,1991.848295,4219.173869
1421.444829,-15692.365970,-306.438199,5477.523971
1421.445141,-12065.356855,-1149.143247,5625.565159
1421.445453,-6587.832884,-383.047749,3034.844362
1421.445764,-3182.885551,1072.533697,-518.144159
1421.446076,-2072.576638,995.924147,-3182.885551
1421.446387,-1776.494261,1532.190996,-4293.194464
1421.446699,-4219.173869,1225.752797,-2812.782580
1421.447010,-9770.718434,1608.800546,-1554.432478
1421.447322,-14359.995275,229.828649,1702.473667
1421.447633,-16210.510130,-1072.533697,4737.318029
1421.447945,-14730.098246,-2145.067394,6587.832884
1421.448257,-11917.315666,-4519.963438,6957.935855
1421.448568,-10140.821405,-5822.325785,4737.318029
1421.448880,-8956.491898,-4826.401637,2664.741391
1421.449191,-6069.688724,-689.485948,666.185348
1421.449503,-5033.400406,919.314598,-1924.535449
1421.449814,-4885.359217,2911.162892,-3701.029710
1421.450126,-6957.935855,2681.334243,-3627.009116
1421.450437,-8660.409521,3370.820191,-1332.370696
1421.450749,-10807.006753,2757.943793,1406.391290
1421.451060,-12139.377449,1378.971896,2590.720797
1421.451372,-11917.315666,-1302.362347,2072.576638
1421.451684,-9474.636058,-3140.991542,2294.638420
1421.451995,-5255.462188,-3217.601092,2590.720797
1421.452307,-4737.318029,-1532.190996,-296.082377
1421.452618,-8216.285956,-766.095498,-0.000000
1421.452930,-11251.130318,0.000000,-0.000000
1421.453241,-11029.068536,0.000000,1850.514855
1421.453553,-9474.636058,995.924147,1406.391290
1421.453864,-8512.368333,459.657299,-0.000000
1421.454176,-6291.750507,-229.828649,-2738.761985
1421.454488,-4219.173869,0.000000,-2886.803174
1421.454799,-3627.009116,1072.533697,-3034.844362
1421.455111,-6439.791695,1149.143247,-1776.494261
1421.455422,-12361.439231,-459.657299,148.041188
1421.455734,-16358.551318,-842.705048,2368.659014
1421.456045,-16284.530724,153.219100,3997.112087
1421.456357,-12435.459826,842.705048,3775.050304
1421.456668,-8956.491898,-229.828649,222.061783
1421.456980,-5699.585753,-766.095498,-2812.782580
1421.457291,-2072.576638,-306.438199,-4885.359217
1421.457603,-2072.576638,1685.410096,-5551.544565
1421.457914,-5033.400406,3600.648841,-4515.256246
1421.458226,-10584.944971,3140.991542,-3256.906145
1421.458537,-14508.036463,1762.019645,-518.144159
1421.458849,-13915.871710,-612.876398,2072.576638
1421.459160,-12213.398043,-1302.362347,2516.700203
1421.459472,-10288.862594,-3140.991542,2146.597232
1421.459783,-9474.636058,-4136.915689,1184.329507
1421.460095,-7772.162391,-3830.477490,-444.123565
1421.460406,-7476.080014,-2068.457845,-666.185348
1421.460718,-9400.615463,0.000000,-814.226536
1421.461029,-11177.109724,919.314598,-1110.308913
1421.461341,-11029.068536,766.095498,-1998.556043
1421.461652,-8142.265362,1915.238745,-1184.329507
1421.461964,-7254.018232,2145.067394,-2072.576638
1421.462275,-7105.977043,306.438199,-1998.556043
1421.462587,-7328.038826,-1149.143247,-1776.494261
1421.462899,-7920.203579,-1838.629195,-740.205942
1421.463210,-8586.388927,-995.924147,1184.329507
1421.463522,-12139.377449,0.000000,2146.597232
1421.463833,-15544.324782,0.000000,3182.885551
1421.464145,-15692.365970,229.828649,4885.359217
1421.464456,-11991.336260,-459.657299,4441.235652
1421.464768,-7402.059420,-1838.629195,3034.844362
1421.465079,-4663.297435,-2374.896044,-222.061783
1421.465391,-1110.308913,-1532.190996,-2516.700203
1421.465702,0.000000,229.828649,-3182.885551
1421.466014,-3108.864956,1532.190996,-1258.350101
1421.466325,-9178.553681,689.485948,1184.329507
1421.466637,-15766.386565,-459.657299,3701.029710
1421.466948,-17542.880825,-612.876398,7105.977043
1421.467260,-15396.283594,842.705048,7550.100608
1421.467571,-12435.459826,995.924147,5403.503377
1421.467883,-8734.430116,153.219100,3775.050304
1421.468194,-2886.803174,-1532.190996,370.102971
1421.468506,2886.803174,-306.438199,-3034.844362
1421.468817,3108.864956,2987.772442,-3404.947333
1421.469129,-3923.091493,4903.011187,-1258.350101
1421.469440,-11991.336260,3753.867940,2220.617826
1421.469752,-16062.468941,1532.190996,5625.565159
1421.470063,-14878.139434,383.047749,7920.203579
1421.470375,-10955.047942,-1225.752797,6587.832884
1421.470686,-7254.018232,-2221.676944,3182.885551
1421.470998,-2960.823768,-2068.457845,444.123565
1421.471310,-1480.411884,-1149.143247,-2072.576638
1421.471621,-4219.173869,766.095498,-148.041188
1421.471933,-11103.089130,1072.533697,1406.391290
1421.472244,-16358.551318,229.828649,4367.215058
1421.472556,-15914.427753,229.828649,5625.565159
1421.472867,-12435.459826,612.876398,3849.070898
1421.473179,-7402.059420,995.924147,296.082377
1421.473490,-2368.659014,766.095498,-1776.494261
1421.473802,-666.185348,0.000000,-3182.885551
1421.474113,-1924.535449,-1378.971896,-2294.638420
1421.474425,-9326.594869,-1302.362347,-296.082377
1421.474736,-15988.448347,76.609550,1850.514855
1421.475048,-18727.210333,612.876398,5107.421000
1421.475359,-16506.592507,-229.828649,5699.585753
1421.475671,-11843.295072,-2451.505594,3775.050304
1421.475982,-7550.100608,-3753.867940,-0.000000
1421.476294,-3034.844362,-2145.067394,-2812.782580
1421.476605,-370.102971,383.047749,-4737.318029
1421.476917,-1702.473667,2374.896044,-4885.359217
1421.477228,-7105.977043,2451.505594,-3108.864956
1421.477540,-14211.954086,153.219100,-888.247130
1421.477851,-16284.530724,459.657299,2960.823768
1421.478163,-14656.077652,995.924147,3478.967927
1421.478474,-11029.068536,-306.438199,2516.700203
1421.478786,-8068.244768,-1991.848295,-592.164754
1421.479097,-6735.874072,-3217.601092,-2368.659014
1421.479409,-4959.379811,-1685.410096,-2442.679609
1421.479720,-6217.729913,153.219100,-2368.659014
1421.480032,-9770.718434,842.705048,-2442.679609
1421.480344,-12361.439231,766.095498,-1554.432478
1421.480655,-12731.542202,1072.533697,-74.020594
1421.480967,-10362.883188,1072.533697,1480.411884
1421.481278,-8364.327145,-612.876398,-0.000000
1421.481590,-7698.141797,-2451.505594,-1850.514855
1421.481901,-6217.729913,-1302.362347,-2442.679609
1421.482213,-5033.400406,459.657299,-2960.823768
1421.482524,-7105.977043,1378.971896,-1998.556043
1421.482836,-11991.336260,1149.143247,-666.185348
1421.483147,-15692.365970,-459.657299,1554.432478
1421.483459,-15766.386565,766.095498,3404.947333
1421.483770,-12361.439231,1225.752797,3182.885551
1421.484082,-8068.244768,76.609550,-74.020594
1421.484393,-5477.523971,-612.876398,-2146.597232
1421.484705,-2516.700203,-536.266849,-3182.885551
1421.485016,-1554.432478,0.000000,-3849.070898
1421.485328,-4959.379811,842.705048,-1776.494261
1421.485639,-11917.315666,0.000000,592.164754
1421.485951,-16062.468941,-919.314598,3923.091493
1421.486262,-15396.283594,-2221.676944,6217.729913
1421.486574,-13101.645173,-1991.848295,5699.585753
1421.486885,-10955.047942,-2068.457845,3627.009116
1421.487197,-8660.409521,-2068.457845,1924.535449
1421.487508,-5255.462188,0.000000,370.102971
1421.487820,-2368.659014,1455.581446,-888.247130
1421.488131,-2738.761985,919.314598,-1406.391290
1421.488443,-6735.874072,2451.505594,-666.185348
1421.488754,-10140.821405,3370.820191,2590.720797
1421.489066,-12213.398043,2834.553343,4663.297435
1421.489378,-11399.171507,689.485948,4885.359217
1421.489689,-10658.965565,-612.876398,4219.173869
1421.490001,-8512.368333,-1455.581446,3256.906145
1421.490312,-4589.276840,-1455.581446,2220.617826
1421.490624,-3552.988522,0.000000,1036.288319
1421.490935,-7476.080014,76.609550,1406.391290
1421.491247,-11547.212695,229.828649,1924.535449
1421.491558,-12287.418637,-153.219100,4737.318029
1421.491870,-9844.739029,306.438199,5921.647536
1421.492181,-8808.450710,-1225.752797,4515.256246
1421.492493,-6883.915261,-2604.724693,2146.597232
1421.492804,-4293.194464,-1915.238745,-0.000000
1421.493116,-2294.638420,-612.876398,-0.000000
1421.493427,-4219.173869,229.828649,-222.061783
1421.493739,-9474.636058,0.000000,1036.288319
1421.494050,-15322.262999,-383.047749,2368.659014
1421.494362,-16580.613101,766.095498,4959.379811
1421.494673,-14285.974681,2374.896044,5477.523971
1421.494985,-10140.821405,2221.676944,2812.782580
1421.495296,-6069.688724,153.219100,-666.185348
1421.495608,-1850.514855,0.000000,-3849.070898
1421.495919,-148.041188,1608.800546,-3849.070898
1421.496231,-2738.761985,3677.258390,-3034.844362
1421.496542,-8586.388927,3140.991542,-2590.720797
1421.496854,-14434.015869,383.047749,-0.000000
1421.497165,-15322.262999,-1072.533697,2812.782580
1421.497477,-12509.480420,-1149.143247,2664.741391
1421.497788,-10658.965565,-2145.067394,666.185348
1421.498100,-7254.018232,-3217.601092,-592.164754
1421.498412,-4737.318029,-3983.696590,-3552.988522
1421.498723,-4071.132681,-2298.286494,-3627.009116
1421.499035,-7105.977043,-766.095498,-2368.659014
1421.499346,-12583.501014,383.047749,-2368.659014
1421.499658,-14952.160028,1685.410096,-592.164754
1421.499969,-13989.892304,2068.457845,-0.000000
1421.500281,-10362.883188,1225.752797,-1258.350101
1421.500592,-7179.997637,229.828649,-3775.050304
1421.500904,-4885.359217,0.000000,-4885.359217
1421.501215,-4737.318029,-612.876398,-5181.441594
1421.501527,-7550.100608,-306.438199,-4071.132681
1421.501838,-13397.727550,229.828649,-1776.494261
1421.502150,-17764.942608,306.438199,-0.000000
1421.502461,-17616.901420,-1302.362347,1332.370696
1421.502773,-13175.665768,-766.095498,1406.391290
1421.503084,-7772.162391,-919.314598,-814.226536
1421.503396,-4811.338623,-1991.848295,-3034.844362
1421.503707,-3404.947333,-2451.505594,-4515.256246
1421.504019,-3034.844362,-1915.238745,-3997.112087
1421.504330,-5625.565159,-459.657299,-2590.720797
1421.504642,-11621.233289,229.828649,-444.123565
1421.504953,-15692.365970,-766.095498,1258.350101
1421.505265,-16580.613101,-229.828649,2812.782580
1421.505576,-14582.057057,-383.047749,3404.947333
1421.505888,-10732.986159,-995.924147,1184.329507
1421.506199,-6735.874072,-1378.971896,-370.102971
1421.506511,-4367.215058,-919.314598,-2294.638420
1421.506823,-2516.700203,459.657299,-1480.411884
1421.507134,-4589.276840,2068.457845,-1110.308913
1421.507446,-8882.471304,2528.115143,962.267725
1421.507757,-12213.398043,2145.067394,3256.906145
1421.508069,-11621.233289,1302.362347,4737.318029
1421.508380,-9030.512492,459.657299,4737.318029
1421.508692,-7105.977043,-995.924147,2738.761985
1421.509003,-5921.647536,-1915.238745,1036.288319
1421.509315,-5033.400406,-1991.848295,222.061783
1421.509626,-5181.441594,-306.438199,1258.350101
1421.509938,-8290.306550,383.047749,2442.679609
1421.510249,-12361.439231,76.609550,4145.153275
1421.510561,-13545.768739,-919.314598,6069.688724
1421.510872,-9992.780217,-229.828649,5699.585753
1421.511184,-5255.462188,306.438199,3923.091493
1421.511495,-2664.741391,383.047749,1480.411884
1421.511807,-3404.947333,536.266849,148.041188
1421.512118,-4737.318029,1072.533697,370.102971
1421.512430,-6365.771101,919.314598,2442.679609
1421.512741,-10955.047942,689.485948,2960.823768
1421.513053,-14434.015869,536.266849,4293.194464
1421.513364,-14434.015869,689.485948,4663.297435
1421.513676,-11029.068536,-229.828649,4515.256246
1421.513987,-6735.874072,-919.314598,2812.782580
1421.514299,-4589.276840,-1225.752797,370.102971
1421.514610,-3256.906145,-383.047749,-814.226536
1421.514922,-4145.153275,-459.657299,-1110.308913
1421.515233,-5699.585753,995.924147,-666.185348
1421.515545,-8734.430116,1915.238745,-814.226536
1421.515857,-12361.439231,919.314598,-74.020594
1421.516168,-12583.501014,-459.657299,1184.329507
1421.516480,-11695.253884,-842.705048,1702.473667
1421.516791,-9770.718434,-1455.581446,1184.329507
1421.517103,-8660.409521,-2528.115143,-1110.308913
1421.517414,-8068.244768,-2451.505594,-2072.576638
1421.517726,-6957.935855,-1991.848295,-2738.761985
1421.518037,-7846.182985,1149.143247,-1998.556043
1421.518349,-11991.336260,1838.629195,-1110.308913
1421.518660,-15692.365970,766.095498,-74.020594
1421.518972,-15322.262999,1302.362347,518.144159
1421.519283,-11547.212695,1991.848295,-962.267725
1421.519595,-6587.832884,612.876398,-2294.638420
1421.519906,-4515.256246,-1378.971896,-4885.359217
1421.520218,-3775.050304,-2298.286494,-5773.606348
1421.520529,-5033.400406,-1072.533697,-5107.421000
1421.520841,-8956.491898,-536.266849,-2146.597232
1421.521152,-14508.036463,-459.657299,370.102971
1421.521464,-18283.086767,-612.876398,2516.700203
1421.521775,-16358.551318,-1838.629195,2886.803174
1421.522087,-11473.192101,-1455.581446,1332.370696
1421.522398,-7254.018232,-459.657299,-2072.576638
1421.522710,-3552.988522,383.047749,-5255.462188
1421.523021,-814.226536,383.047749,-6291.750507
1421.523333,-3182.885551,0.000000,-5847.626942
1421.523644,-8068.244768,689.485948,-2590.720797
1421.523956,-13989.892304,612.876398,-0.000000
1421.524267,-17838.963202,536.266849,3404.947333
1421.524579,-17616.901420,76.609550,4737.318029
1421.524891,-13027.624579,-995.924147,3478.967927
1421.525202,-7105.977043,-2145.067394,370.102971
1421.525514,-3923.091493,-1991.848295,-1702.473667
1421.525825,-1110.308913,-766.095498,-3330.926739
1421.526137,-1480.411884,1149.143247,-3404.947333
1421.526448,-5329.482782,2528.115143,-2368.659014
1421.526760,-11769.274478,2528.115143,888.247130
1421.527071,-14582.057057,919.314598,4219.173869
1421.527383,-13767.830521,0.000000,5181.441594
1421.527694,-9992.780217,-383.047749,3182.885551
1421.528006,-6513.812290,-995.924147,888.247130
1421.528317,-4959.379811,-1915.238745,-296.082377
1421.528629,-4071.132681,-1302.362347,-370.102971
1421.528940,-6513.812290,-1072.533697,962.267725
1421.529252,-10732.986159,-919.314598,2368.659014
1421.529563,-14434.015869,383.047749,4145.153275
1421.529875,-14804.118840,1378.971896,5033.400406
1421.530186,-11325.150913,306.438199,4885.359217
1421.530498,-7772.162391,-842.705048,3627.009116
1421.530809,-6143.709319,-1608.800546,1924.535449
1421.531121,-4145.153275,-766.095498,666.185348
1421.531432,-3182.885551,-459.657299,-444.123565
1421.531744,-6069.688724,689.485948,1258.350101
1421.532055,-9770.718434,1225.752797,2072.576638
1421.532367,-13323.706956,995.924147,4219.173869
1421.532678,-14952.160028,459.657299,6661.853478
1421.532990,-13619.789333,766.095498,7476.080014
1421.533301,-9548.656652,-612.876398,5625.565159
1421.533613,-5847.626942,-2681.334243,2072.576638
1421.533925,-1036.288319,-1378.971896,-814.226536
1421.534236,888.247130,1455.581446,-1850.514855
1421.534548,-2294.638420,2068.457845,-518.144159
1421.534859,-9326.594869,1532.190996,740.205942
1421.535171,-15322.262999,536.266849,4071.132681
1421.535482,-16580.613101,-306.438199,7179.997637
1421.535794,-11473.192101,-766.095498,7328.038826
1421.536105,-6661.853478,-2068.457845,3330.926739
1421.536417,-4589.276840,-2528.115143,-370.102971
1421.536728,-1554.432478,-919.314598,-2738.761985
1421.537040,-1924.535449,1455.581446,-3478.967927
1421.537351,-5551.544565,2911.162892,-1924.535449
1421.537663,-11547.212695,2911.162892,-1036.288319
1421.537974,-15322.262999,2374.896044,1406.391290
1421.538286,-13915.871710,1915.238745,2146.597232
1421.538597,-9474.636058,612.876398,740.205942
1421.538909,-5255.462188,-306.438199,-1998.556043
1421.539220,-4219.173869,-229.828649,-4293.194464
1421.539532,-4071.132681,-919.314598,-4219.173869
1421.539843,-7031.956449,-1149.143247,-3182.885551
1421.540155,-12805.562797,0.000000,-1554.432478
1421.540466,-17246.798449,766.095498,222.061783
1421.540778,-17912.983796,306.438199,1924.535449
1421.541089,-14211.954086,-536.266849,962.267725
1421.541401,-9178.553681,-2374.896044,-0.000000
1421.541712,-5773.606348,-1762.019645,-3182.885551
1421.542024,-4071.132681,-2145.067394,-4145.153275
1421.542336,-4737.318029,-919.314598,-4293.194464
1421.542647,-8808.450710,459.657299,-3552.988522
1421.542959,-12287.418637,842.705048,-1998.556043
1421.543270,-14730.098246,-153.219100,-296.082377
1421.543582,-15100.201217,229.828649,1332.370696
1421.543893,-13101.645173,-383.047749,1480.411884
1421.544205,-9178.553681,-1149.143247,-222.061783
1421.544516,-7254.018232,-1532.190996,-1702.473667
1421.544828,-7105.977043,-1762.019645,-2516.700203
1421.545139,-5477.523971,-995.924147,-2368.659014
1421.545451,-6661.853478,383.047749,-2738.761985
1421.545762,-9474.636058,1685.410096,-296.082377
1421.546074,-13471.748144,1072.533697,1036.288319
1421.546385,-13693.809927,306.438199,2738.761985
1421.546697,-10732.986159,306.438199,3627.009116
1421.547008,-7846.182985,-1685.410096,2812.782580
1421.547320,-7179.997637,-2834.553343,1258.350101
1421.547631,-6069.688724,-2221.676944,666.185348
1421.547943,-4811.338623,0.000000,-222.061783
1421.548254,-6587.832884,459.657299,222.061783
1421.548566,-9844.739029,1455.581446,1480.411884
1421.548877,-12435.459826,919.314598,2664.741391
1421.549189,-11399.171507,689.485948,3775.050304
1421.549500,-8660.409521,689.485948,3478.967927
1421.549812,-5995.668130,689.485948,2146.597232
1421.550123,-4737.318029,-153.219100,592.164754
1421.550435,-3182.885551,-306.438199,518.144159
1421.550746,-3108.864956,383.047749,1258.350101
1421.551058,-7105.977043,1072.533697,2146.597232
1421.551370,-11473.192101,1149.143247,3330.926739
1421.551681,-14730.098246,1532.190996,4811.338623
1421.551993,-14952.160028,2221.676944,6513.812290
1421.552304,-12287.418637,2145.067394,6069.688724
1421.552616,-9474.636058,-689.485948,4811.338623
1421.552927,-5107.421000,-3140.991542,1998.556043
1421.553239,-666.185348,-2145.067394,-1332.370696
1421.553550,1332.370696,536.266849,-2368.659014
1421.553862,-3552.988522,3140.991542,-962.267725
1421.554173,-11843.295072,1302.362347,1628.453072
1421.554485,-16358.551318,-1072.533697,4811.338623
1421.554796,-15988.448347,-2221.676944,5773.606348
1421.555108,-11917.315666,-1072.533697,4589.276840
1421.555419,-7624.121203,229.828649,1258.350101
1421.555731,-5477.523971,-689.485948,-1258.350101
1421.556042,-3997.112087,-1149.143247,-1924.535449
1421.556354,-5107.421000,-383.047749,-1924.535449
1421.556665,-9030.512492,1608.800546,-0.000000
1421.556977,-13101.645173,2528.115143,962.267725
1421.557288,-14359.995275,1838.629195,2146.597232
1421.557600,-11769.274478,383.047749,1554.432478
1421.557911,-7328.038826,153.219100,518.144159
1421.558223,-4885.359217,-306.438199,-1332.370696
1421.558534,-4737.318029,-1608.800546,-2368.659014
1421.558846,-5773.606348,-766.095498,-2590.720797
1421.559157,-7698.141797,229.828649,-2220.617826
1421.559469,-11473.192101,1455.581446,-888.247130
1421.559780,-15174.221811,1532.190996,888.247130
1421.560092,-14656.077652,612.876398,2368.659014
1421.560403,-11251.130318,-153.219100,1628.453072
1421.560715,-7550.100608,-1685.410096,148.041188
1421.561026,-5625.565159,-2145.067394,-2738.761985
1421.561338,-2960.823768,-1225.752797,-3923.091493
1421.561649,-2146.597232,-306.438199,-4515.256246
1421.561961,-6291.750507,-383.047749,-3108.864956
1421.562272,-13175.665768,-919.314598,-888.247130
1421.562584,-17764.942608,-766.095498,1702.473667
1421.562895,-16802.674883,153.219100,4441.235652
1421.563207,-14063.912898,76.609550,4219.173869
1421.563518,-10140.821405,-2068.457845,2294.638420
1421.563830,-6439.791695,-3677.258390,-666.185348
1421.564141,-2442.679609,-1685.410096,-3923.091493
1421.564453,-1628.453072,1225.752797,-4441.235652
1421.564764,-4515.256246,2374.896044,-3701.029710
1421.565076,-9548.656652,2221.676944,-2294.638420
1421.565387,-14063.912898,1455.581446,370.102971
1421.565699,-14656.077652,76.609550,2072.576638
1421.566010,-12213.398043,1378.971896,2072.576638
1421.566322,-9178.553681,995.924147,-0.000000
1421.566633,-7624.121203,-229.828649,-1998.556043
1421.566945,-4663.297435,-1608.800546,-2368.659014
1421.567256,-3627.009116,-766.095498,-2812.782580
1421.567568,-7179.997637,612.876398,-1184.329507
1421.567879,-12879.583391,919.314598,666.185348
1421.568191,-14952.160028,-153.219100,2886.803174
1421.568502,-13323.706956,459.657299,3923.091493
1421.568814,-9548.656652,-842.705048,2368.659014
1421.569125,-6661.853478,-1685.410096,-0.000000
1421.569437,-4589.276840,-1838.629195,-1628.453072
1421.569748,-4219.173869,76.609550,-2294.638420
1421.570060,-5551.544565,995.924147,-1924.535449
1421.570371,-9326.594869,995.924147,-222.061783
1421.570683,-14063.912898,1302.362347,2146.597232
1421.570994,-14878.139434,842.705048,4145.153275
1421.571306,-12805.562797,0.000000,4589.276840
1421.571617,-9474.636058,-612.876398,3034.844362
1421.571929,-6365.771101,-1072.533697,666.185348
1421.572240,-3997.112087,-1685.410096,-1110.308913
1421.572552,-2738.761985,-612.876398,-962.267725
1421.572863,-5625.565159,153.219100,-370.102971
1421.573175,-10881.027347,536.266849,2072.576638
1421.573486,-14730.098246,-919.314598,4589.276840
1421.573798,-13027.624579,-2528.115143,4737.318029
1421.574109,-8216.285956,-2221.676944,3478.967927
1421.574421,-4737.318029,-1149.143247,2664.741391
1421.574732,-6439.791695,-1608.800546,1406.391290
1421.575044,-9030.512492,-1532.190996,740.205942
1421.575355,-9326.594869,766.095498,1480.411884
1421.575667,-9992.780217,2757.943793,2368.659014
1421.575978,-9918.759623,2451.505594,2072.576638
1421.576290,-9548.656652,2298.286494,2294.638420
1421.576601,-7402.059420,2068.457845,1036.288319
1421.576913,-5033.400406,1838.629195,1036.288319
1421.577224,-4367.215058,919.314598,370.102971
1421.577536,-5847.626942,-153.219100,-0.000000
1421.577847,-7476.080014,-153.219100,-74.020594
1421.578159,-7920.203579,0.000000,-0.000000
1421.578470,-8808.450710,919.314598,-0.000000
1421.578782,-10436.903782,766.095498,592.164754
1421.579093,-11325.150913,76.609550,1702.473667
1421.579405,-10288.862594,-766.095498,2146.597232
1421.579716,-8068.244768,-1225.752797,1702.473667
1421.580028,-7105.977043,-1608.800546,-0.000000
1421.580339,-6439.791695,-1225.752797,-2368.659014
1421.580651,-6217.729913,-383.047749,-1702.473667
1421.580962,-6661.853478,995.924147,-2812.782580
1421.581274,-9104.533087,1532.190996,-1776.494261
1421.581585,-13397.727550,1378.971896,-814.226536
1421.581897,-15248.242405,689.485948,1406.391290
1421.582208,-14063.912898,76.609550,2368.659014
1421.582520,-11177.109724,-306.438199,1258.350101
1421.582831,-8364.327145,-1149.143247,-1554.432478
1421.583143,-6143.709319,-842.705048,-3849.070898
1421.583454,-3404.947333,-153.219100,-3923.091493
1421.583766,-4515.256246,-306.438199,-3997.112087
1421.584077,-9178.553681,-306.438199,-3108.864956
1421.584389,-14063.912898,0.000000,-0.000000
1421.584700,-16654.633695,-1225.752797,1850.514855
1421.585012,-15618.345376,-1838.629195,3256.906145
1421.585323,-11991.336260,-3217.601092,888.247130
1421.585635,-7698.141797,-3140.991542,-1850.514855
1421.585946,-4441.235652,-1762.019645,-3034.844362
1421.586258,-3478.967927,-766.095498,-3330.926739
1421.586569,-6143.709319,-229.828649,-2664.741391
1421.586881,-11177.109724,536.266849,-444.123565
1421.587192,-15470.304188,842.705048,1924.535449
1421.587504,-16062.468941,766.095498,3108.864956
1421.587815,-13175.665768,1532.190996,3627.009116
1421.588127,-8216.285956,229.828649,-0.000000
1421.588438,-3701.029710,-766.095498,-3108.864956
1421.588750,-666.185348,-842.705048,-3997.112087
1421.589061,0.000000,0.000000,-3330.926739
1421.589373,-4811.338623,0.000000,-1702.473667
1421.589684,-12361.439231,-306.438199,1184.329507
1421.589996,-16432.571912,459.657299,4071.132681
1421.590307,-16580.613101,459.657299,5625.565159
1421.590619,-11769.274478,0.000000,5625.565159
1421.590930,-7254.018232,-1378.971896,3108.864956
1421.591242,-5033.400406,-2145.067394,-0.000000
1421.591553,-2220.617826,0.000000,-1480.411884
1421.591865,-2516.700203,2298.286494,-1850.514855
1421.592176,-5551.544565,2298.286494,-0.000000
1421.592488,-10881.027347,536.266849,1554.432478
1421.592799,-13471.748144,0.000000,3478.967927
1421.593111,-12953.603985,229.828649,4441.235652
1421.593422,-9770.718434,-383.047749,3701.029710
1421.593734,-7179.997637,-995.924147,1924.535449
1421.594045,-6661.853478,-612.876398,222.061783
1421.594357,-6217.729913,-766.095498,-148.041188
1421.594668,-6217.729913,76.609550,296.082377
1421.594980,-8586.388927,229.828649,666.185348
1421.595291,-10584.944971,766.095498,1036.288319
1421.595603,-10214.842000,1149.143247,2368.659014
1421.595914,-9696.697840,0.000000,3404.947333
1421.596226,-9474.636058,-1608.800546,2812.782580
1421.596537,-8438.347739,-2374.896044,1406.391290
1421.596849,-6957.935855,-2221.676944,-0.000000
1421.597160,-6069.688724,-766.095498,-1628.453072
1421.597472,-6735.874072,1225.752797,-1110.308913
1421.597783,-8956.491898,1608.800546,-814.226536
1421.598095,-12361.439231,995.924147,444.123565
1421.598406,-13989.892304,689.485948,3478.967927
1421.598718,-13471.748144,1072.533697,3552.988522
1421.599029,-10807.006753,383.047749,1850.514855
1421.599341,-7698.141797,-383.047749,-888.247130
1421.599652,-4441.235652,-383.047749,-2738.761985
1421.599964,-2886.803174,76.609550,-3627.009116
1421.600275,-4811.338623,919.314598,-2664.741391
1421.600587,-9992.780217,383.047749,-740.205942
1421.600898,-15322.262999,-536.266849,2220.617826
1421.601210,-17468.860231,-689.485948,5255.462188
1421.601521,-14656.077652,-766.095498,5329.482782
1421.601833,-9548.656652,-1762.019645,3404.947333
1421.602144,-5773.606348,-2604.724693,296.082377
1421.602456,-2516.700203,-2068.457845,-1998.556043
1421.602767,-1554.432478,0.000000,-3108.864956
1421.603079,-4293.194464,1532.190996,-1554.432478
1421.603390,-9474.636058,1532.190996,-444.123565
1421.603702,-14582.057057,306.438199,2886.803174
1421.604013,-15766.386565,-229.828649,3997.112087
1421.604325,-12361.439231,0.000000,3478.967927
1421.604636,-8290.306550,689.485948,1776.494261
1421.604948,-5255.462188,-1072.533697,-74.020594
1421.605259,-2368.659014,-842.705048,-1258.350101
1421.605571,-2368.659014,-766.095498,-2294.638420
1421.605882,-6661.853478,306.438199,-740.205942
1421.606194,-10955.047942,1838.629195,814.226536
1421.606505,-12805.562797,2145.067394,2072.576638
1421.606817,-12435.459826,766.095498,3256.906145
1421.607128,-9178.553681,-689.485948,2516.700203
1421.607440,-6217.729913,-2374.896044,666.185348
1421.607751,-4885.359217,-1685.410096,-1554.432478
1421.608063,-4515.256246,-536.266849,-2294.638420
1421.608374,-6957.935855,-383.047749,-2442.679609
1421.608686,-9474.636058,995.924147,-1184.329507
1421.608997,-13323.706956,766.095498,-222.061783
1421.609309,-15840.407159,766.095498,1332.370696
1421.609620,-13989.892304,919.314598,2294.638420
1421.609932,-10881.027347,1072.533697,1184.329507
1421.610243,-7772.162391,-229.828649,-666.185348
1421.610555,-5921.647536,-1072.533697,-2220.617826
1421.610866,-4959.379811,-1072.533697,-2368.659014
1421.611178,-6439.791695,76.609550,-2368.659014
1421.611489,-8808.450710,0.000000,-1332.370696
1421.611801,-13323.706956,76.609550,-814.226536
1421.612112,-15174.221811,-153.219100,1850.514855
1421.612424,-14730.098246,-383.047749,3330.926739
1421.612735,-12657.521608,-1149.143247,3034.844362
1421.613047,-10214.842000,-2374.896044,1406.391290
1421.613358,-6661.853478,-2604.724693,-444.123565
1421.613670,-3182.885551,-1302.362347,-3034.844362
1421.613981,-1850.514855,1225.752797,-3849.070898
1421.614293,-5699.585753,2987.772442,-1554.432478
1421.614604,-12731.542202,2451.505594,1036.288319
1421.614916,-16728.654289,1455.581446,4885.359217
1421.615227,-16580.613101,76.609550,5181.441594
1421.615539,-11917.315666,-459.657299,4663.297435
1421.615850,-7105.977043,-919.314598,1332.370696
1421.616162,-1554.432478,-1378.971896,-814.226536
1421.616473,1554.432478,-1149.143247,-3034.844362
1421.616785,-1480.411884,0.000000,-2368.659014
1421.617096,-7920.203579,153.219100,1776.494261
1421.617408,-14582.057057,689.485948,4515.256246
1421.617719,-16284.530724,229.828649,7031.956449
1421.618031,-12805.562797,-229.828649,5995.668130
1421.618342,-6957.935855,-689.485948,3108.864956
1421.618654,-1850.514855,-536.266849,-0.000000
1421.618965,1036.288319,383.047749,-2146.597232
1421.619277,-740.205942,0.000000,-2664.741391
1421.619588,-5107.421000,1685.410096,-296.082377
1421.619900,-11251.130318,2604.724693,1184.329507
1421.620211,-16802.674883,1838.629195,5033.400406
1421.620523,-16876.695478,1378.971896,6069.688724
1421.620834,-12879.583391,1378.971896,4293.194464
1421.621146,-7624.121203,1072.533697,1554.432478
1421.621457,-4589.276840,0.000000,-518.144159
1421.621769,-2368.659014,-306.438199,-1850.514855
1421.622080,-3478.967927,459.657299,-2590.720797
1421.622392,-7772.162391,1455.581446,-1258.350101
1421.622703,-12213.398043,1072.533697,222.061783
1421.623015,-14952.160028,153.219100,2960.823768
1421.623326,-14656.077652,-306.438199,4071.132681
1421.623638,-11547.212695,-2068.457845,3478.967927
1421.623949,-8290.306550,-3524.039291,1184.329507
1421.624261,-6365.771101,-2757.943793,-148.041188
1421.624572,-5995.668130,-1302.362347,-1480.411884
1421.624884,-6735.874072,-995.924147,-2516.700203
1421.625195,-9252.574275,536.266849,-1332.370696
1421.625507,-12953.603985,1455.581446,-370.102971
1421.625818,-13619.789333,1072.533697,1702.473667
1421.626130,-12805.562797,306.438199,2146.597232
1421.626441,-9622.677246,-995.924147,1258.350101
1421.626753,-7476.080014,-1149.143247,-888.247130
1421.627064,-5699.585753,-919.314598,-1702.473667
1421.627376,-5329.482782,0.000000,-2368.659014
1421.627687,-7105.977043,-229.828649,-2516.700203
1421.627999,-9696.697840,-153.219100,-222.061783
1421.628310,-12435.459826,-306.438199,740.205942
1421.628622,-13693.809927,536.266849,2368.659014
1421.628933,-11325.150913,-1072.533697,2368.659014
1421.629245,-8290.306550,-1608.800546,1110.308913
1421.629556,-5403.503377,-1991.848295,-1480.411884
1421.629868,-2590.720797,-1225.752797,-2960.823768
1421.630179,-2516.700203,-383.047749,-3701.029710
1421.630491,-4663.297435,995.924147,-2442.679609
1421.630802,-9326.594869,1378.971896,-1332.370696
1421.631114,-14730.098246,995.924147,1406.391290
1421.631425,-17764.942608,2298.286494,4811.338623
