#time,accel_x,accel_y,accel_z
1418.064931,-8660.409521,306.438199,666.185348
1418.065242,-9252.574275,0.000000,148.041188
1418.065553,-8882.471304,0.000000,148.041188
1418.065865,-8586.388927,0.000000,518.144159
1418.066176,-8882.471304,0.000000,518.144159
1418.066487,-9030.512492,-229.828649,666.185348
1418.066799,-8956.491898,-229.828649,518.144159
1418.067110,-8882.471304,-459.657299,518.144159
1418.067421,-8808.450710,-76.609550,444.123565
1418.067732,-8660.409521,-153.219100,518.144159
1418.068044,-8808.450710,383.047749,740.205942
1418.068355,-8882.471304,0.000000,148.041188
1418.068666,-8956.491898,0.000000,444.123565
1418.068978,-8956.491898,0.000000,518.144159
1418.069289,-9178.553681,-153.219100,370.102971
1418.069600,-8956.491898,0.000000,444.123565
1418.069912,-8882.471304,229.828649,592.164754
1418.070223,-9400.615463,76.609550,296.082377
1418.070534,-9030.512492,689.485948,148.041188
1418.070846,-8956.491898,153.219100,592.164754
1418.071157,-8808.450710,0.000000,740.205942
1418.071468,-8808.450710,-229.828649,814.226536
1418.071780,-8956.491898,0.000000,592.164754
1418.072091,-8882.471304,536.266849,444.123565
1418.072402,-8808.450710,-689.485948,222.061783
1418.072714,-8808.450710,0.000000,592.164754
1418.073025,-8956.491898,-306.438199,296.082377
1418.073336,-8882.471304,153.219100,296.082377
1418.073648,-9178.553681,76.609550,666.185348
1418.073959,-8956.491898,-229.828649,518.144159
1418.074270,-8956.491898,-153.219100,370.102971
1418.074581,-8586.388927,-153.219100,518.144159
1418.074893,-8660.409521,229.828649,666.185348
1418.075204,-8956.491898,-536.266849,518.144159
1418.075515,-8290.306550,-229.828649,518.144159
1418.075827,-8956.491898,-229.828649,740.205942
1418.076138,-9030.512492,-153.219100,444.123565
1418.076449,-8956.491898,0.000000,814.226536
1418.076761,-8956.491898,0.000000,518.144159
1418.077072,-8956.491898,0.000000,296.082377
1418.077383,-9030.512492,153.219100,-0.000000
1418.077695,-8586.388927,0.000000,592.164754
1418.078006,-8734.430116,0.000000,666.185348
1418.078317,-9030.512492,0.000000,592.164754
1418.078629,-9178.553681,0.000000,518.144159
1418.078940,-9178.553681,76.609550,444.123565
1418.079251,-8956.491898,153.219100,592.164754
1418.079563,-8660.409521,0.000000,666.185348
1418.079874,-8808.450710,0.000000,370.102971
1418.080185,-9104.533087,76.609550,518.144159
1418.080497,-8808.450710,153.219100,518.144159
1418.080808,-8882.471304,0.000000,518.144159
1418.081119,-9178.553681,0.000000,592.164754
1418.081430,-9030.512492,0.000000,370.102971
1418.081742,-8956.491898,0.000000,592.164754
1418.082053,-8956.491898,229.828649,592.164754
1418.082364,-8808.450710,306.438199,444.123565
1418.082676,-8364.327145,-229.828649,444.123565
1418.082987,-9326.594869,76.609550,222.061783
1418.083298,-9252.574275,-153.219100,370.102971
1418.083610,-9104.533087,0.000000,592.164754
1418.083921,-9030.512492,0.000000,592.164754
1418.084232,-8882.471304,-383.047749,740.205942
1418.084544,-8808.450710,0.000000,148.041188
1418.084855,-8882.471304,306.438199,814.226536
1418.085166,-8586.388927,-153.219100,666.185348
1418.085478,-8956.491898,-153.219100,740.205942
1418.085789,-9030.512492,0.000000,814.226536
1418.086100,-9104.533087,0.000000,518.144159
1418.086412,-8882.471304,0.000000,592.164754
1418.086723,-8364.327145,-612.876398,370.102971
1418.087034,-8734.430116,-536.266849,518.144159
1418.087346,-8956.491898,0.000000,370.102971
1418.087657,-8882.471304,-306.438199,296.082377
1418.087968,-9178.553681,-306.438199,592.164754
1418.088279,-9030.512492,0.000000,444.123565
1418.088591,-9030.512492,0.000000,444.123565
1418.088902,-9030.512492,76.609550,592.164754
1418.089213,-8882.471304,-153.219100,-0.000000
1418.089525,-8808.450710,76.609550,444.123565
1418.089836,-8734.430116,-306.438199,518.144159
1418.090147,-8734.430116,-306.438199,370.102971
1418.090459,-8882.471304,0.000000,666.185348
1418.090770,-8808.450710,0.000000,592.164754
1418.091081,-8956.491898,0.000000,444.123565
1418.091393,-8956.491898,0.000000,370.102971
1418.091704,-8956.491898,306.438199,370.102971
1418.092015,-8660.409521,0.000000,518.144159
1418.092327,-9178.553681,0.000000,592.164754
1418.092638,-8808.450710,0.000000,888.247130
1418.092949,-8956.491898,0.000000,444.123565
1418.093261,-9104.533087,76.609550,518.144159
1418.093572,-8882.471304,0.000000,592.164754
1418.093883,-8882.471304,-229.828649,370.102971
1418.094195,-9030.512492,842.705048,666.185348
1418.094506,-8808.450710,76.609550,222.061783
1418.094817,-8438.347739,76.609550,740.205942
1418.095129,-8956.491898,0.000000,444.123565
1418.095440,-9104.533087,0.000000,370.102971
1418.095751,-8956.491898,-153.219100,518.144159
1418.096062,-8882.471304,76.609550,666.185348
1418.096374,-9178.553681,153.219100,222.061783
1418.096685,-8808.450710,0.000000,666.185348
1418.096996,-8882.471304,76.609550,592.164754
1418.097308,-8660.409521,0.000000,370.102971
1418.097619,-9030.512492,0.000000,592.164754
1418.097930,-9030.512492,-153.219100,444.123565
1418.098242,-8956.491898,0.000000,444.123565
1418.098553,-9030.512492,153.219100,370.102971
1418.098864,-8956.491898,-229.828649,222.061783
1418.099176,-8882.471304,536.266849,222.061783
1418.099487,-8808.450710,0.000000,518.144159
1418.099798,-8586.388927,-306.438199,592.164754
1418.100110,-8956.491898,0.000000,592.164754
1418.100421,-9178.553681,0.000000,518.144159
1418.100732,-10955.047942,383.047749,222.061783
1418.101044,-11473.192101,2834.553343,370.102971
1418.101355,-8512.368333,4213.525239,888.247130
1418.101666,-7476.080014,4060.306139,592.164754
1418.101978,-6439.791695,842.705048,1332.370696
1418.102289,-7031.956449,-1225.752797,-0.000000
1418.102600,-7550.100608,-1225.752797,-74.020594
1418.102911,-7476.080014,-306.438199,-296.082377
1418.103223,-11621.233289,-1072.533697,-1332.370696
1418.103534,-13027.624579,76.609550,-518.144159
1418.103845,-10362.883188,1072.533697,518.144159
1418.104157,-9252.574275,383.047749,1258.350101
1418.104468,-9474.636058,-459.657299,3182.885551
1418.104779,-11843.295072,306.438199,1628.453072
1418.105091,-8364.327145,4443.353888,2442.679609
1418.105402,-4737.318029,5286.058936,1998.556043
1418.105713,-7031.956449,3447.429741,740.205942
1418.106025,-7179.997637,3140.991542,-666.185348
1418.106336,-7179.997637,3600.648841,-2590.720797
1418.106647,-8882.471304,3830.477490,-1776.494261
1418.106959,-8808.450710,3524.039291,-0.000000
1418.107270,-12953.603985,2068.457845,-1332.370696
1418.107581,-14285.974681,-995.924147,962.267725
1418.107893,-8586.388927,-1072.533697,2664.741391
1418.108204,-10140.821405,536.266849,888.247130
1418.108515,-8438.347739,4903.011187,2664.741391
1418.108827,-7476.080014,5822.325785,1332.370696
1418.109138,-7328.038826,3294.210641,2072.576638
1418.109449,-5995.668130,4136.915689,2442.679609
1418.109760,-7698.141797,6665.030833,148.041188
1418.110072,-8068.244768,6588.421283,-1110.308913
1418.110383,-8956.491898,5132.839837,-1480.411884
1418.110694,-9696.697840,4826.401637,-1554.432478
1418.111006,-11177.109724,5439.278036,-1332.370696
1418.111317,-12139.377449,5975.544884,-148.041188
1418.111628,-11843.295072,4749.792088,1332.370696
1418.111940,-10584.944971,3677.258390,2368.659014
1418.112251,-9030.512492,4903.011187,2738.761985
1418.112562,-6217.729913,5132.839837,1332.370696
1418.112874,-5181.441594,6205.373534,-0.000000
1418.113185,-5255.462188,5286.058936,740.205942
1418.113496,-5181.441594,5745.716235,-222.061783
1418.113808,-6883.915261,4826.401637,-814.226536
1418.114119,-8216.285956,4290.134789,-1110.308913
1418.114430,-9844.739029,3447.429741,-888.247130
1418.114742,-10658.965565,2145.067394,740.205942
1418.115053,-10658.965565,842.705048,666.185348
1418.115364,-10955.047942,-306.438199,1850.514855
1418.115676,-10732.986159,383.047749,1776.494261
1418.115987,-9548.656652,2987.772442,2590.720797
1418.116298,-8142.265362,3983.696590,1776.494261
1418.116609,-6883.915261,3907.087040,-0.000000
1418.116921,-5773.606348,3753.867940,-0.000000
1418.117232,-6291.750507,3524.039291,-740.205942
1418.117543,-6513.812290,3524.039291,-1036.288319
1418.117855,-7328.038826,1532.190996,-1258.350101
1418.118166,-9326.594869,-842.705048,-444.123565
1418.118477,-10807.006753,-2451.505594,-0.000000
1418.118789,-12435.459826,-2757.943793,1258.350101
1418.119100,-13397.727550,-2068.457845,1628.453072
1418.119411,-13101.645173,-995.924147,1702.473667
1418.119723,-12213.398043,842.705048,1406.391290
1418.120034,-11029.068536,2604.724693,296.082377
1418.120345,-8512.368333,4366.744339,-74.020594
1418.120657,-6069.688724,4903.011187,370.102971
1418.120968,-5773.606348,3983.696590,444.123565
1418.121279,-5995.668130,3907.087040,592.164754
1418.121591,-7624.121203,3064.381992,-148.041188
1418.121902,-9770.718434,2221.676944,-444.123565
1418.122213,-11769.274478,1378.971896,-370.102971
1418.122525,-13471.748144,229.828649,-666.185348
1418.122836,-14434.015869,-383.047749,-444.123565
1418.123147,-13989.892304,612.876398,518.144159
1418.123458,-12213.398043,2145.067394,1036.288319
1418.123770,-10140.821405,4060.306139,1776.494261
1418.124081,-7550.100608,4290.134789,1924.535449
1418.124392,-4515.256246,4903.011187,1702.473667
1418.124704,-2368.659014,5822.325785,592.164754
1418.125015,-1480.411884,6281.983084,-444.123565
1418.125326,-2886.803174,4290.134789,-1406.391290
1418.125638,-6069.688724,3294.210641,-1480.411884
1418.125949,-10436.903782,2528.115143,-1258.350101
1418.126260,-14137.933492,3294.210641,-148.041188
1418.126572,-15914.427753,3600.648841,2072.576638
1418.126883,-15470.304188,3217.601092,3108.864956
1418.127194,-12213.398043,2987.772442,3849.070898
1418.127506,-7698.141797,3140.991542,3034.844362
1418.127817,-3923.091493,4673.182538,1998.556043
1418.128128,-1184.329507,6052.154434,-74.020594
1418.128440,-1184.329507,7814.174080,-1776.494261
1418.128751,-2516.700203,7048.078582,-1924.535449
1418.129062,-5773.606348,4290.134789,-2072.576638
1418.129374,-8882.471304,2757.943793,-740.205942
1418.129685,-10436.903782,842.705048,222.061783
1418.129996,-12657.521608,-1532.190996,740.205942
1418.130308,-13323.706956,-3677.258390,2146.597232
1418.130619,-12435.459826,-2834.553343,2368.659014
1418.130930,-12879.583391,-1762.019645,962.267725
1418.131241,-11621.233289,1302.362347,1850.514855
1418.131553,-10436.903782,4596.572988,1850.514855
1418.131864,-8808.450710,6358.592633,2220.617826
1418.132175,-6143.709319,5898.935335,2442.679609
1418.132487,-7179.997637,3677.258390,592.164754
1418.132798,-5773.606348,2451.505594,-148.041188
1418.133109,-7254.018232,3524.039291,-3108.864956
1418.133421,-8956.491898,4519.963438,-2738.761985
1418.133732,-9844.739029,4136.915689,-3330.926739
1418.134043,-12805.562797,2911.162892,-1554.432478
1418.134355,-12435.459826,2068.457845,1184.329507
1418.134666,-12509.480420,612.876398,2294.638420
1418.134977,-13397.727550,1302.362347,2812.782580
1418.135289,-11547.212695,3983.696590,2516.700203
1418.135600,-9178.553681,6818.249932,962.267725
1418.135911,-7328.038826,7354.516781,222.061783
1418.136223,-6365.771101,5362.668486,-1110.308913
1418.136534,-5699.585753,3907.087040,-1332.370696
1418.136845,-7105.977043,2681.334243,-1110.308913
1418.137157,-8956.491898,2757.943793,-740.205942
1418.137468,-8586.388927,1762.019645,296.082377
1418.137779,-9030.512492,-153.219100,296.082377
1418.138090,-7105.977043,-2068.457845,2368.659014
1418.138402,-6513.812290,-2604.724693,1702.473667
1418.138713,-7994.224174,-153.219100,1110.308913
1418.139024,-9326.594869,4826.401637,518.144159
1418.139336,-10584.944971,8656.879127,-888.247130
1418.139647,-11325.150913,10418.898773,148.041188
1418.139958,-11103.089130,8886.707777,592.164754
1418.140270,-9474.636058,5975.544884,296.082377
1418.140581,-8512.368333,4060.306139,814.226536
1418.140892,-7402.059420,3830.477490,518.144159
1418.141204,-4959.379811,3524.039291,740.205942
1418.141515,-3034.844362,919.314598,1258.350101
1418.141826,-5699.585753,-2374.896044,1184.329507
1418.142138,-6513.812290,-2451.505594,1406.391290
1418.142449,-7476.080014,1149.143247,-962.267725
1418.142760,-11769.274478,5975.544884,-1258.350101
1418.143072,-12583.501014,7890.783629,-1332.370696
1418.143383,-13989.892304,6128.763984,296.082377
1418.143694,-14656.077652,2757.943793,3034.844362
1418.144006,-13101.645173,766.095498,3701.029710
1418.144317,-10955.047942,1991.848295,2960.823768
1418.144629,-8290.306550,3447.429741,2294.638420
1418.144940,-5107.421000,1378.971896,2368.659014
1418.145251,-2886.803174,-4213.525239,296.082377
1418.145563,-4441.235652,-7354.516781,-222.061783
1418.145874,-5181.441594,-2757.943793,-444.123565
1418.146186,-6735.874072,2911.162892,-1480.411884
1418.146497,-11103.089130,5822.325785,-888.247130
1418.146809,-14804.118840,4213.525239,518.144159
1418.147120,-17616.901420,2221.676944,2072.576638
1418.147432,-16876.695478,4443.353888,3256.906145
1418.147743,-12287.418637,8197.221829,3256.906145
1418.148054,-7402.059420,7201.297681,1258.350101
1418.148366,-3849.070898,1608.800546,-518.144159
1418.148677,-518.144159,-2604.724693,-888.247130
1418.148989,1406.391290,-2068.457845,-1258.350101
1418.149300,-962.267725,0.000000,-296.082377
1418.149612,-7179.997637,383.047749,-0.000000
1418.149923,-14211.954086,-2068.457845,370.102971
1418.150235,-17246.798449,-766.095498,444.123565
1418.150546,-16654.633695,2451.505594,1110.308913
1418.150857,-13545.768739,3677.258390,-0.000000
1418.151169,-11695.253884,1762.019645,-962.267725
1418.151480,-9844.739029,-1149.143247,-1554.432478
1418.151792,-5699.585753,229.828649,-2368.659014
1418.152103,-2960.823768,2451.505594,-592.164754
1418.152415,-2960.823768,2298.286494,1554.432478
1418.152726,-5847.626942,-1991.848295,3404.947333
1418.153038,-9104.533087,-4979.620737,3775.050304
1418.153349,-10436.903782,-1685.410096,3108.864956
1418.153660,-11399.171507,5209.449386,-444.123565
1418.153972,-11547.212695,8503.660028,-2220.617826
1418.154283,-11325.150913,5975.544884,-4737.318029
1418.154595,-10288.862594,3064.381992,-5107.421000
1418.154906,-7624.121203,4749.792088,-5033.400406
1418.155218,-9400.615463,5898.935335,-2072.576638
1418.155529,-12139.377449,3907.087040,962.267725
1418.155841,-12953.603985,-689.485948,3701.029710
1418.156152,-10807.006753,-4213.525239,6217.729913
1418.156464,-5107.421000,-3753.867940,6143.709319
1418.156775,-4071.132681,-3064.381992,3478.967927
1418.157086,-3997.112087,-4136.915689,-148.041188
1418.157398,-1998.556043,-3983.696590,-3404.947333
1418.157709,-5255.462188,-1455.581446,-3330.926739
1418.158021,-9030.512492,2604.724693,-2516.700203
1418.158332,-15544.324782,2604.724693,-0.000000
1418.158644,-18949.272115,-383.047749,3404.947333
1418.158955,-15248.242405,-1532.190996,4959.379811
1418.159267,-11769.274478,-842.705048,4441.235652
1418.159578,-7994.224174,383.047749,2812.782580
1418.159889,-4885.359217,-689.485948,370.102971
1418.160201,0.000000,-2145.067394,-1184.329507
1418.160512,2368.659014,-612.876398,296.082377
1418.160824,-2664.741391,-995.924147,-370.102971
1418.161135,-8882.471304,-1532.190996,1036.288319
1418.161447,-13175.665768,-1991.848295,1850.514855
1418.161758,-13249.686362,-2451.505594,3997.112087
1418.162070,-12361.439231,-3447.429741,2220.617826
1418.162381,-12287.418637,-4826.401637,-222.061783
1418.162692,-11177.109724,-4443.353888,-2368.659014
1418.163004,-7846.182985,-2757.943793,-2886.803174
1418.163315,-6291.750507,-612.876398,-962.267725
1418.163627,-9030.512492,-919.314598,1110.308913
1418.163938,-13101.645173,-1915.238745,2368.659014
1418.164250,-12435.459826,-1608.800546,4737.318029
1418.164561,-8956.491898,229.828649,4737.318029
1418.164873,-5625.565159,2451.505594,2886.803174
1418.165184,-4219.173869,2681.334243,-1702.473667
1418.165495,-5329.482782,1838.629195,-4589.276840
1418.165807,-6587.832884,2145.067394,-5477.523971
1418.166118,-8660.409521,4903.011187,-4515.256246
1418.166430,-14434.015869,5362.668486,-3330.926739
1418.166741,-18801.230927,2757.943793,-296.082377
1418.167053,-19319.375086,-766.095498,2664.741391
1418.167364,-14211.954086,-536.266849,4515.256246
1418.167676,-8068.244768,0.000000,4515.256246
1418.167987,-4219.173869,-2145.067394,3182.885551
1418.168298,-2590.720797,-2834.553343,814.226536
1418.168610,-518.144159,0.000000,-2368.659014
1418.168921,0.000000,4519.963438,-3701.029710
1418.169233,-5551.544565,5975.544884,-4071.132681
1418.169544,-13397.727550,3983.696590,-2590.720797
1418.169856,-16580.613101,2604.724693,814.226536
1418.170167,-15914.427753,1302.362347,2960.823768
1418.170479,-12583.501014,153.219100,4589.276840
1418.170790,-10214.842000,-2145.067394,2590.720797
1418.171102,-6365.771101,-3217.601092,-0.000000
1418.171413,-2072.576638,-1225.752797,-740.205942
1418.171724,296.082377,2451.505594,-1924.535449
1418.172036,-2960.823768,4290.134789,-1110.308913
1418.172347,-8734.430116,3064.381992,-444.123565
1418.172659,-11843.295072,383.047749,2960.823768
1418.172970,-11029.068536,-766.095498,4293.194464
1418.173282,-9252.574275,-919.314598,4293.194464
1418.173593,-8734.430116,-3294.210641,1110.308913
1418.173905,-7624.121203,-5286.058936,-0.000000
1418.174216,-6439.791695,-4443.353888,-1554.432478
1418.174527,-5625.565159,-2604.724693,-518.144159
1418.174839,-8586.388927,-766.095498,222.061783
1418.175150,-14137.933492,-4519.963438,2664.741391
1418.175462,-14656.077652,-4979.620737,5107.421000
1418.175773,-11991.336260,-2374.896044,5773.606348
1418.176085,-8438.347739,-229.828649,4145.153275
1418.176396,-6291.750507,-1072.533697,740.205942
1418.176708,-4737.318029,-2681.334243,-2812.782580
1418.177019,-2146.597232,-842.705048,-3404.947333
1418.177330,-2960.823768,1072.533697,-3923.091493
1418.177642,-9696.697840,2068.457845,-3108.864956
1418.177953,-17098.757260,766.095498,814.226536
1418.178265,-18579.169144,-2145.067394,4145.153275
1418.178576,-17024.736666,-3830.477490,5625.565159
1418.178888,-13693.809927,-2374.896044,5477.523971
1418.179199,-10214.842000,-2221.676944,1554.432478
1418.179511,-6735.874072,-2911.162892,-814.226536
1418.179822,-2738.761985,-612.876398,-2960.823768
1418.180133,-2664.741391,2068.457845,-3701.029710
1418.180445,-7105.977043,3753.867940,-3701.029710
1418.180756,-12509.480420,2681.334243,-1258.350101
1418.181068,-14285.974681,3370.820191,666.185348
1418.181379,-12287.418637,3830.477490,2590.720797
1418.181691,-10881.027347,2604.724693,1924.535449
1418.182002,-9696.697840,306.438199,222.061783
1418.182314,-7698.141797,0.000000,-1036.288319
1418.182625,-4515.256246,2681.334243,-1702.473667
1418.182936,-4367.215058,4443.353888,-2146.597232
1418.183248,-8882.471304,3907.087040,-2368.659014
1418.183559,-11473.192101,3064.381992,-74.020594
1418.183871,-10955.047942,2834.553343,1184.329507
1418.184182,-8216.285956,2374.896044,1702.473667
1418.184494,-7254.018232,-153.219100,592.164754
1418.184805,-6513.812290,-2834.553343,-296.082377
1418.185117,-4293.194464,-2911.162892,-666.185348
1418.185428,-3997.112087,-2221.676944,-740.205942
1418.185740,-5181.441594,-919.314598,888.247130
1418.186051,-10140.821405,-229.828649,518.144159
1418.186362,-13101.645173,-1455.581446,3552.988522
1418.186674,-12805.562797,-306.438199,4737.318029
1418.186985,-11399.171507,995.924147,4959.379811
1418.187297,-8364.327145,1225.752797,2368.659014
1418.187608,-7476.080014,-153.219100,-518.144159
1418.187920,-4663.297435,-459.657299,-2072.576638
1418.188231,-814.226536,2834.553343,-3182.885551
1418.188543,-2886.803174,2145.067394,-2738.761985
1418.188854,-7179.997637,-383.047749,-1480.411884
1418.189165,-12361.439231,-2528.115143,1332.370696
1418.189477,-14211.954086,-3447.429741,3997.112087
1418.189788,-13027.624579,-3600.648841,6069.688724
1418.190100,-11843.295072,-5132.839837,5181.441594
1418.190411,-11473.192101,-6818.249932,2368.659014
1418.190723,-8364.327145,-5669.106685,1628.453072
1418.191034,-5255.462188,-3830.477490,-1110.308913
1418.191346,-6735.874072,-383.047749,-2220.617826
1418.191657,-10881.027347,842.705048,-1406.391290
1418.191968,-13767.830521,-383.047749,-148.041188
1418.192280,-13397.727550,-306.438199,2368.659014
1418.192591,-11473.192101,1072.533697,2960.823768
1418.192903,-10658.965565,536.266849,1850.514855
1418.193214,-9252.574275,-1225.752797,222.061783
1418.193526,-6735.874072,842.705048,-740.205942
1418.193837,-4589.276840,3064.381992,-1110.308913
1418.194149,-6957.935855,4136.915689,-1776.494261
1418.194460,-12287.418637,2911.162892,-370.102971
1418.194771,-15544.324782,2451.505594,740.205942
1418.195083,-13545.768739,2987.772442,2368.659014
1418.195394,-9696.697840,2757.943793,1554.432478
1418.195706,-8660.409521,1149.143247,-296.082377
1418.196017,-4885.359217,-306.438199,-2368.659014
1418.196329,-1924.535449,0.000000,-2368.659014
1418.196640,-2146.597232,229.828649,-1776.494261
1418.196952,-5033.400406,1225.752797,-1850.514855
1418.197263,-11843.295072,1685.410096,444.123565
1418.197574,-15544.324782,919.314598,2886.803174
1418.197886,-14804.118840,2681.334243,4663.297435
1418.198197,-10658.965565,4290.134789,4589.276840
1418.198509,-8956.491898,1532.190996,1628.453072
1418.198820,-6587.832884,-1149.143247,148.041188
1418.199132,-888.247130,1072.533697,-3404.947333
1418.199443,444.123565,5056.230287,-4515.256246
1418.199755,-2738.761985,4903.011187,-4737.318029
1418.200066,-8068.244768,1915.238745,-2368.659014
1418.200378,-11473.192101,-229.828649,1850.514855
1418.200689,-11399.171507,-995.924147,3701.029710
1418.201000,-10288.862594,-1608.800546,5477.523971
1418.201312,-9918.759623,-2528.115143,3256.906145
1418.201623,-9178.553681,-4136.915689,1258.350101
1418.201935,-6291.750507,-4903.011187,-0.000000
1418.202246,-4441.235652,-2528.115143,-666.185348
1418.202558,-6957.935855,-1225.752797,-296.082377
1418.202869,-11103.089130,-3753.867940,-370.102971
1418.203181,-12731.542202,-4826.401637,2146.597232
1418.203492,-11325.150913,-3830.477490,4145.153275
1418.203803,-10362.883188,-1915.238745,3330.926739
1418.204115,-9474.636058,-3677.258390,1554.432478
1418.204426,-9400.615463,-4903.011187,-814.226536
1418.204738,-6735.874072,-2757.943793,-1628.453072
1418.205049,-5107.421000,0.000000,-1480.411884
1418.205361,-9474.636058,229.828649,-814.226536
1418.205672,-15692.365970,-1302.362347,740.205942
1418.205984,-16580.613101,-1378.971896,2738.761985
1418.206295,-14359.995275,76.609550,3108.864956
1418.206606,-11843.295072,1072.533697,2072.576638
1418.206918,-10510.924376,536.266849,-444.123565
1418.207229,-6957.935855,-383.047749,-2886.803174
1418.207541,-3478.967927,0.000000,-4145.153275
1418.207852,-2220.617826,1991.848295,-1406.391290
1418.208164,-7624.121203,1378.971896,-222.061783
1418.208475,-13175.665768,0.000000,2072.576638
1418.208787,-15914.427753,-153.219100,3923.091493
1418.209098,-15248.242405,1455.581446,5329.482782
1418.209409,-13027.624579,2757.943793,3627.009116
1418.209721,-11843.295072,2068.457845,370.102971
1418.210032,-8290.306550,1532.190996,-2072.576638
1418.210344,-2220.617826,2987.772442,-2886.803174
1418.210655,0.000000,4673.182538,-2516.700203
1418.210967,-3552.988522,4596.572988,-2590.720797
1418.211278,-10066.800811,1915.238745,-814.226536
1418.211590,-11251.130318,2221.676944,2072.576638
1418.211901,-8956.491898,4290.134789,3478.967927
1418.212213,-7254.018232,4136.915689,2368.659014
1418.212524,-8586.388927,766.095498,370.102971
1418.212835,-7254.018232,-1455.581446,-962.267725
1418.213147,-1480.411884,76.609550,-1480.411884
1418.213458,370.102971,3753.867940,-296.082377
1418.213770,-6365.771101,2298.286494,-518.144159
1418.214081,-12657.521608,-383.047749,1850.514855
1418.214393,-11769.274478,-536.266849,3923.091493
1418.214704,-8586.388927,766.095498,3849.070898
1418.215016,-6883.915261,919.314598,2368.659014
1418.215327,-7328.038826,-842.705048,-666.185348
1418.215638,-7105.977043,-2374.896044,-2294.638420
1418.215950,-3034.844362,-2451.505594,-2442.679609
1418.216261,-4515.256246,-766.095498,-370.102971
1418.216573,-11695.253884,-2374.896044,1480.411884
1418.216884,-16654.633695,-4979.620737,3034.844362
1418.217196,-16136.489536,-5056.230287,4737.318029
1418.217507,-13397.727550,-2221.676944,4515.256246
1418.217819,-10436.903782,-459.657299,3034.844362
1418.218130,-8512.368333,-3140.991542,-962.267725
1418.218441,-5847.626942,-3830.477490,-2886.803174
1418.218753,-2294.638420,-1532.190996,-3404.947333
1418.219064,-3775.050304,0.000000,-2442.679609
1418.219376,-10288.862594,-1225.752797,-888.247130
1418.219687,-15618.345376,-2221.676944,1110.308913
1418.219999,-17172.777854,-2145.067394,3404.947333
1418.220310,-16358.551318,-1532.190996,4219.173869
1418.220622,-15766.386565,-459.657299,2072.576638
1418.220933,-13915.871710,-306.438199,-518.144159
1418.221244,-9252.574275,-153.219100,-2072.576638
1418.221556,-3849.070898,842.705048,-2886.803174
1418.221867,-3849.070898,1608.800546,-1480.411884
1418.222179,-7920.203579,995.924147,-370.102971
1418.222490,-10732.986159,612.876398,1776.494261
1418.222802,-11547.212695,1149.143247,3478.967927
1418.223113,-11621.233289,2528.115143,2590.720797
1418.223425,-11695.253884,1685.410096,222.061783
1418.223736,-10362.883188,229.828649,-2220.617826
1418.224047,-5921.647536,612.876398,-2664.741391
1418.224359,-3923.091493,1685.410096,-2812.782580
1418.224670,-5107.421000,2987.772442,-148.041188
1418.224982,-8068.244768,1072.533697,814.226536
1418.225293,-10510.924376,689.485948,3701.029710
1418.225605,-8956.491898,2221.676944,5551.544565
1418.225916,-6587.832884,4749.792088,3404.947333
1418.226228,-5551.544565,4596.572988,296.082377
1418.226539,-5329.482782,2451.505594,-3108.864956
1418.226851,-2812.782580,2911.162892,-5181.441594
1418.227162,-444.123565,4213.525239,-4737.318029
1418.227473,-4219.173869,3370.820191,-1998.556043
1418.227785,-12731.542202,-536.266849,1184.329507
1418.228096,-15692.365970,-3370.820191,5181.441594
1418.228408,-14137.933492,-3064.381992,6735.874072
1418.228719,-8808.450710,-1149.143247,5403.503377
1418.229031,-6291.750507,-1072.533697,2886.803174
1418.229342,-5625.565159,-2911.162892,-888.247130
1418.229654,-2294.638420,-3140.991542,-2812.782580
1418.229965,74.020594,-1225.752797,-2886.803174
1418.230276,-5107.421000,-229.828649,-1776.494261
1418.230588,-12139.377449,-2145.067394,962.267725
1418.230899,-16580.613101,-4060.306139,3627.009116
1418.231211,-15544.324782,-4443.353888,5551.544565
1418.231522,-13101.645173,-2298.286494,5255.462188
1418.231834,-11695.253884,-1685.410096,2146.597232
1418.232145,-10436.903782,-1225.752797,-1702.473667
1418.232457,-7105.977043,-1608.800546,-3478.967927
1418.232768,-3923.091493,842.705048,-3256.906145
1418.233079,-6587.832884,919.314598,-1480.411884
1418.233391,-12657.521608,-229.828649,-148.041188
1418.233702,-14952.160028,-1532.190996,2442.679609
1418.234014,-13619.789333,0.000000,2812.782580
1418.234325,-11473.192101,536.266849,2738.761985
1418.234637,-10732.986159,-919.314598,222.061783
1418.234948,-9326.594869,-2528.115143,-1998.556043
1418.235260,-6957.935855,-1685.410096,-2738.761985
1418.235571,-5477.523971,-229.828649,-592.164754
1418.235882,-9474.636058,-459.657299,592.164754
1418.236194,-15100.201217,-2834.553343,2960.823768
1418.236505,-16654.633695,-2834.553343,4663.297435
1418.236817,-13101.645173,689.485948,4663.297435
1418.237128,-9696.697840,4136.915689,2072.576638
1418.237440,-8216.285956,4366.744339,-1406.391290
1418.237751,-4811.338623,3294.210641,-4515.256246
1418.238063,-1184.329507,4290.134789,-5255.462188
1418.238374,-148.041188,4826.401637,-2368.659014
1418.238685,-5847.626942,3677.258390,-1702.473667
1418.238997,-12657.521608,842.705048,1332.370696
1418.239308,-14211.954086,766.095498,4737.318029
1418.239620,-11843.295072,842.705048,6439.791695
1418.239931,-7254.018232,689.485948,4441.235652
1418.240243,-6069.688724,459.657299,666.185348
1418.240554,-4219.173869,-612.876398,-2442.679609
1418.240866,0.000000,1072.533697,-4811.338623
1418.241177,1110.308913,4826.401637,-3404.947333
1418.241489,-4515.256246,3983.696590,-2738.761985
1418.241800,-11843.295072,-229.828649,1628.453072
1418.242111,-13471.748144,-3064.381992,4663.297435
1418.242423,-12583.501014,-1838.629195,6069.688724
1418.242734,-10584.944971,-459.657299,5551.544565
1418.243046,-9548.656652,-2451.505594,2220.617826
1418.243357,-8512.368333,-4366.744339,-222.061783
1418.243675,-3256.906145,-3064.381992,-2886.803174
1418.243986,-1850.514855,-689.485948,-1998.556043
1418.244298,-7254.018232,229.828649,-1702.473667
1418.244609,-12731.542202,-2681.334243,740.205942
1418.244921,-14656.077652,-4213.525239,2886.803174
1418.245233,-12509.480420,-3064.381992,4293.194464
1418.245544,-10881.027347,-2374.896044,2516.700203
1418.245856,-9770.718434,-4060.306139,-0.000000
1418.246167,-7994.224174,-5286.058936,-2664.741391
1418.246479,-5995.668130,-3753.867940,-3182.885551
1418.246790,-5921.647536,-766.095498,-1184.329507
1418.247102,-11991.336260,-1915.238745,-222.061783
1418.247413,-17172.777854,-2145.067394,2368.659014
1418.247725,-17394.839637,-1225.752797,4737.318029
1418.248036,-14582.057057,766.095498,3552.988522
1418.248348,-11547.212695,2068.457845,1184.329507
1418.248659,-9400.615463,2221.676944,-2072.576638
1418.248971,-5625.565159,2911.162892,-4145.153275
1418.249282,-2442.679609,2911.162892,-4959.379811
1418.249594,-2590.720797,3064.381992,-2368.659014
1418.249905,-9030.512492,76.609550,-0.000000
1418.250217,-15174.221811,-1915.238745,2368.659014
1418.250528,-15914.427753,-1455.581446,4811.338623
1418.250840,-13989.892304,383.047749,5033.400406
1418.251151,-11103.089130,306.438199,3849.070898
1418.251463,-9918.759623,-766.095498,444.123565
1418.251775,-5551.544565,-1915.238745,-1332.370696
1418.252086,0.000000,2681.334243,-4071.132681
1418.252398,888.247130,5362.668486,-2516.700203
1418.252709,-5773.606348,4826.401637,-1258.350101
1418.253021,-13101.645173,1915.238745,2146.597232
1418.253332,-12731.542202,1915.238745,4367.215058
1418.253644,-9548.656652,4290.134789,4589.276840
1418.253955,-7698.141797,4290.134789,3330.926739
1418.254267,-7476.080014,1762.019645,-74.020594
1418.254578,-4441.235652,1455.581446,-1554.432478
1418.254890,148.041188,1838.629195,-3404.947333
1418.255201,-666.185348,4136.915689,-962.267725
1418.255513,-6217.729913,3447.429741,-666.185348
1418.255824,-12879.583391,153.219100,1036.288319
1418.256136,-12287.418637,-919.314598,4515.256246
1418.256447,-9104.533087,0.000000,4071.132681
1418.256759,-7550.100608,-995.924147,3034.844362
1418.257070,-8734.430116,-3830.477490,-0.000000
1418.257382,-7328.038826,-6128.763984,-962.267725
1418.257693,-3108.864956,-4060.306139,-1480.411884
1418.258005,-5329.482782,-2757.943793,-222.061783
1418.258317,-10732.986159,-3140.991542,1702.473667
1418.258628,-15248.242405,-4596.572988,3034.844362
1418.258940,-15100.201217,-3677.258390,4737.318029
1418.259251,-11917.315666,-919.314598,4515.256246
1418.259563,-11029.068536,-766.095498,2220.617826
1418.259874,-9770.718434,-689.485948,-1258.350101
1418.260186,-6661.853478,-919.314598,-4145.153275
1418.260497,-3256.906145,0.000000,-4737.318029
1418.260809,-4737.318029,383.047749,-3701.029710
1418.261120,-11473.192101,-1762.019645,-1332.370696
1418.261432,-16358.551318,-3600.648841,1036.288319
1418.261743,-17024.736666,-3140.991542,3478.967927
1418.262055,-16062.468941,-2374.896044,3330.926739
1418.262366,-14211.954086,-2221.676944,2812.782580
1418.262678,-11399.171507,-3983.696590,-740.205942
1418.262989,-7105.977043,-3447.429741,-2664.741391
1418.263301,-3108.864956,0.000000,-3404.947333
1418.263612,-4885.359217,689.485948,-2146.597232
1418.263924,-10510.924376,1149.143247,-296.082377
1418.264235,-14878.139434,229.828649,1480.411884
1418.264547,-14804.118840,1838.629195,3034.844362
1418.264859,-12583.501014,2987.772442,3330.926739
1418.265170,-11621.233289,2757.943793,962.267725
1418.265482,-9030.512492,1915.238745,-1480.411884
1418.265793,-3849.070898,2298.286494,-2960.823768
1418.266105,-1776.494261,2374.896044,-1924.535449
1418.266416,-3627.009116,3600.648841,-814.226536
1418.266728,-8512.368333,2834.553343,74.020594
1418.267039,-11029.068536,2451.505594,2220.617826
1418.267351,-9104.533087,3447.429741,3997.112087
1418.267662,-6365.771101,3677.258390,3108.864956
1418.267974,-6365.771101,1991.848295,1184.329507
1418.268285,-5699.585753,-1378.971896,-444.123565
1418.268597,-666.185348,-612.876398,-1998.556043
1418.268908,888.247130,2757.943793,-1702.473667
1418.269220,-4885.359217,2145.067394,-962.267725
1418.269531,-11769.274478,-689.485948,1998.556043
1418.269843,-13693.809927,-1991.848295,4071.132681
1418.270154,-10510.924376,536.266849,6291.750507
1418.270466,-8290.306550,1455.581446,4737.318029
1418.270778,-8956.491898,459.657299,1480.411884
1418.271089,-8290.306550,-1991.848295,-666.185348
1418.271401,-3108.864956,-766.095498,-2664.741391
1418.271712,-740.205942,1072.533697,-2368.659014
1418.272024,-6587.832884,1838.629195,-1554.432478
1418.272335,-12879.583391,-1072.533697,592.164754
1418.272647,-15470.304188,-4290.134789,4071.132681
1418.272958,-13767.830521,-3600.648841,6883.915261
1418.273270,-10658.965565,-2298.286494,5403.503377
1418.273581,-10288.862594,-2221.676944,2738.761985
1418.273893,-8734.430116,-5592.497135,-814.226536
1418.274204,-4071.132681,-4060.306139,-2886.803174
1418.274516,-3108.864956,0.000000,-2812.782580
1418.274827,-8364.327145,0.000000,-2368.659014
1418.275139,-15544.324782,-1685.410096,-814.226536
1418.275450,-18875.251521,-2221.676944,1480.411884
1418.275762,-17246.798449,383.047749,3478.967927
1418.276073,-14434.015869,-919.314598,2590.720797
1418.276385,-13101.645173,-2374.896044,444.123565
1418.276696,-9918.759623,-1762.019645,-1924.535449
1418.277008,-3923.091493,0.000000,-3849.070898
1418.277320,-2368.659014,1685.410096,-2072.576638
1418.277631,-7031.956449,689.485948,-740.205942
1418.277943,-13101.645173,0.000000,666.185348
1418.278254,-15396.283594,-1302.362347,2368.659014
1418.278566,-14063.912898,1838.629195,2812.782580
1418.278877,-11917.315666,3370.820191,1184.329507
1418.279189,-10658.965565,1455.581446,-1554.432478
1418.279500,-6883.915261,-383.047749,-3330.926739
1418.279812,-2590.720797,229.828649,-4145.153275
1418.280123,-2664.741391,3370.820191,-1554.432478
1418.280435,-6217.729913,3600.648841,-0.000000
1418.280746,-10955.047942,1838.629195,2664.741391
1418.281058,-11547.212695,689.485948,5329.482782
1418.281369,-8216.285956,2221.676944,5181.441594
1418.281681,-7105.977043,3983.696590,2368.659014
1418.281992,-6587.832884,4060.306139,-888.247130
1418.282304,-4441.235652,2911.162892,-3849.070898
1418.282615,222.061783,3600.648841,-4145.153275
1418.282927,-148.041188,4136.915689,-3256.906145
1418.283238,-7476.080014,1685.410096,-1332.370696
1418.283550,-11991.336260,-995.924147,2368.659014
1418.283862,-12361.439231,-1149.143247,4737.318029
1418.284173,-9696.697840,-1072.533697,6217.729913
1418.284485,-6809.894666,-2221.676944,5033.400406
1418.284796,-7772.162391,-4366.744339,2146.597232
1418.285108,-5773.606348,-5362.668486,-592.164754
1418.285419,-2220.617826,-3140.991542,-2294.638420
1418.285731,-2664.741391,612.876398,-1924.535449
1418.286042,-9474.636058,-153.219100,-592.164754
1418.286354,-16210.510130,-3294.210641,1998.556043
1418.286665,-16506.592507,-3600.648841,5033.400406
1418.286977,-13989.892304,-1915.238745,5255.462188
1418.287288,-13545.768739,-995.924147,4145.153275
1418.287600,-11547.212695,-2068.457845,592.164754
1418.287911,-7402.059420,-536.266849,-1702.473667
1418.288223,-2294.638420,229.828649,-1554.432478
1418.288534,-2220.617826,0.000000,-1776.494261
1418.288846,-8882.471304,-1302.362347,-1110.308913
1418.289157,-13915.871710,-2221.676944,962.267725
1418.289469,-15618.345376,-612.876398,2442.679609
1418.289780,-14434.015869,-153.219100,2368.659014
1418.290092,-14211.954086,-766.095498,1184.329507
1418.290404,-12731.542202,-3064.381992,-888.247130
1418.290715,-7920.203579,-2911.162892,-3404.947333
1418.291027,-5255.462188,-229.828649,-3552.988522
1418.291338,-7179.997637,2068.457845,-2442.679609
1418.291650,-12139.377449,459.657299,-0.000000
1418.291961,-15840.407159,-153.219100,3478.967927
1418.292273,-14285.974681,536.266849,6291.750507
1418.292584,-10288.862594,2451.505594,5255.462188
1418.292896,-8364.327145,2987.772442,1924.535449
1418.293207,-5551.544565,459.657299,-1776.494261
1418.293519,-4071.132681,2145.067394,-4811.338623
1418.293830,-1998.556043,4826.401637,-4737.318029
1418.294142,-4589.276840,6435.202183,-4737.318029
1418.294453,-11325.150913,4826.401637,-1776.494261
1418.294765,-13841.851115,1532.190996,1258.350101
1418.295076,-12805.562797,1149.143247,4219.173869
1418.295388,-8586.388927,1685.410096,5773.606348
1418.295699,-5403.503377,919.314598,3034.844362
1418.296011,-4071.132681,-919.314598,740.205942
1418.296322,74.020594,-995.924147,-2960.823768
1418.296634,2664.741391,2757.943793,-4219.173869
1418.296946,-814.226536,2911.162892,-2590.720797
1418.297257,-8290.306550,153.219100,-0.000000
1418.297569,-13693.809927,-2298.286494,3256.906145
1418.297880,-13545.768739,-2298.286494,5477.523971
1418.298192,-11843.295072,-612.876398,6883.915261
1418.298503,-9992.780217,-1149.143247,4367.215058
1418.298815,-9326.594869,-2681.334243,370.102971
1418.299126,-5107.421000,-2451.505594,-2516.700203
1418.299438,-740.205942,612.876398,-3552.988522
1418.299749,-3701.029710,2604.724693,-2072.576638
1418.300061,-11251.130318,153.219100,-0.000000
1418.300372,-14508.036463,-2834.553343,3330.926739
1418.300684,-14582.057057,-2987.772442,5847.626942
1418.300995,-12879.583391,-3524.039291,5403.503377
1418.301307,-11621.233289,-3830.477490,2220.617826
1418.301618,-10066.800811,-4826.401637,-1480.411884
1418.301930,-6217.729913,-4060.306139,-3552.988522
1418.302241,-3997.112087,-1378.971896,-3404.947333
1418.302553,-7846.182985,-536.266849,-1776.494261
1418.302865,-14656.077652,-1378.971896,444.123565
1418.303176,-17468.860231,-2528.115143,3627.009116
1418.303488,-15544.324782,-1072.533697,5181.441594
1418.303799,-13619.789333,76.609550,3775.050304
1418.304111,-11695.253884,76.609550,1258.350101
1418.304422,-8808.450710,-1149.143247,-1998.556043
1418.304734,-4737.318029,-383.047749,-4367.215058
1418.305045,-3108.864956,1915.238745,-4293.194464
1418.305357,-8290.306550,3370.820191,-2812.782580
1418.305668,-14508.036463,689.485948,370.102971
1418.305980,-16876.695478,-1225.752797,3923.091493
1418.306291,-14508.036463,-153.219100,5847.626942
1418.306603,-10584.944971,1149.143247,4811.338623
1418.306914,-7920.203579,842.705048,1850.514855
1418.307226,-5773.606348,229.828649,-1850.514855
1418.307537,-814.226536,1225.752797,-3404.947333
1418.307849,1850.514855,5669.106685,-3997.112087
1418.308160,-2738.761985,5132.839837,-3108.864956
1418.308472,-11473.192101,2834.553343,-444.123565
1418.308783,-14434.015869,1225.752797,4071.132681
1418.309095,-9474.636058,1685.410096,4515.256246
1418.309407,-7698.141797,2681.334243,3923.091493
1418.309718,-6735.874072,1302.362347,1554.432478
1418.310030,-5255.462188,0.000000,-2516.700203
1418.310341,-1480.411884,1991.848295,-2812.782580
1418.310653,0.000000,3830.477490,-3330.926739
1418.310964,-5403.503377,2681.334243,-1036.288319
1418.311276,-11917.315666,536.266849,962.267725
1418.311587,-12953.603985,-1378.971896,4219.173869
1418.311899,-10066.800811,-1225.752797,5181.441594
1418.312210,-7179.997637,-995.924147,4293.194464
1418.312522,-7179.997637,-2451.505594,1776.494261
1418.312833,-7179.997637,-6128.763984,-1702.473667
1418.313145,-3701.029710,-4366.744339,-2368.659014
1418.313456,-3034.844362,536.266849,-1554.432478
1418.313768,-8734.430116,-1225.752797,-0.000000
1418.314079,-14952.160028,-4596.572988,2220.617826
1418.314391,-16950.716072,-3830.477490,3478.967927
1418.314702,-14434.015869,229.828649,3923.091493
1418.315014,-11695.253884,-536.266849,2664.741391
1418.315325,-11325.150913,-1532.190996,-0.000000
1418.315637,-9548.656652,-1915.238745,-2368.659014
1418.315949,-4959.379811,-1072.533697,-4219.173869
1418.316260,-4145.153275,0.000000,-3182.885551
1418.316572,-10362.883188,0.000000,-1406.391290
1418.316883,-15544.324782,-1608.800546,1480.411884
1418.317195,-16136.489536,-2911.162892,3330.926739
1418.317506,-15470.304188,-1762.019645,4145.153275
1418.317818,-13175.665768,0.000000,3478.967927
1418.318129,-11621.233289,-1378.971896,1036.288319
1418.318441,-9474.636058,-2757.943793,-1924.535449
1418.318752,-3849.070898,-153.219100,-3256.906145
1418.319064,-3330.926739,2298.286494,-2590.720797
1418.319375,-8734.430116,1378.971896,-1110.308913
1418.319687,-13693.809927,-306.438199,1628.453072
1418.319998,-14434.015869,76.609550,3330.926739
1418.320310,-12731.542202,1225.752797,4663.297435
1418.320621,-9326.594869,3064.381992,3256.906145
1418.320933,-9474.636058,2068.457845,-296.082377
1418.321244,-6217.729913,1378.971896,-1332.370696
1418.321556,592.164754,3370.820191,-3997.112087
1418.321867,592.164754,5362.668486,-2960.823768
1418.322179,-6217.729913,5515.887586,-1924.535449
1418.322491,-11843.295072,2451.505594,2072.576638
1418.322802,-10584.944971,229.828649,4145.153275
1418.323114,-7772.162391,919.314598,4293.194464
1418.323425,-5477.523971,1225.752797,3256.906145
1418.323737,-6513.812290,-689.485948,-814.226536
1418.324048,-4219.173869,-842.705048,-1998.556043
1418.324360,-296.082377,1072.533697,-4071.132681
1418.324671,-1258.350101,2757.943793,-2590.720797
1418.324983,-8290.306550,842.705048,-666.185348
1418.325294,-13989.892304,-2374.896044,2590.720797
1418.325606,-13841.851115,-3677.258390,4885.359217
1418.325917,-10732.986159,-1608.800546,5773.606348
1418.326229,-8882.471304,0.000000,4145.153275
1418.326540,-9326.594869,-3064.381992,-148.041188
1418.326852,-6957.935855,-3753.867940,-962.267725
1418.327163,-1628.453072,-1378.971896,-2886.803174
1418.327475,-2294.638420,-459.657299,-1776.494261
1418.327786,-9844.739029,-2451.505594,-592.164754
1418.328098,-16210.510130,-3600.648841,1924.535449
1418.328409,-16136.489536,-2068.457845,3775.050304
1418.328721,-13323.706956,-1608.800546,4663.297435
1418.329033,-13323.706956,-2528.115143,3552.988522
1418.329344,-11917.315666,-3907.087040,-148.041188
1418.329656,-7920.203579,-2987.772442,-2368.659014
1418.329967,-3775.050304,-1225.752797,-3627.009116
1418.330279,-5847.626942,306.438199,-2812.782580
1418.330590,-12361.439231,-306.438199,-1110.308913
1418.330902,-15988.448347,-2221.676944,1406.391290
1418.331213,-15692.365970,-1915.238745,3478.967927
1418.331525,-14137.933492,612.876398,3849.070898
1418.331836,-13323.706956,842.705048,1850.514855
1418.332148,-10658.965565,-1225.752797,-74.020594
1418.332459,-6143.709319,-766.095498,-1258.350101
1418.332771,-2664.741391,1838.629195,-2368.659014
1418.333082,-5477.523971,3370.820191,-2220.617826
1418.333394,-11251.130318,2298.286494,-1332.370696
1418.333705,-13915.871710,1838.629195,1110.308913
1418.334017,-13619.789333,2451.505594,2442.679609
1418.334328,-10584.944971,2374.896044,2812.782580
1418.334640,-9696.697840,1838.629195,1480.411884
1418.334952,-9548.656652,-612.876398,-296.082377
1418.335263,-3034.844362,76.609550,-1628.453072
1418.335575,1998.556043,4136.915689,-3108.864956
1418.335886,-1480.411884,4596.572988,-1850.514855
1418.336198,-8586.388927,2681.334243,-222.061783
1418.336509,-11843.295072,995.924147,2442.679609
1418.336821,-9326.594869,3907.087040,3849.070898
1418.337132,-7476.080014,4903.011187,3775.050304
1418.337444,-7550.100608,3217.601092,1184.329507
1418.337755,-7105.977043,1149.143247,-1480.411884
1418.338067,-2516.700203,1378.971896,-2738.761985
1418.338378,1110.308913,2911.162892,-3182.885551
1418.338690,-2442.679609,1991.848295,-1924.535449
1418.339001,-10807.006753,153.219100,-444.123565
1418.339313,-14434.015869,-2451.505594,2442.679609
1418.339624,-11843.295072,-2528.115143,4663.297435
1418.339936,-9696.697840,-1838.629195,5181.441594
1418.340247,-9696.697840,-3753.867940,3034.844362
1418.340559,-9622.677246,-7124.688131,-0.000000
1418.340870,-6439.791695,-5592.497135,-1406.391290
1418.341182,-2590.720797,-2374.896044,-1332.370696
1418.341494,-6661.853478,-1838.629195,-1184.329507
1418.341805,-13175.665768,-3524.039291,814.226536
1418.342117,-15840.407159,-2757.943793,2368.659014
1418.342428,-14063.912898,-1532.190996,3701.029710
1418.342740,-11917.315666,-612.876398,3478.967927
1418.343051,-12139.377449,-1685.410096,1998.556043
1418.343363,-9992.780217,-2604.724693,-1036.288319
1418.343674,-6365.771101,-2298.286494,-3256.906145
1418.343986,-3552.988522,0.000000,-2294.638420
1418.344297,-8586.388927,-459.657299,-2294.638420
1418.344609,-15026.180623,-1838.629195,-592.164754
1418.344920,-17024.736666,-2528.115143,1628.453072
1418.345232,-16210.510130,-995.924147,3034.844362
1418.345543,-14434.015869,0.000000,3552.988522
1418.345855,-12879.583391,-1149.143247,1406.391290
1418.346166,-8882.471304,-4060.306139,-0.000000
1418.346478,-3330.926739,-1838.629195,-1036.288319
1418.346789,-1406.391290,1225.752797,-1702.473667
1418.347101,-6661.853478,1762.019645,-1332.370696
1418.347412,-12287.418637,1608.800546,814.226536
1418.347724,-14211.954086,1455.581446,2812.782580
1418.348036,-14285.974681,3294.210641,3182.885551
1418.348347,-10584.944971,4749.792088,2960.823768
1418.348659,-10288.862594,3370.820191,-148.041188
1418.348970,-5921.647536,2145.067394,-1406.391290
1418.349282,962.267725,3217.601092,-2960.823768
1418.349593,2442.679609,5209.449386,-3108.864956
1418.349905,-3404.947333,4673.182538,-1850.514855
1418.350216,-10732.986159,2681.334243,592.164754
1418.350528,-10955.047942,2451.505594,2368.659014
1418.350839,-8364.327145,4596.572988,3478.967927
1418.351151,-6883.915261,3370.820191,3330.926739
1418.351462,-7105.977043,229.828649,666.185348
1418.351774,-5255.462188,-2145.067394,-1036.288319
1418.352085,-518.144159,-1149.143247,-1998.556043
1418.352397,-222.061783,1072.533697,-592.164754
1418.352708,-7476.080014,612.876398,444.123565
1418.353020,-13175.665768,-1225.752797,2812.782580
1418.353331,-13397.727550,-1532.190996,3997.112087
1418.353642,-10658.965565,153.219100,3849.070898
1418.353954,-8142.265362,2451.505594,2516.700203
1418.354265,-8808.450710,-383.047749,-518.144159
1418.354576,-8512.368333,-3983.696590,-2368.659014
1418.354888,-3701.029710,-2834.553343,-2368.659014
1418.355199,-3627.009116,-612.876398,-1702.473667
1418.355510,-11177.109724,-2298.286494,296.082377
1418.355822,-17320.819043,-4366.744339,1776.494261
1418.356133,-17320.819043,-3677.258390,3182.885551
1418.356444,-13693.809927,-842.705048,4145.153275
1418.356756,-11177.109724,-1225.752797,3552.988522
1418.357067,-9770.718434,-3600.648841,222.061783
1418.357378,-7179.997637,-3983.696590,-1702.473667
1418.357690,-3182.885551,-2298.286494,-2368.659014
1418.358001,-3997.112087,-689.485948,-2368.659014
1418.358312,-11843.295072,-919.314598,-888.247130
1418.358624,-16506.592507,-1225.752797,1702.473667
1418.358935,-16876.695478,-1762.019645,2812.782580
1418.359246,-15766.386565,-919.314598,3923.091493
1418.359558,-14359.995275,153.219100,3034.844362
1418.359869,-12435.459826,-612.876398,-0.000000
1418.360180,-7476.080014,-919.314598,-1480.411884
1418.360492,-2664.741391,766.095498,-1702.473667
1418.360803,-2812.782580,2221.676944,-1332.370696
1418.361115,-8734.430116,1225.752797,-1332.370696
1418.361426,-13027.624579,1225.752797,1110.308913
1418.361737,-12731.542202,2911.162892,2960.823768
1418.362049,-9548.656652,3064.381992,2812.782580
1418.362360,-8586.388927,3217.601092,1406.391290
1418.362671,-8734.430116,383.047749,-888.247130
1418.362983,-4515.256246,0.000000,-1924.535449
1418.363294,666.185348,3140.991542,-1628.453072
1418.363605,-1628.453072,4903.011187,-1924.535449
1418.363917,-8512.368333,2911.162892,370.102971
1418.364228,-11917.315666,383.047749,2664.741391
1418.364539,-9030.512492,2145.067394,3256.906145
1418.364851,-6439.791695,4903.011187,2664.741391
1418.365162,-6735.874072,3677.258390,518.144159
1418.365473,-7254.018232,995.924147,-2368.659014
1418.365785,-4219.173869,-842.705048,-3404.947333
1418.366096,-444.123565,1532.190996,-2664.741391
1418.366407,-2738.761985,1762.019645,-444.123565
1418.366719,-10881.027347,-1378.971896,1258.350101
1418.367030,-16062.468941,-4213.525239,3775.050304
1418.367341,-12509.480420,-2681.334243,5107.421000
1418.367653,-9030.512492,-459.657299,4737.318029
1418.367964,-8364.327145,-1149.143247,2072.576638
1418.368275,-7624.121203,-4749.792088,-444.123565
1418.368587,-5921.647536,-4903.011187,-3034.844362
1418.368898,-2664.741391,-689.485948,-1850.514855
1418.369209,-5477.523971,1072.533697,-1776.494261
1418.369521,-13989.892304,-2528.115143,962.267725
1418.369832,-18135.045579,-4596.572988,3330.926739
1418.370144,-17098.757260,-4213.525239,4811.338623
1418.370455,-13249.686362,-1455.581446,4219.173869
1418.370766,-12065.356855,-842.705048,1998.556043
1418.371078,-11029.068536,-2451.505594,-1258.350101
1418.371389,-6069.688724,-2911.162892,-3404.947333
1418.371700,-2590.720797,-919.314598,-2516.700203
1418.372012,-5477.523971,0.000000,-1554.432478
1418.372323,-11917.315666,-842.705048,518.144159
1418.372634,-15692.365970,-2374.896044,2368.659014
1418.372946,-13989.892304,-1762.019645,4441.235652
1418.373257,-12213.398043,-536.266849,3034.844362
1418.373568,-11029.068536,-1149.143247,1776.494261
1418.373880,-9770.718434,-2451.505594,-1184.329507
1418.374191,-6217.729913,-2451.505594,-2220.617826
1418.374502,-3256.906145,383.047749,-1480.411884
1418.374814,-7920.203579,1685.410096,-888.247130
1418.375125,-12805.562797,689.485948,444.123565
1418.375436,-14211.954086,1149.143247,3849.070898
1418.375748,-13249.686362,2451.505594,4737.318029
1418.376059,-9030.512492,3447.429741,2664.741391
1418.376370,-7105.977043,5669.106685,-814.226536
1418.376682,-5773.606348,4060.306139,-3182.885551
1418.376993,-1110.308913,4136.915689,-4367.215058
1418.377304,592.164754,5362.668486,-2812.782580
1418.377616,-4145.153275,4903.011187,-1924.535449
1418.377927,-12213.398043,2374.896044,1702.473667
1418.378238,-13397.727550,306.438199,3256.906145
1418.378550,-9770.718434,2374.896044,4441.235652
1418.378861,-7105.977043,2681.334243,2590.720797
1418.379173,-6069.688724,383.047749,222.061783
1418.379484,-4811.338623,-1072.533697,-2590.720797
1418.379795,-1184.329507,76.609550,-4071.132681
1418.380107,444.123565,2987.772442,-2146.597232
1418.380418,-6217.729913,1072.533697,-1258.350101
1418.380729,-14582.057057,-919.314598,1850.514855
1418.381041,-16062.468941,-2221.676944,4589.276840
1418.381352,-12731.542202,-1378.971896,6587.832884
1418.381663,-9400.615463,-459.657299,4959.379811
1418.381975,-8734.430116,-2374.896044,1850.514855
1418.382286,-8512.368333,-4366.744339,-740.205942
1418.382597,-2072.576638,-2374.896044,-2886.803174
1418.382909,-888.247130,76.609550,-2368.659014
1418.383220,-7550.100608,-536.266849,-2072.576638
1418.383531,-14434.015869,-3140.991542,666.185348
1418.383843,-16284.530724,-3677.258390,2072.576638
1418.384154,-14211.954086,-2451.505594,3849.070898
1418.384465,-11695.253884,-2068.457845,2960.823768
1418.384777,-11991.336260,-5132.839837,148.041188
1418.385088,-9622.677246,-6205.373534,-2294.638420
1418.385399,-5033.400406,-4290.134789,-3034.844362
1418.385711,-5773.606348,-1302.362347,-2368.659014
1418.386022,-11103.089130,-1072.533697,-0.000000
1418.386333,-15174.221811,-2528.115143,2220.617826
1418.386645,-16284.530724,-2911.162892,3923.091493
1418.386956,-14137.933492,-306.438199,4515.256246
1418.387267,-11843.295072,2681.334243,2220.617826
1418.387579,-10436.903782,842.705048,-1258.350101
1418.387890,-6883.915261,1378.971896,-3478.967927
1418.388201,-3108.864956,3064.381992,-4589.276840
1418.388513,-3478.967927,3524.039291,-2442.679609
1418.388824,-9104.533087,1838.629195,-814.226536
1418.389136,-13767.830521,153.219100,2960.823768
1418.389447,-14285.974681,459.657299,4737.318029
1418.389758,-12657.521608,1685.410096,5329.482782
1418.390070,-10584.944971,1685.410096,2590.720797
1418.390381,-8512.368333,0.000000,-222.061783
1418.390692,-4441.235652,306.438199,-1850.514855
1418.391004,444.123565,2451.505594,-2960.823768
1418.391315,-740.205942,3830.477490,-1850.514855
1418.391626,-6957.935855,2834.553343,-740.205942
1418.391938,-11843.295072,1762.019645,2072.576638
1418.392249,-11251.130318,1608.800546,3552.988522
1418.392560,-8142.265362,4060.306139,3997.112087
1418.392872,-7328.038826,3830.477490,2146.597232
1418.393183,-7476.080014,995.924147,-666.185348
1418.393494,-4737.318029,229.828649,-2294.638420
1418.393806,296.082377,2757.943793,-2590.720797
1418.394117,-962.267725,3524.039291,-2220.617826
1418.394428,-7105.977043,1455.581446,-666.185348
1418.394740,-12435.459826,-1532.190996,1924.535449
1418.395051,-12805.562797,-1838.629195,3330.926739
1418.395362,-9326.594869,0.000000,5033.400406
1418.395674,-9326.594869,-1302.362347,2960.823768
1418.395985,-10584.944971,-3677.258390,962.267725
1418.396296,-8068.244768,-5286.058936,-1110.308913
1418.396608,-2738.761985,-2757.943793,-2368.659014
1418.396919,-4145.153275,-459.657299,-666.185348
1418.397230,-10584.944971,-1762.019645,518.144159
1418.397542,-16284.530724,-3907.087040,1850.514855
1418.397853,-15618.345376,-3524.039291,4515.256246
1418.398165,-13545.768739,-1378.971896,5551.544565
1418.398476,-12435.459826,-1072.533697,2812.782580
1418.398787,-11399.171507,-2145.067394,-1406.391290
1418.399099,-7772.162391,-1302.362347,-3627.009116
1418.399410,-2812.782580,0.000000,-4367.215058
1418.399721,-4737.318029,0.000000,-3256.906145
1418.400033,-12065.356855,-2145.067394,-1110.308913
1418.400344,-16506.592507,-3753.867940,1480.411884
1418.400655,-15988.448347,-3370.820191,4145.153275
1418.400967,-14952.160028,-1685.410096,4219.173869
1418.401278,-13471.748144,-1455.581446,2442.679609
1418.401589,-10362.883188,-2911.162892,-740.205942
1418.401901,-6809.894666,-2757.943793,-2072.576638
1418.402212,-3404.947333,1532.190996,-1776.494261
1418.402523,-5329.482782,2145.067394,-2146.597232
1418.402835,-10881.027347,766.095498,-296.082377
1418.403146,-13101.645173,0.000000,1702.473667
1418.403457,-13323.706956,2221.676944,3552.988522
1418.403769,-11621.233289,4596.572988,3478.967927
1418.404080,-9696.697840,4673.182538,518.144159
1418.404391,-7254.018232,3064.381992,-1258.350101
1418.404703,-2590.720797,2068.457845,-3701.029710
1418.405014,1110.308913,5898.935335,-3404.947333
1418.405325,-2146.597232,6511.811733,-2590.720797
1418.405637,-9844.739029,3524.039291,-666.185348
1418.405948,-11769.274478,1838.629195,2442.679609
1418.406259,-8512.368333,3370.820191,3108.864956
1418.406571,-6587.832884,3983.696590,3849.070898
1418.406882,-7031.956449,153.219100,1776.494261
1418.407194,-6365.771101,-2681.334243,-666.185348
1418.407505,-2590.720797,-2374.896044,-2294.638420
1418.407816,888.247130,1149.143247,-1776.494261
1418.408128,-4737.318029,689.485948,-962.267725
1418.408439,-13471.748144,-1991.848295,1628.453072
1418.408750,-16802.674883,-2911.162892,4219.173869
1418.409062,-14285.974681,-689.485948,5255.462188
1418.409373,-9178.553681,2145.067394,5403.503377
1418.409684,-9770.718434,689.485948,2146.597232
1418.409996,-8364.327145,-3677.258390,-592.164754
1418.410307,-2590.720797,-3064.381992,-3330.926739
1418.410618,148.041188,766.095498,-2072.576638
1418.410930,-5033.400406,1915.238745,-2220.617826
1418.411241,-12805.562797,-1225.752797,296.082377
1418.411552,-16654.633695,-3524.039291,3108.864956
1418.411864,-13471.748144,-4366.744339,5995.668130
1418.412175,-10658.965565,-3294.210641,5329.482782
1418.412486,-11251.130318,-4213.525239,2960.823768
1418.412798,-10658.965565,-4366.744339,-1110.308913
1418.413109,-6365.771101,-3907.087040,-3256.906145
1418.413420,-2368.659014,-1149.143247,-3775.050304
1418.413732,-7698.141797,-383.047749,-1998.556043
1418.414043,-14730.098246,-2604.724693,-814.226536
1418.414354,-18209.066173,-3370.820191,1850.514855
1418.414666,-17320.819043,0.000000,4145.153275
1418.414977,-14508.036463,1608.800546,3404.947333
1418.415288,-13915.871710,-536.266849,1554.432478
1418.415600,-9030.512492,-1762.019645,-962.267725
1418.415911,-2664.741391,1072.533697,-3701.029710
1418.416223,-1332.370696,2298.286494,-3182.885551
1418.416534,-5699.585753,2681.334243,-2220.617826
1418.416845,-10807.006753,1915.238745,296.082377
1418.417157,-13323.706956,689.485948,3330.926739
1418.417468,-11769.274478,1455.581446,4737.318029
1418.417779,-10510.924376,1225.752797,1924.535449
1418.418091,-11695.253884,536.266849,-296.082377
1418.418402,-7328.038826,612.876398,-2368.659014
1418.418713,-1184.329507,1455.581446,-4737.318029
1418.419025,444.123565,4136.915689,-3034.844362
1418.419336,-6291.750507,1685.410096,-222.061783
1418.419647,-13471.748144,-995.924147,2294.638420
1418.419959,-13027.624579,383.047749,5477.523971
1418.420270,-9992.780217,4596.572988,5773.606348
1418.420581,-7402.059420,4749.792088,3627.009116
1418.420893,-7698.141797,1991.848295,-74.020594
1418.421204,-3849.070898,842.705048,-2886.803174
1418.421515,2220.617826,3677.258390,-4663.297435
1418.421827,962.267725,5132.839837,-3923.091493
1418.422138,-7550.100608,4596.572988,-2294.638420
1418.422449,-14656.077652,995.924147,814.226536
1418.422761,-14211.954086,-1302.362347,4293.194464
1418.423072,-9844.739029,-459.657299,5847.626942
1418.423383,-8586.388927,-689.485948,3552.988522
1418.423695,-9474.636058,-3217.601092,-0.000000
1418.424006,-7179.997637,-5132.839837,-1924.535449
1418.424317,-1702.473667,-2221.676944,-2738.761985
1418.424629,-2294.638420,0.000000,-1776.494261
1418.424940,-9622.677246,-2221.676944,444.123565
1418.425252,-17394.839637,-6205.373534,3404.947333
1418.425563,-17246.798449,-5669.106685,5329.482782
1418.425874,-13693.809927,-1608.800546,5699.585753
1418.426186,-11843.295072,0.000000,4145.153275
1418.426497,-10658.965565,-2451.505594,888.247130
1418.426808,-8364.327145,-3140.991542,-2072.576638
1418.427120,-2812.782580,-1302.362347,-3330.926739
1418.427431,-2294.638420,919.314598,-2812.782580
1418.427742,-9104.533087,-536.266849,-1036.288319
1418.428054,-14359.995275,-3294.210641,1110.308913
1418.428365,-15174.221811,-2987.772442,3701.029710
1418.428676,-13175.665768,-2604.724693,4219.173869
1418.428988,-13175.665768,-1915.238745,1850.514855
1418.429299,-12361.439231,-2528.115143,-740.205942
1418.429610,-8660.409521,-1762.019645,-3330.926739
1418.429922,-5403.503377,-153.219100,-4441.235652
1418.430233,-5403.503377,1608.800546,-2664.741391
1418.430544,-10881.027347,1991.848295,-1184.329507
1418.430856,-15396.283594,995.924147,2516.700203
1418.431167,-12953.603985,0.000000,5847.626942
1418.431478,-10140.821405,2528.115143,5699.585753
1418.431790,-9474.636058,3217.601092,2812.782580
1418.432101,-8142.265362,2221.676944,-296.082377
1418.432412,-4515.256246,2451.505594,-3997.112087
1418.432724,-1036.288319,5439.278036,-4885.359217
1418.433035,-2738.761985,7354.516781,-3627.009116
1418.433346,-10214.842000,4826.401637,-1480.411884
1418.433658,-14656.077652,2374.896044,2220.617826
1418.433969,-11547.212695,1608.800546,4589.276840
1418.434280,-6439.791695,2068.457845,4885.359217
1418.434592,-5773.606348,689.485948,2368.659014
1418.434903,-5033.400406,-995.924147,-888.247130
1418.435215,-962.267725,-1378.971896,-3256.906145
1418.435526,3108.864956,2374.896044,-3997.112087
1418.435837,-518.144159,3294.210641,-2146.597232
1418.436149,-10436.903782,1149.143247,-740.205942
1418.436460,-15618.345376,-1532.190996,4071.132681
1418.436771,-14211.954086,-1455.581446,6291.750507
1418.437083,-10658.965565,0.000000,6439.791695
1418.437394,-9548.656652,-459.657299,2886.803174
1418.437705,-9844.739029,-2221.676944,-814.226536
1418.438017,-5255.462188,-2834.553343,-3182.885551
1418.438328,222.061783,766.095498,-3330.926739
1418.438639,-4367.215058,1532.190996,-2072.576638
1418.438951,-12213.398043,-2068.457845,962.267725
1418.439262,-16950.716072,-4519.963438,3997.112087
1418.439573,-16210.510130,-4213.525239,6365.771101
1418.439885,-11917.315666,-3447.429741,6217.729913
1418.440196,-10807.006753,-4903.011187,2812.782580
1418.440507,-8882.471304,-5515.887586,-1184.329507
1418.440819,-6439.791695,-3677.258390,-4441.235652
1418.441130,-2960.823768,-383.047749,-4293.194464
1418.441441,-6291.750507,306.438199,-2738.761985
1418.441753,-14359.995275,-1378.971896,222.061783
1418.442064,-17690.922014,-3370.820191,3108.864956
1418.442375,-16284.530724,-1915.238745,4959.379811
1418.442687,-13397.727550,306.438199,3997.112087
1418.442998,-11251.130318,-459.657299,444.123565
1418.443309,-8216.285956,-2145.067394,-2516.700203
1418.443621,-4589.276840,-229.828649,-4959.379811
1418.443932,-3775.050304,2451.505594,-4515.256246
1418.444244,-7772.162391,3907.087040,-3034.844362
1418.444555,-13767.830521,2068.457845,-0.000000
1418.444866,-17246.798449,-153.219100,3330.926739
1418.445178,-13841.851115,306.438199,5033.400406
1418.445489,-9844.739029,1072.533697,4219.173869
1418.445800,-7476.080014,-383.047749,1480.411884
1418.446112,-8364.327145,-1608.800546,-2072.576638
1418.446423,-2368.659014,-306.438199,-3256.906145
1418.446735,1702.473667,4979.620737,-4367.215058
1418.447046,-4441.235652,4290.134789,-2072.576638
1418.447358,-11103.089130,0.000000,1554.432478
1418.447669,-14063.912898,-1762.019645,3849.070898
1418.447981,-10362.883188,1225.752797,5033.400406
1418.448292,-6883.915261,3064.381992,4589.276840
1418.448604,-6513.812290,1532.190996,814.226536
1418.448915,-5625.565159,2451.505594,-2738.761985
1418.449227,-740.205942,3370.820191,-3923.091493
1418.449538,2738.761985,4596.572988,-4441.235652
1418.449850,-3701.029710,5132.839837,-1554.432478
1418.450161,-11917.315666,3907.087040,814.226536
1418.450473,-14804.118840,-995.924147,3478.967927
1418.450784,-11325.150913,-2221.676944,6069.688724
1418.451096,-9030.512492,-1302.362347,5847.626942
1418.451407,-8956.491898,-2604.724693,2146.597232
1418.451719,-9326.594869,-5745.716235,-1850.514855
1418.452030,-4293.194464,-2451.505594,-2812.782580
1418.452342,-2294.638420,612.876398,-2220.617826
1418.452653,-8290.306550,-766.095498,518.144159
1418.452964,-15618.345376,-4903.011187,3478.967927
1418.453276,-18209.066173,-5515.887586,5699.585753
1418.453587,-14434.015869,-1685.410096,6661.853478
1418.453899,-10140.821405,1378.971896,3997.112087
1418.454210,-10510.924376,229.828649,-148.041188
1418.454522,-7624.121203,-842.705048,-1998.556043
1418.454833,-2220.617826,-689.485948,-4589.276840
1418.455145,-2368.659014,1455.581446,-4515.256246
1418.455456,-9918.759623,1455.581446,-1110.308913
1418.455768,-16802.674883,-1455.581446,518.144159
1418.456079,-17098.757260,-2834.553343,3997.112087
1418.456391,-15026.180623,-2451.505594,4885.359217
1418.456702,-11991.336260,-1915.238745,4145.153275
1418.457014,-9992.780217,-3830.477490,-0.000000
1418.457325,-7772.162391,-3677.258390,-2812.782580
1418.457637,-3404.947333,-1685.410096,-2738.761985
1418.457948,-2738.761985,842.705048,-3108.864956
1418.458260,-8882.471304,306.438199,-1258.350101
1418.458571,-13175.665768,-1532.190996,1110.308913
1418.458883,-15174.221811,-1302.362347,3330.926739
1418.459194,-13471.748144,1991.848295,4737.318029
1418.459506,-10510.924376,3983.696590,2368.659014
1418.459817,-9252.574275,1532.190996,-0.000000
1418.460129,-6069.688724,919.314598,-2146.597232
1418.460440,-1406.391290,3600.648841,-3552.988522
1418.460752,-518.144159,5439.278036,-3330.926739
1418.461063,-6661.853478,4443.353888,-2442.679609
1418.461375,-13027.624579,1685.410096,814.226536
1418.461686,-11621.233289,1915.238745,2368.659014
1418.461998,-8956.491898,2451.505594,4145.153275
1418.462309,-7698.141797,383.047749,2368.659014
1418.462621,-7994.224174,-2374.896044,-0.000000
1418.462932,-4663.297435,-1991.848295,-2812.782580
1418.463244,518.144159,766.095498,-4071.132681
1418.463555,-296.082377,2528.115143,-2368.659014
1418.463867,-8290.306550,383.047749,-1036.288319
1418.464178,-14434.015869,-766.095498,2664.741391
1418.464490,-13397.727550,-229.828649,5255.462188
1418.464801,-11325.150913,1378.971896,4737.318029
1418.465113,-11029.068536,2298.286494,2516.700203
1418.465424,-10436.903782,689.485948,-74.020594
1418.465736,-6661.853478,-766.095498,-2368.659014
1418.466047,-1406.391290,536.266849,-2590.720797
1418.466359,-3330.926739,995.924147,-1850.514855
1418.466670,-10807.006753,-995.924147,-444.123565
1418.466981,-15544.324782,-2987.772442,2220.617826
1418.467293,-15914.427753,-3217.601092,4589.276840
1418.467604,-12953.603985,-1455.581446,5255.462188
1418.467916,-10584.944971,-2451.505594,3478.967927
1418.468227,-9548.656652,-4443.353888,592.164754
1418.468539,-6957.935855,-4519.963438,-1406.391290
1418.468850,-3330.926739,-2221.676944,-2220.617826
1418.469162,-4145.153275,-689.485948,-1776.494261
1418.469473,-10955.047942,-1762.019645,-296.082377
1418.469785,-15248.242405,-3217.601092,1258.350101
1418.470096,-15174.221811,-1991.848295,3923.091493
1418.470408,-12879.583391,229.828649,4441.235652
1418.470719,-11695.253884,76.609550,2294.638420
1418.471031,-11177.109724,-1762.019645,296.082377
1418.471342,-8068.244768,-766.095498,-2294.638420
1418.471654,-3182.885551,2221.676944,-2960.823768
1418.471965,-4811.338623,3907.087040,-2960.823768
1418.472277,-9696.697840,2221.676944,-1332.370696
1418.472588,-12953.603985,1532.190996,1110.308913
1418.472900,-12213.398043,1302.362347,2886.803174
1418.473211,-10362.883188,919.314598,4811.338623
1418.473523,-9474.636058,-383.047749,3627.009116
1418.473834,-7550.100608,-3677.258390,1480.411884
1418.474146,-4737.318029,-3447.429741,-1776.494261
1418.474457,-1628.453072,766.095498,-3849.070898
1418.474769,-3923.091493,4213.525239,-3256.906145
1418.475080,-11547.212695,1915.238745,-1702.473667
1418.475392,-14285.974681,995.924147,1924.535449
1418.475703,-12139.377449,2145.067394,4441.235652
1418.476015,-9696.697840,3753.867940,4441.235652
1418.476326,-8734.430116,3064.381992,2072.576638
1418.476638,-6735.874072,1149.143247,-1184.329507
1418.476949,-2220.617826,1378.971896,-3923.091493
1418.477261,2146.597232,3983.696590,-4293.194464
1418.477572,-3182.885551,3600.648841,-3701.029710
1418.477884,-11769.274478,1149.143247,-666.185348
1418.478195,-14952.160028,-1149.143247,2886.803174
1418.478507,-13027.624579,-1762.019645,4589.276840
1418.478818,-11029.068536,-459.657299,4515.256246
1418.479130,-10807.006753,-459.657299,1924.535449
1418.479441,-9178.553681,-1072.533697,-1332.370696
1418.479753,-2664.741391,-612.876398,-2738.761985
1418.480064,-148.041188,919.314598,-2812.782580
1418.480375,-5699.585753,229.828649,-1702.473667
1418.480687,-12361.439231,-1302.362347,1036.288319
1418.480998,-15988.448347,-2987.772442,3775.050304
1418.481310,-14582.057057,-2298.286494,5921.647536
1418.481621,-11769.274478,-2298.286494,5255.462188
1418.481933,-10732.986159,-2911.162892,2368.659014
1418.482244,-9474.636058,-4366.744339,-962.267725
1418.482556,-4663.297435,-2681.334243,-2220.617826
1418.482867,-2368.659014,0.000000,-3552.988522
1418.483179,-7476.080014,76.609550,-1480.411884
1418.483490,-13175.665768,-2145.067394,518.144159
1418.483802,-14730.098246,-2068.457845,3034.844362
1418.484113,-13471.748144,-995.924147,4885.359217
1418.484425,-11325.150913,-1149.143247,4293.194464
1418.484736,-11103.089130,-2834.553343,2368.659014
1418.485048,-9474.636058,-3447.429741,-1110.308913
1418.485359,-4589.276840,-383.047749,-2072.576638
1418.485671,-2738.761985,1378.971896,-2812.782580
1418.485982,-8068.244768,1455.581446,-1406.391290
1418.486294,-13619.789333,-766.095498,740.205942
1418.486605,-14656.077652,-689.485948,2664.741391
1418.486917,-12583.501014,2298.286494,4441.235652
1418.487228,-10140.821405,3753.867940,3849.070898
1418.487540,-10066.800811,1762.019645,740.205942
1418.487851,-8956.491898,306.438199,-1554.432478
1418.488163,-1998.556043,3064.381992,-3256.906145
1418.488474,222.061783,6205.373534,-4515.256246
1418.488786,-4885.359217,4673.182538,-2664.741391
1418.489097,-11917.315666,919.314598,-0.000000
1418.489409,-13397.727550,153.219100,2590.720797
1418.489720,-10584.944971,1302.362347,4441.235652
1418.490032,-9326.594869,2604.724693,3775.050304
1418.490343,-9696.697840,306.438199,1184.329507
1418.490655,-6957.935855,-536.266849,-1850.514855
1418.490966,296.082377,536.266849,-2886.803174
1418.491278,1480.411884,3753.867940,-3849.070898
1418.491589,-5773.606348,2604.724693,-1480.411884
1418.491901,-13693.809927,-383.047749,814.226536
1418.492212,-13841.851115,-919.314598,3256.906145
1418.492524,-11103.089130,995.924147,5107.421000
1418.492835,-9696.697840,689.485948,3849.070898
1418.493147,-9770.718434,-2451.505594,740.205942
1418.493458,-7105.977043,-3370.820191,-1998.556043
1418.493770,-222.061783,-1302.362347,-3108.864956
1418.494081,-888.247130,1762.019645,-1998.556043
1418.494392,-8586.388927,153.219100,-888.247130
1418.494704,-15396.283594,-2298.286494,2590.720797
1418.495015,-16284.530724,-4290.134789,4145.153275
1418.495327,-13323.706956,-1915.238745,4885.359217
1418.495638,-10658.965565,-842.705048,3627.009116
1418.495950,-9770.718434,-3830.477490,1184.329507
1418.496261,-7920.203579,-6511.811733,-222.061783
1418.496573,-2368.659014,-5362.668486,-1406.391290
1418.496884,-3997.112087,-1608.800546,-1628.453072
1418.497196,-11399.171507,-1302.362347,-148.041188
1418.497507,-16284.530724,-1838.629195,1480.411884
1418.497819,-16876.695478,-1072.533697,3701.029710
1418.498130,-12435.459826,1072.533697,4219.173869
1418.498442,-10955.047942,459.657299,1554.432478
1418.498753,-9770.718434,-383.047749,-962.267725
1418.499065,-7328.038826,0.000000,-3182.885551
1418.499376,-4219.173869,2068.457845,-3108.864956
1418.499688,-5107.421000,2528.115143,-2664.741391
1418.499999,-12065.356855,1685.410096,-1110.308913
1418.500311,-15396.283594,612.876398,1702.473667
1418.500622,-13693.809927,306.438199,2516.700203
1418.500934,-10807.006753,1455.581446,3256.906145
1418.501245,-8660.409521,229.828649,2516.700203
1418.501557,-8882.471304,-2221.676944,222.061783
1418.501868,-5181.441594,-1915.238745,-814.226536
1418.502180,-1184.329507,2145.067394,-2368.659014
1418.502491,-4071.132681,4903.011187,-1554.432478
1418.502803,-9474.636058,3600.648841,-666.185348
1418.503114,-13989.892304,1072.533697,1924.535449
1418.503426,-11917.315666,1762.019645,2886.803174
1418.503737,-7846.182985,2911.162892,3849.070898
1418.504049,-8660.409521,1225.752797,1406.391290
1418.504360,-7254.018232,-306.438199,-370.102971
1418.504672,-2886.803174,459.657299,-2146.597232
1418.504983,1776.494261,2604.724693,-2442.679609
1418.505295,-1110.308913,3677.258390,-1702.473667
1418.505606,-9918.759623,1455.581446,-666.185348
1418.505918,-14211.954086,1685.410096,1702.473667
1418.506229,-12805.562797,1149.143247,3775.050304
1418.506541,-9252.574275,1302.362347,3627.009116
1418.506852,-8586.388927,-536.266849,1480.411884
1418.507164,-8882.471304,-4673.182538,-592.164754
1418.507475,-4145.153275,-4826.401637,-1480.411884
1418.507786,-666.185348,-2298.286494,-1480.411884
1418.508098,-4737.318029,-1302.362347,-370.102971
1418.508409,-13545.768739,-3294.210641,1776.494261
1418.508721,-17616.901420,-5209.449386,3627.009116
1418.509032,-15100.201217,-2681.334243,4737.318029
1418.509344,-11399.171507,459.657299,3923.091493
1418.509655,-10436.903782,-612.876398,370.102971
1418.509967,-9992.780217,-1915.238745,-2220.617826
1418.510278,-5921.647536,-766.095498,-3923.091493
1418.510590,-3034.844362,536.266849,-2146.597232
1418.510901,-7624.121203,0.000000,-962.267725
1418.511213,-14952.160028,-1225.752797,1110.308913
1418.511524,-17394.839637,-2298.286494,2294.638420
1418.511836,-14063.912898,-1378.971896,3108.864956
1418.512147,-10066.800811,-459.657299,2590.720797
1418.512459,-8808.450710,-1302.362347,666.185348
1418.512770,-8438.347739,-3983.696590,-1850.514855
1418.513082,-6291.750507,-1532.190996,-3256.906145
1418.513393,-4441.235652,2757.943793,-2072.576638
1418.513705,-10066.800811,2451.505594,-1110.308913
1418.514016,-15396.283594,459.657299,1184.329507
1418.514328,-15988.448347,0.000000,2812.782580
1418.514639,-13915.871710,1225.752797,4071.132681
1418.514951,-9992.780217,1991.848295,4589.276840
1418.515262,-7698.141797,1072.533697,592.164754
1418.515574,-6291.750507,1225.752797,-1406.391290
1418.515885,-1554.432478,1532.190996,-2368.659014
1418.516197,888.247130,4213.525239,-2072.576638
1418.516508,-4737.318029,4443.353888,-1628.453072
1418.516820,-11251.130318,2068.457845,518.144159
1418.517131,-12065.356855,0.000000,2738.761985
1418.517443,-8660.409521,1225.752797,3478.967927
1418.517754,-6217.729913,842.705048,2590.720797
1418.518066,-6291.750507,-2834.553343,-0.000000
1418.518377,-4737.318029,-5209.449386,-740.205942
1418.518689,-888.247130,-3983.696590,-1702.473667
1418.519000,-222.061783,-1455.581446,-1702.473667
1418.519312,-5921.647536,-1762.019645,888.247130
1418.519623,-12435.459826,-3447.429741,2960.823768
1418.519935,-13841.851115,-4366.744339,5107.421000
1418.520246,-11029.068536,-2757.943793,5477.523971
1418.520558,-7698.141797,-1072.533697,3701.029710
1418.520869,-8068.244768,-2068.457845,444.123565
1418.521181,-6291.750507,-5209.449386,-1036.288319
1418.521492,-2442.679609,-6281.983084,-2664.741391
1418.521803,-3478.967927,-4596.572988,-2516.700203
1418.522115,-8734.430116,-3907.087040,-740.205942
1418.522426,-15914.427753,-5898.935335,592.164754
1418.522738,-19097.313304,-6205.373534,3552.988522
1418.523049,-16210.510130,-5286.058936,4219.173869
1418.523361,-11843.295072,-4213.525239,2146.597232
1418.523672,-9622.677246,-4673.182538,666.185348
1418.523984,-7402.059420,-5056.230287,-1850.514855
1418.524295,-4663.297435,-4443.353888,-4293.194464
1418.524607,-3701.029710,-3217.601092,-3627.009116
1418.524918,-7624.121203,-1991.848295,-1776.494261
1418.525230,-12287.418637,-3447.429741,1480.411884
1418.525541,-16062.468941,-7124.688131,3256.906145
1418.525853,-16358.551318,-8044.002729,3775.050304
1418.526164,-15174.221811,-5439.278036,2368.659014
1418.526476,-13989.892304,-2834.553343,1332.370696
1418.526787,-11399.171507,-2374.896044,-370.102971
1418.527099,-8586.388927,-3983.696590,-2664.741391
1418.527410,-6587.832884,-3753.867940,-2812.782580
1418.527722,-7328.038826,-1149.143247,-3701.029710
1418.528033,-8438.347739,2681.334243,-1924.535449
1418.528345,-7920.203579,2451.505594,1258.350101
1418.528656,-7031.956449,-1685.410096,3034.844362
1418.528968,-8438.347739,-5209.449386,4219.173869
1418.529279,-10214.842000,-3907.087040,3701.029710
1418.529591,-8586.388927,-766.095498,740.205942
1418.529902,-5921.647536,2374.896044,-740.205942
1418.530214,-4071.132681,842.705048,-2294.638420
1418.530525,-3923.091493,-1532.190996,-2886.803174
1418.530837,-4737.318029,-2221.676944,-2072.576638
1418.531148,-5773.606348,-1532.190996,-814.226536
1418.531460,-6587.832884,306.438199,962.267725
1418.531771,-8216.285956,919.314598,1554.432478
1418.532083,-10140.821405,766.095498,2590.720797
1418.532394,-9918.759623,-1838.629195,2738.761985
1418.532706,-9918.759623,-2757.943793,2516.700203
1418.533017,-8512.368333,-2374.896044,2294.638420
1418.533329,-8068.244768,-919.314598,592.164754
1418.533640,-7402.059420,-1455.581446,-0.000000
1418.533952,-5847.626942,-3370.820191,222.061783
1418.534263,-4441.235652,-5439.278036,592.164754
1418.534575,-4219.173869,-6665.030833,222.061783
1418.534886,-6365.771101,-5439.278036,-0.000000
1418.535197,-9844.739029,-2298.286494,-962.267725
1418.535509,-11991.336260,0.000000,-888.247130
1418.535820,-12657.521608,229.828649,814.226536
1418.536132,-13175.665768,-1915.238745,2664.741391
1418.536443,-12731.542202,-4060.306139,3923.091493
1418.536755,-11399.171507,-5592.497135,4071.132681
1418.537066,-9992.780217,-6281.983084,3182.885551
1418.537378,-7254.018232,-6588.421283,2442.679609
1418.537689,-6069.688724,-7124.688131,-370.102971
1418.538001,-5329.482782,-6205.373534,-2368.659014
1418.538312,-6365.771101,-5362.668486,-2072.576638
1418.538624,-7994.224174,-5056.230287,-2146.597232
1418.538935,-10214.842000,-4596.572988,-740.205942
1418.539247,-12805.562797,-4213.525239,518.144159
1418.539558,-14063.912898,-2757.943793,2220.617826
1418.539870,-14137.933492,-3677.258390,2812.782580
1418.540181,-13915.871710,-4213.525239,2886.803174
1418.540493,-12953.603985,-4213.525239,2220.617826
1418.540804,-10510.924376,-4443.353888,2072.576638
1418.541116,-8660.409521,-4749.792088,814.226536
1418.541427,-5625.565159,-6358.592633,1036.288319
1418.541739,-6069.688724,-7354.516781,-592.164754
1418.542050,-5625.565159,-6511.811733,-962.267725
1418.542362,-5403.503377,-4136.915689,-2442.679609
1418.542673,-6439.791695,-919.314598,-2368.659014
1418.542985,-8438.347739,995.924147,-1850.514855
1418.543296,-11547.212695,536.266849,-370.102971
1418.543608,-12583.501014,76.609550,1184.329507
1418.543919,-11991.336260,76.609550,1184.329507
1418.544231,-9696.697840,-153.219100,2294.638420
1418.544542,-7254.018232,-919.314598,-0.000000
1418.544854,-5995.668130,-2604.724693,592.164754
1418.545165,-6069.688724,-3753.867940,148.041188
1418.545477,-5403.503377,-2757.943793,-0.000000
1418.545788,-5847.626942,-459.657299,-0.000000
1418.546100,-6883.915261,-766.095498,-296.082377
1418.546411,-7476.080014,-1762.019645,-444.123565
1418.546723,-7105.977043,-2451.505594,-592.164754
1418.547034,-6661.853478,-919.314598,-814.226536
1418.547345,-7920.203579,-1225.752797,-666.185348
1418.547657,-9844.739029,-2451.505594,-296.082377
1418.547968,-12065.356855,-3524.039291,1184.329507
1418.548280,-12435.459826,-4136.915689,1702.473667
1418.548591,-11769.274478,-4519.963438,2368.659014
1418.548903,-10955.047942,-4213.525239,2146.597232
1418.549214,-8882.471304,-3753.867940,1406.391290
1418.549526,-8512.368333,-3600.648841,-518.144159
1418.549837,-6661.853478,-2374.896044,-1184.329507
1418.550149,-6143.709319,306.438199,-1628.453072
1418.550460,-5847.626942,153.219100,-1924.535449
1418.550772,-6069.688724,-383.047749,-1628.453072
1418.551083,-7772.162391,-1762.019645,-1110.308913
1418.551395,-9548.656652,-3370.820191,518.144159
1418.551706,-10807.006753,-5898.935335,2294.638420
1418.552018,-11917.315666,-7124.688131,4219.173869
1418.552329,-12139.377449,-8656.879127,4145.153275
1418.552640,-12731.542202,-8350.440928,3627.009116
1418.552952,-12139.377449,-6741.640382,2886.803174
1418.553263,-10807.006753,-3447.429741,1924.535449
1418.553575,-8956.491898,-1685.410096,1184.329507
1418.553886,-7846.182985,-766.095498,74.020594
1418.554198,-6143.709319,766.095498,666.185348
1418.554509,-6217.729913,76.609550,-296.082377
1418.554821,-6217.729913,-536.266849,-0.000000
1418.555132,-6587.832884,-1532.190996,592.164754
1418.555444,-7920.203579,-2757.943793,962.267725
1418.555755,-9992.780217,-4443.353888,1850.514855
1418.556067,-11695.253884,-5822.325785,2220.617826
1418.556378,-12065.356855,-6435.202183,2664.741391
1418.556690,-11621.233289,-6205.373534,2664.741391
1418.557001,-10140.821405,-5515.887586,3034.844362
1418.557313,-8216.285956,-5056.230287,1776.494261
1418.557624,-6957.935855,-3524.039291,518.144159
1418.557935,-5477.523971,-2374.896044,-0.000000
1418.558247,-4737.318029,-919.314598,-1110.308913
1418.558558,-5107.421000,689.485948,-740.205942
1418.558870,-5625.565159,536.266849,-1184.329507
1418.559181,-7476.080014,-766.095498,444.123565
1418.559493,-8364.327145,-3983.696590,1258.350101
1418.559804,-9622.677246,-4290.134789,1776.494261
1418.560116,-10732.986159,-4519.963438,1702.473667
1418.560427,-10881.027347,-3907.087040,1184.329507
1418.560739,-9622.677246,-2528.115143,1036.288319
1418.561050,-10584.944971,-2451.505594,-962.267725
1418.561362,-8216.285956,-919.314598,-814.226536
1418.561673,-7031.956449,383.047749,-2812.782580
1418.561985,-7254.018232,-153.219100,-1776.494261
1418.562296,-8956.491898,-995.924147,-1258.350101
1418.562608,-10140.821405,-1225.752797,-888.247130
1418.562919,-9844.739029,-689.485948,-370.102971
1418.563230,-9548.656652,-919.314598,1036.288319
1418.563542,-10288.862594,-3217.601092,1480.411884
1418.563853,-10658.965565,-4673.182538,1406.391290
1418.564165,-10066.800811,-5209.449386,2220.617826
1418.564476,-10807.006753,-3677.258390,1998.556043
1418.564788,-12213.398043,-2298.286494,1850.514855
1418.565099,-13693.809927,-842.705048,888.247130
1418.565411,-11695.253884,-689.485948,1332.370696
1418.565722,-10362.883188,-1149.143247,518.144159
1418.566034,-6291.750507,306.438199,1406.391290
1418.566345,-6587.832884,-229.828649,370.102971
1418.566657,-6957.935855,-2528.115143,2442.679609
1418.566968,-7476.080014,-5056.230287,3701.029710
1418.567280,-8216.285956,-3907.087040,4811.338623
1418.567591,-9474.636058,-1838.629195,6439.791695
1418.567902,-12509.480420,-3064.381992,5921.647536
1418.568214,-10732.986159,-2604.724693,7031.956449
1418.568525,-7994.224174,-153.219100,4589.276840
1418.568837,-7550.100608,1149.143247,3701.029710
1418.569148,-5995.668130,2298.286494,2220.617826
1418.569460,-5773.606348,995.924147,1184.329507
1418.569771,-5847.626942,1378.971896,1776.494261
1418.570083,-4663.297435,1378.971896,3034.844362
1418.570394,-9252.574275,0.000000,2664.741391
1418.570706,-10214.842000,-306.438199,6513.812290
1418.571017,-10658.965565,-1762.019645,6291.750507
1418.571329,-9252.574275,-3217.601092,7698.141797
1418.571640,-8586.388927,-2221.676944,7105.977043
1418.571952,-9104.533087,-1608.800546,5847.626942
1418.572263,-7328.038826,-766.095498,5329.482782
1418.572575,-6957.935855,689.485948,3627.009116
1418.572886,-6883.915261,2298.286494,3627.009116
1418.573197,-8586.388927,3447.429741,2590.720797
1418.573509,-9252.574275,3524.039291,3404.947333
1418.573820,-8438.347739,1838.629195,3627.009116
1418.574132,-7402.059420,1991.848295,4145.153275
1418.574443,-7698.141797,306.438199,4737.318029
1418.574755,-8512.368333,-1302.362347,4959.379811
1418.575066,-8956.491898,-2068.457845,5107.421000
1418.575378,-8438.347739,-153.219100,5921.647536
1418.575689,-9030.512492,919.314598,5181.441594
1418.576001,-10288.862594,1302.362347,4959.379811
1418.576312,-11029.068536,1455.581446,3849.070898
1418.576624,-9548.656652,3294.210641,3997.112087
1418.576935,-8290.306550,2911.162892,2960.823768
1418.577247,-7328.038826,1378.971896,3182.885551
1418.577558,-7031.956449,0.000000,2590.720797
1418.577870,-6291.750507,-689.485948,2664.741391
1418.578181,-5255.462188,-1072.533697,3182.885551
1418.578492,-6883.915261,-2451.505594,3701.029710
1418.578804,-9030.512492,-2987.772442,4959.379811
1418.579115,-10658.965565,-2681.334243,5403.503377
1418.579427,-10807.006753,-2374.896044,5773.606348
1418.579738,-11177.109724,-1302.362347,5699.585753
1418.580050,-11547.212695,-459.657299,4737.318029
1418.580361,-10436.903782,1225.752797,3034.844362
1418.580673,-8882.471304,1762.019645,2146.597232
1418.580984,-6883.915261,2911.162892,1036.288319
1418.581296,-7105.977043,1762.019645,740.205942
1418.581607,-8660.409521,0.000000,1480.411884
1418.581919,-8586.388927,-842.705048,2516.700203
1418.582230,-9252.574275,-1685.410096,3997.112087
1418.582542,-8808.450710,-2298.286494,4663.297435
1418.582853,-9104.533087,-2528.115143,4441.235652
1418.583165,-8438.347739,-1915.238745,3404.947333
1418.583476,-7179.997637,0.000000,1998.556043
1418.583787,-7476.080014,689.485948,296.082377
1418.584099,-8660.409521,995.924147,-296.082377
1418.584410,-10362.883188,1838.629195,-74.020594
1418.584722,-11695.253884,1991.848295,296.082377
1418.585033,-12731.542202,1378.971896,1702.473667
1418.585345,-13027.624579,536.266849,2886.803174
1418.585656,-11695.253884,-1225.752797,3627.009116
1418.585968,-9474.636058,-1838.629195,3627.009116
1418.586279,-6291.750507,-2221.676944,2516.700203
1418.586591,-4589.276840,-1991.848295,1924.535449
1418.586902,-4737.318029,-1455.581446,1110.308913
1418.587214,-6957.935855,-383.047749,1036.288319
1418.587525,-9696.697840,612.876398,1776.494261
1418.587837,-11843.295072,1532.190996,2886.803174
1418.588148,-14211.954086,2374.896044,3923.091493
1418.588460,-13545.768739,2451.505594,4663.297435
1418.588771,-10955.047942,919.314598,4145.153275
1418.589082,-7846.182985,76.609550,3108.864956
1418.589394,-4737.318029,-306.438199,1702.473667
1418.589705,-3330.926739,-689.485948,888.247130
1418.590017,-2960.823768,153.219100,1332.370696
1418.590328,-4811.338623,-459.657299,2368.659014
1418.590640,-9104.533087,-612.876398,4293.194464
1418.590951,-12879.583391,-459.657299,5329.482782
1418.591263,-14508.036463,-153.219100,5921.647536
1418.591574,-12139.377449,306.438199,5625.565159
1418.591886,-8956.491898,-459.657299,4441.235652
1418.592197,-7179.997637,-1072.533697,2886.803174
1418.592509,-5477.523971,-536.266849,2738.761985
1418.592820,-5773.606348,0.000000,3627.009116
1418.593132,-7105.977043,383.047749,5625.565159
1418.593443,-10214.842000,229.828649,7031.956449
1418.593755,-12065.356855,-306.438199,8512.368333
1418.594066,-11251.130318,0.000000,8438.347739
1418.594377,-8956.491898,1302.362347,6143.709319
1418.594689,-5995.668130,2987.772442,3627.009116
1418.595000,-3923.091493,4290.134789,592.164754
1418.595312,-3701.029710,3677.258390,-296.082377
1418.595623,-5107.421000,2987.772442,222.061783
1418.595935,-8364.327145,2221.676944,2442.679609
1418.596246,-12435.459826,689.485948,5625.565159
1418.596558,-15322.262999,-1608.800546,8660.409521
1418.596869,-15840.407159,-3447.429741,10140.821405
1418.597181,-13027.624579,-4136.915689,10658.965565
1418.597492,-9030.512492,-3140.991542,9696.697840
1418.597804,-5995.668130,-2068.457845,6735.874072
1418.598115,-3182.885551,-1225.752797,4737.318029
1418.598427,-2516.700203,76.609550,1998.556043
1418.598738,-2368.659014,2374.896044,1036.288319
1418.599050,-4515.256246,3217.601092,592.164754
1418.599361,-7550.100608,3447.429741,2146.597232
1418.599672,-9770.718434,2145.067394,3256.906145
1418.599984,-11177.109724,0.000000,4737.318029
1418.600295,-12509.480420,-766.095498,5403.503377
1418.600607,-13249.686362,-1225.752797,6143.709319
1418.600918,-12731.542202,-1225.752797,5625.565159
1418.601230,-10881.027347,-1225.752797,5773.606348
1418.601541,-9474.636058,-689.485948,5255.462188
1418.601853,-8660.409521,-536.266849,4737.318029
1418.602164,-5847.626942,0.000000,4145.153275
1418.602476,-2960.823768,0.000000,2812.782580
1418.602787,-1628.453072,536.266849,962.267725
1418.603099,-814.226536,1072.533697,-592.164754
1418.603410,-2368.659014,612.876398,-1258.350101
1418.603722,-6661.853478,0.000000,-1258.350101
1418.604033,-12731.542202,-612.876398,1258.350101
1418.604345,-18209.066173,0.000000,4737.318029
1418.604656,-22576.281231,-383.047749,7179.997637
1418.604967,-21539.992912,383.047749,9252.574275
1418.605279,-15544.324782,-842.705048,7846.182985
1418.605590,-7105.977043,-1072.533697,5107.421000
1418.605902,1184.329507,-766.095498,1554.432478
1418.606213,4589.276840,229.828649,-1480.411884
1418.606525,2738.761985,1072.533697,-3849.070898
1418.606836,-1258.350101,1532.190996,-3997.112087
1418.607148,-6587.832884,1072.533697,-2960.823768
1418.607459,-12213.398043,536.266849,444.123565
1418.607771,-16950.716072,-919.314598,4145.153275
1418.608082,-21021.848753,-995.924147,6143.709319
1418.608394,-21614.013506,-1685.410096,7772.162391
1418.608705,-18653.189738,-2145.067394,7624.121203
1418.609017,-13397.727550,-1455.581446,6735.874072
1418.609328,-6735.874072,-919.314598,3923.091493
1418.609640,-296.082377,-1532.190996,-1332.370696
1418.609951,5033.400406,766.095498,-5551.544565
1418.610262,5625.565159,2681.334243,-6809.894666
1418.610574,-518.144159,3447.429741,-5107.421000
1418.610885,-9918.759623,1608.800546,-1628.453072
1418.611197,-18801.230927,153.219100,2368.659014
1418.611508,-23316.487173,229.828649,6069.688724
1418.611820,-22280.198854,76.609550,6661.853478
1418.612131,-16358.551318,-612.876398,5847.626942
1418.612443,-9400.615463,-1378.971896,3330.926739
1418.612754,-2294.638420,-1608.800546,370.102971
1418.613066,2590.720797,-766.095498,-1184.329507
1418.613377,1628.453072,153.219100,-1332.370696
1418.613689,-1850.514855,1149.143247,-148.041188
1418.614000,-7254.018232,766.095498,148.041188
1418.614312,-11473.192101,536.266849,518.144159
1418.614623,-13175.665768,1378.971896,592.164754
1418.614935,-13323.706956,2528.115143,1332.370696
1418.615246,-11843.295072,689.485948,814.226536
1418.615557,-10362.883188,-2068.457845,962.267725
1418.615869,-9622.677246,-4136.915689,1850.514855
1418.616180,-8586.388927,-3294.210641,3182.885551
1418.616492,-7920.203579,-1378.971896,3849.070898
1418.616803,-9104.533087,-1225.752797,4811.338623
1418.617115,-10584.944971,-612.876398,5255.462188
1418.617426,-10510.924376,383.047749,3552.988522
1418.617738,-6735.874072,1838.629195,1332.370696
1418.618049,-3108.864956,3217.601092,-1406.391290
1418.618361,-2368.659014,3064.381992,-4293.194464
1418.618672,-3404.947333,1455.581446,-4885.359217
1418.618984,-5033.400406,153.219100,-3034.844362
1418.619295,-9474.636058,-612.876398,1554.432478
1418.619607,-16284.530724,-1455.581446,6217.729913
1418.619918,-21317.931130,-3217.601092,9474.636058
1418.620230,-21688.034101,-3677.258390,11103.089130
1418.620541,-17024.736666,-2757.943793,9770.718434
1418.620852,-8660.409521,0.000000,5403.503377
1418.621164,-814.226536,1225.752797,-518.144159
1418.621475,4367.215058,1455.581446,-6291.750507
1418.621787,7031.956449,1991.848295,-7846.182985
1418.622098,3775.050304,3753.867940,-7328.038826
1418.622410,-4145.153275,4366.744339,-2738.761985
1418.622721,-15100.201217,1838.629195,2294.638420
1418.623033,-21910.095883,-1455.581446,7698.141797
1418.623344,-22280.198854,-2681.334243,9770.718434
1418.623656,-17838.963202,-2374.896044,8660.409521
1418.623967,-12065.356855,-2298.286494,3923.091493
1418.624279,-5625.565159,-1225.752797,-296.082377
1418.624590,666.185348,612.876398,-3478.967927
1418.624902,2442.679609,1378.971896,-4959.379811
1418.625213,444.123565,1685.410096,-5033.400406
1418.625525,-4293.194464,1532.190996,-4145.153275
1418.625836,-7994.224174,1532.190996,-1850.514855
1418.626147,-11547.212695,1302.362347,962.267725
1418.626459,-14730.098246,0.000000,2072.576638
1418.626770,-16358.551318,-1991.848295,1036.288319
1418.627082,-15322.262999,-3447.429741,1184.329507
1418.627393,-11621.233289,-3447.429741,74.020594
1418.627705,-7698.141797,-1838.629195,-1110.308913
1418.628016,-7698.141797,383.047749,-2220.617826
1418.628328,-9400.615463,-306.438199,-1110.308913
1418.628639,-10436.903782,-766.095498,-666.185348
1418.628951,-8438.347739,995.924147,-0.000000
1418.629262,-7624.121203,1762.019645,-2294.638420
1418.629574,-7550.100608,689.485948,-5255.462188
1418.629885,-5329.482782,766.095498,-6439.791695
1418.630197,-5181.441594,1149.143247,-7550.100608
1418.630508,-6735.874072,1225.752797,-5181.441594
1418.630820,-12509.480420,-1991.848295,-1924.535449
1418.631131,-18801.230927,-3600.648841,2220.617826
1418.631442,-20873.807564,-3600.648841,5699.585753
1418.631754,-17912.983796,-3907.087040,7402.059420
1418.632065,-12287.418637,-3140.991542,4589.276840
1418.632377,-7328.038826,-2451.505594,-666.185348
1418.632688,-1850.514855,0.000000,-5181.441594
1418.633000,1998.556043,1991.848295,-8882.471304
1418.633311,1554.432478,4749.792088,-8290.306550
1418.633623,-4293.194464,5132.839837,-6439.791695
1418.633934,-11769.274478,3524.039291,-1628.453072
1418.634246,-17246.798449,-229.828649,3182.885551
1418.634557,-18357.107362,-2221.676944,6809.894666
1418.634869,-15544.324782,-1915.238745,7402.059420
1418.635180,-13175.665768,-2221.676944,4737.318029
1418.635492,-8438.347739,-2757.943793,2072.576638
1418.635803,-2368.659014,-2145.067394,-1184.329507
1418.636115,592.164754,-1302.362347,-2738.761985
1418.636426,-1924.535449,1455.581446,-3775.050304
1418.636737,-7698.141797,2987.772442,-1850.514855
1418.637049,-11621.233289,2451.505594,444.123565
1418.637360,-11325.150913,919.314598,3034.844362
1418.637672,-9548.656652,76.609550,2812.782580
1418.637983,-7402.059420,-689.485948,2516.700203
1418.638295,-6957.935855,-2145.067394,296.082377
1418.638606,-6661.853478,-1378.971896,-0.000000
1418.638918,-7550.100608,612.876398,2146.597232
1418.639229,-11029.068536,612.876398,2960.823768
1418.639541,-14804.118840,995.924147,4071.132681
1418.639852,-14359.995275,306.438199,5107.421000
1418.640164,-10362.883188,1455.581446,3182.885551
1418.640475,-4959.379811,2604.724693,1036.288319
1418.640787,-2368.659014,1532.190996,-2664.741391
1418.641098,0.000000,919.314598,-4219.173869
1418.641410,-666.185348,-76.609550,-4737.318029
1418.641721,-4219.173869,0.000000,-2220.617826
1418.642032,-11547.212695,-689.485948,1480.411884
1418.642344,-18801.230927,-2604.724693,5625.565159
1418.642655,-20429.683999,-2987.772442,9326.594869
1418.642967,-17690.922014,-3830.477490,9474.636058
1418.643278,-11325.150913,-4136.915689,6587.832884
1418.643590,-5995.668130,-2757.943793,2146.597232
1418.643901,-2516.700203,-919.314598,-3330.926739
1418.644213,740.205942,2145.067394,-6143.709319
1418.644524,-1110.308913,4979.620737,-6587.832884
1418.644836,-7105.977043,6358.592633,-3701.029710
1418.645147,-13323.706956,4749.792088,-0.000000
1418.645459,-16062.468941,766.095498,3034.844362
1418.645770,-12805.562797,-1225.752797,4145.153275
1418.646082,-9178.553681,-2145.067394,2886.803174
1418.646393,-7698.141797,-2298.286494,1184.329507
1418.646705,-7105.977043,-2681.334243,222.061783
1418.647016,-7624.121203,-1991.848295,-518.144159
1418.647327,-9474.636058,-1532.190996,518.144159
1418.647639,-11251.130318,-383.047749,444.123565
1418.647950,-11547.212695,1378.971896,592.164754
1418.648262,-9104.533087,2374.896044,-0.000000
1418.648573,-4885.359217,995.924147,-296.082377
1418.648885,-2590.720797,-2374.896044,-1258.350101
1418.649196,-4441.235652,-3064.381992,-2368.659014
1418.649508,-7254.018232,-1915.238745,-1332.370696
1418.649819,-9178.553681,-153.219100,-518.144159
1418.650131,-12805.562797,459.657299,814.226536
1418.650442,-16580.613101,536.266849,2664.741391
1418.650754,-16284.530724,1072.533697,3108.864956
1418.651065,-13397.727550,919.314598,3108.864956
1418.651377,-7179.997637,2221.676944,1332.370696
1418.651688,-2590.720797,2451.505594,-2442.679609
1418.652000,-1554.432478,1532.190996,-5477.523971
1418.652311,-518.144159,1302.362347,-6735.874072
1418.652623,-1924.535449,1532.190996,-6291.750507
1418.652935,-6217.729913,2068.457845,-3849.070898
1418.653246,-13841.851115,536.266849,-1184.329507
1418.653558,-19541.436869,-1532.190996,2072.576638
1418.653869,-20281.642811,-3447.429741,5625.565159
1418.654181,-16802.674883,-4290.134789,6069.688724
1418.654492,-11547.212695,-4443.353888,3701.029710
1418.654804,-7254.018232,-4903.011187,296.082377
1418.655115,-2886.803174,-3524.039291,-3627.009116
1418.655427,962.267725,153.219100,-4663.297435
1418.655738,-1850.514855,2681.334243,-5403.503377
1418.656050,-9400.615463,3524.039291,-2442.679609
1418.656361,-15988.448347,2068.457845,-74.020594
1418.656673,-17912.983796,1225.752797,2368.659014
1418.656984,-14211.954086,1072.533697,2442.679609
1418.657296,-9474.636058,153.219100,-74.020594
1418.657607,-5847.626942,-766.095498,-1332.370696
1418.657919,-3478.967927,-1149.143247,-1998.556043
1418.658230,-4219.173869,-689.485948,-888.247130
1418.658542,-8956.491898,0.000000,2294.638420
1418.658853,-15100.201217,842.705048,3775.050304
1418.659165,-16210.510130,459.657299,4959.379811
1418.659476,-11991.336260,612.876398,4219.173869
1418.659788,-4811.338623,-229.828649,1998.556043
1418.660099,-296.082377,-1455.581446,-2072.576638
1418.660411,148.041188,-3064.381992,-3923.091493
1418.660722,-2590.720797,-2528.115143,-2886.803174
1418.661034,-7476.080014,-1762.019645,518.144159
1418.661345,-14285.974681,-766.095498,3701.029710
1418.661657,-20503.704593,-919.314598,6735.874072
1418.661968,-21391.951724,-766.095498,8660.409521
1418.662280,-15100.201217,612.876398,8734.430116
1418.662591,-7624.121203,1225.752797,5773.606348
1418.662903,-1702.473667,919.314598,1110.308913
1418.663214,888.247130,1608.800546,-3182.885551
1418.663526,3108.864956,1915.238745,-4515.256246
1418.663837,1332.370696,4136.915689,-3701.029710
1418.664149,-5921.647536,4749.792088,-1628.453072
1418.664460,-14878.139434,4290.134789,1554.432478
1418.664772,-19245.354492,2528.115143,6661.853478
1418.665083,-17394.839637,-689.485948,9622.677246
1418.665395,-10881.027347,-3524.039291,8290.306550
1418.665706,-5921.647536,-4903.011187,4737.318029
1418.666018,-3108.864956,-3370.820191,1776.494261
1418.666329,-1554.432478,-1149.143247,-814.226536
1418.666641,-3182.885551,1302.362347,-1184.329507
1418.666952,-7698.141797,2068.457845,-1258.350101
1418.667264,-12361.439231,1455.581446,1332.370696
1418.667575,-14508.036463,1455.581446,2368.659014
1418.667887,-11843.295072,1685.410096,3108.864956
1418.668198,-9104.533087,-153.219100,1554.432478
1418.668510,-6735.874072,-2221.676944,740.205942
1418.668821,-5033.400406,-2834.553343,-222.061783
1418.669133,-5847.626942,-2604.724693,-592.164754
1418.669444,-7772.162391,-153.219100,888.247130
1418.669756,-12805.562797,689.485948,1480.411884
1418.670067,-15840.407159,2145.067394,1998.556043
1418.670379,-14285.974681,1762.019645,2738.761985
1418.670690,-9326.594869,995.924147,1406.391290
1418.671002,-4515.256246,-689.485948,-814.226536
1418.671313,-3256.906145,-1915.238745,-4367.215058
1418.671625,-3034.844362,-1532.190996,-5921.647536
1418.671936,-3627.009116,0.000000,-5551.544565
1418.672248,-6957.935855,766.095498,-3256.906145
1418.672559,-13027.624579,306.438199,-888.247130
1418.672871,-19245.354492,-766.095498,2738.761985
1418.673182,-21317.931130,-1378.971896,5699.585753
1418.673494,-17024.736666,-995.924147,6365.771101
1418.673805,-10658.965565,-612.876398,2960.823768
1418.674117,-4737.318029,-1455.581446,-2368.659014
1418.674429,-148.041188,-1378.971896,-7105.977043
1418.674740,2220.617826,76.609550,-7994.224174
1418.675052,-1702.473667,3140.991542,-7254.018232
1418.675363,-10658.965565,3983.696590,-3997.112087
1418.675675,-18283.086767,1685.410096,1628.453072
1418.675986,-21169.889941,-229.828649,5107.421000
1418.676298,-17098.757260,-2145.067394,6513.812290
1418.676609,-9844.739029,-3753.867940,3701.029710
1418.676921,-5033.400406,-3753.867940,-592.164754
1418.677232,-370.102971,-1378.971896,-3108.864956
1418.677544,222.061783,76.609550,-3627.009116
1418.677855,-4219.173869,1378.971896,-3182.885551
1418.678167,-11547.212695,1991.848295,148.041188
1418.678478,-16580.613101,919.314598,2294.638420
1418.678790,-16284.530724,1378.971896,3701.029710
1418.679101,-11695.253884,1225.752797,3108.864956
1418.679413,-6661.853478,229.828649,666.185348
1418.679724,-3256.906145,-1455.581446,-1850.514855
1418.680036,-2590.720797,-2528.115143,-1776.494261
1418.680347,-4219.173869,-766.095498,-592.164754
1418.680659,-8882.471304,766.095498,1406.391290
1418.680970,-14137.933492,1302.362347,3034.844362
1418.681282,-16358.551318,1072.533697,4663.297435
1418.681593,-12953.603985,306.438199,4959.379811
1418.681905,-7254.018232,76.609550,3997.112087
1418.682216,-4219.173869,0.000000,1036.288319
1418.682528,-3701.029710,306.438199,-1258.350101
1418.682839,-4663.297435,229.828649,-2146.597232
1418.683151,-4589.276840,1302.362347,-962.267725
1418.683462,-7402.059420,2298.286494,444.123565
1418.683774,-12583.501014,536.266849,2368.659014
1418.684085,-16062.468941,0.000000,5033.400406
1418.684397,-15766.386565,459.657299,6587.832884
1418.684708,-11695.253884,919.314598,6587.832884
1418.685020,-7994.224174,-919.314598,4589.276840
1418.685331,-6587.832884,-2221.676944,1998.556043
1418.685643,-5477.523971,-459.657299,296.082377
1418.685954,-2960.823768,536.266849,-740.205942
1418.686266,-4515.256246,1302.362347,-592.164754
1418.686577,-9548.656652,919.314598,518.144159
1418.686889,-12287.418637,459.657299,3182.885551
1418.687200,-12361.439231,-1225.752797,5477.523971
1418.687512,-11769.274478,-2298.286494,7031.956449
1418.687823,-9474.636058,-2911.162892,5329.482782
1418.688135,-8142.265362,-4673.182538,3034.844362
1418.688446,-4145.153275,-2911.162892,1850.514855
1418.688758,-1998.556043,383.047749,-74.020594
1418.689069,-4367.215058,2451.505594,-1628.453072
1418.689381,-8660.409521,2911.162892,-1110.308913
1418.689692,-12287.418637,3447.429741,296.082377
1418.690004,-12805.562797,3753.867940,1998.556043
1418.690315,-11325.150913,3370.820191,2738.761985
1418.690627,-8956.491898,1302.362347,1036.288319
1418.690938,-5181.441594,-1072.533697,-1480.411884
1418.691250,-3256.906145,-1762.019645,-3478.967927
1418.691561,-1702.473667,383.047749,-3034.844362
1418.691873,-5551.544565,842.705048,-2146.597232
1418.692184,-11325.150913,153.219100,-1554.432478
1418.692496,-15100.201217,-689.485948,888.247130
1418.692807,-14508.036463,-383.047749,2516.700203
1418.693119,-10362.883188,-995.924147,1110.308913
1418.693430,-7179.997637,-1532.190996,-2516.700203
1418.693742,-5699.585753,-1455.581446,-4737.318029
1418.694053,-5107.421000,-1378.971896,-5921.647536
1418.694365,-5995.668130,306.438199,-5255.462188
1418.694676,-11325.150913,1915.238745,-3627.009116
1418.694988,-16506.592507,459.657299,-1258.350101
1418.695299,-17024.736666,-229.828649,222.061783
1418.695611,-14656.077652,-536.266849,1184.329507
1418.695923,-10881.027347,-1072.533697,-148.041188
1418.696234,-8216.285956,-1072.533697,-1924.535449
1418.696546,-6661.853478,-1378.971896,-3627.009116
1418.696857,-5921.647536,-536.266849,-5107.421000
1418.697169,-7031.956449,0.000000,-3182.885551
1418.697480,-10584.944971,383.047749,-3775.050304
1418.697792,-13619.789333,995.924147,-2590.720797
1418.698103,-13767.830521,842.705048,-888.247130
1418.698415,-11843.295072,-995.924147,888.247130
1418.698726,-9992.780217,-2528.115143,888.247130
1418.699038,-9326.594869,-3370.820191,1480.411884
1418.699349,-9178.553681,-3983.696590,-444.123565
1418.699661,-6661.853478,-2681.334243,-518.144159
1418.699972,-5403.503377,153.219100,-814.226536
1418.700284,-7328.038826,766.095498,-1776.494261
1418.700595,-10658.965565,612.876398,-518.144159
1418.700907,-12287.418637,1302.362347,1332.370696
1418.701218,-11843.295072,2451.505594,2590.720797
1418.701530,-9400.615463,1991.848295,3256.906145
1418.701841,-7772.162391,-536.266849,1702.473667
1418.702153,-5921.647536,-1455.581446,1036.288319
1418.702464,-3256.906145,-1072.533697,-0.000000
1418.702776,-2072.576638,1149.143247,222.061783
1418.703087,-5107.421000,1302.362347,1036.288319
1418.703399,-10658.965565,766.095498,2516.700203
1418.703710,-13619.789333,459.657299,4959.379811
1418.704022,-11769.274478,383.047749,6513.812290
1418.704333,-9844.739029,-383.047749,5625.565159
1418.704645,-7105.977043,0.000000,3256.906145
1418.704956,-4367.215058,-1685.410096,814.226536
1418.705268,-1628.453072,-612.876398,-296.082377
1418.705579,-1702.473667,1072.533697,370.102971
1418.705891,-7105.977043,766.095498,1924.535449
1418.706202,-13693.809927,76.609550,3552.988522
1418.706514,-15840.407159,0.000000,5625.565159
1418.706825,-14211.954086,1532.190996,7031.956449
1418.707137,-10584.944971,919.314598,5773.606348
1418.707448,-7031.956449,-612.876398,3627.009116
1418.707760,-3330.926739,-2221.676944,-74.020594
1418.708071,-222.061783,-459.657299,-2072.576638
1418.708383,-1702.473667,2451.505594,-1406.391290
1418.708694,-8956.491898,3524.039291,-740.205942
1418.709006,-14656.077652,2604.724693,1924.535449
1418.709317,-18283.086767,766.095498,3552.988522
1418.709629,-15100.201217,0.000000,5625.565159
1418.709940,-9622.677246,-1149.143247,3997.112087
1418.710252,-6291.750507,-1762.019645,740.205942
1418.710563,-3404.947333,-2987.772442,-2368.659014
1418.710875,-1406.391290,-2757.943793,-3775.050304
1418.711186,-2960.823768,-1072.533697,-2220.617826
1418.711498,-9178.553681,536.266849,-2442.679609
1418.711809,-14952.160028,153.219100,-222.061783
1418.712121,-15988.448347,919.314598,444.123565
1418.712432,-13323.706956,766.095498,666.185348
1418.712744,-9622.677246,536.266849,-222.061783
1418.713055,-7846.182985,-766.095498,-2146.597232
1418.713367,-5773.606348,-2374.896044,-4071.132681
1418.713678,-3478.967927,-612.876398,-4589.276840
1418.713990,-5847.626942,536.266849,-4071.132681
1418.714301,-11621.233289,689.485948,-2664.741391
1418.714613,-14804.118840,995.924147,-962.267725
1418.714924,-15248.242405,766.095498,370.102971
1418.715236,-13693.809927,153.219100,666.185348
1418.715547,-10436.903782,-1302.362347,-518.144159
1418.715859,-7550.100608,-2145.067394,-3108.864956
1418.716170,-4589.276840,-2298.286494,-4737.318029
1418.716482,-2738.761985,-919.314598,-5033.400406
1418.716793,-5773.606348,-766.095498,-4737.318029
1418.717105,-10658.965565,-229.828649,-2590.720797
1418.717417,-14211.954086,0.000000,-0.000000
1418.717728,-15396.283594,0.000000,3108.864956
1418.718040,-14063.912898,-842.705048,3330.926739
1418.718351,-11029.068536,-1302.362347,1480.411884
1418.718663,-8882.471304,-1991.848295,-1776.494261
1418.718974,-5181.441594,-1455.581446,-3330.926739
1418.719286,-2812.782580,1685.410096,-3997.112087
1418.719597,-4737.318029,1991.848295,-3404.947333
1418.719909,-11251.130318,1455.581446,-1258.350101
1418.720220,-15174.221811,1149.143247,2516.700203
1418.720532,-14656.077652,1225.752797,4515.256246
1418.720843,-11917.315666,995.924147,4811.338623
1418.721155,-8586.388927,-1072.533697,3478.967927
1418.721466,-6439.791695,-2374.896044,1258.350101
1418.721778,-2590.720797,-1532.190996,-444.123565
1418.722089,-666.185348,-306.438199,-1554.432478
1418.722401,-4219.173869,306.438199,-962.267725
1418.722712,-10584.944971,1149.143247,1110.308913
1418.723024,-14063.912898,919.314598,3552.988522
1418.723335,-13989.892304,1225.752797,4737.318029
1418.723647,-10881.027347,-306.438199,4959.379811
1418.723958,-7846.182985,-766.095498,3404.947333
1418.724270,-5699.585753,-1225.752797,1406.391290
1418.724581,-3701.029710,-842.705048,888.247130
1418.724893,-3034.844362,229.828649,740.205942
1418.725204,-6439.791695,229.828649,1776.494261
1418.725516,-11843.295072,919.314598,2368.659014
1418.725827,-13841.851115,229.828649,3552.988522
1418.726139,-12287.418637,1378.971896,5551.544565
1418.726450,-10658.965565,766.095498,5107.421000
1418.726762,-7772.162391,-995.924147,3701.029710
1418.727073,-5921.647536,-2528.115143,1258.350101
1418.727385,-3108.864956,-1378.971896,-0.000000
1418.727696,-2738.761985,1302.362347,-74.020594
1418.728008,-6439.791695,2068.457845,518.144159
1418.728319,-12361.439231,1072.533697,1850.514855
1418.728631,-14952.160028,919.314598,4293.194464
1418.728942,-14434.015869,1532.190996,5847.626942
1418.729254,-11917.315666,1225.752797,5403.503377
1418.729565,-9548.656652,-689.485948,3775.050304
1418.729877,-6957.935855,-2911.162892,1258.350101
1418.730188,-1776.494261,-2987.772442,-888.247130
1418.730500,740.205942,-459.657299,-2960.823768
1418.730811,-3256.906145,1838.629195,-1406.391290
1418.731123,-11399.171507,1149.143247,296.082377
1418.731434,-16506.592507,153.219100,3108.864956
1418.731746,-17616.901420,229.828649,5699.585753
1418.732057,-14063.912898,383.047749,6957.935855
1418.732369,-9104.533087,-766.095498,3182.885551
1418.732680,-4515.256246,-1991.848295,-1480.411884
1418.732992,1036.288319,-459.657299,-5107.421000
1418.733303,3034.844362,995.924147,-6513.812290
1418.733615,-2960.823768,2911.162892,-5847.626942
1418.733926,-10807.006753,2834.553343,-2812.782580
1418.734238,-17320.819043,2068.457845,740.205942
1418.734549,-19023.292709,1378.971896,3701.029710
1418.734861,-15470.304188,536.266849,2886.803174
1418.735172,-9770.718434,-383.047749,-74.020594
1418.735484,-4367.215058,-1608.800546,-3849.070898
1418.735795,0.000000,-2068.457845,-5329.482782
1418.736107,444.123565,-1685.410096,-6661.853478
1418.736418,-7105.977043,0.000000,-5033.400406
1418.736730,-15840.407159,612.876398,-1998.556043
1418.737041,-19393.395680,459.657299,2664.741391
1418.737353,-18727.210333,-459.657299,4071.132681
1418.737664,-14137.933492,-1991.848295,2368.659014
1418.737976,-9696.697840,-3447.429741,-1036.288319
1418.738288,-5329.482782,-2451.505594,-3701.029710
1418.738599,-2516.700203,-459.657299,-5403.503377
1418.738911,-3701.029710,1302.362347,-5847.626942
1418.739222,-9992.780217,842.705048,-3775.050304
1418.739534,-15322.262999,1072.533697,-444.123565
1418.739845,-17172.777854,1302.362347,2590.720797
1418.740157,-15692.365970,1072.533697,4145.153275
1418.740468,-11473.192101,-383.047749,3404.947333
1418.740780,-9104.533087,-2757.943793,1036.288319
1418.741091,-6587.832884,-3447.429741,-1850.514855
1418.741403,-1554.432478,-2374.896044,-3404.947333
1418.741714,-1850.514855,766.095498,-3034.844362
1418.742026,-7105.977043,1149.143247,-1850.514855
1418.742337,-13619.789333,766.095498,1628.453072
1418.742649,-15840.407159,383.047749,5181.441594
1418.742960,-14878.139434,-76.609550,6661.853478
1418.743272,-10510.924376,-383.047749,6809.894666
1418.743583,-5773.606348,-1378.971896,2960.823768
1418.743895,-3775.050304,-995.924147,-0.000000
1418.744206,-814.226536,612.876398,-1184.329507
1418.744518,-1332.370696,1455.581446,-962.267725
1418.744829,-6217.729913,2451.505594,-0.000000
1418.745141,-11399.171507,2757.943793,2590.720797
1418.745452,-14063.912898,1991.848295,4885.359217
1418.745764,-10807.006753,1225.752797,6439.791695
1418.746075,-8290.306550,0.000000,4737.318029
1418.746387,-5995.668130,-1455.581446,3256.906145
1418.746698,-3701.029710,-1532.190996,1480.411884
1418.747010,-2146.597232,-229.828649,592.164754
1418.747321,-3849.070898,1532.190996,666.185348
1418.747633,-8734.430116,1072.533697,962.267725
1418.747944,-12657.521608,1302.362347,3108.864956
1418.748256,-13841.851115,1838.629195,5255.462188
1418.748567,-12731.542202,842.705048,6143.709319
1418.748878,-9918.759623,-1149.143247,5033.400406
1418.749190,-7920.203579,-2834.553343,2960.823768
1418.749501,-5995.668130,-2221.676944,666.185348
1418.749813,-3182.885551,0.000000,-1258.350101
1418.750124,-4441.235652,2145.067394,-1998.556043
1418.750435,-8216.285956,2145.067394,-2072.576638
1418.750747,-12509.480420,1762.019645,222.061783
1418.751058,-15692.365970,842.705048,2738.761985
1418.751369,-15544.324782,1302.362347,4885.359217
1418.751681,-13101.645173,919.314598,3923.091493
1418.751992,-9622.677246,-919.314598,2442.679609
1418.752304,-4811.338623,-2757.943793,-666.185348
1418.752615,814.226536,-2221.676944,-4219.173869
1418.752926,1332.370696,0.000000,-4959.379811
1418.753238,-6143.709319,2145.067394,-3552.988522
1418.753549,-13915.871710,1915.238745,740.205942
1418.753860,-18727.210333,153.219100,3775.050304
1418.754172,-19171.333898,-1072.533697,5033.400406
1418.754483,-14211.954086,-2221.676944,3701.029710
1418.754795,-7698.141797,-2374.896044,-222.061783
1418.755106,-1184.329507,-1455.581446,-4293.194464
1418.755417,2738.761985,-383.047749,-6957.935855
1418.755729,-740.205942,612.876398,-7031.956449
1418.756040,-8808.450710,919.314598,-2886.803174
1418.756352,-15618.345376,1378.971896,370.102971
1418.756663,-19097.313304,1455.581446,2960.823768
1418.756974,-16654.633695,1302.362347,3997.112087
1418.757286,-10732.986159,0.000000,222.061783
1418.757597,-4737.318029,-1915.238745,-2886.803174
1418.757908,-666.185348,-1762.019645,-5033.400406
1418.758220,0.000000,-842.705048,-6069.688724
1418.758531,-4811.338623,-306.438199,-4071.132681
1418.758843,-13027.624579,-306.438199,-1850.514855
1418.759154,-18579.169144,0.000000,2146.597232
1418.759465,-18209.066173,0.000000,4663.297435
1418.759777,-13545.768739,-229.828649,3923.091493
1418.760088,-8068.244768,-1685.410096,962.267725
1418.760399,-6439.791695,-2681.334243,-1776.494261
1418.760711,-3849.070898,-1915.238745,-3108.864956
1418.761022,-2368.659014,1225.752797,-3404.947333
1418.761334,-6439.791695,1608.800546,-2960.823768
1418.761645,-12139.377449,1072.533697,-1480.411884
1418.761956,-13471.748144,1072.533697,962.267725
1418.762268,-12657.521608,1915.238745,2664.741391
1418.762579,-10288.862594,1072.533697,3849.070898
1418.762891,-9104.533087,-1762.019645,2368.659014
1418.763202,-8808.450710,-2987.772442,666.185348
1418.763513,-5403.503377,-2221.676944,-888.247130
1418.763825,-3330.926739,-612.876398,-1554.432478
1418.764136,-5329.482782,536.266849,-1184.329507
1418.764447,-9992.780217,1149.143247,-962.267725
1418.764759,-12435.459826,1455.581446,1924.535449
1418.765070,-12583.501014,919.314598,3849.070898
1418.765382,-11029.068536,-612.876398,4959.379811
1418.765693,-9326.594869,-1608.800546,3108.864956
1418.766004,-7550.100608,-2528.115143,1110.308913
1418.766316,-4959.379811,-1225.752797,-296.082377
1418.766627,-3256.906145,1149.143247,-1184.329507
1418.766938,-6069.688724,1991.848295,-1258.350101
1418.767250,-9918.759623,1302.362347,296.082377
1418.767561,-12583.501014,995.924147,2812.782580
1418.767873,-12657.521608,1302.362347,4515.256246
1418.768184,-10214.842000,919.314598,4367.215058
1418.768495,-8216.285956,-536.266849,1998.556043
1418.768807,-5403.503377,-1762.019645,518.144159
1418.769118,-1776.494261,-1378.971896,-592.164754
1418.769430,-2368.659014,-766.095498,-1924.535449
1418.769741,-7328.038826,536.266849,-74.020594
1418.770052,-14211.954086,689.485948,1258.350101
1418.770364,-16802.674883,459.657299,4663.297435
1418.770675,-16284.530724,0.000000,5477.523971
1418.770986,-12805.562797,229.828649,5107.421000
1418.771298,-8290.306550,-1532.190996,3108.864956
1418.771609,-3552.988522,-3294.210641,-0.000000
1418.771921,740.205942,-1838.629195,-3330.926739
1418.772232,1184.329507,1762.019645,-2590.720797
1418.772543,-5995.668130,2681.334243,-592.164754
1418.772855,-14656.077652,1225.752797,2072.576638
1418.773166,-19097.313304,76.609550,5403.503377
1418.773477,-17172.777854,153.219100,5847.626942
1418.773789,-10807.006753,459.657299,3997.112087
1418.774100,-4589.276840,-153.219100,148.041188
1418.774412,-518.144159,-2068.457845,-3849.070898
1418.774723,1332.370696,-1455.581446,-5181.441594
1418.775034,-888.247130,-536.266849,-3552.988522
1418.775346,-9030.512492,536.266849,-1406.391290
1418.775657,-16654.633695,919.314598,2220.617826
1418.775968,-19393.395680,1378.971896,4145.153275
1418.776280,-15766.386565,919.314598,3701.029710
1418.776591,-9030.512492,229.828649,962.267725
1418.776903,-4367.215058,-1455.581446,-1850.514855
1418.777214,-1850.514855,-1762.019645,-4293.194464
1418.777525,-370.102971,-383.047749,-5329.482782
1418.777837,-4367.215058,689.485948,-4441.235652
1418.778148,-12065.356855,1455.581446,-2886.803174
1418.778460,-17246.798449,1991.848295,666.185348
1418.778771,-17690.922014,2221.676944,2294.638420
1418.779082,-14730.098246,995.924147,1702.473667
1418.779394,-10140.821405,0.000000,-148.041188
1418.779705,-6735.874072,-995.924147,-3404.947333
1418.780016,-3997.112087,-536.266849,-5255.462188
1418.780328,-2516.700203,-919.314598,-4515.256246
1418.780639,-6217.729913,-2298.286494,-3256.906145
1418.780951,-12805.562797,-2451.505594,-2072.576638
1418.781262,-16136.489536,-1685.410096,1258.350101
1418.781573,-15988.448347,-1302.362347,3552.988522
1418.781885,-14211.954086,-2528.115143,4145.153275
1418.782196,-10658.965565,-4213.525239,2886.803174
1418.782507,-8660.409521,-5209.449386,-148.041188
1418.782819,-6587.832884,-3907.087040,-1702.473667
1418.783130,-3330.926739,153.219100,-2368.659014
1418.783442,-5107.421000,1762.019645,-2072.576638
1418.783753,-9474.636058,842.705048,-740.205942
1418.784064,-13027.624579,1532.190996,1850.514855
1418.784376,-13767.830521,1532.190996,3034.844362
1418.784687,-11029.068536,2451.505594,3923.091493
1418.784999,-8216.285956,995.924147,1554.432478
1418.785310,-6439.791695,-1302.362347,-1110.308913
1418.785621,-3701.029710,-995.924147,-1924.535449
1418.785933,-1628.453072,-383.047749,-2220.617826
1418.786244,-3997.112087,689.485948,-962.267725
1418.786555,-9844.739029,0.000000,1332.370696
1418.786867,-14878.139434,-153.219100,3404.947333
1418.787178,-14063.912898,0.000000,5551.544565
1418.787490,-11177.109724,0.000000,5181.441594
1418.787801,-7624.121203,-536.266849,3627.009116
1418.788112,-5107.421000,-1838.629195,518.144159
1418.788424,-3552.988522,-995.924147,-666.185348
1418.788735,-2368.659014,1838.629195,-888.247130
1418.789046,-5033.400406,3140.991542,-0.000000
1418.789358,-10214.842000,1302.362347,1628.453072
1418.789669,-13175.665768,1149.143247,3404.947333
1418.789981,-14211.954086,1378.971896,4293.194464
1418.790292,-11325.150913,1225.752797,4737.318029
1418.790603,-7179.997637,306.438199,1850.514855
1418.790915,-6069.688724,-383.047749,-1332.370696
1418.791226,-2886.803174,229.828649,-1036.288319
1418.791538,-3627.009116,459.657299,-592.164754
1418.791849,-7402.059420,153.219100,592.164754
1418.792160,-12287.418637,-919.314598,1036.288319
1418.792472,-13915.871710,-536.266849,2442.679609
1418.792783,-12213.398043,153.219100,4441.235652
1418.793094,-11399.171507,-766.095498,4515.256246
1418.793406,-9104.533087,-2911.162892,1924.535449
1418.793717,-7994.224174,-3677.258390,-222.061783
1418.794029,-6883.915261,-1838.629195,-888.247130
1418.794340,-5329.482782,459.657299,-666.185348
1418.794651,-7920.203579,1455.581446,-1036.288319
1418.794963,-12435.459826,306.438199,-444.123565
1418.795274,-14952.160028,383.047749,1776.494261
1418.795585,-13397.727550,1225.752797,2812.782580
1418.795897,-9918.759623,1762.019645,2368.659014
1418.796208,-7476.080014,306.438199,222.061783
1418.796520,-5921.647536,-1302.362347,-2072.576638
1418.796831,-3775.050304,-1149.143247,-3034.844362
1418.797142,-3404.947333,76.609550,-2738.761985
1418.797454,-7698.141797,1302.362347,-1406.391290
1418.797765,-13249.686362,919.314598,-222.061783
1418.798077,-15174.221811,1072.533697,2516.700203
1418.798388,-13545.768739,-995.924147,3256.906145
1418.798699,-9696.697840,-612.876398,3034.844362
1418.799011,-7105.977043,-1991.848295,1258.350101
1418.799322,-5625.565159,-1915.238745,-1554.432478
1418.799633,-4441.235652,-1225.752797,-2516.700203
1418.799945,-4737.318029,459.657299,-2368.659014
1418.800256,-7920.203579,1378.971896,-1184.329507
1418.800568,-11473.192101,1149.143247,-0.000000
1418.800879,-14211.954086,1532.190996,2072.576638
1418.801190,-12953.603985,1225.752797,3108.864956
1418.801502,-9178.553681,689.485948,2738.761985
1418.801813,-7624.121203,0.000000,1184.329507
1418.802124,-6957.935855,-1608.800546,-148.041188
1418.802436,-5033.400406,-1915.238745,-888.247130
1418.802747,-3849.070898,-536.266849,-1554.432478
1418.803059,-7624.121203,306.438199,-888.247130
1418.803370,-11103.089130,612.876398,222.061783
1418.803681,-11769.274478,-536.266849,2738.761985
1418.803993,-11695.253884,-1532.190996,4219.173869
1418.804304,-10288.862594,-2221.676944,4145.153275
1418.804616,-8512.368333,-2834.553343,1924.535449
1418.804927,-7476.080014,-2528.115143,-222.061783
1418.805238,-5921.647536,-766.095498,-740.205942
1418.805550,-5255.462188,306.438199,-1924.535449
1418.805861,-8734.430116,1608.800546,-2368.659014
1418.806172,-11621.233289,1991.848295,-444.123565
1418.806484,-13989.892304,1072.533697,1332.370696
1418.806795,-13471.748144,1378.971896,2664.741391
1418.807107,-11251.130318,1072.533697,2516.700203
1418.807418,-8142.265362,0.000000,296.082377
1418.807729,-5033.400406,-1225.752797,-1406.391290
1418.808041,-2664.741391,76.609550,-2146.597232
1418.808352,-3552.988522,919.314598,-2812.782580
1418.808663,-8808.450710,1915.238745,-1554.432478
1418.808975,-13249.686362,995.924147,-0.000000
1418.809286,-14804.118840,153.219100,2812.782580
1418.809598,-13101.645173,-766.095498,3701.029710
1418.809909,-9770.718434,-2145.067394,2368.659014
1418.810220,-7920.203579,-2145.067394,592.164754
1418.810532,-7402.059420,-1455.581446,-666.185348
1418.810843,-6587.832884,383.047749,-444.123565
1418.811155,-6291.750507,306.438199,-296.082377
1418.811466,-8586.388927,0.000000,-814.226536
1418.811777,-10362.883188,1149.143247,296.082377
1418.812089,-10955.047942,2374.896044,1332.370696
1418.812400,-10510.924376,2374.896044,2368.659014
1418.812711,-10214.842000,1225.752797,2368.659014
1418.813023,-9770.718434,-1762.019645,2146.597232
1418.813334,-7994.224174,-1991.848295,1480.411884
1418.813646,-5403.503377,0.000000,222.061783
1418.813957,-4589.276840,919.314598,-592.164754
1418.814268,-7476.080014,383.047749,-1036.288319
1418.814580,-9844.739029,0.000000,888.247130
1418.814891,-9696.697840,-536.266849,3330.926739
1418.815202,-9474.636058,-536.266849,4367.215058
1418.815514,-9326.594869,-1302.362347,4959.379811
1418.815825,-9178.553681,-2528.115143,2368.659014
1418.816137,-6809.894666,-2145.067394,592.164754
1418.816448,-4071.132681,229.828649,-444.123565
1418.816759,-4441.235652,1915.238745,-1258.350101
1418.817071,-7994.224174,1455.581446,-592.164754
1418.817382,-11769.274478,842.705048,444.123565
1418.817694,-14211.954086,1225.752797,2368.659014
1418.818005,-12953.603985,2451.505594,4737.318029
1418.818316,-10140.821405,1378.971896,3256.906145
1418.818628,-7328.038826,-383.047749,1036.288319
1418.818939,-4589.276840,-842.705048,-1110.308913
1418.819250,-2442.679609,0.000000,-2220.617826
1418.819562,-3256.906145,2068.457845,-2960.823768
1418.819873,-8808.450710,2604.724693,-2442.679609
1418.820185,-12509.480420,2681.334243,-814.226536
1418.820496,-14656.077652,-536.266849,888.247130
1418.820807,-13027.624579,-612.876398,3478.967927
