#time,accel_x,accel_y,accel_z
1442.676000,-8956.491898,153.219100,666.185348
1442.676312,-9030.512492,-153.219100,370.102971
1442.676623,-8882.471304,-306.438199,518.144159
1442.676935,-8660.409521,-306.438199,592.164754
1442.677246,-9178.553681,0.000000,666.185348
1442.677558,-9104.533087,-612.876398,666.185348
1442.677869,-8660.409521,-153.219100,814.226536
1442.678181,-8956.491898,-229.828649,592.164754
1442.678492,-9030.512492,0.000000,370.102971
1442.678803,-9030.512492,0.000000,592.164754
1442.679115,-8956.491898,0.000000,666.185348
1442.679426,-9178.553681,229.828649,592.164754
1442.679738,-8956.491898,0.000000,592.164754
1442.680049,-8808.450710,0.000000,518.144159
1442.680361,-8512.368333,0.000000,740.205942
1442.680672,-8290.306550,0.000000,444.123565
1442.680984,-8808.450710,0.000000,518.144159
1442.681295,-8734.430116,-153.219100,518.144159
1442.681607,-8808.450710,-229.828649,444.123565
1442.681918,-8882.471304,-153.219100,592.164754
1442.682230,-8882.471304,0.000000,222.061783
1442.682541,-8512.368333,-306.438199,370.102971
1442.682853,-9252.574275,-383.047749,-0.000000
1442.683164,-8882.471304,229.828649,444.123565
1442.683476,-8808.450710,0.000000,592.164754
1442.683787,-8882.471304,0.000000,592.164754
1442.684099,-8808.450710,0.000000,592.164754
1442.684410,-8956.491898,0.000000,518.144159
1442.684722,-9030.512492,0.000000,592.164754
1442.685033,-8882.471304,0.000000,370.102971
1442.685344,-8512.368333,383.047749,518.144159
1442.685656,-8956.491898,-306.438199,370.102971
1442.685967,-9030.512492,0.000000,592.164754
1442.686279,-8882.471304,0.000000,666.185348
1442.686590,-8956.491898,0.000000,666.185348
1442.686902,-8956.491898,153.219100,592.164754
1442.687213,-8882.471304,-612.876398,740.205942
1442.687525,-8660.409521,-306.438199,518.144159
1442.687836,-8956.491898,-153.219100,370.102971
1442.688148,-9030.512492,-229.828649,518.144159
1442.688459,-9030.512492,0.000000,444.123565
1442.688771,-8956.491898,0.000000,444.123565
1442.689082,-9030.512492,0.000000,518.144159
1442.689394,-9252.574275,229.828649,370.102971
1442.689705,-8216.285956,-153.219100,666.185348
1442.690017,-8512.368333,-229.828649,222.061783
1442.690328,-8512.368333,76.609550,592.164754
1442.690640,-8956.491898,-153.219100,666.185348
1442.690951,-8882.471304,-153.219100,740.205942
1442.691263,-8882.471304,0.000000,740.205942
1442.691574,-8956.491898,0.000000,518.144159
1442.691885,-9030.512492,0.000000,444.123565
1442.692197,-8882.471304,-153.219100,370.102971
1442.692508,-8882.471304,229.828649,296.082377
1442.692820,-8882.471304,-383.047749,666.185348
1442.693131,-9030.512492,0.000000,592.164754
1442.693443,-8956.491898,0.000000,518.144159
1442.693754,-8956.491898,0.000000,444.123565
1442.694066,-8956.491898,0.000000,666.185348
1442.694377,-9104.533087,-229.828649,814.226536
1442.694689,-8512.368333,-229.828649,592.164754
1442.695000,-8734.430116,-766.095498,814.226536
1442.695312,-9030.512492,-612.876398,592.164754
1442.695623,-8882.471304,0.000000,592.164754
1442.695935,-8882.471304,-229.828649,518.144159
1442.696246,-8956.491898,0.000000,666.185348
1442.696558,-9030.512492,153.219100,518.144159
1442.696869,-8882.471304,-612.876398,814.226536
1442.697181,-8882.471304,0.000000,518.144159
1442.697492,-8956.491898,0.000000,222.061783
1442.697804,-8734.430116,-229.828649,740.205942
1442.698115,-8808.450710,0.000000,592.164754
1442.698427,-8808.450710,0.000000,592.164754
1442.698738,-9030.512492,-153.219100,666.185348
1442.699049,-9030.512492,-459.657299,518.144159
1442.699361,-8882.471304,-306.438199,370.102971
1442.699672,-9326.594869,76.609550,-0.000000
1442.699984,-8956.491898,383.047749,666.185348
1442.700295,-9030.512492,0.000000,370.102971
1442.700607,-9030.512492,0.000000,370.102971
1442.700918,-9030.512492,0.000000,444.123565
1442.701230,-8956.491898,0.000000,444.123565
1442.701541,-8956.491898,76.609550,296.082377
1442.701853,-9030.512492,229.828649,592.164754
1442.702164,-8734.430116,-153.219100,222.061783
1442.702476,-8882.471304,306.438199,370.102971
1442.702787,-8734.430116,0.000000,518.144159
1442.703099,-8882.471304,-76.609550,592.164754
1442.703410,-9178.553681,-153.219100,592.164754
1442.703722,-9104.533087,-153.219100,592.164754
1442.704033,-8882.471304,-306.438199,740.205942
1442.704345,-8438.347739,306.438199,666.185348
1442.704656,-8438.347739,76.609550,370.102971
1442.704968,-8808.450710,459.657299,518.144159
1442.705279,-8956.491898,0.000000,592.164754
1442.705590,-8882.471304,0.000000,370.102971
1442.705902,-8808.450710,0.000000,740.205942
1442.706213,-8808.450710,0.000000,666.185348
1442.706525,-8956.491898,0.000000,518.144159
1442.706836,-8882.471304,0.000000,444.123565
1442.707148,-8660.409521,0.000000,296.082377
1442.707459,-8956.491898,-153.219100,222.061783
1442.707771,-9178.553681,0.000000,370.102971
1442.708082,-9030.512492,-153.219100,444.123565
1442.708394,-9104.533087,0.000000,666.185348
1442.708705,-9030.512492,229.828649,592.164754
1442.709017,-9252.574275,-383.047749,592.164754
1442.709328,-10881.027347,383.047749,-0.000000
1442.709640,-11103.089130,3064.381992,-0.000000
1442.709951,-8586.388927,5209.449386,666.185348
1442.710263,-7698.141797,3907.087040,962.267725
1442.710574,-6735.874072,995.924147,1628.453072
1442.710886,-6883.915261,-1302.362347,-0.000000
1442.711197,-7105.977043,-919.314598,-0.000000
1442.711509,-7254.018232,0.000000,-370.102971
1442.711820,-11843.295072,-1762.019645,-1258.350101
1442.712132,-12287.418637,76.609550,-370.102971
1442.712443,-10140.821405,995.924147,518.144159
1442.712754,-9178.553681,0.000000,1776.494261
1442.713066,-9474.636058,-536.266849,2960.823768
1442.713377,-11917.315666,766.095498,1480.411884
1442.713689,-8068.244768,4519.963438,2442.679609
1442.714000,-4663.297435,5592.497135,1776.494261
1442.714312,-7031.956449,3600.648841,814.226536
1442.714623,-7846.182985,2911.162892,-814.226536
1442.714935,-7476.080014,3217.601092,-2072.576638
1442.715246,-9104.533087,3447.429741,-1036.288319
1442.715558,-9326.594869,3830.477490,-148.041188
1442.715869,-12953.603985,1838.629195,-1110.308913
1442.716181,-13545.768739,-689.485948,1480.411884
1442.716492,-7772.162391,-1608.800546,2738.761985
1442.716804,-9918.759623,229.828649,962.267725
1442.717115,-8290.306550,4596.572988,2738.761985
1442.717427,-7846.182985,5439.278036,1332.370696
1442.717738,-7402.059420,2987.772442,2220.617826
1442.718050,-6587.832884,4519.963438,2368.659014
1442.718361,-8512.368333,6511.811733,148.041188
1442.718673,-8142.265362,7431.126331,-814.226536
1442.718984,-9696.697840,5056.230287,-1480.411884
1442.719295,-9400.615463,5209.449386,-1480.411884
1442.719607,-10288.862594,5975.544884,-740.205942
1442.719918,-11769.274478,5209.449386,-0.000000
1442.720230,-10807.006753,4519.963438,1628.453072
1442.720541,-10288.862594,3600.648841,1998.556043
1442.720853,-8290.306550,4903.011187,2812.782580
1442.721164,-7328.038826,4903.011187,1184.329507
1442.721476,-5773.606348,5592.497135,222.061783
1442.721787,-5477.523971,5362.668486,444.123565
1442.722099,-5551.544565,5439.278036,-0.000000
1442.722410,-6661.853478,4826.401637,-962.267725
1442.722722,-7698.141797,4136.915689,-740.205942
1442.723033,-8882.471304,3064.381992,-592.164754
1442.723345,-10140.821405,1685.410096,888.247130
1442.723656,-10584.944971,153.219100,962.267725
1442.723968,-11547.212695,229.828649,1332.370696
1442.724279,-11029.068536,919.314598,1480.411884
1442.724591,-9548.656652,2757.943793,2368.659014
1442.724902,-8216.285956,3600.648841,1406.391290
1442.725214,-6365.771101,3370.820191,370.102971
1442.725525,-6143.709319,3370.820191,-370.102971
1442.725836,-7031.956449,3677.258390,-1036.288319
1442.726148,-6661.853478,3983.696590,-888.247130
1442.726459,-7624.121203,1378.971896,-1258.350101
1442.726771,-9400.615463,-919.314598,-666.185348
1442.727082,-10658.965565,-2068.457845,666.185348
1442.727394,-12361.439231,-2604.724693,1184.329507
1442.727705,-13101.645173,-1532.190996,1998.556043
1442.728017,-13175.665768,-919.314598,1628.453072
1442.728328,-12435.459826,1225.752797,1406.391290
1442.728640,-10807.006753,2374.896044,222.061783
1442.728951,-8364.327145,3983.696590,-518.144159
1442.729263,-5921.647536,4903.011187,-222.061783
1442.729574,-5773.606348,4826.401637,296.082377
1442.729886,-6661.853478,4136.915689,444.123565
1442.730197,-8512.368333,2604.724693,222.061783
1442.730509,-10214.842000,1685.410096,-0.000000
1442.730820,-11843.295072,995.924147,-0.000000
1442.731132,-13545.768739,-229.828649,-296.082377
1442.731443,-14211.954086,-612.876398,-222.061783
1442.731755,-13323.706956,536.266849,222.061783
1442.732066,-11843.295072,2681.334243,666.185348
1442.732378,-9770.718434,3907.087040,1776.494261
1442.732689,-7179.997637,4290.134789,2072.576638
1442.733000,-4737.318029,5362.668486,1480.411884
1442.733312,-2220.617826,5898.935335,-0.000000
1442.733623,-814.226536,6205.373534,-1110.308913
1442.733935,-2960.823768,5132.839837,-2146.597232
1442.734246,-7328.038826,3447.429741,-1776.494261
1442.734558,-11325.150913,3217.601092,-740.205942
1442.734869,-14359.995275,3294.210641,518.144159
1442.735181,-16136.489536,3524.039291,2294.638420
1442.735492,-15100.201217,2911.162892,3108.864956
1442.735804,-11177.109724,2987.772442,3404.947333
1442.736115,-6587.832884,3524.039291,2442.679609
1442.736427,-3627.009116,3907.087040,1480.411884
1442.736738,-2072.576638,5592.497135,-0.000000
1442.737050,-2146.597232,7124.688131,-1628.453072
1442.737361,-3775.050304,7354.516781,-2072.576638
1442.737673,-6957.935855,4903.011187,-1628.453072
1442.737984,-8438.347739,3140.991542,-0.000000
1442.738296,-10066.800811,536.266849,148.041188
1442.738607,-12509.480420,-2298.286494,962.267725
1442.738919,-11843.295072,-3524.039291,1924.535449
1442.739230,-12583.501014,-1991.848295,1332.370696
1442.739541,-13027.624579,-306.438199,1776.494261
1442.739853,-11103.089130,1378.971896,2368.659014
1442.740164,-11843.295072,2528.115143,1480.411884
1442.740476,-8586.388927,5898.935335,2664.741391
1442.740787,-6809.894666,6358.592633,1776.494261
1442.741099,-7328.038826,4443.353888,296.082377
1442.741410,-5625.565159,3294.210641,222.061783
1442.741722,-7031.956449,2451.505594,-2664.741391
1442.742033,-8734.430116,3447.429741,-2516.700203
1442.742345,-10362.883188,4519.963438,-2738.761985
1442.742656,-12287.418637,4060.306139,-1332.370696
1442.742968,-12583.501014,2374.896044,740.205942
1442.743279,-12509.480420,612.876398,2738.761985
1442.743591,-12287.418637,766.095498,2960.823768
1442.743902,-11621.233289,3447.429741,2590.720797
1442.744214,-10140.821405,7124.688131,1332.370696
1442.744525,-7624.121203,7277.907231,370.102971
1442.744837,-6291.750507,6128.763984,-962.267725
1442.745148,-4737.318029,4826.401637,-888.247130
1442.745460,-6365.771101,2681.334243,-1554.432478
1442.745771,-8290.306550,2528.115143,-740.205942
1442.746082,-8808.450710,1685.410096,148.041188
1442.746394,-8956.491898,306.438199,518.144159
1442.746705,-8808.450710,-2374.896044,2368.659014
1442.747017,-8216.285956,-3217.601092,2072.576638
1442.747328,-8142.265362,0.000000,1332.370696
1442.747640,-9992.780217,3907.087040,-222.061783
1442.747951,-9918.759623,7890.783629,-888.247130
1442.748263,-9474.636058,10189.070123,-444.123565
1442.748574,-10066.800811,8197.221829,1258.350101
1442.748886,-8438.347739,4979.620737,2072.576638
1442.749197,-8586.388927,2604.724693,1702.473667
1442.749509,-8364.327145,3753.867940,666.185348
1442.749820,-6291.750507,5362.668486,222.061783
1442.750132,-5403.503377,3830.477490,-222.061783
1442.750443,-4737.318029,1455.581446,-148.041188
1442.750755,-5773.606348,-1762.019645,-296.082377
1442.751066,-8438.347739,76.609550,-592.164754
1442.751378,-11177.109724,4903.011187,-888.247130
1442.751689,-13101.645173,7814.174080,-518.144159
1442.752000,-13175.665768,6358.592633,1628.453072
1442.752312,-14211.954086,1915.238745,2664.741391
1442.752623,-12213.398043,1225.752797,4589.276840
1442.752935,-9474.636058,2221.676944,2812.782580
1442.753246,-6143.709319,3294.210641,2220.617826
1442.753557,-4293.194464,842.705048,1036.288319
1442.753869,-3775.050304,-4060.306139,-222.061783
1442.754180,-5625.565159,-6205.373534,-888.247130
1442.754492,-6291.750507,-2528.115143,-518.144159
1442.754803,-7920.203579,2987.772442,-1110.308913
1442.755114,-12213.398043,4366.744339,-370.102971
1442.755426,-15248.242405,3064.381992,1184.329507
1442.755737,-17542.880825,842.705048,2220.617826
1442.756049,-16580.613101,4290.134789,3182.885551
1442.756360,-12139.377449,8197.221829,2590.720797
1442.756671,-7402.059420,7354.516781,666.185348
1442.756983,-3775.050304,2451.505594,-0.000000
1442.757294,-592.164754,-766.095498,-666.185348
1442.757606,296.082377,0.000000,-1480.411884
1442.757917,-2220.617826,3524.039291,-592.164754
1442.758228,-8734.430116,3600.648841,296.082377
1442.758540,-15174.221811,2298.286494,-0.000000
1442.758851,-16876.695478,3370.820191,444.123565
1442.759163,-15840.407159,5592.497135,518.144159
1442.759474,-12583.501014,5822.325785,-222.061783
1442.759785,-11843.295072,3753.867940,-1628.453072
1442.760097,-9178.553681,1915.238745,-1258.350101
1442.760408,-4811.338623,2604.724693,-888.247130
1442.760719,-3849.070898,2528.115143,592.164754
1442.761031,-5477.523971,536.266849,2442.679609
1442.761342,-8142.265362,-2298.286494,3108.864956
1442.761654,-8808.450710,-2298.286494,2886.803174
1442.761965,-8956.491898,1838.629195,2368.659014
1442.762276,-10066.800811,7431.126331,-444.123565
1442.762588,-11177.109724,7660.954980,-2072.576638
1442.762899,-10214.842000,5209.449386,-3997.112087
1442.763211,-7550.100608,4979.620737,-2812.782580
1442.763522,-7254.018232,6971.469032,-2146.597232
1442.763833,-11473.192101,6818.249932,-962.267725
1442.764145,-12731.542202,3907.087040,2146.597232
1442.764456,-10436.903782,383.047749,3849.070898
1442.764768,-7994.224174,-2757.943793,4737.318029
1442.765079,-5329.482782,-2068.457845,2812.782580
1442.765390,-5551.544565,-1149.143247,-74.020594
1442.765702,-3701.029710,-153.219100,-1406.391290
1442.766013,-2590.720797,1532.190996,-1406.391290
1442.766325,-7920.203579,2681.334243,-0.000000
1442.766636,-14063.912898,2374.896044,888.247130
1442.766947,-15766.386565,1762.019645,2738.761985
1442.767259,-13693.809927,1378.971896,4219.173869
1442.767570,-10807.006753,536.266849,2812.782580
1442.767882,-8808.450710,536.266849,-0.000000
1442.768193,-4663.297435,-1302.362347,-1776.494261
1442.768504,-2442.679609,-3524.039291,-1332.370696
1442.768816,-4071.132681,-5132.839837,1184.329507
1442.769127,-8290.306550,-3677.258390,1110.308913
1442.769439,-10955.047942,-2834.553343,2442.679609
1442.769750,-11695.253884,-4519.963438,3923.091493
1442.770061,-11695.253884,-5822.325785,3256.906145
1442.770373,-10214.842000,-3677.258390,888.247130
1442.770684,-7105.977043,-766.095498,-2072.576638
1442.770995,-6587.832884,-536.266849,-2368.659014
1442.771307,-8142.265362,-689.485948,-666.185348
1442.771618,-11177.109724,-1991.848295,370.102971
1442.771930,-13471.748144,-2221.676944,1406.391290
1442.772241,-11103.089130,-2451.505594,3404.947333
1442.772552,-11399.171507,-1685.410096,3108.864956
1442.772864,-10732.986159,-306.438199,1036.288319
1442.773175,-7105.977043,842.705048,-2368.659014
1442.773487,-5699.585753,1225.752797,-3034.844362
1442.773798,-6661.853478,3140.991542,-1258.350101
1442.774109,-10214.842000,5592.497135,-2146.597232
1442.774421,-12953.603985,3600.648841,-2146.597232
1442.774732,-13027.624579,1455.581446,-518.144159
1442.775044,-12361.439231,1762.019645,-0.000000
1442.775355,-10584.944971,4060.306139,-888.247130
1442.775666,-8512.368333,3524.039291,-2146.597232
1442.775978,-6365.771101,0.000000,-148.041188
1442.776289,-7105.977043,-2221.676944,1924.535449
1442.776601,-10214.842000,0.000000,2886.803174
1442.776912,-10214.842000,2221.676944,1998.556043
1442.777223,-9622.677246,1072.533697,1554.432478
1442.777535,-7920.203579,1762.019645,962.267725
1442.777846,-5921.647536,3753.867940,-1332.370696
1442.778158,-5033.400406,4290.134789,-3849.070898
1442.778469,-4885.359217,2528.115143,-2072.576638
1442.778780,-7994.224174,0.000000,-0.000000
1442.779092,-11473.192101,-1149.143247,1850.514855
1442.779403,-12435.459826,-1378.971896,3256.906145
1442.779714,-10881.027347,-2145.067394,3552.988522
1442.780026,-9030.512492,-3830.477490,3256.906145
1442.780337,-5477.523971,-1608.800546,2146.597232
1442.780649,-2442.679609,229.828649,518.144159
1442.780960,-1998.556043,-153.219100,1110.308913
1442.781271,-4737.318029,-1225.752797,2368.659014
1442.781583,-7698.141797,-1225.752797,2516.700203
1442.781894,-8438.347739,919.314598,2368.659014
1442.782206,-7846.182985,-229.828649,2220.617826
1442.782517,-7254.018232,-995.924147,592.164754
1442.782828,-7994.224174,-689.485948,-1628.453072
1442.783140,-7698.141797,-536.266849,-1850.514855
1442.783451,-8734.430116,-2757.943793,444.123565
1442.783763,-12805.562797,-3524.039291,2664.741391
1442.784074,-15766.386565,-1915.238745,3404.947333
1442.784385,-15470.304188,-1225.752797,2886.803174
1442.784697,-12435.459826,-1838.629195,2368.659014
1442.785008,-8512.368333,-1149.143247,666.185348
1442.785320,-5551.544565,0.000000,-2146.597232
1442.785631,-3478.967927,459.657299,-2886.803174
1442.785942,-5255.462188,-1762.019645,-2220.617826
1442.786254,-9178.553681,-2145.067394,-296.082377
1442.786565,-13175.665768,-1455.581446,-0.000000
1442.786877,-15470.304188,-995.924147,2072.576638
1442.787188,-14656.077652,-1915.238745,2812.782580
1442.787499,-13915.871710,-2528.115143,1332.370696
1442.787811,-11917.315666,-689.485948,444.123565
1442.788122,-9326.594869,1762.019645,-888.247130
1442.788434,-8364.327145,2374.896044,-0.000000
1442.788745,-9844.739029,2911.162892,-0.000000
1442.789056,-10658.965565,4290.134789,-0.000000
1442.789368,-10732.986159,4290.134789,-1628.453072
1442.789679,-8364.327145,3677.258390,-814.226536
1442.789990,-7105.977043,3217.601092,-2368.659014
1442.790302,-5181.441594,3370.820191,-3034.844362
1442.790613,-4515.256246,2604.724693,-2368.659014
1442.790925,-6291.750507,-306.438199,-0.000000
1442.791236,-8364.327145,-1225.752797,2368.659014
1442.791547,-10658.965565,-459.657299,3330.926739
1442.791859,-10584.944971,459.657299,4145.153275
1442.792170,-8216.285956,612.876398,2812.782580
1442.792482,-6217.729913,766.095498,888.247130
1442.792793,-4071.132681,1991.848295,-1332.370696
1442.793104,-1184.329507,1915.238745,-2072.576638
1442.793416,-3034.844362,-766.095498,-1628.453072
1442.793727,-7994.224174,-1608.800546,-74.020594
1442.794039,-10807.006753,-1072.533697,1480.411884
1442.794350,-11769.274478,-2451.505594,2146.597232
1442.794661,-11251.130318,-4290.134789,3404.947333
1442.794973,-10584.944971,-4290.134789,2664.741391
1442.795284,-8068.244768,-2987.772442,962.267725
1442.795596,-6291.750507,-2145.067394,518.144159
1442.795907,-6439.791695,-2068.457845,1258.350101
1442.796218,-9178.553681,-1149.143247,1628.453072
1442.796530,-10584.944971,153.219100,1776.494261
1442.796841,-9474.636058,459.657299,1702.473667
1442.797153,-8290.306550,-1532.190996,1332.370696
1442.797464,-7624.121203,-1608.800546,-0.000000
1442.797775,-7031.956449,153.219100,-1924.535449
1442.798087,-7105.977043,536.266849,-2442.679609
1442.798398,-9548.656652,-536.266849,-518.144159
1442.798710,-13915.871710,-766.095498,740.205942
1442.799021,-16654.633695,-1302.362347,1850.514855
1442.799332,-15840.407159,-306.438199,2516.700203
1442.799644,-14285.974681,-1072.533697,2072.576638
1442.799955,-12065.356855,229.828649,296.082377
1442.800266,-8956.491898,1991.848295,-1480.411884
1442.800578,-6587.832884,1532.190996,-2368.659014
1442.800889,-7476.080014,536.266849,-1850.514855
1442.801201,-9844.739029,1915.238745,-0.000000
1442.801512,-11547.212695,2528.115143,666.185348
1442.801823,-10881.027347,919.314598,1924.535449
1442.802135,-10362.883188,-1149.143247,2886.803174
1442.802446,-9548.656652,-229.828649,1406.391290
1442.802758,-7624.121203,2068.457845,-814.226536
1442.803069,-5921.647536,3140.991542,-444.123565
1442.803380,-6513.812290,306.438199,222.061783
1442.803692,-8512.368333,383.047749,518.144159
1442.804003,-9474.636058,1838.629195,888.247130
1442.804315,-8216.285956,1838.629195,1332.370696
1442.804626,-7772.162391,76.609550,1036.288319
1442.804937,-6513.812290,612.876398,-0.000000
1442.805249,-4589.276840,1149.143247,-1332.370696
1442.805560,-3923.091493,-306.438199,-370.102971
1442.805872,-4515.256246,-2451.505594,1554.432478
1442.806183,-7105.977043,-995.924147,2368.659014
1442.806494,-8882.471304,-1762.019645,2886.803174
1442.806806,-8586.388927,-2834.553343,3627.009116
1442.807117,-8364.327145,-3294.210641,2960.823768
1442.807429,-6661.853478,-919.314598,666.185348
1442.807740,-3404.947333,1685.410096,-1850.514855
1442.808051,-3478.967927,842.705048,-2886.803174
1442.808363,-6809.894666,-1455.581446,-1776.494261
1442.808674,-10214.842000,-689.485948,-592.164754
1442.808985,-12287.418637,229.828649,-74.020594
1442.809297,-12657.521608,-383.047749,2072.576638
1442.809608,-12731.542202,-995.924147,2146.597232
1442.809920,-11621.233289,-995.924147,-0.000000
1442.810231,-10066.800811,153.219100,-962.267725
1442.810542,-8586.388927,1072.533697,-1258.350101
1442.810854,-10362.883188,383.047749,148.041188
1442.811165,-11695.253884,842.705048,1480.411884
1442.811477,-12657.521608,306.438199,962.267725
1442.811788,-12065.356855,-1608.800546,814.226536
1442.812099,-10510.924376,-1378.971896,222.061783
1442.812411,-9844.739029,612.876398,-1406.391290
1442.812722,-8290.306550,995.924147,-2812.782580
1442.813034,-8512.368333,-306.438199,-1258.350101
1442.813345,-11325.150913,-2221.676944,740.205942
1442.813656,-14137.933492,-1072.533697,1480.411884
1442.813968,-14952.160028,153.219100,2220.617826
1442.814279,-12879.583391,229.828649,2516.700203
1442.814591,-11103.089130,-459.657299,2294.638420
1442.814902,-8734.430116,536.266849,370.102971
1442.815213,-5403.503377,2757.943793,-814.226536
1442.815525,-4441.235652,2604.724693,-1924.535449
1442.815836,-5625.565159,1915.238745,814.226536
1442.816148,-7846.182985,1532.190996,1184.329507
1442.816459,-8290.306550,1455.581446,1924.535449
1442.816770,-7031.956449,383.047749,2664.741391
1442.817082,-7179.997637,-1302.362347,2220.617826
1442.817393,-4737.318029,0.000000,1036.288319
1442.817705,-2812.782580,1072.533697,-444.123565
1442.818016,-3404.947333,-229.828649,740.205942
1442.818327,-7105.977043,-1225.752797,1776.494261
1442.818639,-9992.780217,-459.657299,2442.679609
1442.818950,-10140.821405,-306.438199,1998.556043
1442.819261,-9474.636058,-1072.533697,2516.700203
1442.819573,-7476.080014,-842.705048,518.144159
1442.819884,-6439.791695,306.438199,-814.226536
1442.820196,-3923.091493,612.876398,-1258.350101
1442.820507,-4071.132681,-1608.800546,-666.185348
1442.820818,-7031.956449,-2451.505594,1628.453072
1442.821130,-10436.903782,-1532.190996,1850.514855
1442.821441,-11029.068536,-612.876398,2220.617826
1442.821753,-10140.821405,-1149.143247,2072.576638
1442.822064,-9622.677246,-536.266849,1184.329507
1442.822375,-8512.368333,229.828649,-1258.350101
1442.822687,-7772.162391,919.314598,-2516.700203
1442.822998,-9030.512492,2068.457845,-1998.556043
1442.823310,-12287.418637,2374.896044,-1332.370696
1442.823621,-14878.139434,2145.067394,-370.102971
1442.823932,-15100.201217,1378.971896,592.164754
1442.824244,-13027.624579,383.047749,1628.453072
1442.824555,-11547.212695,-689.485948,148.041188
1442.824867,-9844.739029,306.438199,-1258.350101
1442.825178,-7772.162391,1838.629195,-1332.370696
1442.825489,-9104.533087,689.485948,-1406.391290
1442.825801,-11621.233289,306.438199,518.144159
1442.826112,-14359.995275,1378.971896,1036.288319
1442.826424,-13841.851115,1455.581446,1924.535449
1442.826735,-11103.089130,689.485948,2368.659014
1442.827046,-9030.512492,-306.438199,888.247130
1442.827358,-6587.832884,995.924147,-1776.494261
1442.827669,-3849.070898,2068.457845,-1776.494261
1442.827980,-4441.235652,919.314598,-518.144159
1442.828292,-7698.141797,153.219100,888.247130
1442.828603,-11325.150913,-153.219100,1850.514855
1442.828915,-11029.068536,0.000000,2590.720797
1442.829226,-8956.491898,-689.485948,2960.823768
1442.829537,-7476.080014,-2068.457845,2368.659014
1442.829849,-4959.379811,-1532.190996,296.082377
1442.830160,-2886.803174,-1685.410096,-1036.288319
1442.830472,-4071.132681,-2757.943793,666.185348
1442.830783,-6513.812290,-3524.039291,3034.844362
1442.831094,-8808.450710,-2987.772442,2664.741391
1442.831406,-9104.533087,-2604.724693,3330.926739
1442.831717,-7105.977043,-2987.772442,3404.947333
1442.832029,-6587.832884,-2145.067394,1110.308913
1442.832340,-4737.318029,1225.752797,-1184.329507
1442.832651,-4219.173869,1225.752797,-1776.494261
1442.832963,-6809.894666,-689.485948,-444.123565
1442.833274,-9474.636058,0.000000,370.102971
1442.833586,-12287.418637,2298.286494,370.102971
1442.833897,-13027.624579,1302.362347,444.123565
1442.834208,-10955.047942,-383.047749,888.247130
1442.834520,-10436.903782,-383.047749,-1036.288319
1442.834831,-9770.718434,76.609550,-2516.700203
1442.835143,-6957.935855,1532.190996,-1776.494261
1442.835454,-8882.471304,0.000000,-592.164754
1442.835765,-13249.686362,-1378.971896,2146.597232
1442.836077,-13545.768739,-919.314598,2220.617826
1442.836388,-13101.645173,383.047749,1258.350101
1442.836700,-11325.150913,1762.019645,1776.494261
1442.837011,-8142.265362,1991.848295,-222.061783
1442.837322,-6883.915261,1915.238745,-2442.679609
1442.837634,-7105.977043,1532.190996,-2886.803174
1442.837945,-9326.594869,1378.971896,-1406.391290
1442.838256,-13323.706956,1378.971896,-1036.288319
1442.838568,-15396.283594,2374.896044,1406.391290
1442.838879,-14137.933492,1225.752797,1924.535449
1442.839191,-11029.068536,-2068.457845,1258.350101
1442.839502,-9252.574275,-1302.362347,-0.000000
1442.839813,-6291.750507,1685.410096,-666.185348
1442.840125,-3923.091493,1762.019645,-888.247130
1442.840436,-6143.709319,-612.876398,740.205942
1442.840748,-7772.162391,-1072.533697,3478.967927
1442.841059,-10436.903782,-766.095498,3404.947333
1442.841370,-9622.677246,-229.828649,4441.235652
1442.841682,-6069.688724,-229.828649,3404.947333
1442.841993,-4367.215058,-306.438199,1036.288319
1442.842305,-2664.741391,-383.047749,-740.205942
1442.842616,-4515.256246,-766.095498,-1628.453072
1442.842927,-7402.059420,-2068.457845,-518.144159
1442.843239,-9844.739029,-1608.800546,1258.350101
1442.843550,-11325.150913,-995.924147,2368.659014
1442.843862,-10510.924376,-2221.676944,2442.679609
1442.844173,-9622.677246,-3830.477490,2516.700203
1442.844484,-6513.812290,-3294.210641,1406.391290
1442.844796,-4071.132681,-689.485948,-296.082377
1442.845107,-4737.318029,0.000000,-666.185348
1442.845419,-7105.977043,-459.657299,-148.041188
1442.845730,-9696.697840,383.047749,740.205942
1442.846041,-10214.842000,1608.800546,1702.473667
1442.846353,-9548.656652,459.657299,1480.411884
1442.846664,-9252.574275,-536.266849,148.041188
1442.846976,-8290.306550,842.705048,-1406.391290
1442.847287,-7105.977043,1991.848295,-2590.720797
1442.847598,-6809.894666,1149.143247,-2294.638420
1442.847910,-11029.068536,-536.266849,-1110.308913
1442.848221,-15174.221811,-842.705048,888.247130
1442.848532,-14211.954086,-383.047749,1036.288319
1442.848844,-13989.892304,-306.438199,740.205942
1442.849155,-12953.603985,229.828649,814.226536
1442.849467,-10584.944971,536.266849,-518.144159
1442.849778,-8956.491898,1915.238745,-2442.679609
1442.850089,-7772.162391,2451.505594,-444.123565
1442.850401,-9030.512492,1762.019645,1036.288319
1442.850712,-11399.171507,1378.971896,2072.576638
1442.851024,-11621.233289,1915.238745,2442.679609
1442.851335,-9474.636058,1838.629195,1924.535449
1442.851646,-7698.141797,1072.533697,740.205942
1442.851958,-6957.935855,1762.019645,-1110.308913
1442.852269,-5403.503377,2068.457845,-2886.803174
1442.852581,-5181.441594,459.657299,-1628.453072
1442.852892,-8882.471304,-229.828649,370.102971
1442.853203,-11399.171507,229.828649,2516.700203
1442.853515,-11917.315666,-153.219100,2442.679609
1442.853826,-10436.903782,-995.924147,4145.153275
1442.854138,-7772.162391,-1378.971896,2590.720797
1442.854449,-5255.462188,-459.657299,-148.041188
1442.854760,-1480.411884,1225.752797,-592.164754
1442.855072,-3256.906145,-689.485948,-296.082377
1442.855383,-6143.709319,-3524.039291,2664.741391
1442.855694,-8364.327145,-3064.381992,2664.741391
1442.856006,-10732.986159,-2451.505594,4071.132681
1442.856317,-9622.677246,-3217.601092,3997.112087
1442.856629,-8808.450710,-2987.772442,1776.494261
1442.856940,-7105.977043,-1838.629195,-740.205942
1442.857251,-4811.338623,-995.924147,-2516.700203
1442.857563,-5773.606348,-3370.820191,-1036.288319
1442.857874,-9474.636058,-3140.991542,-0.000000
1442.858186,-12953.603985,-1225.752797,1258.350101
1442.858497,-12139.377449,-1455.581446,1332.370696
1442.858808,-11695.253884,-2451.505594,1850.514855
1442.859120,-11251.130318,-2221.676944,296.082377
1442.859431,-8142.265362,383.047749,-1924.535449
1442.859743,-6587.832884,2451.505594,-2886.803174
1442.860054,-7994.224174,2298.286494,-1776.494261
1442.860365,-11769.274478,2145.067394,-814.226536
1442.860677,-13323.706956,2145.067394,-148.041188
1442.860988,-13323.706956,1455.581446,666.185348
1442.861299,-11843.295072,76.609550,1628.453072
1442.861611,-8808.450710,383.047749,296.082377
1442.861922,-8290.306550,1378.971896,-1628.453072
1442.862234,-7402.059420,1608.800546,-2072.576638
1442.862545,-8660.409521,-536.266849,-1184.329507
1442.862856,-12953.603985,0.000000,-0.000000
1442.863168,-14508.036463,1991.848295,1184.329507
1442.863479,-13323.706956,1149.143247,1998.556043
1442.863791,-11473.192101,-1072.533697,2368.659014
1442.864102,-9326.594869,-919.314598,1480.411884
1442.864413,-5477.523971,1225.752797,-444.123565
1442.864725,-1850.514855,2451.505594,-1184.329507
1442.865036,-4441.235652,2068.457845,-0.000000
1442.865348,-7772.162391,919.314598,2220.617826
1442.865659,-9474.636058,995.924147,1258.350101
1442.865970,-8956.491898,2145.067394,2442.679609
1442.866282,-7476.080014,1378.971896,2442.679609
1442.866593,-6291.750507,919.314598,1850.514855
1442.866904,-4663.297435,153.219100,814.226536
1442.867216,-3182.885551,-1149.143247,-296.082377
1442.867527,-4441.235652,-2068.457845,1184.329507
1442.867839,-7550.100608,-995.924147,1776.494261
1442.868150,-9918.759623,0.000000,2442.679609
1442.868461,-10510.924376,-2681.334243,2960.823768
1442.868773,-9326.594869,-3983.696590,3552.988522
1442.869084,-6883.915261,-2068.457845,1850.514855
1442.869396,-5773.606348,-1608.800546,-888.247130
1442.869707,-5255.462188,-1915.238745,-740.205942
1442.870018,-7328.038826,-3064.381992,370.102971
1442.870330,-10066.800811,-2374.896044,1554.432478
1442.870641,-11843.295072,-1149.143247,2146.597232
1442.870952,-12287.418637,-1225.752797,2220.617826
1442.871264,-11473.192101,-612.876398,1480.411884
1442.871575,-9770.718434,-766.095498,-0.000000
1442.871887,-8216.285956,-229.828649,-2442.679609
1442.872198,-7994.224174,1685.410096,-2886.803174
1442.872509,-10288.862594,1608.800546,-1258.350101
1442.872821,-12879.583391,536.266849,-0.000000
1442.873132,-14434.015869,383.047749,370.102971
1442.873444,-13471.748144,1072.533697,370.102971
1442.873755,-11473.192101,153.219100,-296.082377
1442.874066,-9030.512492,-383.047749,-1554.432478
1442.874378,-8290.306550,229.828649,-2960.823768
1442.874689,-7920.203579,995.924147,-2664.741391
1442.875001,-9104.533087,-612.876398,-814.226536
1442.875312,-11991.336260,-689.485948,1850.514855
1442.875623,-13915.871710,0.000000,2886.803174
1442.875935,-12731.542202,0.000000,2738.761985
1442.876246,-9918.759623,-536.266849,1628.453072
1442.876557,-7550.100608,1915.238745,-0.000000
1442.876869,-5329.482782,4366.744339,-1628.453072
1442.877180,-3627.009116,3217.601092,-2368.659014
1442.877492,-5625.565159,1302.362347,-888.247130
1442.877803,-8290.306550,1455.581446,888.247130
1442.878114,-9992.780217,1915.238745,2072.576638
1442.878426,-9844.739029,689.485948,2590.720797
1442.878737,-8068.244768,-612.876398,1850.514855
1442.879049,-6809.894666,-459.657299,148.041188
1442.879360,-2812.782580,536.266849,-1480.411884
1442.879671,-2738.761985,0.000000,-1036.288319
1442.879983,-6513.812290,-2145.067394,518.144159
1442.880294,-9178.553681,-1685.410096,2516.700203
1442.880606,-9770.718434,-766.095498,3627.009116
1442.880917,-9770.718434,-1072.533697,4589.276840
1442.881228,-8660.409521,-2068.457845,3552.988522
1442.881540,-6069.688724,-1838.629195,1036.288319
1442.881851,-4071.132681,-306.438199,-814.226536
1442.882162,-4293.194464,-689.485948,-888.247130
1442.882474,-8068.244768,-1378.971896,-74.020594
1442.882785,-12361.439231,-995.924147,592.164754
1442.883097,-13915.871710,0.000000,1776.494261
1442.883408,-12361.439231,-1225.752797,1924.535449
1442.883719,-11843.295072,-1455.581446,888.247130
1442.884031,-10288.862594,-306.438199,-888.247130
1442.884342,-7624.121203,995.924147,-2738.761985
1442.884654,-8734.430116,1072.533697,-2146.597232
1442.884965,-10140.821405,1378.971896,444.123565
1442.885276,-12509.480420,919.314598,1110.308913
1442.885588,-13323.706956,76.609550,2516.700203
1442.885899,-10881.027347,229.828649,3330.926739
1442.886211,-8660.409521,1608.800546,1258.350101
1442.886522,-7402.059420,2451.505594,-1036.288319
1442.886833,-6883.915261,3294.210641,-3775.050304
1442.887145,-7105.977043,2068.457845,-3182.885551
1442.887456,-10584.944971,1072.533697,-1776.494261
1442.887767,-13915.871710,1302.362347,296.082377
1442.888079,-15470.304188,612.876398,1036.288319
1442.888390,-12879.583391,-1302.362347,2146.597232
1442.888702,-9844.739029,-2451.505594,2368.659014
1442.889013,-6661.853478,-1608.800546,962.267725
1442.889324,-3108.864956,-383.047749,370.102971
1442.889636,-3849.070898,-689.485948,1184.329507
1442.889947,-5181.441594,-1991.848295,2886.803174
1442.890259,-7179.997637,306.438199,2590.720797
1442.890570,-9178.553681,-153.219100,2664.741391
1442.890881,-10362.883188,536.266849,2294.638420
1442.891193,-8142.265362,766.095498,1554.432478
1442.891504,-4589.276840,1455.581446,-814.226536
1442.891816,-3108.864956,1685.410096,-2442.679609
1442.892127,-4071.132681,0.000000,-1776.494261
1442.892438,-7698.141797,-995.924147,-0.000000
1442.892750,-10584.944971,383.047749,2072.576638
1442.893061,-11177.109724,-229.828649,2886.803174
1442.893372,-10955.047942,-2221.676944,3478.967927
1442.893684,-9104.533087,-2604.724693,1998.556043
1442.893995,-5847.626942,-2298.286494,-148.041188
1442.894307,-3552.988522,-2145.067394,-1480.411884
1442.894618,-5995.668130,-2987.772442,-74.020594
1442.894929,-10658.965565,-3600.648841,1406.391290
1442.895241,-12879.583391,-1532.190996,1628.453072
1442.895552,-13323.706956,459.657299,1924.535449
1442.895864,-11621.233289,1455.581446,1406.391290
1442.896175,-9770.718434,766.095498,-1110.308913
1442.896486,-8438.347739,1378.971896,-2738.761985
1442.896798,-6513.812290,3370.820191,-2442.679609
1442.897109,-8068.244768,2987.772442,-1480.411884
1442.897421,-12657.521608,1302.362347,-296.082377
1442.897732,-15174.221811,1455.581446,1184.329507
1442.898043,-14730.098246,1455.581446,888.247130
1442.898355,-11177.109724,995.924147,518.144159
1442.898666,-9918.759623,919.314598,-1480.411884
1442.898977,-8364.327145,1378.971896,-2220.617826
1442.899289,-5699.585753,919.314598,-1628.453072
1442.899600,-7550.100608,-842.705048,-370.102971
1442.899912,-11103.089130,-919.314598,1998.556043
1442.900223,-11695.253884,536.266849,3256.906145
1442.900534,-12065.356855,995.924147,2590.720797
1442.900846,-9178.553681,-536.266849,2516.700203
1442.901157,-7476.080014,76.609550,-518.144159
1442.901469,-4515.256246,2374.896044,-1554.432478
1442.901780,-3034.844362,2987.772442,-2220.617826
1442.902091,-5847.626942,1302.362347,-148.041188
1442.902403,-9474.636058,-536.266849,2516.700203
1442.902714,-13027.624579,-1838.629195,3627.009116
1442.903026,-11769.274478,229.828649,3997.112087
1442.903337,-8586.388927,306.438199,2812.782580
1442.903648,-6587.832884,153.219100,1554.432478
1442.903960,-4071.132681,0.000000,-370.102971
1442.904271,-1776.494261,-383.047749,-1110.308913
1442.904582,-2738.761985,-1762.019645,-592.164754
1442.904894,-6365.771101,-1532.190996,1258.350101
1442.905205,-9622.677246,-766.095498,2442.679609
1442.905517,-10436.903782,-2528.115143,2886.803174
1442.905828,-9474.636058,-3370.820191,3034.844362
1442.906139,-8068.244768,-3370.820191,2072.576638
1442.906451,-6661.853478,-1838.629195,-814.226536
1442.906762,-6439.791695,-842.705048,-1184.329507
1442.907074,-9030.512492,-2221.676944,-0.000000
1442.907385,-11991.336260,-1532.190996,962.267725
1442.907696,-14211.954086,229.828649,2146.597232
1442.908008,-14211.954086,1225.752797,1554.432478
1442.908319,-11917.315666,0.000000,592.164754
1442.908631,-10066.800811,0.000000,-592.164754
1442.908942,-7254.018232,1532.190996,-1924.535449
1442.909253,-5995.668130,1532.190996,-2738.761985
1442.909565,-8512.368333,536.266849,-1184.329507
1442.909876,-11917.315666,1072.533697,-0.000000
1442.910187,-13841.851115,995.924147,370.102971
1442.910499,-12953.603985,995.924147,1258.350101
1442.910810,-10955.047942,919.314598,740.205942
1442.911122,-9622.677246,1762.019645,-444.123565
1442.911433,-7772.162391,2145.067394,-2220.617826
1442.911744,-6883.915261,1915.238745,-2294.638420
1442.912056,-9326.594869,1685.410096,-740.205942
1442.912367,-11473.192101,1532.190996,1184.329507
1442.912679,-12657.521608,995.924147,1258.350101
1442.912990,-11621.233289,459.657299,1554.432478
1442.913301,-9696.697840,-766.095498,1850.514855
1442.913613,-6217.729913,0.000000,1110.308913
1442.913924,-4219.173869,766.095498,-1258.350101
1442.914236,-5699.585753,153.219100,-1258.350101
1442.914547,-6809.894666,-536.266849,296.082377
1442.914858,-8586.388927,-766.095498,1554.432478
1442.915170,-9548.656652,-306.438199,2960.823768
1442.915481,-8586.388927,-919.314598,3256.906145
1442.915792,-8364.327145,-2604.724693,3108.864956
1442.916104,-4959.379811,-1225.752797,1332.370696
1442.916415,-2294.638420,0.000000,-222.061783
1442.916727,-2072.576638,-1072.533697,-666.185348
1442.917038,-5329.482782,-2757.943793,740.205942
1442.917349,-8956.491898,-3524.039291,1776.494261
1442.917661,-11621.233289,-2451.505594,1850.514855
1442.917972,-10732.986159,-1225.752797,2960.823768
1442.918284,-10140.821405,-1762.019645,1924.535449
1442.918595,-8364.327145,-2604.724693,296.082377
1442.918906,-6143.709319,-2298.286494,-1036.288319
1442.919218,-6513.812290,-2145.067394,-888.247130
1442.919529,-7698.141797,-1302.362347,-370.102971
1442.919841,-11325.150913,0.000000,962.267725
1442.920152,-13471.748144,1072.533697,1110.308913
1442.920463,-12065.356855,-229.828649,1850.514855
1442.920775,-10807.006753,-1072.533697,1554.432478
1442.921086,-9326.594869,383.047749,-0.000000
1442.921397,-7179.997637,1762.019645,-1406.391290
1442.921709,-7254.018232,1915.238745,-1702.473667
1442.922020,-10140.821405,995.924147,-888.247130
1442.922332,-13619.789333,1072.533697,-0.000000
1442.922643,-15026.180623,1762.019645,-0.000000
1442.922954,-14063.912898,1838.629195,-370.102971
1442.923266,-12435.459826,1915.238745,-1110.308913
1442.923577,-10881.027347,1455.581446,-1554.432478
1442.923889,-7402.059420,919.314598,-1406.391290
1442.924200,-7476.080014,-689.485948,-1036.288319
1442.924511,-9992.780217,-306.438199,740.205942
1442.924823,-11547.212695,995.924147,2220.617826
1442.925134,-11029.068536,2068.457845,2220.617826
1442.925445,-8660.409521,2221.676944,2738.761985
1442.925757,-6883.915261,689.485948,1776.494261
1442.926068,-4885.359217,1149.143247,-888.247130
1442.926380,-2664.741391,2987.772442,-1184.329507
1442.926691,-3627.009116,2145.067394,-1480.411884
1442.927002,-7846.182985,1302.362347,-0.000000
1442.927314,-10658.965565,229.828649,1480.411884
1442.927625,-10955.047942,536.266849,1406.391290
1442.927937,-8956.491898,-229.828649,2442.679609
1442.928248,-6291.750507,-1608.800546,1628.453072
1442.928559,-4737.318029,-1532.190996,518.144159
1442.928871,-3627.009116,-2374.896044,-0.000000
1442.929182,-3478.967927,-3524.039291,962.267725
1442.929494,-5773.606348,-3677.258390,2368.659014
1442.929805,-8734.430116,-3064.381992,3108.864956
1442.930116,-10881.027347,-2528.115143,3478.967927
1442.930428,-9844.739029,-3600.648841,3478.967927
1442.930739,-8734.430116,-2604.724693,1184.329507
1442.931050,-7179.997637,-1378.971896,-296.082377
1442.931362,-5107.421000,-995.924147,-1702.473667
1442.931673,-7476.080014,-2145.067394,-1554.432478
1442.931985,-10066.800811,-2757.943793,-444.123565
1442.932296,-12435.459826,-1225.752797,222.061783
1442.932607,-13545.768739,-229.828649,888.247130
1442.932919,-13175.665768,0.000000,1480.411884
1442.933230,-12509.480420,-1302.362347,444.123565
1442.933542,-10881.027347,-689.485948,-1036.288319
1442.933853,-8734.430116,1072.533697,-888.247130
1442.934164,-8734.430116,842.705048,-296.082377
1442.934476,-10214.842000,-842.705048,370.102971
1442.934787,-12213.398043,459.657299,1850.514855
1442.935099,-12657.521608,842.705048,1924.535449
1442.935410,-11251.130318,229.828649,592.164754
1442.935721,-10288.862594,1685.410096,-962.267725
1442.936033,-9104.533087,3217.601092,-2368.659014
1442.936344,-7254.018232,2681.334243,-3108.864956
1442.936655,-8734.430116,612.876398,-1702.473667
1442.936967,-11843.295072,842.705048,-296.082377
1442.937278,-13323.706956,2987.772442,740.205942
1442.937590,-12731.542202,3064.381992,1924.535449
1442.937901,-10732.986159,1225.752797,2220.617826
1442.938212,-7772.162391,1149.143247,1406.391290
1442.938524,-5625.565159,1532.190996,-370.102971
1442.938835,-2442.679609,1149.143247,-222.061783
1442.939147,-2664.741391,0.000000,-0.000000
1442.939458,-6513.812290,-536.266849,1554.432478
1442.939769,-9030.512492,0.000000,3034.844362
1442.940081,-9326.594869,153.219100,2960.823768
1442.940392,-8142.265362,76.609550,2368.659014
1442.940704,-6217.729913,0.000000,1332.370696
1442.941015,-2664.741391,0.000000,-888.247130
1442.941326,-2960.823768,-229.828649,-2294.638420
1442.941638,-5773.606348,-1991.848295,-296.082377
1442.941949,-7994.224174,-2451.505594,1258.350101
1442.942260,-10732.986159,-1532.190996,2960.823768
1442.942572,-10732.986159,-1455.581446,2960.823768
1442.942883,-10140.821405,-3524.039291,2738.761985
1442.943195,-8512.368333,-2987.772442,1628.453072
1442.943506,-6291.750507,-689.485948,148.041188
1442.943817,-4811.338623,-919.314598,-1110.308913
1442.944129,-7179.997637,-1991.848295,-0.000000
1442.944440,-9992.780217,-995.924147,592.164754
1442.944752,-11695.253884,0.000000,592.164754
1442.945063,-12139.377449,0.000000,1110.308913
1442.945374,-10881.027347,-229.828649,1480.411884
1442.945686,-11177.109724,153.219100,-444.123565
1442.945997,-9696.697840,1378.971896,-2220.617826
1442.946309,-9030.512492,1378.971896,-2590.720797
1442.946620,-11843.295072,229.828649,-1554.432478
1442.946931,-13175.665768,995.924147,370.102971
1442.947243,-15248.242405,1378.971896,-0.000000
1442.947554,-13767.830521,612.876398,1036.288319
1442.947865,-11769.274478,-612.876398,962.267725
1442.948177,-10807.006753,-995.924147,-370.102971
1442.948488,-8216.285956,995.924147,-1110.308913
1442.948800,-7031.956449,1072.533697,-1332.370696
1442.949111,-8956.491898,76.609550,-222.061783
1442.949422,-11695.253884,0.000000,1554.432478
1442.949734,-12361.439231,995.924147,1406.391290
1442.950045,-10362.883188,995.924147,1554.432478
1442.950357,-9400.615463,306.438199,1258.350101
1442.950668,-7105.977043,1302.362347,518.144159
1442.950979,-3627.009116,2528.115143,-1406.391290
1442.951291,-2738.761985,1378.971896,-740.205942
1442.951602,-5107.421000,-1302.362347,740.205942
1442.951914,-8438.347739,-153.219100,1554.432478
1442.952225,-10288.862594,1915.238745,2294.638420
1442.952536,-8808.450710,1225.752797,3034.844362
1442.952848,-6735.874072,-766.095498,2294.638420
1442.953159,-5773.606348,-766.095498,518.144159
1442.953471,-3256.906145,1302.362347,-0.000000
1442.953782,-2738.761985,-229.828649,-444.123565
1442.954093,-4293.194464,-2451.505594,2146.597232
1442.954405,-9400.615463,-2757.943793,2368.659014
1442.954716,-10362.883188,-2451.505594,3034.844362
1442.955028,-9474.636058,-2068.457845,2738.761985
1442.955339,-9030.512492,-1455.581446,2368.659014
1442.955650,-6883.915261,-1762.019645,296.082377
1442.955962,-5995.668130,-1532.190996,-1406.391290
1442.956273,-6069.688724,-2757.943793,-666.185348
1442.956584,-8734.430116,-2834.553343,518.144159
1442.956896,-12065.356855,-1302.362347,370.102971
1442.957207,-13545.768739,0.000000,888.247130
1442.957519,-13323.706956,-306.438199,1036.288319
1442.957830,-11251.130318,-995.924147,370.102971
1442.958141,-10214.842000,229.828649,-1110.308913
1442.958453,-8512.368333,2528.115143,-1998.556043
1442.958764,-8586.388927,-153.219100,-1480.411884
1442.959076,-11769.274478,-1455.581446,-74.020594
1442.959387,-13471.748144,459.657299,962.267725
1442.959698,-14137.933492,1915.238745,962.267725
1442.960010,-12805.562797,1149.143247,962.267725
1442.960321,-10584.944971,459.657299,148.041188
1442.960633,-8216.285956,2451.505594,-1110.308913
1442.960944,-6735.874072,2145.067394,-2072.576638
1442.961255,-7624.121203,612.876398,-1406.391290
1442.961567,-11621.233289,0.000000,-370.102971
1442.961878,-13767.830521,1838.629195,666.185348
1442.962190,-12583.501014,2987.772442,1184.329507
1442.962501,-10807.006753,1762.019645,888.247130
1442.962812,-8882.471304,306.438199,296.082377
1442.963124,-6439.791695,1072.533697,-0.000000
1442.963435,-4367.215058,2298.286494,-962.267725
1442.963747,-5107.421000,2068.457845,-888.247130
1442.964058,-7328.038826,2145.067394,1480.411884
1442.964369,-9622.677246,995.924147,2368.659014
1442.964681,-9622.677246,229.828649,2812.782580
1442.964992,-7328.038826,0.000000,3034.844362
1442.965304,-5107.421000,-383.047749,1702.473667
1442.965615,-3552.988522,-383.047749,888.247130
1442.965926,-2294.638420,-1838.629195,-148.041188
1442.966238,-3627.009116,-3600.648841,-0.000000
1442.966549,-6513.812290,-2374.896044,740.205942
1442.966861,-9252.574275,-842.705048,2146.597232
1442.967172,-10140.821405,-842.705048,1554.432478
1442.967483,-9252.574275,-1915.238745,1554.432478
1442.967795,-8216.285956,-2221.676944,1258.350101
1442.968106,-6069.688724,-1762.019645,-0.000000
1442.968418,-6809.894666,-1072.533697,-1406.391290
1442.968729,-8142.265362,-1378.971896,-0.000000
1442.969040,-9622.677246,-1072.533697,1110.308913
1442.969352,-11695.253884,-842.705048,1554.432478
1442.969663,-11621.233289,-229.828649,1924.535449
1442.969975,-11177.109724,-689.485948,1554.432478
1442.970286,-9696.697840,-229.828649,666.185348
1442.970597,-7105.977043,1149.143247,-962.267725
1442.970909,-7105.977043,1378.971896,-2368.659014
1442.971220,-9770.718434,229.828649,-1628.453072
1442.971532,-12805.562797,76.609550,-666.185348
1442.971843,-14952.160028,1378.971896,-888.247130
1442.972154,-13989.892304,2068.457845,518.144159
1442.972466,-13471.748144,536.266849,666.185348
1442.972777,-12879.583391,-842.705048,296.082377
1442.973088,-10436.903782,459.657299,-1258.350101
1442.973400,-8438.347739,2221.676944,-1258.350101
1442.973711,-8660.409521,1762.019645,296.082377
1442.974023,-10881.027347,383.047749,1480.411884
1442.974334,-11695.253884,-229.828649,2664.741391
1442.974645,-10510.924376,-612.876398,2886.803174
1442.974957,-8068.244768,-842.705048,2368.659014
1442.975268,-6661.853478,459.657299,-0.000000
1442.975580,-5255.462188,2221.676944,-888.247130
1442.975891,-5329.482782,1072.533697,-1776.494261
1442.976202,-7105.977043,-766.095498,-296.082377
1442.976514,-9030.512492,459.657299,962.267725
1442.976825,-10214.842000,1532.190996,1850.514855
1442.977137,-9104.533087,306.438199,2738.761985
1442.977448,-7772.162391,-1072.533697,2812.782580
1442.977759,-5921.647536,-995.924147,2220.617826
1442.978071,-3775.050304,766.095498,296.082377
1442.978382,-2220.617826,306.438199,666.185348
1442.978694,-3997.112087,-1225.752797,592.164754
1442.979005,-6661.853478,-1378.971896,1332.370696
1442.979316,-8882.471304,-1072.533697,1924.535449
1442.979628,-9178.553681,-1608.800546,2516.700203
1442.979939,-7920.203579,-2068.457845,2516.700203
1442.980251,-7328.038826,-2068.457845,888.247130
1442.980562,-6439.791695,-1762.019645,-888.247130
1442.980873,-6661.853478,-1302.362347,-1850.514855
1442.981185,-8808.450710,-1762.019645,-518.144159
1442.981496,-10955.047942,-1455.581446,296.082377
1442.981808,-12509.480420,-229.828649,1036.288319
1442.982119,-11547.212695,-689.485948,1110.308913
1442.982430,-12287.418637,-1608.800546,222.061783
1442.982742,-10658.965565,-612.876398,-444.123565
1442.983053,-8364.327145,1838.629195,-2368.659014
1442.983365,-8512.368333,1532.190996,-2220.617826
1442.983676,-9992.780217,229.828649,-1036.288319
1442.983987,-13101.645173,689.485948,148.041188
1442.984299,-13693.809927,1762.019645,-0.000000
1442.984610,-11991.336260,1608.800546,592.164754
1442.984922,-11695.253884,612.876398,-0.000000
1442.985233,-10732.986159,919.314598,-962.267725
1442.985544,-8512.368333,2298.286494,-1998.556043
1442.985856,-7772.162391,1149.143247,-2072.576638
1442.986167,-10881.027347,229.828649,-148.041188
1442.986479,-12805.562797,842.705048,666.185348
1442.986790,-12731.542202,1149.143247,1184.329507
1442.987101,-10140.821405,536.266849,1628.453072
1442.987413,-8364.327145,-766.095498,2072.576638
1442.987724,-7698.141797,153.219100,370.102971
1442.988036,-5107.421000,1608.800546,-1258.350101
1442.988347,-3849.070898,1225.752797,-444.123565
1442.988658,-6291.750507,306.438199,1850.514855
1442.988970,-9400.615463,-383.047749,2516.700203
1442.989281,-10214.842000,0.000000,2146.597232
1442.989592,-7994.224174,0.000000,3108.864956
1442.989904,-6513.812290,-459.657299,2442.679609
1442.990215,-4441.235652,-153.219100,962.267725
1442.990527,-4441.235652,-689.485948,-666.185348
1442.990838,-3997.112087,-2221.676944,-148.041188
1442.991149,-5921.647536,-3140.991542,1184.329507
1442.991461,-9400.615463,-1532.190996,2738.761985
1442.991772,-9992.780217,-995.924147,2516.700203
1442.992084,-8882.471304,-2987.772442,3182.885551
1442.992395,-7846.182985,-4213.525239,1628.453072
1442.992706,-7328.038826,-3294.210641,444.123565
1442.993018,-4885.359217,-766.095498,-296.082377
1442.993329,-6143.709319,-1072.533697,-518.144159
1442.993641,-9548.656652,-2374.896044,962.267725
1442.993952,-11769.274478,-1608.800546,740.205942
1442.994263,-12287.418637,-919.314598,814.226536
1442.994575,-11695.253884,-229.828649,888.247130
1442.994886,-11547.212695,536.266849,148.041188
1442.995198,-9696.697840,1838.629195,-2146.597232
1442.995509,-8808.450710,2451.505594,-2442.679609
1442.995820,-8068.244768,842.705048,-1258.350101
1442.996132,-10362.883188,0.000000,666.185348
1442.996443,-12583.501014,919.314598,1036.288319
1442.996755,-12879.583391,1838.629195,-370.102971
1442.997066,-11621.233289,766.095498,148.041188
1442.997377,-11177.109724,0.000000,-296.082377
1442.997689,-10955.047942,1149.143247,-1924.535449
1442.998000,-8364.327145,2298.286494,-3182.885551
1442.998312,-9918.759623,995.924147,-1628.453072
1442.998623,-11843.295072,-306.438199,1110.308913
1442.998934,-13101.645173,229.828649,1332.370696
1442.999246,-12731.542202,1302.362347,2072.576638
1442.999557,-9030.512492,766.095498,2738.761985
1442.999869,-9474.636058,0.000000,1480.411884
1443.000180,-6291.750507,1915.238745,-296.082377
1443.000491,-3775.050304,3907.087040,-1628.453072
1443.000803,-5181.441594,1455.581446,-1110.308913
1443.001114,-7624.121203,229.828649,296.082377
1443.001426,-10658.965565,1685.410096,1554.432478
1443.001737,-9696.697840,919.314598,2442.679609
1443.002048,-8068.244768,-1762.019645,2886.803174
1443.002360,-6957.935855,-2987.772442,2294.638420
1443.002671,-3849.070898,-383.047749,74.020594
1443.002983,-2812.782580,536.266849,-1998.556043
1443.003294,-4589.276840,-995.924147,-518.144159
1443.003605,-7179.997637,-995.924147,1924.535449
1443.003917,-9844.739029,-229.828649,2368.659014
1443.004228,-10362.883188,-306.438199,3701.029710
1443.004540,-8882.471304,-1225.752797,4515.256246
1443.004851,-7698.141797,-2145.067394,2516.700203
1443.005162,-5625.565159,-1608.800546,-0.000000
1443.005474,-4071.132681,-1225.752797,-814.226536
1443.005785,-6365.771101,-2987.772442,-1406.391290
1443.006096,-8364.327145,-1915.238745,222.061783
1443.006408,-12287.418637,-1608.800546,518.144159
1443.006719,-13175.665768,-2604.724693,1110.308913
1443.007031,-12583.501014,-2987.772442,1184.329507
1443.007342,-11991.336260,-1762.019645,-518.144159
1443.007653,-9844.739029,612.876398,-1480.411884
1443.007965,-8364.327145,1149.143247,-2442.679609
1443.008276,-9844.739029,306.438199,-1998.556043
1443.008588,-12139.377449,842.705048,-74.020594
1443.008899,-11991.336260,2451.505594,1850.514855
1443.009210,-11473.192101,1072.533697,1702.473667
1443.009522,-10732.986159,-842.705048,1850.514855
1443.009833,-9474.636058,0.000000,222.061783
1443.010145,-7920.203579,2451.505594,-2368.659014
1443.010456,-7105.977043,3830.477490,-2368.659014
1443.010767,-9622.677246,1455.581446,-1702.473667
1443.011079,-14211.954086,-153.219100,-296.082377
1443.011390,-15618.345376,459.657299,666.185348
1443.011702,-13471.748144,1225.752797,1406.391290
1443.012013,-10288.862594,-1225.752797,1628.453072
1443.012324,-7624.121203,0.000000,1332.370696
1443.012636,-4811.338623,383.047749,-518.144159
1443.012947,-2886.803174,-229.828649,296.082377
1443.013259,-4589.276840,-536.266849,666.185348
1443.013570,-7476.080014,2451.505594,2146.597232
1443.013881,-10214.842000,2604.724693,1998.556043
1443.014193,-8808.450710,1378.971896,2368.659014
1443.014504,-7402.059420,0.000000,1628.453072
1443.014816,-6365.771101,383.047749,-370.102971
1443.015127,-3478.967927,2221.676944,-1258.350101
1443.015438,-3627.009116,766.095498,-1924.535449
1443.015750,-6069.688724,-995.924147,-370.102971
1443.016061,-9474.636058,-1532.190996,1850.514855
1443.016373,-9844.739029,-1608.800546,2886.803174
1443.016684,-9252.574275,-2987.772442,3256.906145
1443.016995,-8808.450710,-4290.134789,3404.947333
1443.017307,-6883.915261,-3677.258390,1850.514855
1443.017618,-6143.709319,-1455.581446,-814.226536
1443.017930,-6365.771101,-1302.362347,-666.185348
1443.018241,-8586.388927,-2221.676944,1036.288319
1443.018552,-11251.130318,-1532.190996,2146.597232
1443.018864,-12731.542202,612.876398,1998.556043
1443.019175,-11695.253884,0.000000,1554.432478
1443.019487,-9474.636058,0.000000,296.082377
1443.019798,-8290.306550,1149.143247,-1036.288319
1443.020109,-5625.565159,1532.190996,-2072.576638
1443.020421,-7105.977043,-766.095498,-2664.741391
1443.020732,-11029.068536,-1685.410096,-592.164754
1443.021044,-14137.933492,0.000000,222.061783
1443.021355,-15692.365970,306.438199,666.185348
1443.021666,-14730.098246,-689.485948,1406.391290
1443.021978,-13323.706956,-1838.629195,296.082377
1443.022289,-9844.739029,153.219100,-1776.494261
1443.022600,-6513.812290,2528.115143,-2738.761985
1443.022912,-5773.606348,1915.238745,-2072.576638
1443.023223,-8364.327145,0.000000,-370.102971
1443.023535,-11473.192101,0.000000,2368.659014
1443.023846,-12213.398043,919.314598,2368.659014
1443.024157,-12065.356855,689.485948,1998.556043
1443.024469,-10584.944971,919.314598,518.144159
1443.024780,-8586.388927,2221.676944,-1036.288319
1443.025092,-5255.462188,2374.896044,-2368.659014
1443.025403,-4589.276840,766.095498,-1628.453072
1443.025714,-6957.935855,-766.095498,666.185348
1443.026026,-10732.986159,-536.266849,2294.638420
1443.026337,-10510.924376,0.000000,4293.194464
1443.026649,-9252.574275,-1225.752797,3552.988522
1443.026960,-7476.080014,-766.095498,2220.617826
1443.027271,-3108.864956,1608.800546,-0.000000
1443.027583,-2590.720797,1608.800546,-1258.350101
1443.027894,-1332.370696,-612.876398,296.082377
1443.028206,-5329.482782,-2068.457845,592.164754
1443.028517,-10288.862594,-1072.533697,2220.617826
1443.028828,-9622.677246,612.876398,3182.885551
1443.029140,-10732.986159,-689.485948,2516.700203
1443.029451,-10066.800811,-1302.362347,1924.535449
1443.029763,-7846.182985,306.438199,444.123565
1443.030074,-5921.647536,0.000000,-1406.391290
1443.030385,-6439.791695,-919.314598,-222.061783
1443.030697,-10066.800811,-1532.190996,1776.494261
1443.031008,-11251.130318,-1838.629195,1998.556043
1443.031320,-11473.192101,-1915.238745,2886.803174
1443.031631,-10658.965565,-1685.410096,2738.761985
1443.031942,-10510.924376,-919.314598,444.123565
1443.032254,-8364.327145,1455.581446,-2146.597232
1443.032565,-5847.626942,1608.800546,-2368.659014
1443.032877,-8142.265362,-1532.190996,-1110.308913
1443.033188,-10362.883188,-2298.286494,740.205942
1443.033499,-12879.583391,919.314598,-444.123565
1443.033811,-13545.768739,1072.533697,444.123565
1443.034122,-11695.253884,842.705048,962.267725
1443.034434,-10732.986159,1072.533697,-518.144159
1443.034745,-8956.491898,2528.115143,-2072.576638
1443.035056,-6439.791695,2298.286494,-1850.514855
1443.035368,-7254.018232,0.000000,-0.000000
1443.035679,-11325.150913,306.438199,1258.350101
1443.035991,-12731.542202,1608.800546,1480.411884
1443.036302,-12805.562797,689.485948,814.226536
1443.036613,-11399.171507,-306.438199,1554.432478
1443.036925,-8882.471304,229.828649,592.164754
1443.037236,-6957.935855,383.047749,-1406.391290
1443.037548,-4737.318029,-689.485948,-1628.453072
1443.037859,-5847.626942,-2221.676944,296.082377
1443.038170,-8586.388927,-1302.362347,962.267725
1443.038482,-10807.006753,766.095498,1480.411884
1443.038793,-10732.986159,1608.800546,2146.597232
1443.039104,-9474.636058,612.876398,2294.638420
1443.039416,-7624.121203,1225.752797,1998.556043
1443.039727,-3034.844362,2757.943793,-370.102971
1443.040039,-2590.720797,1302.362347,-1036.288319
1443.040350,-4441.235652,-1608.800546,666.185348
1443.040661,-5699.585753,-766.095498,1184.329507
1443.040973,-10362.883188,0.000000,518.144159
1443.041284,-10658.965565,0.000000,1406.391290
1443.041596,-10436.903782,-2145.067394,1924.535449
1443.041907,-9400.615463,-2145.067394,666.185348
1443.042218,-6513.812290,-766.095498,370.102971
1443.042530,-5847.626942,-2451.505594,-518.144159
1443.042841,-7698.141797,-3294.210641,-296.082377
1443.043153,-9474.636058,-1532.190996,1554.432478
1443.043464,-10140.821405,-229.828649,1628.453072
1443.043775,-11103.089130,-689.485948,1776.494261
1443.044087,-11177.109724,-766.095498,2664.741391
1443.044398,-9400.615463,689.485948,1110.308913
1443.044710,-7846.182985,2374.896044,-1406.391290
1443.045021,-7031.956449,2451.505594,-2368.659014
1443.045332,-8882.471304,1991.848295,-1998.556043
1443.045644,-12213.398043,995.924147,-518.144159
1443.045955,-13175.665768,1762.019645,-666.185348
1443.046267,-13101.645173,2298.286494,-666.185348
1443.046578,-12657.521608,383.047749,-296.082377
1443.046889,-10881.027347,-153.219100,-0.000000
1443.047201,-7698.141797,-689.485948,-1332.370696
1443.047512,-7476.080014,-1455.581446,-1406.391290
1443.047824,-8956.491898,-1455.581446,518.144159
1443.048135,-11103.089130,76.609550,1628.453072
1443.048446,-13397.727550,612.876398,2664.741391
1443.048758,-11029.068536,76.609550,3552.988522
1443.049069,-9252.574275,-612.876398,2368.659014
1443.049381,-7920.203579,0.000000,-0.000000
1443.049692,-5699.585753,2757.943793,-1480.411884
1443.050003,-4515.256246,1762.019645,-1702.473667
1443.050315,-6735.874072,0.000000,-1036.288319
1443.050626,-9326.594869,919.314598,2220.617826
1443.050938,-11103.089130,1532.190996,1036.288319
1443.051249,-11325.150913,689.485948,1998.556043
1443.051560,-9622.677246,153.219100,2812.782580
1443.051872,-6587.832884,-229.828649,740.205942
1443.052183,-3849.070898,-383.047749,-370.102971
1443.052495,-2368.659014,-995.924147,-222.061783
1443.052806,-4441.235652,-2451.505594,592.164754
1443.053117,-7254.018232,-2298.286494,2220.617826
1443.053429,-9696.697840,-2221.676944,3627.009116
1443.053740,-9918.759623,-2604.724693,4145.153275
1443.054052,-8438.347739,-3140.991542,2960.823768
1443.054363,-7328.038826,-689.485948,1332.370696
1443.054675,-5033.400406,-229.828649,-1406.391290
1443.054986,-5329.482782,-1838.629195,-1850.514855
1443.055297,-8438.347739,-2221.676944,-1110.308913
1443.055609,-11695.253884,612.876398,-0.000000
1443.055920,-12731.542202,1991.848295,814.226536
1443.056232,-12953.603985,0.000000,1998.556043
1443.056543,-12657.521608,-1532.190996,2294.638420
1443.056855,-10214.842000,-536.266849,666.185348
1443.057166,-8068.244768,1762.019645,-1776.494261
1443.057478,-6587.832884,2374.896044,-1628.453072
1443.057789,-9030.512492,1072.533697,-1184.329507
1443.058101,-10658.965565,612.876398,666.185348
1443.058412,-10658.965565,766.095498,296.082377
1443.058724,-11695.253884,689.485948,740.205942
1443.059035,-11251.130318,842.705048,296.082377
1443.059347,-9474.636058,1991.848295,-1332.370696
1443.059658,-9474.636058,1608.800546,-2886.803174
1443.059970,-8142.265362,306.438199,-2072.576638
1443.060281,-10288.862594,-306.438199,-814.226536
1443.060593,-14137.933492,536.266849,148.041188
1443.060904,-13693.809927,2145.067394,888.247130
1443.061215,-12583.501014,536.266849,1702.473667
1443.061527,-10214.842000,-383.047749,2294.638420
1443.061838,-6735.874072,306.438199,518.144159
1443.062150,-4959.379811,995.924147,-592.164754
1443.062461,-5329.482782,0.000000,370.102971
1443.062773,-5551.544565,-612.876398,666.185348
1443.063084,-7698.141797,766.095498,1702.473667
1443.063396,-9474.636058,1149.143247,1776.494261
1443.063707,-9104.533087,0.000000,2886.803174
1443.064019,-7179.997637,-919.314598,1850.514855
1443.064330,-4737.318029,536.266849,-0.000000
1443.064642,-2368.659014,842.705048,-666.185348
1443.064953,-3330.926739,-1685.410096,-814.226536
1443.065265,-6883.915261,-3447.429741,1406.391290
1443.065576,-9918.759623,-2604.724693,2220.617826
1443.065888,-10881.027347,-1532.190996,1924.535449
1443.066199,-10362.883188,-1685.410096,2442.679609
1443.066511,-10288.862594,-2451.505594,1702.473667
1443.066822,-8068.244768,-2145.067394,740.205942
1443.067133,-5921.647536,-2298.286494,-296.082377
1443.067445,-5699.585753,-2681.334243,-0.000000
1443.067756,-8660.409521,-2604.724693,1924.535449
1443.068068,-11991.336260,-1915.238745,1998.556043
1443.068379,-11547.212695,0.000000,1924.535449
1443.068691,-9992.780217,-612.876398,1184.329507
1443.069002,-9326.594869,-459.657299,-74.020594
1443.069314,-8364.327145,2068.457845,-1554.432478
1443.069625,-7179.997637,2911.162892,-2812.782580
1443.069937,-8956.491898,1072.533697,-2072.576638
1443.070248,-11695.253884,842.705048,296.082377
1443.070560,-14952.160028,1608.800546,740.205942
1443.070871,-14804.118840,1838.629195,740.205942
1443.071183,-12065.356855,153.219100,1258.350101
1443.071494,-10584.944971,-536.266849,444.123565
1443.071806,-7994.224174,612.876398,-962.267725
1443.072117,-6217.729913,459.657299,-2516.700203
1443.072429,-7254.018232,-842.705048,-1110.308913
1443.072740,-10214.842000,-536.266849,592.164754
1443.073051,-13841.851115,689.485948,1554.432478
1443.073363,-12361.439231,1072.533697,2368.659014
1443.073674,-10140.821405,689.485948,1628.453072
1443.073986,-7179.997637,383.047749,1480.411884
1443.074297,-4663.297435,1149.143247,-0.000000
1443.074609,-4219.173869,689.485948,-1184.329507
1443.074920,-5773.606348,1225.752797,-1110.308913
1443.075232,-9030.512492,1225.752797,1110.308913
1443.075543,-9622.677246,1378.971896,1554.432478
1443.075855,-9548.656652,919.314598,1850.514855
1443.076166,-9030.512492,-1225.752797,2664.741391
1443.076478,-6735.874072,-2145.067394,1258.350101
1443.076789,-3701.029710,-842.705048,-148.041188
1443.077101,-2220.617826,0.000000,-1480.411884
1443.077412,-5477.523971,-2757.943793,370.102971
1443.077724,-7772.162391,-3830.477490,2294.638420
1443.078035,-10066.800811,-1302.362347,2516.700203
1443.078347,-10881.027347,-459.657299,3108.864956
1443.078658,-9178.553681,-919.314598,1924.535449
1443.078969,-6439.791695,-306.438199,888.247130
1443.079281,-4737.318029,-1072.533697,-444.123565
1443.079592,-3775.050304,-3447.429741,-444.123565
1443.079904,-6735.874072,-5745.716235,148.041188
1443.080215,-11547.212695,-4903.011187,962.267725
1443.080527,-14137.933492,-2681.334243,1184.329507
1443.080838,-13175.665768,-1991.848295,1480.411884
1443.081150,-12657.521608,-3830.477490,592.164754
1443.081461,-10510.924376,-4673.182538,-74.020594
1443.081773,-7846.182985,-3370.820191,-1480.411884
1443.082084,-7920.203579,-1378.971896,-2738.761985
1443.082396,-9992.780217,-995.924147,-592.164754
1443.082707,-12435.459826,-1225.752797,740.205942
1443.083019,-13989.892304,-1225.752797,1924.535449
1443.083330,-12509.480420,-842.705048,2294.638420
1443.083642,-9770.718434,-459.657299,1184.329507
1443.083953,-8364.327145,-153.219100,-592.164754
1443.084265,-6439.791695,766.095498,-2590.720797
1443.084576,-4737.318029,0.000000,-3182.885551
1443.084887,-7402.059420,-1991.848295,-2442.679609
1443.085199,-12065.356855,-1685.410096,-0.000000
1443.085510,-15914.427753,-612.876398,740.205942
1443.085822,-14878.139434,-1149.143247,1628.453072
1443.086133,-11991.336260,-2221.676944,2516.700203
1443.086445,-8882.471304,-2681.334243,1628.453072
1443.086756,-5551.544565,-1915.238745,148.041188
1443.087068,-3775.050304,-4290.134789,-74.020594
1443.087379,-370.102971,-4673.182538,666.185348
1443.087691,-2886.803174,-3600.648841,1554.432478
1443.088002,-9030.512492,-3830.477490,2220.617826
1443.088314,-10732.986159,-3907.087040,3552.988522
1443.088625,-9918.759623,-4749.792088,3552.988522
1443.088937,-7105.977043,-3294.210641,3182.885551
1443.089248,-5033.400406,-3217.601092,1258.350101
1443.089560,-5033.400406,-5132.839837,-1332.370696
1443.089871,-4663.297435,-5439.278036,-1332.370696
1443.090183,-4071.132681,-3753.867940,-814.226536
1443.090494,-6439.791695,-2451.505594,1110.308913
1443.090805,-11103.089130,-4443.353888,2590.720797
1443.091117,-13175.665768,-6511.811733,3034.844362
1443.091428,-11029.068536,-5515.887586,3552.988522
1443.091740,-7772.162391,-3753.867940,2146.597232
1443.092051,-5477.523971,-4903.011187,222.061783
1443.092363,-6069.688724,-7354.516781,-2368.659014
1443.092674,-7328.038826,-7277.907231,-3108.864956
1443.092986,-6883.915261,-3217.601092,-2368.659014
1443.093297,-9400.615463,-383.047749,-518.144159
1443.093609,-14508.036463,-1838.629195,1702.473667
1443.093920,-16876.695478,-4060.306139,3108.864956
1443.094232,-15470.304188,-2834.553343,2590.720797
1443.094543,-13175.665768,612.876398,962.267725
1443.094855,-9474.636058,2911.162892,-444.123565
1443.095166,-7994.224174,536.266849,-2220.617826
1443.095478,-5921.647536,-2528.115143,-3627.009116
1443.095789,-4663.297435,-2987.772442,-4293.194464
1443.096101,-6587.832884,-919.314598,-3775.050304
1443.096412,-9474.636058,153.219100,-888.247130
1443.096723,-13249.686362,-2451.505594,1258.350101
1443.097035,-14211.954086,-6741.640382,3034.844362
1443.097346,-15840.407159,-7048.078582,2886.803174
1443.097658,-14211.954086,-3907.087040,2590.720797
1443.097969,-10510.924376,-766.095498,1406.391290
1443.098281,-7550.100608,-1072.533697,-148.041188
1443.098592,-5181.441594,-3600.648841,296.082377
1443.098904,-2812.782580,-5209.449386,-962.267725
1443.099215,-2664.741391,-2681.334243,-592.164754
1443.099527,-4737.318029,-2221.676944,444.123565
1443.099838,-7698.141797,-1991.848295,888.247130
1443.100150,-10214.842000,-1762.019645,1332.370696
1443.100461,-11473.192101,-689.485948,2146.597232
1443.100773,-12139.377449,229.828649,2368.659014
1443.101084,-12213.398043,229.828649,2294.638420
1443.101396,-9696.697840,2145.067394,2368.659014
1443.101707,-7846.182985,1378.971896,222.061783
1443.102019,-4959.379811,1225.752797,-148.041188
1443.102330,-1998.556043,1149.143247,-296.082377
1443.102641,-370.102971,-1455.581446,-740.205942
1443.102953,-1332.370696,-4366.744339,-740.205942
1443.103264,-4071.132681,-5056.230287,-148.041188
1443.103576,-7402.059420,-2681.334243,370.102971
1443.103887,-10732.986159,-2834.553343,962.267725
1443.104199,-13767.830521,-4366.744339,2294.638420
1443.104510,-14359.995275,-7277.907231,3923.091493
1443.104822,-14508.036463,-7354.516781,4441.235652
1443.105133,-13249.686362,-6665.030833,3923.091493
1443.105445,-9918.759623,-5056.230287,2516.700203
1443.105756,-6809.894666,-4979.620737,666.185348
1443.106068,-4441.235652,-5439.278036,-1258.350101
1443.106379,-2738.761985,-5286.058936,-814.226536
1443.106691,-4071.132681,-4213.525239,-2368.659014
1443.107002,-4663.297435,-4136.915689,-1110.308913
1443.107314,-7105.977043,-5056.230287,-888.247130
1443.107625,-10955.047942,-5669.106685,370.102971
1443.107937,-13693.809927,-5132.839837,1850.514855
1443.108248,-15692.365970,-4213.525239,2294.638420
1443.108559,-17764.942608,-4060.306139,2590.720797
1443.108871,-17098.757260,-2145.067394,2220.617826
1443.109182,-14137.933492,-842.705048,888.247130
1443.109494,-10362.883188,-1302.362347,-74.020594
1443.109805,-6587.832884,-3907.087040,-148.041188
1443.110117,-3256.906145,-4673.182538,-1702.473667
1443.110428,-2072.576638,-4213.525239,-2590.720797
1443.110740,-2590.720797,-2987.772442,-2886.803174
1443.111051,-6069.688724,-2298.286494,-2590.720797
1443.111363,-10658.965565,-2451.505594,-962.267725
1443.111674,-13619.789333,-3217.601092,666.185348
1443.111986,-15988.448347,-3294.210641,2368.659014
1443.112297,-16580.613101,-2757.943793,2590.720797
1443.112609,-14952.160028,-2374.896044,2146.597232
1443.112920,-11029.068536,-2451.505594,592.164754
1443.113232,-5477.523971,-1915.238745,-1332.370696
1443.113543,-4885.359217,-1685.410096,-888.247130
1443.113855,-5329.482782,-766.095498,-444.123565
1443.114166,-3627.009116,-229.828649,-2294.638420
1443.114477,-3108.864956,76.609550,-148.041188
1443.114789,-3330.926739,-2221.676944,296.082377
1443.115100,-4885.359217,-3294.210641,444.123565
1443.115412,-7031.956449,-3140.991542,888.247130
1443.115723,-9474.636058,-3524.039291,518.144159
1443.116035,-11325.150913,-3907.087040,1702.473667
1443.116346,-12139.377449,-3064.381992,1924.535449
1443.116658,-13545.768739,-1991.848295,1776.494261
1443.116969,-12065.356855,-3447.429741,2294.638420
1443.117281,-8956.491898,-4290.134789,2220.617826
1443.117592,-5699.585753,-2987.772442,1406.391290
1443.117904,-3775.050304,-2451.505594,-592.164754
1443.118215,-3552.988522,-2221.676944,-740.205942
1443.118527,-4071.132681,-1455.581446,-1110.308913
1443.118838,-4515.256246,-1608.800546,-1184.329507
1443.119150,-6883.915261,-2221.676944,-74.020594
1443.119461,-9844.739029,-3677.258390,962.267725
1443.119773,-12213.398043,-3370.820191,2072.576638
1443.120084,-13767.830521,-3677.258390,2590.720797
1443.120395,-13767.830521,-4903.011187,3404.947333
1443.120707,-13545.768739,-4749.792088,2886.803174
1443.121018,-12879.583391,-2834.553343,1480.411884
1443.121330,-10140.821405,-1608.800546,-0.000000
1443.121641,-7550.100608,-766.095498,-148.041188
1443.121953,-5995.668130,153.219100,-666.185348
1443.122264,-5551.544565,-612.876398,-518.144159
1443.122576,-5551.544565,-2604.724693,-0.000000
1443.122887,-6809.894666,-3447.429741,592.164754
1443.123199,-8882.471304,-4366.744339,1332.370696
1443.123510,-9844.739029,-4903.011187,1628.453072
1443.123822,-12139.377449,-5745.716235,2072.576638
1443.124133,-13989.892304,-6511.811733,2516.700203
1443.124445,-13397.727550,-5515.887586,1628.453072
1443.124756,-12139.377449,-4519.963438,1258.350101
1443.125068,-10362.883188,-4060.306139,1110.308913
1443.125379,-7994.224174,-2834.553343,1332.370696
1443.125691,-5995.668130,-2757.943793,222.061783
1443.126002,-4515.256246,-2145.067394,-296.082377
1443.126313,-3923.091493,-1608.800546,-148.041188
1443.126625,-5329.482782,-1378.971896,-740.205942
1443.126936,-7179.997637,-1072.533697,-1036.288319
1443.127248,-8438.347739,-1225.752797,-888.247130
1443.127559,-10584.944971,-2298.286494,-296.082377
1443.127871,-11843.295072,-3140.991542,222.061783
1443.128182,-10881.027347,-3677.258390,962.267725
1443.128494,-10510.924376,-3600.648841,666.185348
1443.128805,-8364.327145,-3064.381992,814.226536
1443.129117,-7031.956449,-2987.772442,296.082377
1443.129428,-7476.080014,-2987.772442,-518.144159
1443.129740,-4737.318029,-1915.238745,-0.000000
1443.130051,-5255.462188,-1608.800546,-1998.556043
1443.130363,-6217.729913,-3217.601092,444.123565
1443.130674,-10658.965565,-4213.525239,-0.000000
1443.130986,-12731.542202,-3830.477490,1110.308913
1443.131297,-12065.356855,-2221.676944,1406.391290
1443.131609,-11695.253884,-2451.505594,2664.741391
1443.131920,-11177.109724,-3677.258390,2072.576638
1443.132231,-10214.842000,-3907.087040,1480.411884
1443.132543,-8290.306550,-2298.286494,1554.432478
1443.132854,-7328.038826,-229.828649,814.226536
1443.133166,-9178.553681,1149.143247,666.185348
1443.133477,-9770.718434,995.924147,740.205942
1443.133789,-9104.533087,-153.219100,1184.329507
1443.134100,-8438.347739,-1225.752797,1110.308913
1443.134412,-6439.791695,-842.705048,2220.617826
1443.134723,-8882.471304,-2068.457845,1406.391290
1443.135035,-9474.636058,-4366.744339,3108.864956
1443.135346,-11103.089130,-4903.011187,4441.235652
1443.135658,-11103.089130,-3217.601092,5255.462188
1443.135969,-12361.439231,-1915.238745,5477.523971
1443.136281,-13471.748144,-1991.848295,6069.688724
1443.136592,-9770.718434,-1149.143247,5107.421000
1443.136904,-7105.977043,1685.410096,3478.967927
1443.137215,-5699.585753,2221.676944,3182.885551
1443.137527,-5181.441594,1685.410096,2368.659014
1443.137838,-6661.853478,-766.095498,1628.453072
1443.138149,-5921.647536,383.047749,3627.009116
1443.138461,-6957.935855,306.438199,3627.009116
1443.138772,-11769.274478,-383.047749,4293.194464
1443.139084,-12065.356855,-153.219100,6809.894666
1443.139395,-11325.150913,-1225.752797,6217.729913
1443.139707,-8882.471304,-919.314598,7254.018232
1443.140018,-8438.347739,0.000000,5403.503377
1443.140330,-7698.141797,0.000000,4737.318029
1443.140641,-5033.400406,1072.533697,3478.967927
1443.140953,-4737.318029,1149.143247,2738.761985
1443.141264,-4737.318029,2221.676944,2812.782580
1443.141576,-8068.244768,1838.629195,3552.988522
1443.141887,-9622.677246,612.876398,4737.318029
1443.142199,-9178.553681,-536.266849,5625.565159
1443.142510,-8660.409521,-1915.238745,6143.709319
1443.142822,-9178.553681,-2145.067394,6069.688724
1443.143133,-9326.594869,-3064.381992,6291.750507
1443.143445,-8068.244768,-1838.629195,5329.482782
1443.143756,-7402.059420,1072.533697,5107.421000
1443.144067,-7698.141797,2451.505594,3330.926739
1443.144379,-9326.594869,2757.943793,3627.009116
1443.144690,-9252.574275,2987.772442,3034.844362
1443.145002,-7698.141797,3447.429741,3627.009116
1443.145313,-8216.285956,2374.896044,2812.782580
1443.145625,-7254.018232,-229.828649,3404.947333
1443.145936,-7698.141797,-1149.143247,3701.029710
1443.146248,-6809.894666,-1608.800546,3627.009116
1443.146559,-6587.832884,-2068.457845,4071.132681
1443.146871,-8142.265362,-2451.505594,3849.070898
1443.147182,-9474.636058,-1991.848295,3849.070898
1443.147494,-10881.027347,-842.705048,3701.029710
1443.147805,-11177.109724,-459.657299,3552.988522
1443.148117,-10436.903782,536.266849,3256.906145
1443.148428,-10214.842000,1149.143247,2442.679609
1443.148740,-9474.636058,766.095498,1628.453072
1443.149051,-8364.327145,612.876398,1480.411884
1443.149363,-7994.224174,919.314598,1924.535449
1443.149674,-9400.615463,0.000000,2960.823768
1443.149985,-10807.006753,-1608.800546,3330.926739
1443.150297,-10510.924376,-2374.896044,4145.153275
1443.150608,-9992.780217,-1991.848295,4441.235652
1443.150920,-8808.450710,-1532.190996,3849.070898
1443.151231,-7994.224174,-1685.410096,2294.638420
1443.151543,-7328.038826,-383.047749,1258.350101
1443.151854,-6069.688724,1225.752797,-370.102971
1443.152166,-7179.997637,2068.457845,-888.247130
1443.152477,-8956.491898,1762.019645,-518.144159
1443.152789,-11029.068536,1685.410096,666.185348
1443.153100,-12583.501014,1072.533697,2368.659014
1443.153412,-13397.727550,76.609550,3923.091493
1443.153723,-12953.603985,-919.314598,4737.318029
1443.154035,-11473.192101,-1915.238745,4515.256246
1443.154346,-8734.430116,-1608.800546,3701.029710
1443.154657,-5329.482782,-2221.676944,2072.576638
1443.154969,-4145.153275,-1532.190996,370.102971
1443.155280,-4737.318029,-842.705048,444.123565
1443.155592,-7105.977043,-229.828649,1258.350101
1443.155903,-9474.636058,459.657299,2886.803174
1443.156215,-12435.459826,1072.533697,4441.235652
1443.156526,-13841.851115,1149.143247,5551.544565
1443.156838,-12731.542202,689.485948,5847.626942
1443.157149,-10288.862594,-153.219100,5181.441594
1443.157461,-6587.832884,-306.438199,3627.009116
1443.157772,-4515.256246,-689.485948,2072.576638
1443.158084,-3330.926739,-229.828649,1036.288319
1443.158395,-3256.906145,459.657299,1184.329507
1443.158706,-5921.647536,919.314598,1850.514855
1443.159018,-9844.739029,1149.143247,3627.009116
1443.159329,-13101.645173,1302.362347,4589.276840
1443.159641,-13619.789333,1838.629195,5921.647536
1443.159952,-10807.006753,459.657299,5921.647536
1443.160264,-8808.450710,-612.876398,4367.215058
1443.160575,-6513.812290,-919.314598,3849.070898
1443.160887,-4959.379811,-536.266849,3330.926739
1443.161198,-5699.585753,0.000000,3923.091493
1443.161510,-7402.059420,-153.219100,5773.606348
1443.161821,-10288.862594,306.438199,6883.915261
1443.162132,-12435.459826,1225.752797,7698.141797
1443.162444,-12065.356855,919.314598,7476.080014
1443.162755,-9696.697840,2145.067394,5403.503377
1443.163067,-6809.894666,3370.820191,3478.967927
1443.163378,-5255.462188,3447.429741,1554.432478
1443.163690,-5255.462188,2834.553343,814.226536
1443.164001,-5995.668130,1608.800546,1850.514855
1443.164313,-8142.265362,306.438199,3256.906145
1443.164624,-9548.656652,-1225.752797,4959.379811
1443.164936,-12139.377449,-2604.724693,7328.038826
1443.165247,-14434.015869,-3294.210641,9104.533087
1443.165558,-14582.057057,-2757.943793,11177.109724
1443.165870,-13323.706956,-2528.115143,10881.027347
1443.166181,-9992.780217,-1991.848295,8364.327145
1443.166493,-5625.565159,-919.314598,5255.462188
1443.166804,-1998.556043,1225.752797,1924.535449
1443.167116,1258.350101,3677.258390,-444.123565
1443.167427,0.000000,2451.505594,-1702.473667
1443.167739,-3627.009116,2374.896044,-444.123565
1443.168050,-8216.285956,1532.190996,2294.638420
1443.168362,-13471.748144,-383.047749,5551.544565
1443.168673,-17542.880825,-842.705048,7772.162391
1443.168984,-18875.251521,-1378.971896,8364.327145
1443.169296,-15840.407159,-459.657299,7402.059420
1443.169607,-9992.780217,-306.438199,4589.276840
1443.169919,-5255.462188,229.828649,2368.659014
1443.170230,-2368.659014,0.000000,1036.288319
1443.170542,-1406.391290,536.266849,-0.000000
1443.170853,-2516.700203,766.095498,740.205942
1443.171165,-5107.421000,766.095498,592.164754
1443.171476,-7179.997637,383.047749,666.185348
1443.171788,-7994.224174,-153.219100,592.164754
1443.172099,-9918.759623,-689.485948,444.123565
1443.172410,-13471.748144,-1149.143247,1036.288319
1443.172722,-15396.283594,-536.266849,3330.926739
1443.173033,-17246.798449,-306.438199,4367.215058
1443.173345,-16950.716072,459.657299,5847.626942
1443.173656,-14582.057057,0.000000,6883.915261
1443.173968,-10066.800811,-1149.143247,5403.503377
1443.174279,-4589.276840,-536.266849,3627.009116
1443.174591,-444.123565,-383.047749,-0.000000
1443.174902,2886.803174,-153.219100,-3404.947333
1443.175214,1998.556043,612.876398,-4885.359217
1443.175525,-2886.803174,-459.657299,-3627.009116
1443.175836,-9178.553681,-842.705048,-666.185348
1443.176148,-17246.798449,-1149.143247,3701.029710
1443.176459,-23390.507767,-1685.410096,7994.224174
1443.176771,-24944.940245,-766.095498,10584.944971
1443.177082,-21095.869347,-1762.019645,10732.986159
1443.177394,-13397.727550,-2451.505594,8808.450710
1443.177705,-5699.585753,-1378.971896,4293.194464
1443.178017,1184.329507,-229.828649,518.144159
1443.178328,5033.400406,383.047749,-4219.173869
1443.178640,4515.256246,689.485948,-5625.565159
1443.178951,-222.061783,2911.162892,-3997.112087
1443.179263,-8808.450710,2451.505594,-444.123565
1443.179574,-17394.839637,1302.362347,4737.318029
1443.179885,-23020.404796,842.705048,8364.327145
1443.180197,-22428.240043,459.657299,9770.718434
1443.180508,-15692.365970,-229.828649,9400.615463
1443.180820,-10066.800811,-1302.362347,6291.750507
1443.181131,-2664.741391,-766.095498,2812.782580
1443.181443,1924.535449,536.266849,-0.000000
1443.181754,2960.823768,1455.581446,-740.205942
1443.182066,-740.205942,2221.676944,1184.329507
1443.182377,-8142.265362,1685.410096,3330.926739
1443.182689,-13101.645173,536.266849,5921.647536
1443.183000,-14063.912898,76.609550,6661.853478
1443.183311,-11325.150913,0.000000,5255.462188
1443.183623,-8068.244768,-689.485948,3775.050304
1443.183934,-6587.832884,-2681.334243,2368.659014
1443.184246,-5995.668130,-2604.724693,2886.803174
1443.184557,-7328.038826,-689.485948,4959.379811
1443.184869,-11399.171507,995.924147,6957.935855
1443.185180,-13619.789333,1072.533697,7920.203579
1443.185492,-13027.624579,842.705048,7550.100608
1443.185803,-8364.327145,1378.971896,6365.771101
1443.186115,-2664.741391,1991.848295,2590.720797
1443.186426,1406.391290,1149.143247,-1628.453072
1443.186737,3775.050304,1302.362347,-5625.565159
1443.187049,1702.473667,995.924147,-5329.482782
1443.187360,-4811.338623,1378.971896,-666.185348
1443.187672,-15322.262999,-306.438199,3849.070898
1443.187983,-24870.919651,-2681.334243,9696.697840
1443.188295,-26425.352129,-2987.772442,13471.748144
1443.188606,-18949.272115,-4443.353888,12287.418637
1443.188918,-8882.471304,-4136.915689,7105.977043
1443.189229,-1036.288319,-2374.896044,-666.185348
1443.189541,4515.256246,-306.438199,-6661.853478
1443.189852,7846.182985,1838.629195,-9326.594869
1443.190163,4293.194464,3447.429741,-8660.409521
1443.190475,-5329.482782,4443.353888,-5403.503377
1443.190786,-15100.201217,2221.676944,-888.247130
1443.191098,-20281.642811,-153.219100,2442.679609
1443.191409,-19985.560434,-689.485948,4145.153275
1443.191721,-17246.798449,-536.266849,3330.926739
1443.192032,-13619.789333,-1378.971896,1036.288319
1443.192344,-9770.718434,-1762.019645,-1628.453072
1443.192655,-7105.977043,-1302.362347,-2590.720797
1443.192967,-7031.956449,766.095498,-3923.091493
1443.193278,-6809.894666,2145.067394,-3701.029710
1443.193589,-6957.935855,1608.800546,-3034.844362
1443.193901,-6291.750507,-995.924147,-2812.782580
1443.194212,-6883.915261,-3064.381992,-3330.926739
1443.194524,-9104.533087,-1915.238745,-2812.782580
1443.194835,-12139.377449,-153.219100,-2368.659014
1443.195147,-14878.139434,-995.924147,-888.247130
1443.195458,-17320.819043,-995.924147,296.082377
1443.195770,-16876.695478,-1149.143247,1184.329507
1443.196081,-13249.686362,-1915.238745,1184.329507
1443.196393,-8142.265362,-2681.334243,-0.000000
1443.196704,-3552.988522,-1915.238745,-1332.370696
1443.197015,-2072.576638,76.609550,-2738.761985
1443.197327,-5033.400406,76.609550,-2960.823768
1443.197638,-8882.471304,306.438199,-2368.659014
1443.197950,-12139.377449,766.095498,-1184.329507
1443.198261,-11621.233289,2298.286494,-1258.350101
1443.198573,-8512.368333,536.266849,-1480.411884
1443.198884,-7254.018232,-1149.143247,-1480.411884
1443.199196,-6365.771101,-2987.772442,-740.205942
1443.199507,-8216.285956,-2681.334243,2442.679609
1443.199819,-10436.903782,-3064.381992,4219.173869
1443.200130,-13249.686362,-1915.238745,5773.606348
1443.200442,-13323.706956,-306.438199,5995.668130
1443.200753,-9474.636058,0.000000,2590.720797
1443.201064,-4589.276840,1302.362347,-814.226536
1443.201376,-222.061783,2757.943793,-3775.050304
1443.201687,518.144159,2757.943793,-5699.585753
1443.201999,-2072.576638,2298.286494,-4293.194464
1443.202310,-8216.285956,1225.752797,-1406.391290
1443.202622,-13767.830521,0.000000,3108.864956
1443.202933,-17246.798449,-1838.629195,6291.750507
1443.203245,-17912.983796,-1225.752797,8290.306550
1443.203556,-14730.098246,-766.095498,7328.038826
1443.203868,-9696.697840,-1915.238745,5699.585753
1443.204179,-4293.194464,-2374.896044,2368.659014
1443.204490,-148.041188,-766.095498,-1480.411884
1443.204802,370.102971,2681.334243,-3108.864956
1443.205113,-2664.741391,5132.839837,-1480.411884
1443.205425,-8808.450710,4749.792088,-370.102971
1443.205736,-12805.562797,2221.676944,2368.659014
1443.206048,-15396.283594,612.876398,3552.988522
1443.206359,-12953.603985,-919.314598,4367.215058
1443.206671,-10436.903782,-1762.019645,3404.947333
1443.206982,-8882.471304,-2681.334243,1554.432478
1443.207294,-8068.244768,-2987.772442,-74.020594
1443.207605,-8512.368333,-1915.238745,1406.391290
1443.207916,-9030.512492,-842.705048,1702.473667
1443.208228,-9400.615463,153.219100,2294.638420
1443.208539,-9548.656652,-229.828649,1110.308913
1443.208851,-8512.368333,76.609550,666.185348
1443.209162,-7031.956449,-76.609550,-1184.329507
1443.209474,-5403.503377,1225.752797,-1406.391290
1443.209785,-5625.565159,1302.362347,-2220.617826
1443.210097,-7402.059420,766.095498,-1628.453072
1443.210408,-9622.677246,919.314598,-74.020594
1443.210720,-11103.089130,1149.143247,1776.494261
1443.211031,-11621.233289,-153.219100,2368.659014
1443.211342,-10658.965565,-1225.752797,2590.720797
1443.211654,-9252.574275,-1455.581446,1110.308913
1443.211965,-7698.141797,-689.485948,-592.164754
1443.212277,-7031.956449,842.705048,-2516.700203
1443.212588,-6735.874072,2221.676944,-2812.782580
1443.212900,-7402.059420,1915.238745,-3923.091493
1443.213211,-7179.997637,1072.533697,-2886.803174
1443.213523,-8216.285956,-306.438199,-2442.679609
1443.213834,-8956.491898,-2451.505594,-0.000000
1443.214146,-9326.594869,-3600.648841,1110.308913
1443.214457,-9770.718434,-3753.867940,2146.597232
1443.214768,-9918.759623,-4290.134789,1702.473667
1443.215080,-10214.842000,-2834.553343,666.185348
1443.215391,-11029.068536,0.000000,-0.000000
1443.215703,-11029.068536,1915.238745,-1480.411884
1443.216014,-10288.862594,2298.286494,-2664.741391
1443.216326,-10066.800811,2374.896044,-3552.988522
1443.216637,-8660.409521,2145.067394,-4293.194464
1443.216949,-7179.997637,2068.457845,-4367.215058
1443.217260,-7920.203579,1302.362347,-3849.070898
1443.217572,-10510.924376,689.485948,-1110.308913
1443.217883,-13249.686362,-536.266849,1110.308913
1443.218194,-13767.830521,-2298.286494,2960.823768
1443.218506,-12509.480420,-3907.087040,1850.514855
1443.218817,-9622.677246,-2528.115143,1258.350101
1443.219129,-7476.080014,-2221.676944,-1036.288319
1443.219440,-6069.688724,-689.485948,-1258.350101
1443.219752,-4811.338623,536.266849,-2812.782580
1443.220063,-7698.141797,1915.238745,-1998.556043
1443.220375,-10140.821405,1991.848295,-296.082377
1443.220686,-12509.480420,2451.505594,1702.473667
1443.220998,-12139.377449,919.314598,2516.700203
1443.221309,-9474.636058,-2221.676944,1036.288319
1443.221620,-6217.729913,-2681.334243,-518.144159
1443.221932,-4071.132681,-612.876398,-1406.391290
1443.222243,-6735.874072,1149.143247,814.226536
1443.222555,-11547.212695,-383.047749,3182.885551
1443.222866,-14952.160028,-1149.143247,4737.318029
1443.223178,-14211.954086,-383.047749,6661.853478
1443.223489,-10436.903782,-1149.143247,4737.318029
1443.223801,-5329.482782,-536.266849,2442.679609
1443.224112,-1332.370696,-229.828649,-962.267725
1443.224424,-370.102971,306.438199,-2368.659014
1443.224735,-2442.679609,612.876398,-1554.432478
1443.225047,-7846.182985,1072.533697,962.267725
1443.225358,-12065.356855,1685.410096,3404.947333
1443.225669,-13323.706956,306.438199,5921.647536
1443.225981,-13027.624579,-2374.896044,5255.462188
1443.226292,-10584.944971,-1838.629195,3627.009116
1443.226604,-7476.080014,-459.657299,2664.741391
1443.226915,-5995.668130,1072.533697,1036.288319
1443.227227,-6439.791695,1378.971896,444.123565
1443.227538,-7920.203579,2681.334243,1110.308913
1443.227850,-9178.553681,3140.991542,666.185348
1443.228161,-7772.162391,3064.381992,2294.638420
1443.228473,-6217.729913,1378.971896,1776.494261
1443.228784,-6143.709319,-459.657299,1776.494261
1443.229095,-7031.956449,-1608.800546,1776.494261
1443.229407,-7624.121203,-1455.581446,2072.576638
1443.229718,-8660.409521,-153.219100,1924.535449
1443.230030,-10436.903782,229.828649,1998.556043
1443.230341,-10658.965565,383.047749,1184.329507
1443.230653,-10436.903782,766.095498,148.041188
1443.230964,-8586.388927,919.314598,-814.226536
1443.231276,-7550.100608,1149.143247,-1036.288319
1443.231587,-7254.018232,-306.438199,-814.226536
1443.231899,-8438.347739,-1149.143247,-1924.535449
1443.232210,-9474.636058,0.000000,-1036.288319
1443.232521,-12583.501014,1378.971896,518.144159
1443.232833,-13915.871710,-76.609550,1924.535449
1443.233144,-12361.439231,-2604.724693,1628.453072
1443.233456,-10066.800811,-3524.039291,-0.000000
1443.233767,-6661.853478,-3064.381992,-518.144159
1443.234079,-5181.441594,-2451.505594,-2072.576638
1443.234390,-5995.668130,-995.924147,-2220.617826
1443.234702,-9104.533087,0.000000,-1850.514855
1443.235013,-12213.398043,612.876398,222.061783
1443.235325,-13693.809927,1532.190996,1036.288319
1443.235636,-12509.480420,2145.067394,222.061783
1443.235947,-8882.471304,1149.143247,-1628.453072
1443.236259,-6291.750507,0.000000,-3256.906145
1443.236570,-5107.421000,153.219100,-3404.947333
1443.236882,-6735.874072,0.000000,-3627.009116
1443.237193,-9992.780217,0.000000,148.041188
1443.237505,-14063.912898,-1608.800546,1776.494261
1443.237816,-16284.530724,-1455.581446,3627.009116
1443.238128,-14878.139434,-1149.143247,3701.029710
1443.238439,-10584.944971,-1991.848295,2146.597232
1443.238751,-5255.462188,-2834.553343,-0.000000
1443.239062,-814.226536,-2834.553343,-3404.947333
1443.239373,74.020594,-459.657299,-4515.256246
1443.239685,-4145.153275,2221.676944,-1776.494261
1443.239996,-11103.089130,1685.410096,740.205942
1443.240308,-15692.365970,1455.581446,3849.070898
1443.240619,-15988.448347,766.095498,5255.462188
1443.240931,-12509.480420,0.000000,4441.235652
1443.241242,-7994.224174,459.657299,1924.535449
1443.241554,-4219.173869,1685.410096,-518.144159
1443.241865,-3701.029710,995.924147,-2738.761985
1443.242177,-5847.626942,1685.410096,-1332.370696
1443.242488,-9178.553681,1455.581446,666.185348
1443.242799,-10807.006753,1991.848295,1924.535449
1443.243111,-10584.944971,919.314598,2812.782580
1443.243422,-8438.347739,-842.705048,2368.659014
1443.243734,-5773.606348,-1915.238745,1628.453072
1443.244045,-5181.441594,-1302.362347,1628.453072
1443.244357,-7179.997637,-536.266849,1480.411884
1443.244668,-8290.306550,-459.657299,2294.638420
1443.244980,-10881.027347,229.828649,2812.782580
1443.245291,-11325.150913,1685.410096,2664.741391
1443.245603,-9400.615463,1225.752797,1924.535449
1443.245914,-7105.977043,766.095498,888.247130
1443.246226,-6661.853478,919.314598,592.164754
1443.246537,-8142.265362,1072.533697,296.082377
1443.246848,-10066.800811,229.828649,592.164754
1443.247160,-11177.109724,1149.143247,1628.453072
1443.247471,-11769.274478,1532.190996,1998.556043
1443.247783,-9992.780217,0.000000,2590.720797
1443.248094,-8808.450710,-2068.457845,1702.473667
1443.248406,-7105.977043,-3524.039291,1702.473667
1443.248717,-5699.585753,-4443.353888,1702.473667
1443.249029,-6439.791695,-3447.429741,1702.473667
1443.249340,-8364.327145,-2221.676944,2072.576638
1443.249652,-11843.295072,-766.095498,1998.556043
1443.249963,-14508.036463,-153.219100,2590.720797
1443.250274,-13619.789333,1685.410096,2960.823768
1443.250586,-10362.883188,1838.629195,444.123565
1443.250897,-6217.729913,612.876398,-1628.453072
1443.251209,-3256.906145,919.314598,-2812.782580
1443.251520,-3256.906145,383.047749,-2368.659014
1443.251832,-6439.791695,1532.190996,-1332.370696
1443.252143,-10955.047942,1072.533697,1184.329507
1443.252455,-15396.283594,229.828649,2664.741391
1443.252766,-14359.995275,459.657299,3701.029710
1443.253078,-10584.944971,0.000000,1998.556043
1443.253389,-6439.791695,-612.876398,-222.061783
1443.253700,-3627.009116,-536.266849,-2368.659014
1443.254012,-2960.823768,995.924147,-3849.070898
1443.254323,-4145.153275,1532.190996,-3997.112087
1443.254635,-7328.038826,2451.505594,-1628.453072
1443.254946,-9918.759623,2068.457845,-148.041188
1443.255258,-11103.089130,1302.362347,296.082377
1443.255569,-10436.903782,689.485948,-148.041188
1443.255881,-9030.512492,536.266849,-888.247130
1443.256192,-9622.677246,153.219100,-444.123565
1443.256504,-9844.739029,-383.047749,-222.061783
1443.256815,-10807.006753,-995.924147,-518.144159
1443.257127,-11843.295072,-1378.971896,592.164754
1443.257438,-11029.068536,-995.924147,962.267725
1443.257750,-9178.553681,-766.095498,740.205942
1443.258061,-7328.038826,-2221.676944,-222.061783
1443.258373,-6883.915261,-2451.505594,-222.061783
1443.258684,-7772.162391,-1455.581446,592.164754
1443.258996,-10436.903782,-766.095498,2368.659014
1443.259307,-11843.295072,-842.705048,2220.617826
1443.259619,-10732.986159,-1149.143247,1406.391290
1443.259930,-8512.368333,-842.705048,814.226536
1443.260242,-6365.771101,383.047749,888.247130
1443.260553,-7105.977043,0.000000,-0.000000
1443.260865,-9030.512492,-995.924147,-222.061783
1443.261176,-11029.068536,-995.924147,1036.288319
1443.261488,-13323.706956,-306.438199,2590.720797
1443.261799,-13397.727550,536.266849,2812.782580
1443.262111,-12509.480420,459.657299,2516.700203
1443.262422,-9844.739029,229.828649,1406.391290
1443.262734,-5921.647536,0.000000,-0.000000
1443.263045,-3034.844362,0.000000,-0.000000
1443.263357,-2886.803174,-306.438199,-0.000000
1443.263668,-5847.626942,-1455.581446,666.185348
1443.263980,-9030.512492,-1302.362347,1332.370696
1443.264291,-9992.780217,383.047749,962.267725
1443.264603,-9918.759623,1991.848295,1628.453072
1443.264914,-9474.636058,2145.067394,1036.288319
1443.265226,-7105.977043,1072.533697,-0.000000
1443.265537,-4885.359217,76.609550,-2664.741391
1443.265849,-4589.276840,1455.581446,-3256.906145
1443.266160,-6661.853478,2451.505594,-1924.535449
1443.266472,-10510.924376,3217.601092,-740.205942
1443.266783,-13471.748144,2834.553343,740.205942
1443.267095,-15248.242405,1378.971896,1628.453072
1443.267406,-13545.768739,536.266849,2960.823768
1443.267718,-8512.368333,0.000000,1628.453072
1443.268029,-4663.297435,-1915.238745,-1258.350101
1443.268341,-3108.864956,-2528.115143,-2146.597232
1443.268652,-5403.503377,-2757.943793,-1924.535449
1443.268964,-8290.306550,-2528.115143,-74.020594
1443.269275,-10807.006753,-1532.190996,740.205942
1443.269587,-12139.377449,-1608.800546,1776.494261
1443.269898,-10881.027347,-1915.238745,1702.473667
1443.270210,-9622.677246,-1225.752797,740.205942
1443.270521,-8142.265362,-1455.581446,-0.000000
1443.270833,-7698.141797,-1455.581446,-444.123565
1443.271144,-8808.450710,-383.047749,-592.164754
1443.271456,-11029.068536,612.876398,-222.061783
1443.271768,-12805.562797,1149.143247,222.061783
1443.272079,-13397.727550,689.485948,1628.453072
1443.272391,-11251.130318,919.314598,1332.370696
1443.272702,-8364.327145,1149.143247,296.082377
1443.273014,-6513.812290,-536.266849,-0.000000
1443.273325,-6143.709319,-2145.067394,-370.102971
1443.273637,-6735.874072,-1685.410096,-666.185348
1443.273948,-7105.977043,76.609550,148.041188
1443.274260,-8512.368333,1225.752797,1184.329507
1443.274571,-9992.780217,766.095498,2368.659014
1443.274883,-9696.697840,229.828649,2738.761985
1443.275194,-8586.388927,-383.047749,2442.679609
1443.275506,-7772.162391,-766.095498,1332.370696
1443.275817,-7328.038826,0.000000,1628.453072
1443.276129,-7031.956449,229.828649,518.144159
1443.276440,-8660.409521,383.047749,370.102971
1443.276752,-9770.718434,919.314598,962.267725
1443.277063,-10288.862594,1302.362347,592.164754
1443.277375,-9252.574275,2298.286494,1332.370696
1443.277686,-7698.141797,995.924147,1702.473667
1443.277998,-6587.832884,-1838.629195,1480.411884
1443.278309,-5921.647536,-2987.772442,740.205942
1443.278621,-6957.935855,-2145.067394,222.061783
1443.278932,-8364.327145,306.438199,-148.041188
1443.279244,-8512.368333,766.095498,666.185348
1443.279555,-10214.842000,153.219100,814.226536
1443.279867,-10658.965565,-689.485948,962.267725
1443.280178,-11029.068536,-536.266849,814.226536
1443.280490,-10214.842000,229.828649,-0.000000
1443.280801,-7772.162391,76.609550,-296.082377
1443.281113,-6883.915261,-1532.190996,-1628.453072
1443.281424,-6587.832884,-1302.362347,-2590.720797
1443.281736,-7476.080014,1455.581446,-1628.453072
1443.282047,-9844.739029,1762.019645,222.061783
1443.282359,-13101.645173,383.047749,2072.576638
1443.282670,-13915.871710,-1608.800546,962.267725
1443.282982,-11695.253884,-1762.019645,-222.061783
1443.283293,-7846.182985,-2834.553343,-888.247130
1443.283605,-6291.750507,-1149.143247,-1998.556043
1443.283916,-6883.915261,153.219100,-2812.782580
1443.284228,-8882.471304,842.705048,-2664.741391
1443.284539,-11029.068536,229.828649,-740.205942
1443.284851,-11843.295072,153.219100,1184.329507
1443.285162,-11621.233289,766.095498,888.247130
1443.285474,-9400.615463,-306.438199,-740.205942
1443.285785,-6809.894666,-1378.971896,-2368.659014
1443.286097,-5403.503377,612.876398,-2516.700203
1443.286408,-6291.750507,1608.800546,-1924.535449
1443.286720,-9252.574275,76.609550,-370.102971
1443.287031,-12213.398043,-1762.019645,1258.350101
1443.287343,-11695.253884,-1378.971896,2664.741391
1443.287654,-10362.883188,-612.876398,1554.432478
1443.287966,-8438.347739,-1455.581446,1110.308913
1443.288277,-7476.080014,-2681.334243,-148.041188
1443.288589,-7105.977043,-1608.800546,-666.185348
1443.288900,-8068.244768,995.924147,-148.041188
1443.289212,-9770.718434,2374.896044,1628.453072
1443.289523,-10584.944971,1915.238745,2220.617826
1443.289835,-9622.677246,1455.581446,2146.597232
1443.290146,-7624.121203,1378.971896,666.185348
1443.290458,-6439.791695,383.047749,370.102971
1443.290770,-6143.709319,919.314598,962.267725
1443.291081,-7846.182985,919.314598,592.164754
1443.291393,-9622.677246,383.047749,1628.453072
1443.291704,-11769.274478,0.000000,3108.864956
1443.292016,-11843.295072,459.657299,3997.112087
1443.292327,-9770.718434,689.485948,3627.009116
1443.292639,-7476.080014,-1455.581446,1776.494261
1443.292950,-4663.297435,-2451.505594,962.267725
1443.293262,-4293.194464,-1762.019645,-0.000000
1443.293573,-6143.709319,76.609550,962.267725
1443.293885,-9400.615463,1072.533697,1702.473667
1443.294196,-11399.171507,536.266849,2516.700203
1443.294508,-12139.377449,459.657299,2664.741391
1443.294819,-8882.471304,612.876398,2294.638420
1443.295131,-6661.853478,-229.828649,-296.082377
1443.295442,-5181.441594,-153.219100,-1480.411884
1443.295754,-4811.338623,-1072.533697,-1184.329507
1443.296065,-8068.244768,-1225.752797,-1036.288319
1443.296377,-11325.150913,0.000000,740.205942
1443.296688,-13989.892304,766.095498,2220.617826
1443.297000,-14359.995275,1378.971896,2664.741391
1443.297311,-11843.295072,1225.752797,1998.556043
1443.297623,-8290.306550,612.876398,370.102971
1443.297934,-6069.688724,229.828649,370.102971
1443.298246,-5551.544565,-689.485948,148.041188
1443.298557,-6069.688724,-1072.533697,-888.247130
1443.298869,-5773.606348,-766.095498,-1850.514855
1443.299180,-6291.750507,1225.752797,-592.164754
1443.299492,-9400.615463,1378.971896,-148.041188
1443.299803,-12139.377449,229.828649,-148.041188
1443.300115,-13989.892304,-536.266849,592.164754
1443.300426,-14434.015869,-1072.533697,1258.350101
1443.300738,-12139.377449,-1838.629195,1480.411884
1443.301049,-9696.697840,-1378.971896,-148.041188
1443.301361,-7402.059420,-459.657299,-1406.391290
1443.301672,-7105.977043,306.438199,-2294.638420
1443.301984,-7920.203579,766.095498,-740.205942
1443.302295,-8734.430116,1608.800546,-0.000000
1443.302607,-10214.842000,153.219100,1924.535449
1443.302918,-11399.171507,-2145.067394,1776.494261
1443.303230,-9918.759623,-1838.629195,592.164754
1443.303541,-7846.182985,995.924147,-518.144159
1443.303853,-5921.647536,2221.676944,-1554.432478
1443.304164,-5625.565159,612.876398,-2220.617826
1443.304476,-5403.503377,153.219100,-1702.473667
1443.304787,-6513.812290,1225.752797,-1036.288319
1443.305099,-8364.327145,919.314598,-740.205942
1443.305410,-9770.718434,689.485948,518.144159
1443.305722,-10288.862594,76.609550,370.102971
1443.306033,-10732.986159,306.438199,296.082377
1443.306345,-10732.986159,689.485948,962.267725
1443.306656,-10955.047942,1378.971896,1406.391290
1443.306968,-9400.615463,1838.629195,1110.308913
1443.307279,-7328.038826,229.828649,-592.164754
1443.307591,-6069.688724,-1455.581446,-518.144159
1443.307902,-5107.421000,-2145.067394,-888.247130
1443.308214,-6809.894666,-689.485948,-74.020594
1443.308525,-9474.636058,383.047749,1332.370696
1443.308837,-11843.295072,766.095498,2960.823768
1443.309148,-13101.645173,-459.657299,4441.235652
1443.309460,-12213.398043,0.000000,4441.235652
1443.309772,-9622.677246,-689.485948,2664.741391
1443.310083,-5699.585753,-1302.362347,-0.000000
1443.310395,-4219.173869,-1915.238745,-962.267725
1443.310706,-4663.297435,-1455.581446,-518.144159
1443.311018,-8438.347739,-919.314598,1110.308913
1443.311329,-12805.562797,-842.705048,3182.885551
1443.311641,-15544.324782,-1302.362347,5699.585753
1443.311952,-14804.118840,-1072.533697,6661.853478
1443.312264,-11473.192101,-1838.629195,4885.359217
1443.312575,-6735.874072,-1532.190996,2960.823768
1443.312887,-3182.885551,-1915.238745,296.082377
1443.313198,-1924.535449,-459.657299,-1332.370696
1443.313510,-4219.173869,1838.629195,-518.144159
1443.313821,-7920.203579,2911.162892,444.123565
1443.314133,-11843.295072,2528.115143,2664.741391
1443.314444,-13693.809927,1838.629195,3701.029710
1443.314756,-11251.130318,2681.334243,3182.885551
1443.315067,-8512.368333,1149.143247,1184.329507
1443.315379,-6883.915261,1455.581446,592.164754
1443.315690,-6735.874072,842.705048,148.041188
1443.316002,-6217.729913,0.000000,-740.205942
1443.316313,-6069.688724,842.705048,-1110.308913
1443.316625,-6883.915261,1838.629195,-1924.535449
1443.316936,-7105.977043,2451.505594,-74.020594
1443.317248,-9696.697840,995.924147,814.226536
1443.317559,-11399.171507,-2145.067394,1036.288319
1443.317871,-11917.315666,-3524.039291,1184.329507
1443.318182,-11251.130318,-1762.019645,1776.494261
1443.318494,-8068.244768,153.219100,296.082377
1443.318805,-7179.997637,689.485948,-2072.576638
1443.319117,-8216.285956,306.438199,-1776.494261
1443.319428,-8364.327145,-459.657299,-1554.432478
1443.319740,-8364.327145,612.876398,-1110.308913
1443.320051,-9252.574275,842.705048,222.061783
1443.320363,-11251.130318,-1072.533697,296.082377
1443.320674,-11991.336260,-2604.724693,370.102971
1443.320986,-11473.192101,-2068.457845,-370.102971
1443.321297,-10066.800811,306.438199,-74.020594
1443.321609,-8882.471304,1455.581446,-1332.370696
1443.321920,-8512.368333,383.047749,-1258.350101
1443.322232,-7698.141797,-1225.752797,-1702.473667
1443.322543,-7920.203579,-3294.210641,-1258.350101
1443.322855,-8364.327145,-2604.724693,-0.000000
1443.323166,-9622.677246,0.000000,814.226536
1443.323478,-12139.377449,842.705048,888.247130
1443.323789,-13693.809927,153.219100,1554.432478
1443.324101,-14063.912898,229.828649,1998.556043
1443.324412,-11325.150913,1608.800546,1480.411884
1443.324724,-8068.244768,1608.800546,-1184.329507
1443.325035,-5625.565159,766.095498,-2664.741391
1443.325347,-3997.112087,76.609550,-2516.700203
1443.325658,-5329.482782,0.000000,-1258.350101
1443.325970,-7994.224174,-306.438199,740.205942
1443.326281,-11843.295072,-306.438199,3404.947333
1443.326593,-13175.665768,0.000000,4219.173869
1443.326904,-10807.006753,0.000000,3404.947333
1443.327216,-7698.141797,-1149.143247,1480.411884
1443.327527,-4885.359217,-1302.362347,-592.164754
1443.327839,-3552.988522,-229.828649,-1924.535449
1443.328150,-4589.276840,1455.581446,-1702.473667
1443.328462,-6809.894666,2834.553343,-518.144159
1443.328774,-10214.842000,2757.943793,888.247130
1443.329085,-12805.562797,1378.971896,2368.659014
1443.329397,-11917.315666,1149.143247,3034.844362
1443.329708,-8290.306550,229.828649,1480.411884
1443.330020,-6217.729913,-229.828649,592.164754
1443.330331,-6661.853478,-1072.533697,-666.185348
1443.330643,-7772.162391,-1302.362347,-370.102971
1443.330954,-9030.512492,-766.095498,148.041188
1443.331266,-10140.821405,153.219100,1628.453072
1443.331577,-10881.027347,153.219100,2886.803174
1443.331889,-9844.739029,-995.924147,2072.576638
1443.332200,-8734.430116,-2451.505594,1554.432478
1443.332512,-7698.141797,-1915.238745,1850.514855
1443.332823,-8586.388927,-612.876398,1406.391290
1443.333135,-9474.636058,0.000000,1480.411884
1443.333446,-8734.430116,-229.828649,-370.102971
1443.333758,-8216.285956,306.438199,-1998.556043
1443.334069,-7994.224174,2451.505594,-148.041188
1443.334381,-10288.862594,2221.676944,814.226536
1443.334692,-12509.480420,-612.876398,1110.308913
1443.335004,-13101.645173,-2528.115143,1702.473667
1443.335315,-12139.377449,-3064.381992,1776.494261
1443.335627,-8734.430116,-1685.410096,1406.391290
1443.335938,-7846.182985,-383.047749,-740.205942
1443.336250,-7920.203579,-612.876398,-1702.473667
1443.336561,-7550.100608,-536.266849,-0.000000
1443.336873,-7179.997637,-766.095498,666.185348
1443.337184,-8290.306550,-1685.410096,1036.288319
1443.337496,-9474.636058,-1072.533697,1924.535449
1443.337807,-8734.430116,-1455.581446,1332.370696
1443.338119,-8216.285956,0.000000,370.102971
1443.338430,-7402.059420,1378.971896,-814.226536
1443.338742,-6957.935855,2757.943793,-1850.514855
1443.339053,-7105.977043,3140.991542,-1924.535449
1443.339365,-6809.894666,2374.896044,-2072.576638
1443.339676,-6957.935855,1838.629195,-2664.741391
1443.339988,-8290.306550,612.876398,-2220.617826
1443.340299,-9326.594869,919.314598,-1036.288319
1443.340611,-9844.739029,1302.362347,-666.185348
1443.340922,-10881.027347,1149.143247,370.102971
1443.341234,-12509.480420,306.438199,1406.391290
1443.341545,-12213.398043,-229.828649,1406.391290
1443.341857,-9474.636058,-842.705048,592.164754
1443.342168,-7105.977043,-1915.238745,-296.082377
1443.342480,-4737.318029,-2298.286494,-1110.308913
1443.342791,-5477.523971,-2374.896044,-2442.679609
1443.343103,-7772.162391,-842.705048,-592.164754
1443.343414,-9992.780217,459.657299,1332.370696
1443.343726,-13397.727550,153.219100,2812.782580
1443.344037,-13471.748144,-383.047749,3034.844362
1443.344349,-12065.356855,-383.047749,1480.411884
1443.344660,-8586.388927,-842.705048,370.102971
1443.344972,-5921.647536,-1225.752797,-1776.494261
1443.345283,-5625.565159,-766.095498,-2220.617826
1443.345595,-8216.285956,0.000000,-1258.350101
1443.345906,-10658.965565,306.438199,740.205942
1443.346218,-12805.562797,153.219100,2368.659014
1443.346529,-13841.851115,0.000000,3701.029710
1443.346841,-11325.150913,-2068.457845,3627.009116
1443.347152,-7920.203579,-2451.505594,1998.556043
1443.347464,-4737.318029,-1225.752797,-0.000000
1443.347776,-3182.885551,153.219100,-888.247130
1443.348087,-5107.421000,689.485948,-962.267725
1443.348399,-7994.224174,766.095498,740.205942
1443.348710,-10584.944971,1762.019645,2442.679609
1443.349022,-11325.150913,1685.410096,3034.844362
1443.349333,-10732.986159,1532.190996,3404.947333
1443.349645,-9030.512492,306.438199,2072.576638
1443.349956,-6957.935855,-1532.190996,666.185348
1443.350268,-4515.256246,-1838.629195,-1258.350101
1443.350579,-3404.947333,76.609550,-2664.741391
1443.350891,-5847.626942,3370.820191,-1924.535449
1443.351202,-11473.192101,2681.334243,1332.370696
1443.351514,-14582.057057,306.438199,3182.885551
1443.351825,-14656.077652,-1532.190996,3478.967927
1443.352137,-10584.944971,-2221.676944,3478.967927
1443.352448,-5773.606348,-2145.067394,1776.494261
1443.352760,-3478.967927,-2068.457845,-1036.288319
1443.353071,-4071.132681,-1225.752797,-3330.926739
1443.353383,-6365.771101,919.314598,-1924.535449
1443.353694,-9252.574275,689.485948,-814.226536
1443.354006,-11843.295072,1532.190996,592.164754
1443.354317,-13989.892304,919.314598,1110.308913
1443.354629,-12139.377449,-536.266849,666.185348
1443.354940,-9400.615463,-995.924147,-74.020594
1443.355252,-7031.956449,459.657299,-888.247130
1443.355563,-7550.100608,1455.581446,-1628.453072
1443.355875,-10288.862594,383.047749,-1258.350101
1443.356181,-11769.274478,-306.438199,-0.000000
1443.356493,-11325.150913,0.000000,148.041188
1443.356804,-9548.656652,-766.095498,-592.164754
1443.357116,-7402.059420,-1072.533697,-666.185348
1443.357427,-6069.688724,-2374.896044,-1850.514855
1443.357739,-6957.935855,-2145.067394,-1480.411884
1443.358050,-9474.636058,-1149.143247,-74.020594
1443.358361,-12435.459826,383.047749,1480.411884
1443.358673,-13693.809927,1685.410096,2442.679609
1443.358984,-12361.439231,842.705048,1628.453072
1443.359296,-9400.615463,459.657299,-74.020594
1443.359607,-6809.894666,459.657299,-1184.329507
1443.359919,-5773.606348,536.266849,-2072.576638
1443.360230,-5921.647536,612.876398,-222.061783
1443.360542,-8512.368333,-383.047749,740.205942
1443.360853,-11621.233289,-1149.143247,2368.659014
1443.361164,-12879.583391,-766.095498,3923.091493
1443.361476,-11325.150913,-1378.971896,3923.091493
1443.361787,-7328.038826,-1991.848295,2664.741391
1443.362099,-4071.132681,-1915.238745,1110.308913
1443.362410,-2886.803174,-1838.629195,-222.061783
1443.362722,-4589.276840,-766.095498,444.123565
1443.363033,-6661.853478,459.657299,1332.370696
1443.363345,-9030.512492,1378.971896,2738.761985
1443.363656,-12583.501014,842.705048,2516.700203
1443.363967,-12139.377449,1608.800546,3108.864956
1443.364279,-9474.636058,1532.190996,1998.556043
1443.364590,-7328.038826,995.924147,962.267725
1443.364902,-6587.832884,0.000000,-0.000000
1443.365213,-8068.244768,0.000000,-1036.288319
1443.365525,-8808.450710,2451.505594,296.082377
1443.365836,-9400.615463,2911.162892,888.247130
1443.366148,-10214.842000,1532.190996,1850.514855
1443.366459,-9992.780217,-919.314598,2146.597232
1443.366770,-7550.100608,-1991.848295,1554.432478
1443.367082,-5773.606348,-1991.848295,666.185348
1443.367393,-6661.853478,-1302.362347,370.102971
1443.367705,-9474.636058,536.266849,962.267725
1443.368016,-12287.418637,1149.143247,962.267725
1443.368328,-12805.562797,536.266849,2368.659014
1443.368639,-10510.924376,-689.485948,1036.288319
1443.368951,-7105.977043,-842.705048,-370.102971
1443.369262,-4737.318029,-229.828649,-1628.453072
1443.369573,-5921.647536,-612.876398,-1480.411884
1443.369885,-8734.430116,-1685.410096,-592.164754
1443.370196,-12213.398043,-995.924147,888.247130
1443.370508,-15026.180623,0.000000,1554.432478
1443.370819,-14063.912898,229.828649,2590.720797
1443.371131,-11843.295072,76.609550,1850.514855
1443.371442,-8660.409521,0.000000,-222.061783
1443.371754,-4811.338623,-1149.143247,-1850.514855
1443.372065,-2442.679609,-2757.943793,-1998.556043
1443.372376,-4219.173869,-2604.724693,-518.144159
1443.372688,-8660.409521,-612.876398,666.185348
1443.372999,-12213.398043,0.000000,592.164754
1443.373311,-13619.789333,1915.238745,1258.350101
1443.373622,-12287.418637,2451.505594,1480.411884
1443.373934,-8734.430116,2221.676944,444.123565
1443.374245,-5847.626942,76.609550,-1924.535449
1443.374557,-4959.379811,-459.657299,-3034.844362
1443.374868,-4811.338623,842.705048,-2368.659014
1443.375179,-8290.306550,1532.190996,-666.185348
1443.375491,-10807.006753,842.705048,2516.700203
1443.375802,-13841.851115,-153.219100,2590.720797
1443.376114,-13323.706956,-919.314598,2146.597232
1443.376425,-9770.718434,-76.609550,1628.453072
1443.376737,-6069.688724,689.485948,296.082377
1443.377048,-5033.400406,-229.828649,-888.247130
1443.377360,-6735.874072,-1225.752797,-1110.308913
1443.377671,-7254.018232,-689.485948,-148.041188
1443.377982,-9104.533087,1455.581446,222.061783
1443.378294,-9918.759623,2298.286494,1702.473667
1443.378605,-9696.697840,2298.286494,1628.453072
1443.378917,-8364.327145,459.657299,1332.370696
1443.379228,-7105.977043,-459.657299,518.144159
1443.379540,-7105.977043,-306.438199,222.061783
1443.379851,-8808.450710,0.000000,296.082377
1443.380163,-11325.150913,153.219100,370.102971
1443.380474,-12139.377449,-229.828649,1184.329507
1443.380785,-11769.274478,-383.047749,2220.617826
1443.381097,-10214.842000,-612.876398,2072.576638
1443.381408,-7105.977043,-1072.533697,1036.288319
1443.381720,-4515.256246,-2451.505594,-518.144159
1443.382031,-4367.215058,-2068.457845,-666.185348
1443.382343,-7550.100608,-1378.971896,-0.000000
1443.382654,-11621.233289,689.485948,666.185348
1443.382966,-13693.809927,1991.848295,1924.535449
1443.383277,-14359.995275,1149.143247,2368.659014
1443.383588,-11843.295072,1532.190996,2146.597232
1443.383900,-8290.306550,76.609550,-0.000000
1443.384211,-4811.338623,-153.219100,-1554.432478
1443.384523,-4811.338623,-383.047749,-1850.514855
1443.384834,-8142.265362,536.266849,444.123565
1443.385146,-12879.583391,842.705048,2590.720797
1443.385457,-14878.139434,-306.438199,3997.112087
1443.385769,-12879.583391,-1225.752797,3923.091493
1443.386080,-8734.430116,-689.485948,2812.782580
1443.386391,-4219.173869,-612.876398,1776.494261
1443.386703,-2812.782580,-1532.190996,148.041188
1443.387014,-3627.009116,-3140.991542,-370.102971
1443.387326,-7254.018232,-2834.553343,666.185348
1443.387637,-10066.800811,-1838.629195,2072.576638
1443.387949,-10584.944971,153.219100,3034.844362
1443.388260,-11695.253884,1378.971896,2072.576638
1443.388572,-10066.800811,1608.800546,1628.453072
1443.388883,-7476.080014,1149.143247,518.144159
1443.389194,-6217.729913,536.266849,-370.102971
1443.389506,-5847.626942,1225.752797,-444.123565
1443.389817,-6809.894666,612.876398,-740.205942
1443.390129,-7550.100608,2298.286494,-592.164754
1443.390440,-9400.615463,2757.943793,-592.164754
1443.390752,-10214.842000,2681.334243,740.205942
1443.391063,-9548.656652,1225.752797,1110.308913
1443.391375,-9622.677246,0.000000,296.082377
1443.391686,-8660.409521,-1378.971896,-0.000000
1443.391997,-7476.080014,-1838.629195,-1110.308913
1443.392309,-6883.915261,-1532.190996,-1036.288319
1443.392620,-7550.100608,-383.047749,-2220.617826
1443.392932,-8956.491898,842.705048,-1702.473667
1443.393243,-10288.862594,766.095498,-370.102971
1443.393555,-10955.047942,612.876398,296.082377
1443.393866,-10140.821405,0.000000,-0.000000
1443.394178,-9844.739029,-153.219100,-592.164754
1443.394489,-10066.800811,-1225.752797,-740.205942
1443.394800,-10362.883188,-459.657299,-814.226536
1443.395112,-10881.027347,153.219100,-0.000000
1443.395423,-12139.377449,229.828649,-0.000000
1443.395735,-12731.542202,-153.219100,1406.391290
1443.396046,-10214.842000,-1149.143247,2072.576638
1443.396358,-7920.203579,-2221.676944,1036.288319
1443.396669,-5995.668130,-2834.553343,370.102971
1443.396981,-5551.544565,-2451.505594,-592.164754
1443.397292,-7105.977043,-1838.629195,-0.000000
1443.397603,-8882.471304,-306.438199,814.226536
1443.397915,-10658.965565,689.485948,1776.494261
1443.398226,-11621.233289,689.485948,1628.453072
1443.398538,-10436.903782,306.438199,1850.514855
1443.398849,-8068.244768,-689.485948,444.123565
1443.399161,-6735.874072,-383.047749,-1258.350101
1443.399472,-6809.894666,306.438199,-518.144159
1443.399784,-9474.636058,383.047749,666.185348
1443.400095,-11695.253884,-153.219100,1924.535449
1443.400406,-12361.439231,536.266849,2590.720797
1443.400718,-11769.274478,1915.238745,2664.741391
1443.401029,-8808.450710,2068.457845,1702.473667
1443.401341,-5403.503377,1225.752797,370.102971
1443.401652,-4071.132681,-153.219100,-370.102971
1443.401964,-3478.967927,-842.705048,-518.144159
1443.402275,-5107.421000,-766.095498,-222.061783
1443.402587,-6587.832884,842.705048,296.082377
1443.402898,-8586.388927,2298.286494,1406.391290
1443.403209,-11103.089130,1608.800546,2590.720797
1443.403521,-11325.150913,-306.438199,2664.741391
1443.403832,-10584.944971,-1302.362347,962.267725
1443.404144,-7624.121203,-689.485948,-148.041188
1443.404455,-6217.729913,229.828649,-1110.308913
1443.404767,-6883.915261,842.705048,-740.205942
1443.405078,-8734.430116,0.000000,-518.144159
1443.405389,-11177.109724,-689.485948,518.144159
1443.405701,-10807.006753,-919.314598,2442.679609
1443.406012,-9622.677246,-995.924147,1628.453072
1443.406324,-7994.224174,-2145.067394,-74.020594
1443.406635,-7105.977043,-2145.067394,-1184.329507
1443.406947,-9918.759623,-2221.676944,-1776.494261
1443.407258,-10436.903782,-842.705048,-1110.308913
1443.407570,-11473.192101,995.924147,-740.205942
1443.407881,-13619.789333,1302.362347,148.041188
1443.408192,-12879.583391,766.095498,1480.411884
1443.408504,-10066.800811,0.000000,-370.102971
1443.408815,-7772.162391,0.000000,-1554.432478
1443.409127,-6883.915261,383.047749,-1036.288319
1443.409438,-7698.141797,0.000000,-2294.638420
1443.409750,-9992.780217,919.314598,-1036.288319
1443.410061,-11399.171507,1149.143247,592.164754
1443.410373,-12213.398043,-306.438199,1776.494261
1443.410684,-10881.027347,-1225.752797,2664.741391
1443.410995,-8438.347739,-2145.067394,1184.329507
1443.411307,-4959.379811,-2987.772442,-0.000000
1443.411618,-4737.318029,-2604.724693,-444.123565
1443.411930,-6957.935855,-1225.752797,444.123565
1443.412241,-9844.739029,-306.438199,1110.308913
1443.412553,-11473.192101,459.657299,1998.556043
1443.412864,-11325.150913,1685.410096,2442.679609
1443.413176,-9326.594869,2451.505594,1998.556043
1443.413487,-6069.688724,1532.190996,518.144159
1443.413798,-4145.153275,153.219100,-1036.288319
1443.414110,-3478.967927,229.828649,-814.226536
1443.414421,-5033.400406,383.047749,-592.164754
1443.414733,-8882.471304,766.095498,888.247130
1443.415044,-11843.295072,612.876398,2368.659014
1443.415356,-13471.748144,459.657299,3108.864956
1443.415667,-11621.233289,536.266849,3478.967927
1443.415979,-7994.224174,0.000000,2516.700203
1443.416290,-5921.647536,-1762.019645,592.164754
1443.416601,-4885.359217,-1762.019645,-666.185348
1443.416913,-5107.421000,-1149.143247,-1184.329507
1443.417224,-7402.059420,229.828649,-962.267725
1443.417536,-9178.553681,1302.362347,666.185348
1443.417847,-11917.315666,1302.362347,962.267725
1443.418159,-12583.501014,1378.971896,1702.473667
1443.418470,-10881.027347,1532.190996,1850.514855
1443.418782,-10214.842000,0.000000,592.164754
1443.419093,-9178.553681,-229.828649,740.205942
1443.419404,-8290.306550,-689.485948,148.041188
1443.419716,-6809.894666,-1838.629195,-962.267725
1443.420027,-6439.791695,-842.705048,-962.267725
1443.420339,-7846.182985,1149.143247,296.082377
1443.420650,-10066.800811,1455.581446,2146.597232
1443.420962,-11399.171507,-306.438199,2738.761985
1443.421273,-12509.480420,-3907.087040,2738.761985
1443.421585,-10807.006753,-2604.724693,2368.659014
1443.421896,-8216.285956,-1302.362347,1110.308913
1443.422207,-7031.956449,-459.657299,-444.123565
1443.422519,-6217.729913,-459.657299,-1628.453072
1443.422830,-7698.141797,-766.095498,-1554.432478
1443.423142,-8438.347739,-153.219100,-222.061783
1443.423453,-8586.388927,-536.266849,-222.061783
1443.423765,-10510.924376,-1225.752797,-222.061783
1443.424076,-12139.377449,-536.266849,296.082377
1443.424388,-13175.665768,-229.828649,296.082377
1443.424699,-11843.295072,0.000000,148.041188
1443.425010,-10732.986159,1762.019645,592.164754
1443.425322,-9918.759623,2068.457845,370.102971
1443.425633,-6365.771101,1532.190996,370.102971
1443.425945,-4441.235652,-459.657299,-1110.308913
1443.426256,-4737.318029,-995.924147,-1036.288319
1443.426568,-5329.482782,612.876398,-444.123565
1443.426879,-7179.997637,383.047749,-814.226536
1443.427191,-9474.636058,1455.581446,370.102971
1443.427502,-11769.274478,1225.752797,592.164754
1443.427813,-11843.295072,1378.971896,518.144159
1443.428125,-9622.677246,2681.334243,222.061783
1443.428436,-6439.791695,1915.238745,-1184.329507
1443.428748,-4737.318029,-306.438199,-2664.741391
1443.429059,-5107.421000,-995.924147,-1850.514855
1443.429371,-7179.997637,-995.924147,222.061783
1443.429682,-10881.027347,-1608.800546,1184.329507
1443.429994,-14063.912898,-1762.019645,3108.864956
1443.430305,-14804.118840,-612.876398,4589.276840
1443.430616,-12287.418637,-1072.533697,3701.029710
1443.430928,-9474.636058,-2987.772442,1332.370696
1443.431239,-6143.709319,-2834.553343,592.164754
1443.431551,-3701.029710,-3064.381992,-1480.411884
1443.431862,-3849.070898,-689.485948,-1554.432478
1443.432174,-6143.709319,459.657299,-0.000000
1443.432485,-9104.533087,995.924147,1776.494261
1443.432797,-11843.295072,612.876398,3034.844362
1443.433108,-12731.542202,995.924147,2886.803174
1443.433419,-12065.356855,612.876398,2590.720797
1443.433731,-9474.636058,766.095498,1480.411884
1443.434042,-6957.935855,-689.485948,-888.247130
1443.434354,-6883.915261,-536.266849,-1332.370696
1443.434665,-7476.080014,-229.828649,-74.020594
1443.434977,-9474.636058,0.000000,1406.391290
1443.435288,-11917.315666,459.657299,2220.617826
1443.435600,-11547.212695,153.219100,4071.132681
1443.435911,-11621.233289,-459.657299,3034.844362
1443.436222,-8142.265362,-459.657299,2886.803174
1443.436534,-7031.956449,0.000000,2294.638420
