#time,accel_x,accel_y,accel_z
1226.500121,-8586.388927,153.219100,518.144159
1226.500432,-8808.450710,-153.219100,296.082377
1226.500744,-9030.512492,-306.438199,518.144159
1226.501055,-8956.491898,-153.219100,740.205942
1226.501367,-9104.533087,-76.609550,592.164754
1226.501679,-9030.512492,0.000000,444.123565
1226.501990,-8956.491898,459.657299,740.205942
1226.502302,-8808.450710,-612.876398,592.164754
1226.502613,-8586.388927,-229.828649,740.205942
1226.502925,-9030.512492,-229.828649,444.123565
1226.503236,-8956.491898,0.000000,814.226536
1226.503548,-8734.430116,-153.219100,740.205942
1226.503859,-8808.450710,0.000000,666.185348
1226.504171,-8734.430116,0.000000,370.102971
1226.504482,-9104.533087,306.438199,296.082377
1226.504794,-9326.594869,0.000000,-74.020594
1226.505106,-8808.450710,229.828649,370.102971
1226.505417,-8808.450710,153.219100,592.164754
1226.505729,-8808.450710,0.000000,592.164754
1226.506040,-8734.430116,0.000000,518.144159
1226.506352,-9030.512492,-383.047749,666.185348
1226.506663,-8882.471304,306.438199,370.102971
1226.506975,-8808.450710,0.000000,370.102971
1226.507286,-8660.409521,-229.828649,592.164754
1226.507598,-8660.409521,-383.047749,370.102971
1226.507910,-9104.533087,0.000000,444.123565
1226.508221,-9104.533087,0.000000,518.144159
1226.508533,-9030.512492,-76.609550,592.164754
1226.508844,-9104.533087,-76.609550,518.144159
1226.509156,-9104.533087,-306.438199,592.164754
1226.509467,-8438.347739,0.000000,592.164754
1226.509779,-9252.574275,0.000000,-0.000000
1226.510090,-8734.430116,0.000000,814.226536
1226.510402,-9030.512492,0.000000,592.164754
1226.510714,-9030.512492,-229.828649,370.102971
1226.511025,-8808.450710,0.000000,592.164754
1226.511337,-8956.491898,153.219100,370.102971
1226.511648,-8586.388927,153.219100,592.164754
1226.511960,-8660.409521,-306.438199,592.164754
1226.512271,-8808.450710,-153.219100,962.267725
1226.512583,-8660.409521,0.000000,592.164754
1226.512894,-8956.491898,153.219100,518.144159
1226.513206,-8956.491898,76.609550,592.164754
1226.513517,-8734.430116,0.000000,666.185348
1226.513829,-9030.512492,459.657299,296.082377
1226.514141,-8956.491898,-229.828649,518.144159
1226.514452,-8734.430116,229.828649,444.123565
1226.514764,-9030.512492,0.000000,296.082377
1226.515075,-9030.512492,0.000000,444.123565
1226.515387,-8882.471304,-229.828649,592.164754
1226.515698,-8956.491898,-153.219100,518.144159
1226.516010,-8956.491898,0.000000,592.164754
1226.516321,-8808.450710,0.000000,222.061783
1226.516633,-8660.409521,-229.828649,666.185348
1226.516945,-9104.533087,306.438199,-0.000000
1226.517256,-8734.430116,0.000000,814.226536
1226.517568,-8882.471304,0.000000,518.144159
1226.517879,-9178.553681,0.000000,370.102971
1226.518191,-9030.512492,0.000000,666.185348
1226.518502,-9104.533087,0.000000,740.205942
1226.518814,-9030.512492,-76.609550,370.102971
1226.519125,-9030.512492,612.876398,518.144159
1226.519437,-8808.450710,0.000000,592.164754
1226.519748,-8734.430116,-76.609550,370.102971
1226.520060,-8808.450710,0.000000,518.144159
1226.520372,-8956.491898,0.000000,592.164754
1226.520683,-8956.491898,-153.219100,518.144159
1226.520995,-8586.388927,-306.438199,740.205942
1226.521306,-9252.574275,-229.828649,666.185348
1226.521618,-9178.553681,-153.219100,296.082377
1226.521929,-8438.347739,-229.828649,444.123565
1226.522241,-8808.450710,-306.438199,814.226536
1226.522552,-8808.450710,-229.828649,592.164754
1226.522864,-8882.471304,-383.047749,444.123565
1226.523176,-9104.533087,-229.828649,518.144159
1226.523487,-8956.491898,0.000000,666.185348
1226.523799,-9030.512492,536.266849,370.102971
1226.524110,-9104.533087,-612.876398,666.185348
1226.524422,-8660.409521,0.000000,666.185348
1226.524733,-9030.512492,-153.219100,296.082377
1226.525045,-8956.491898,0.000000,370.102971
1226.525356,-8956.491898,-153.219100,370.102971
1226.525668,-8956.491898,0.000000,518.144159
1226.525979,-9104.533087,229.828649,444.123565
1226.526291,-9326.594869,459.657299,296.082377
1226.526603,-8808.450710,229.828649,592.164754
1226.526914,-8882.471304,383.047749,-0.000000
1226.527226,-8882.471304,0.000000,444.123565
1226.527537,-8882.471304,0.000000,518.144159
1226.527849,-8956.491898,-153.219100,518.144159
1226.528160,-8956.491898,0.000000,740.205942
1226.528472,-8734.430116,0.000000,666.185348
1226.528783,-8808.450710,0.000000,296.082377
1226.529095,-8882.471304,459.657299,296.082377
1226.529407,-8882.471304,0.000000,444.123565
1226.529718,-8882.471304,76.609550,444.123565
1226.530030,-8956.491898,0.000000,518.144159
1226.530341,-9104.533087,0.000000,370.102971
1226.530653,-9030.512492,76.609550,370.102971
1226.530964,-8734.430116,229.828649,296.082377
1226.531276,-8956.491898,-229.828649,444.123565
1226.531587,-8660.409521,0.000000,296.082377
1226.531899,-8734.430116,0.000000,518.144159
1226.532211,-8882.471304,-153.219100,444.123565
1226.532522,-9030.512492,76.609550,518.144159
1226.532834,-8808.450710,0.000000,444.123565
1226.533145,-8512.368333,153.219100,370.102971
1226.533457,-9030.512492,76.609550,148.041188
1226.533768,-8882.471304,536.266849,370.102971
1226.534080,-8734.430116,0.000000,370.102971
1226.534391,-8882.471304,0.000000,592.164754
1226.534703,-8882.471304,-153.219100,518.144159
1226.535014,-9030.512492,0.000000,592.164754
1226.535326,-8882.471304,-229.828649,592.164754
1226.535638,-8660.409521,-459.657299,518.144159
1226.535949,-8734.430116,153.219100,148.041188
1226.536261,-8956.491898,306.438199,148.041188
1226.536572,-8808.450710,-383.047749,370.102971
1226.536884,-8882.471304,0.000000,592.164754
1226.537195,-8956.491898,0.000000,666.185348
1226.537507,-9030.512492,0.000000,740.205942
1226.537818,-8882.471304,0.000000,592.164754
1226.538130,-9030.512492,0.000000,148.041188
1226.538442,-8882.471304,229.828649,666.185348
1226.538753,-8882.471304,229.828649,444.123565
1226.539065,-9178.553681,-306.438199,518.144159
1226.539376,-9030.512492,0.000000,444.123565
1226.539688,-8882.471304,0.000000,592.164754
1226.539999,-8808.450710,76.609550,666.185348
1226.540311,-8956.491898,-842.705048,370.102971
1226.540622,-8808.450710,0.000000,444.123565
1226.540934,-8808.450710,-766.095498,444.123565
1226.541245,-8438.347739,0.000000,518.144159
1226.541557,-8956.491898,0.000000,296.082377
1226.541869,-9030.512492,0.000000,518.144159
1226.542180,-9104.533087,76.609550,444.123565
1226.542492,-8956.491898,-153.219100,592.164754
1226.542803,-8734.430116,-229.828649,592.164754
1226.543115,-8882.471304,153.219100,222.061783
1226.543426,-8364.327145,229.828649,370.102971
1226.543738,-8808.450710,0.000000,-0.000000
1226.544049,-9104.533087,0.000000,296.082377
1226.544361,-8808.450710,0.000000,444.123565
1226.544673,-9030.512492,0.000000,666.185348
1226.544984,-9030.512492,0.000000,444.123565
1226.545296,-8956.491898,459.657299,370.102971
1226.545607,-8882.471304,-229.828649,592.164754
1226.545919,-8734.430116,0.000000,518.144159
1226.546230,-8586.388927,383.047749,222.061783
1226.546542,-9030.512492,0.000000,518.144159
1226.546853,-8956.491898,-153.219100,444.123565
1226.547165,-8956.491898,0.000000,592.164754
1226.547477,-8956.491898,-153.219100,592.164754
1226.547788,-8808.450710,153.219100,370.102971
1226.548100,-8808.450710,-153.219100,518.144159
1226.548411,-9030.512492,0.000000,148.041188
1226.548723,-9030.512492,153.219100,444.123565
1226.549034,-9474.636058,0.000000,518.144159
1226.549346,-11843.295072,995.924147,222.061783
1226.549657,-10955.047942,3140.991542,444.123565
1226.549969,-8290.306550,4826.401637,888.247130
1226.550280,-7550.100608,3140.991542,888.247130
1226.550592,-6069.688724,919.314598,1628.453072
1226.550904,-7105.977043,-919.314598,-518.144159
1226.551215,-7105.977043,-536.266849,-0.000000
1226.551527,-8216.285956,-229.828649,-518.144159
1226.551838,-12657.521608,-1149.143247,-1258.350101
1226.552150,-12139.377449,229.828649,-0.000000
1226.552461,-9918.759623,919.314598,740.205942
1226.552773,-8660.409521,0.000000,1998.556043
1226.553084,-9622.677246,-306.438199,2516.700203
1226.553396,-11843.295072,995.924147,1184.329507
1226.553708,-6809.894666,5056.230287,2590.720797
1226.554019,-5181.441594,4749.792088,1924.535449
1226.554331,-8068.244768,2911.162892,444.123565
1226.554642,-7550.100608,2681.334243,-814.226536
1226.554954,-7254.018232,2987.772442,-2146.597232
1226.555265,-8808.450710,3830.477490,-962.267725
1226.555577,-9030.512492,3600.648841,-444.123565
1226.555888,-13767.830521,1378.971896,-1184.329507
1226.556200,-12657.521608,-1608.800546,1850.514855
1226.556511,-8290.306550,-1302.362347,2368.659014
1226.556823,-10066.800811,1532.190996,1406.391290
1226.557135,-7550.100608,6435.202183,2812.782580
1226.557446,-8438.347739,5209.449386,814.226536
1226.557758,-7179.997637,2987.772442,2442.679609
1226.558069,-5921.647536,5515.887586,1776.494261
1226.558381,-8142.265362,7048.078582,-666.185348
1226.558692,-8290.306550,6665.030833,-1110.308913
1226.559004,-10658.965565,4749.792088,-740.205942
1226.559315,-9548.656652,4519.963438,-1406.391290
1226.559627,-10807.006753,5822.325785,-592.164754
1226.559939,-11991.336260,4749.792088,444.123565
1226.560250,-10732.986159,3983.696590,1850.514855
1226.560562,-10584.944971,4136.915689,1776.494261
1226.560873,-8438.347739,4903.011187,2516.700203
1226.561185,-6809.894666,4903.011187,1258.350101
1226.561496,-5921.647536,5592.497135,518.144159
1226.561808,-4959.379811,5132.839837,296.082377
1226.562119,-4811.338623,5592.497135,-740.205942
1226.562431,-6587.832884,3907.087040,-1258.350101
1226.562743,-9030.512492,4060.306139,-740.205942
1226.563054,-10214.842000,1762.019645,-74.020594
1226.563366,-10955.047942,76.609550,814.226536
1226.563677,-10214.842000,-306.438199,1554.432478
1226.563989,-10807.006753,-1685.410096,1628.453072
1226.564300,-10214.842000,-766.095498,2220.617826
1226.564612,-8364.327145,153.219100,2516.700203
1226.564923,-7105.977043,2145.067394,1110.308913
1226.565235,-6735.874072,1532.190996,592.164754
1226.565546,-7550.100608,1991.848295,-370.102971
1226.565858,-7105.977043,2374.896044,-666.185348
1226.566170,-6439.791695,2298.286494,-1110.308913
1226.566481,-7328.038826,76.609550,-1110.308913
1226.566793,-9104.533087,-2221.676944,-666.185348
1226.567104,-10140.821405,-2528.115143,444.123565
1226.567416,-11547.212695,-3140.991542,888.247130
1226.567727,-12287.418637,-3140.991542,1332.370696
1226.568039,-12731.542202,-3064.381992,1628.453072
1226.568350,-12509.480420,-1455.581446,962.267725
1226.568662,-10362.883188,0.000000,-444.123565
1226.568974,-8586.388927,766.095498,-518.144159
1226.569285,-7624.121203,1072.533697,-444.123565
1226.569597,-7550.100608,1302.362347,-444.123565
1226.569908,-8734.430116,689.485948,-222.061783
1226.570220,-8882.471304,-153.219100,-0.000000
1226.570531,-9770.718434,-1378.971896,888.247130
1226.570843,-10510.924376,-2068.457845,1036.288319
1226.571154,-10732.986159,-3140.991542,1258.350101
1226.571466,-11547.212695,-4213.525239,740.205942
1226.571777,-11843.295072,-3600.648841,740.205942
1226.572089,-11325.150913,-1225.752797,666.185348
1226.572401,-11325.150913,459.657299,-814.226536
1226.572712,-9326.594869,1838.629195,-370.102971
1226.573024,-8512.368333,2911.162892,-592.164754
1226.573335,-7105.977043,4213.525239,-888.247130
1226.573647,-5699.585753,4596.572988,-444.123565
1226.573958,-4663.297435,3830.477490,740.205942
1226.574270,-5107.421000,2374.896044,1776.494261
1226.574581,-5847.626942,229.828649,1998.556043
1226.574893,-8068.244768,-612.876398,1554.432478
1226.575205,-9770.718434,-1225.752797,666.185348
1226.575516,-9548.656652,-383.047749,222.061783
1226.575828,-10362.883188,536.266849,-370.102971
1226.576139,-9992.780217,0.000000,-740.205942
1226.576451,-9104.533087,0.000000,-518.144159
1226.576762,-7920.203579,536.266849,-0.000000
1226.577074,-7846.182985,1532.190996,1036.288319
1226.577385,-6883.915261,1762.019645,1110.308913
1226.577697,-5625.565159,1915.238745,1184.329507
1226.578008,-6069.688724,1685.410096,2072.576638
1226.578320,-5921.647536,383.047749,2442.679609
1226.578632,-7476.080014,-689.485948,1924.535449
1226.578943,-8660.409521,-766.095498,1554.432478
1226.579255,-9844.739029,-842.705048,814.226536
1226.579566,-11695.253884,-1608.800546,444.123565
1226.579878,-11769.274478,-612.876398,-0.000000
1226.580189,-11473.192101,-1455.581446,296.082377
1226.580501,-10510.924376,-1915.238745,-370.102971
1226.580812,-9992.780217,-919.314598,-148.041188
1226.581124,-9252.574275,536.266849,-444.123565
1226.581436,-8512.368333,383.047749,-0.000000
1226.581747,-7698.141797,153.219100,518.144159
1226.582059,-7179.997637,0.000000,2220.617826
1226.582370,-7476.080014,383.047749,1924.535449
1226.582682,-7624.121203,0.000000,2146.597232
1226.582993,-8216.285956,-995.924147,2072.576638
1226.583305,-8438.347739,-1608.800546,962.267725
1226.583616,-9548.656652,-1991.848295,-0.000000
1226.583928,-10436.903782,-842.705048,-1258.350101
1226.584240,-10214.842000,229.828649,-1924.535449
1226.584551,-10881.027347,-306.438199,-2590.720797
1226.584863,-11621.233289,-459.657299,-1702.473667
1226.585174,-11991.336260,-995.924147,-666.185348
1226.585486,-11103.089130,-459.657299,370.102971
1226.585797,-9918.759623,0.000000,1258.350101
1226.586109,-9474.636058,383.047749,1406.391290
1226.586420,-8586.388927,1149.143247,1036.288319
1226.586732,-6883.915261,1532.190996,1110.308913
1226.587043,-5921.647536,2068.457845,1776.494261
1226.587355,-7105.977043,689.485948,1036.288319
1226.587667,-8586.388927,1302.362347,148.041188
1226.587978,-9548.656652,689.485948,-444.123565
1226.588290,-9622.677246,612.876398,-1258.350101
1226.588601,-9622.677246,229.828649,-1702.473667
1226.588913,-9918.759623,-306.438199,-1332.370696
1226.589224,-9474.636058,-995.924147,-1332.370696
1226.589536,-8882.471304,-459.657299,-74.020594
1226.589847,-8068.244768,-153.219100,1628.453072
1226.590159,-8364.327145,-153.219100,2442.679609
1226.590471,-8142.265362,383.047749,3330.926739
1226.590782,-7105.977043,842.705048,3478.967927
1226.591094,-5847.626942,1302.362347,2590.720797
1226.591405,-5255.462188,1762.019645,1332.370696
1226.591716,-6735.874072,1762.019645,-740.205942
1226.592028,-7476.080014,2145.067394,-1258.350101
1226.592339,-7846.182985,1762.019645,-1554.432478
1226.592651,-8956.491898,1149.143247,-1406.391290
1226.592962,-9326.594869,-229.828649,-814.226536
1226.593274,-9548.656652,-1685.410096,-0.000000
1226.593585,-9992.780217,-1915.238745,888.247130
1226.593897,-10436.903782,-1838.629195,1628.453072
1226.594208,-10510.924376,-842.705048,2220.617826
1226.594519,-10140.821405,-995.924147,2516.700203
1226.594831,-10658.965565,0.000000,2220.617826
1226.595142,-9548.656652,0.000000,2442.679609
1226.595454,-8882.471304,229.828649,1258.350101
1226.595765,-8956.491898,76.609550,740.205942
1226.596077,-9326.594869,0.000000,-0.000000
1226.596388,-9178.553681,0.000000,-222.061783
1226.596700,-9400.615463,-306.438199,-518.144159
1226.597011,-9104.533087,-1455.581446,-370.102971
1226.597322,-9992.780217,-2451.505594,-0.000000
1226.597634,-10510.924376,-2834.553343,962.267725
1226.597945,-10510.924376,-2221.676944,1258.350101
1226.598257,-10214.842000,-1915.238745,1628.453072
1226.598568,-9474.636058,-1378.971896,2146.597232
1226.598880,-9252.574275,-612.876398,1702.473667
1226.599191,-7550.100608,842.705048,1332.370696
1226.599503,-6439.791695,919.314598,666.185348
1226.599814,-6291.750507,1225.752797,-0.000000
1226.600125,-6365.771101,1762.019645,-296.082377
1226.600437,-6661.853478,1455.581446,-370.102971
1226.600748,-7254.018232,153.219100,-518.144159
1226.601060,-8438.347739,-1225.752797,-592.164754
1226.601371,-8808.450710,-766.095498,-222.061783
1226.601683,-9178.553681,-1302.362347,-296.082377
1226.601994,-9696.697840,-1455.581446,-0.000000
1226.602306,-10732.986159,-1838.629195,740.205942
1226.602617,-11103.089130,-1225.752797,962.267725
1226.602929,-10658.965565,0.000000,962.267725
1226.603240,-9770.718434,689.485948,814.226536
1226.603551,-8956.491898,1378.971896,740.205942
1226.603863,-7698.141797,1838.629195,666.185348
1226.604174,-7402.059420,2298.286494,518.144159
1226.604486,-7624.121203,1532.190996,666.185348
1226.604797,-8364.327145,1149.143247,518.144159
1226.605109,-8808.450710,2068.457845,-370.102971
1226.605420,-8956.491898,1532.190996,-814.226536
1226.605732,-9474.636058,1072.533697,-740.205942
1226.606043,-10436.903782,689.485948,-370.102971
1226.606354,-10658.965565,0.000000,-74.020594
1226.606666,-9696.697840,-306.438199,518.144159
1226.606977,-9326.594869,-766.095498,1036.288319
1226.607289,-8956.491898,-842.705048,1184.329507
1226.607600,-8290.306550,-612.876398,1110.308913
1226.607912,-7772.162391,-459.657299,1258.350101
1226.608223,-8068.244768,0.000000,1850.514855
1226.608535,-7698.141797,229.828649,1702.473667
1226.608846,-8068.244768,-459.657299,1258.350101
1226.609157,-8068.244768,383.047749,888.247130
1226.609469,-7476.080014,0.000000,666.185348
1226.609780,-7994.224174,0.000000,-74.020594
1226.610092,-8290.306550,153.219100,-370.102971
1226.610403,-8512.368333,-689.485948,-296.082377
1226.610715,-9548.656652,-1302.362347,-148.041188
1226.611026,-9844.739029,-1225.752797,444.123565
1226.611338,-9992.780217,-1608.800546,1036.288319
1226.611649,-9992.780217,-1685.410096,1406.391290
1226.611960,-9474.636058,-1225.752797,2146.597232
1226.612272,-9474.636058,-766.095498,1850.514855
1226.612583,-8808.450710,0.000000,2220.617826
1226.612895,-8068.244768,153.219100,1850.514855
1226.613206,-7402.059420,459.657299,1480.411884
1226.613518,-8216.285956,306.438199,888.247130
1226.613829,-8364.327145,306.438199,148.041188
1226.614141,-8290.306550,536.266849,-592.164754
1226.614452,-8512.368333,229.828649,-666.185348
1226.614763,-9548.656652,-766.095498,-592.164754
1226.615075,-10584.944971,-1915.238745,-148.041188
1226.615386,-10732.986159,-2145.067394,-0.000000
1226.615698,-10288.862594,-1838.629195,518.144159
1226.616009,-10140.821405,-995.924147,1110.308913
1226.616321,-9400.615463,-1072.533697,1776.494261
1226.616632,-9104.533087,-612.876398,1258.350101
1226.616944,-7846.182985,0.000000,1628.453072
1226.617255,-6809.894666,689.485948,1480.411884
1226.617567,-6587.832884,919.314598,814.226536
1226.617878,-6587.832884,612.876398,-296.082377
1226.618189,-6587.832884,383.047749,-1184.329507
1226.618501,-7698.141797,-229.828649,-2072.576638
1226.618812,-8586.388927,1149.143247,-1998.556043
1226.619124,-9770.718434,229.828649,-2146.597232
1226.619435,-10955.047942,-612.876398,-888.247130
1226.619747,-11399.171507,-1532.190996,296.082377
1226.620058,-11399.171507,-1302.362347,888.247130
1226.620370,-10955.047942,-459.657299,1036.288319
1226.620681,-10066.800811,459.657299,1628.453072
1226.620992,-8660.409521,919.314598,1406.391290
1226.621304,-8364.327145,1225.752797,666.185348
1226.621615,-7402.059420,1378.971896,814.226536
1226.621927,-7476.080014,1685.410096,444.123565
1226.622238,-8142.265362,995.924147,-148.041188
1226.622550,-8142.265362,995.924147,-592.164754
1226.622861,-8808.450710,153.219100,-1036.288319
1226.623173,-9252.574275,-459.657299,-888.247130
1226.623484,-9992.780217,-919.314598,-518.144159
1226.623795,-10658.965565,-1378.971896,296.082377
1226.624107,-11251.130318,-1838.629195,888.247130
1226.624418,-11029.068536,-1991.848295,1776.494261
1226.624730,-9770.718434,-1302.362347,2442.679609
1226.625041,-9104.533087,-842.705048,2294.638420
1226.625353,-8068.244768,229.828649,2368.659014
1226.625664,-7550.100608,536.266849,1554.432478
1226.625976,-5995.668130,1225.752797,1850.514855
1226.626287,-6291.750507,1685.410096,444.123565
1226.626598,-6735.874072,1302.362347,-0.000000
1226.626910,-7328.038826,689.485948,-518.144159
1226.627221,-8364.327145,383.047749,-296.082377
1226.627533,-9030.512492,919.314598,-592.164754
1226.627844,-9474.636058,-383.047749,-444.123565
1226.628156,-9992.780217,-229.828649,222.061783
1226.628467,-10584.944971,-459.657299,444.123565
1226.628779,-10510.924376,-766.095498,1036.288319
1226.629090,-10140.821405,-536.266849,1332.370696
1226.629401,-9400.615463,229.828649,1184.329507
1226.629713,-8734.430116,229.828649,1406.391290
1226.630024,-7105.977043,153.219100,1628.453072
1226.630336,-7550.100608,842.705048,1332.370696
1226.630647,-7846.182985,1072.533697,1036.288319
1226.630959,-8586.388927,229.828649,814.226536
1226.631270,-8956.491898,0.000000,444.123565
1226.631582,-9178.553681,-76.609550,-518.144159
1226.631893,-9252.574275,0.000000,-518.144159
1226.632204,-10140.821405,-1072.533697,-296.082377
1226.632516,-10436.903782,-1378.971896,148.041188
1226.632827,-10584.944971,-1302.362347,296.082377
1226.633139,-9474.636058,-766.095498,1184.329507
1226.633450,-9030.512492,-612.876398,1332.370696
1226.633762,-8734.430116,-766.095498,1110.308913
1226.634073,-7550.100608,-689.485948,1554.432478
1226.634385,-6735.874072,0.000000,962.267725
1226.634696,-6365.771101,383.047749,1184.329507
1226.635008,-6587.832884,612.876398,444.123565
1226.635319,-7254.018232,536.266849,-592.164754
1226.635630,-8290.306550,76.609550,-888.247130
1226.635942,-8364.327145,0.000000,-1036.288319
1226.636253,-9326.594869,536.266849,-1406.391290
1226.636565,-10288.862594,153.219100,-1184.329507
1226.636876,-11029.068536,-919.314598,-518.144159
1226.637188,-11399.171507,-1378.971896,-0.000000
1226.637499,-11103.089130,0.000000,370.102971
1226.637811,-10214.842000,0.000000,814.226536
1226.638122,-9030.512492,536.266849,888.247130
1226.638433,-9030.512492,76.609550,1480.411884
1226.638745,-8734.430116,536.266849,1776.494261
1226.639056,-7994.224174,1378.971896,1776.494261
1226.639368,-8956.491898,919.314598,1184.329507
1226.639679,-9178.553681,1378.971896,518.144159
1226.639991,-8808.450710,995.924147,-222.061783
1226.640302,-9030.512492,0.000000,-1258.350101
1226.640614,-8956.491898,383.047749,-1554.432478
1226.640925,-10066.800811,383.047749,-1184.329507
1226.641236,-10658.965565,-459.657299,-0.000000
1226.641548,-10510.924376,-1378.971896,1110.308913
1226.641859,-10140.821405,-1378.971896,1850.514855
1226.642171,-9770.718434,-1149.143247,2072.576638
1226.642482,-9178.553681,-459.657299,1628.453072
1226.642794,-7105.977043,383.047749,2146.597232
1226.643105,-6661.853478,1225.752797,1776.494261
1226.643417,-5477.523971,1608.800546,1776.494261
1226.643728,-5995.668130,1225.752797,1036.288319
1226.644039,-6661.853478,1149.143247,222.061783
1226.644351,-7179.997637,1455.581446,-222.061783
1226.644662,-7846.182985,1302.362347,-1406.391290
1226.644974,-8586.388927,229.828649,-1258.350101
1226.645285,-9252.574275,536.266849,-518.144159
1226.645597,-9696.697840,-383.047749,-0.000000
1226.645908,-10066.800811,-1378.971896,1332.370696
1226.646220,-10362.883188,-1149.143247,1702.473667
1226.646531,-10066.800811,-536.266849,1924.535449
1226.646842,-9400.615463,0.000000,2146.597232
1226.647154,-8068.244768,76.609550,1924.535449
1226.647465,-7550.100608,459.657299,1776.494261
1226.647777,-7328.038826,1072.533697,1480.411884
1226.648088,-7994.224174,1149.143247,814.226536
1226.648400,-8808.450710,689.485948,296.082377
1226.648711,-9030.512492,0.000000,-74.020594
1226.649023,-9030.512492,0.000000,-814.226536
1226.649334,-9252.574275,153.219100,-1258.350101
1226.649646,-10658.965565,-1302.362347,-1036.288319
1226.649957,-10955.047942,-1915.238745,-74.020594
1226.650268,-11399.171507,-1915.238745,444.123565
1226.650580,-10658.965565,-2145.067394,1628.453072
1226.650891,-9918.759623,-1838.629195,2072.576638
1226.651203,-9474.636058,-1378.971896,1702.473667
1226.651514,-8216.285956,-536.266849,1332.370696
1226.651826,-6513.812290,919.314598,962.267725
1226.652137,-5921.647536,1072.533697,-0.000000
1226.652449,-5921.647536,1225.752797,-740.205942
1226.652760,-6217.729913,1149.143247,-740.205942
1226.653071,-7994.224174,306.438199,-1036.288319
1226.653383,-9252.574275,0.000000,-666.185348
1226.653694,-9696.697840,612.876398,-1036.288319
1226.654006,-10955.047942,-229.828649,-814.226536
1226.654317,-11621.233289,-1685.410096,-0.000000
1226.654629,-11843.295072,-1991.848295,444.123565
1226.654940,-11473.192101,-1762.019645,296.082377
1226.655252,-10658.965565,-1225.752797,1332.370696
1226.655563,-10066.800811,-689.485948,1554.432478
1226.655874,-8882.471304,-229.828649,1628.453072
1226.656186,-7772.162391,689.485948,1332.370696
1226.656497,-7105.977043,1072.533697,1406.391290
1226.656809,-7105.977043,842.705048,962.267725
1226.657120,-7105.977043,153.219100,-0.000000
1226.657432,-7994.224174,612.876398,-148.041188
1226.657743,-8808.450710,76.609550,-962.267725
1226.658055,-9844.739029,76.609550,-888.247130
1226.658366,-10955.047942,153.219100,-518.144159
1226.658677,-11103.089130,-689.485948,-74.020594
1226.658989,-10288.862594,-1685.410096,592.164754
1226.659300,-9252.574275,-1225.752797,666.185348
1226.659612,-8808.450710,-536.266849,1406.391290
1226.659923,-8216.285956,-689.485948,1554.432478
1226.660235,-8216.285956,0.000000,2368.659014
1226.660546,-7254.018232,459.657299,2220.617826
1226.660858,-5921.647536,1455.581446,2220.617826
1226.661169,-6513.812290,1149.143247,1036.288319
1226.661480,-6809.894666,1149.143247,-74.020594
1226.661792,-6291.750507,1532.190996,-444.123565
1226.662103,-7328.038826,1302.362347,-1110.308913
1226.662415,-8142.265362,1455.581446,-740.205942
1226.662726,-9474.636058,919.314598,-666.185348
1226.663038,-10658.965565,153.219100,-0.000000
1226.663349,-10732.986159,-689.485948,962.267725
1226.663661,-10436.903782,-536.266849,1332.370696
1226.663972,-9918.759623,-153.219100,1406.391290
1226.664284,-9400.615463,229.828649,1258.350101
1226.664595,-8882.471304,76.609550,1332.370696
1226.664906,-7772.162391,306.438199,1480.411884
1226.665218,-7624.121203,459.657299,1628.453072
1226.665529,-7846.182985,76.609550,1258.350101
1226.665841,-8364.327145,0.000000,592.164754
1226.666152,-8734.430116,76.609550,-0.000000
1226.666464,-8956.491898,-459.657299,-148.041188
1226.666775,-8956.491898,-1532.190996,-296.082377
1226.667087,-10140.821405,-1762.019645,-148.041188
1226.667398,-11029.068536,-2145.067394,-0.000000
1226.667709,-11177.109724,-2221.676944,518.144159
1226.668021,-10881.027347,-2451.505594,1184.329507
1226.668332,-9992.780217,-1915.238745,1850.514855
1226.668644,-9178.553681,-1608.800546,1702.473667
1226.668955,-8438.347739,-612.876398,1628.453072
1226.669267,-7476.080014,-306.438199,1332.370696
1226.669578,-6809.894666,612.876398,814.226536
1226.669890,-6735.874072,459.657299,-0.000000
1226.670201,-6439.791695,459.657299,-444.123565
1226.670512,-7254.018232,153.219100,-962.267725
1226.670824,-8216.285956,-76.609550,-1184.329507
1226.671135,-8956.491898,383.047749,-1924.535449
1226.671447,-10066.800811,229.828649,-1332.370696
1226.671758,-10658.965565,-229.828649,-444.123565
1226.672070,-11769.274478,-1302.362347,222.061783
1226.672381,-11621.233289,-1149.143247,1036.288319
1226.672693,-10955.047942,-383.047749,1628.453072
1226.673004,-9844.739029,0.000000,1628.453072
1226.673315,-8438.347739,689.485948,1258.350101
1226.673627,-8438.347739,1225.752797,888.247130
1226.673938,-7772.162391,2987.772442,444.123565
1226.674250,-7772.162391,1608.800546,592.164754
1226.674561,-7994.224174,995.924147,370.102971
1226.674873,-7994.224174,919.314598,-0.000000
1226.675184,-8142.265362,-153.219100,-592.164754
1226.675496,-9326.594869,-689.485948,-740.205942
1226.675807,-10214.842000,-995.924147,-444.123565
1226.676118,-10436.903782,-842.705048,-0.000000
1226.676430,-10066.800811,-995.924147,1406.391290
1226.676741,-9696.697840,-1532.190996,1924.535449
1226.677053,-9400.615463,-995.924147,2146.597232
1226.677364,-8882.471304,-536.266849,2590.720797
1226.677676,-7698.141797,383.047749,2812.782580
1226.677987,-6291.750507,1072.533697,2146.597232
1226.678299,-5477.523971,1915.238745,1406.391290
1226.678610,-5329.482782,2374.896044,296.082377
1226.678921,-5995.668130,1378.971896,-296.082377
1226.679233,-7105.977043,1608.800546,-962.267725
1226.679544,-8142.265362,1532.190996,-740.205942
1226.679856,-8956.491898,842.705048,-666.185348
1226.680167,-10436.903782,-612.876398,-296.082377
1226.680479,-11029.068536,-1072.533697,-0.000000
1226.680790,-10658.965565,-919.314598,814.226536
1226.681102,-10658.965565,-842.705048,962.267725
1226.681413,-10362.883188,-842.705048,740.205942
1226.681725,-9474.636058,-689.485948,1036.288319
1226.682036,-8364.327145,-306.438199,1850.514855
1226.682347,-7698.141797,-383.047749,2072.576638
1226.682659,-7994.224174,-306.438199,1850.514855
1226.682970,-8660.409521,-153.219100,962.267725
1226.683282,-9030.512492,689.485948,222.061783
1226.683593,-9326.594869,689.485948,-296.082377
1226.683905,-8956.491898,0.000000,-444.123565
1226.684216,-9622.677246,-766.095498,-666.185348
1226.684528,-10362.883188,-1302.362347,-444.123565
1226.684839,-11103.089130,-1991.848295,-74.020594
1226.685150,-10955.047942,-1378.971896,370.102971
1226.685462,-10288.862594,-995.924147,1036.288319
1226.685773,-9548.656652,-1455.581446,1406.391290
1226.686085,-8586.388927,-383.047749,1258.350101
1226.686396,-7624.121203,-689.485948,1406.391290
1226.686708,-6957.935855,459.657299,1480.411884
1226.687019,-6661.853478,612.876398,888.247130
1226.687331,-6883.915261,229.828649,370.102971
1226.687642,-6661.853478,0.000000,-0.000000
1226.687953,-7476.080014,-229.828649,-518.144159
1226.688265,-8068.244768,383.047749,-962.267725
1226.688576,-9474.636058,689.485948,-1702.473667
1226.688888,-9918.759623,919.314598,-1258.350101
1226.689199,-10955.047942,76.609550,-740.205942
1226.689511,-11843.295072,-306.438199,296.082377
1226.689822,-11325.150913,-153.219100,592.164754
1226.690134,-10288.862594,153.219100,888.247130
1226.690445,-9104.533087,0.000000,1184.329507
1226.690756,-8290.306550,229.828649,1554.432478
1226.691068,-7624.121203,766.095498,1332.370696
1226.691379,-8142.265362,1302.362347,1110.308913
1226.691691,-8438.347739,459.657299,1480.411884
1226.692002,-8068.244768,536.266849,666.185348
1226.692313,-8142.265362,612.876398,-148.041188
1226.692625,-8660.409521,-153.219100,-814.226536
1226.692936,-8512.368333,-842.705048,-592.164754
1226.693247,-9548.656652,-842.705048,-592.164754
1226.693559,-10510.924376,-536.266849,222.061783
1226.693870,-10436.903782,-1915.238745,1406.391290
1226.694182,-10288.862594,-1302.362347,1628.453072
1226.694493,-9770.718434,-689.485948,2294.638420
1226.694804,-8808.450710,-689.485948,1998.556043
1226.695116,-7920.203579,0.000000,2368.659014
1226.695427,-6365.771101,459.657299,1998.556043
1226.695738,-5773.606348,1378.971896,1332.370696
1226.696050,-5921.647536,1455.581446,444.123565
1226.696361,-6217.729913,1225.752797,-222.061783
1226.696673,-7402.059420,536.266849,-296.082377
1226.696984,-7994.224174,229.828649,-518.144159
1226.697295,-9178.553681,0.000000,-962.267725
1226.697607,-10436.903782,-459.657299,-814.226536
1226.697918,-10510.924376,-1455.581446,-518.144159
1226.698229,-10881.027347,-1991.848295,222.061783
1226.698541,-10658.965565,-1378.971896,1332.370696
1226.698852,-9918.759623,-536.266849,1554.432478
1226.699164,-9992.780217,-229.828649,1776.494261
1226.699475,-9030.512492,76.609550,2072.576638
1226.699786,-8660.409521,536.266849,2146.597232
1226.700098,-7846.182985,842.705048,1480.411884
1226.700409,-7994.224174,766.095498,296.082377
1226.700721,-8660.409521,995.924147,-444.123565
1226.701032,-8882.471304,1072.533697,-1036.288319
1226.701343,-8734.430116,766.095498,-1258.350101
1226.701655,-9770.718434,-229.828649,-814.226536
1226.701966,-10436.903782,-1302.362347,-74.020594
1226.702277,-10658.965565,-1608.800546,148.041188
1226.702589,-10362.883188,-1838.629195,962.267725
1226.702900,-10066.800811,-1225.752797,1480.411884
1226.703212,-8882.471304,-1608.800546,2368.659014
1226.703523,-8734.430116,-689.485948,1480.411884
1226.703834,-8142.265362,153.219100,1850.514855
1226.704146,-7328.038826,689.485948,1406.391290
1226.704457,-6365.771101,919.314598,1110.308913
1226.704768,-6217.729913,536.266849,444.123565
1226.705080,-6809.894666,0.000000,-444.123565
1226.705391,-7624.121203,0.000000,-1258.350101
1226.705703,-8586.388927,842.705048,-1480.411884
1226.706014,-9178.553681,1225.752797,-1332.370696
1226.706325,-10584.944971,76.609550,-592.164754
1226.706637,-10955.047942,-766.095498,148.041188
1226.706948,-11029.068536,0.000000,962.267725
1226.707259,-10510.924376,76.609550,1406.391290
1226.707571,-9178.553681,459.657299,1406.391290
1226.707882,-8660.409521,689.485948,1480.411884
1226.708194,-7772.162391,383.047749,1184.329507
1226.708505,-6661.853478,306.438199,1184.329507
1226.708816,-6809.894666,1378.971896,814.226536
1226.709128,-7920.203579,1378.971896,-0.000000
1226.709439,-8808.450710,919.314598,-0.000000
1226.709750,-9400.615463,76.609550,-148.041188
1226.710062,-9844.739029,-766.095498,-518.144159
1226.710373,-10140.821405,-383.047749,-592.164754
1226.710685,-10881.027347,-1225.752797,-444.123565
1226.710996,-10732.986159,-1532.190996,-74.020594
1226.711307,-10362.883188,-1225.752797,814.226536
1226.711619,-10140.821405,-1225.752797,1554.432478
1226.711930,-9474.636058,-1072.533697,2368.659014
1226.712241,-9474.636058,-306.438199,2442.679609
1226.712553,-7179.997637,0.000000,2738.761985
1226.712864,-6365.771101,-306.438199,1332.370696
1226.713176,-6291.750507,689.485948,962.267725
1226.713487,-6809.894666,76.609550,-222.061783
1226.713798,-7105.977043,536.266849,-888.247130
1226.714110,-8512.368333,612.876398,-1332.370696
1226.714421,-9252.574275,536.266849,-1110.308913
1226.714733,-9992.780217,153.219100,-1184.329507
1226.715044,-10658.965565,-995.924147,-814.226536
1226.715355,-10288.862594,-1072.533697,-0.000000
1226.715667,-9696.697840,-842.705048,-74.020594
1226.715978,-9992.780217,-383.047749,666.185348
1226.716289,-9400.615463,0.000000,1110.308913
1226.716601,-8956.491898,76.609550,1406.391290
1226.716912,-8364.327145,229.828649,2072.576638
1226.717224,-7994.224174,306.438199,2368.659014
1226.717535,-7846.182985,0.000000,1702.473667
1226.717846,-8068.244768,0.000000,740.205942
1226.718158,-8734.430116,766.095498,-0.000000
1226.718469,-8956.491898,689.485948,-592.164754
1226.718780,-9548.656652,459.657299,-1184.329507
1226.719092,-10140.821405,0.000000,-962.267725
1226.719403,-11103.089130,-612.876398,-444.123565
1226.719715,-11177.109724,-689.485948,370.102971
1226.720026,-10214.842000,-1225.752797,1184.329507
1226.720337,-9030.512492,-919.314598,1332.370696
1226.720649,-8364.327145,-689.485948,1480.411884
1226.720960,-7402.059420,-306.438199,1776.494261
1226.721271,-6957.935855,383.047749,2072.576638
1226.721583,-6809.894666,919.314598,1776.494261
1226.721894,-6809.894666,919.314598,1332.370696
1226.722206,-7105.977043,612.876398,148.041188
1226.722517,-7402.059420,1072.533697,-518.144159
1226.722828,-7920.203579,842.705048,-1036.288319
1226.723140,-8290.306550,919.314598,-1406.391290
1226.723451,-9400.615463,919.314598,-1406.391290
1226.723762,-10658.965565,0.000000,-222.061783
1226.724074,-11399.171507,-612.876398,814.226536
1226.724385,-11325.150913,-459.657299,1776.494261
1226.724697,-10658.965565,0.000000,1998.556043
1226.725008,-9474.636058,76.609550,2220.617826
1226.725319,-8586.388927,306.438199,1850.514855
1226.725631,-7846.182985,306.438199,2072.576638
1226.725942,-7031.956449,842.705048,1702.473667
1226.726254,-7105.977043,689.485948,1258.350101
1226.726565,-8216.285956,612.876398,-0.000000
1226.726876,-8068.244768,1455.581446,-444.123565
1226.727188,-8216.285956,153.219100,-1110.308913
1226.727499,-8808.450710,-153.219100,-1036.288319
1226.727810,-9474.636058,-1378.971896,-1332.370696
1226.728122,-10807.006753,-1455.581446,-592.164754
1226.728433,-10955.047942,-1762.019645,296.082377
1226.728745,-10881.027347,-1762.019645,1480.411884
1226.729056,-10214.842000,-1378.971896,2072.576638
1226.729367,-9474.636058,-1225.752797,1776.494261
1226.729679,-8290.306550,-995.924147,2442.679609
1226.729990,-7105.977043,-383.047749,2294.638420
1226.730301,-6069.688724,919.314598,1332.370696
1226.730613,-5995.668130,842.705048,1036.288319
1226.730924,-6735.874072,306.438199,-148.041188
1226.731236,-7105.977043,612.876398,-666.185348
1226.731547,-8142.265362,612.876398,-1184.329507
1226.731858,-8734.430116,995.924147,-1258.350101
1226.732170,-10436.903782,-306.438199,-1406.391290
1226.732481,-11029.068536,-536.266849,-444.123565
1226.732792,-11103.089130,-919.314598,814.226536
1226.733104,-11103.089130,-1149.143247,1110.308913
1226.733415,-10436.903782,-689.485948,1184.329507
1226.733727,-9844.739029,0.000000,1406.391290
1226.734038,-8882.471304,153.219100,1258.350101
1226.734349,-7698.141797,153.219100,1480.411884
1226.734661,-6883.915261,766.095498,1480.411884
1226.734972,-7550.100608,612.876398,962.267725
1226.735283,-8290.306550,383.047749,666.185348
1226.735595,-9474.636058,536.266849,-370.102971
1226.735906,-9696.697840,995.924147,-814.226536
1226.736218,-9844.739029,612.876398,-1036.288319
1226.736529,-10584.944971,-229.828649,-1110.308913
1226.736840,-10732.986159,-1685.410096,-444.123565
1226.737152,-9992.780217,-995.924147,222.061783
1226.737463,-10288.862594,-1225.752797,666.185348
1226.737774,-9326.594869,-995.924147,2072.576638
1226.738086,-8586.388927,-842.705048,2220.617826
1226.738397,-7476.080014,-689.485948,2368.659014
1226.738709,-6661.853478,-612.876398,1998.556043
1226.739020,-5921.647536,536.266849,1406.391290
1226.739331,-5625.565159,1225.752797,518.144159
1226.739643,-6143.709319,306.438199,-74.020594
1226.739954,-6957.935855,-536.266849,-666.185348
1226.740266,-8290.306550,-612.876398,-814.226536
1226.740577,-9400.615463,76.609550,-444.123565
1226.740888,-10510.924376,76.609550,-666.185348
1226.741200,-11251.130318,-842.705048,222.061783
1226.741511,-11103.089130,-1608.800546,518.144159
1226.741822,-11325.150913,-1455.581446,1184.329507
1226.742134,-9918.759623,-689.485948,1258.350101
1226.742445,-9326.594869,0.000000,1406.391290
1226.742757,-8734.430116,229.828649,1850.514855
1226.743068,-7698.141797,0.000000,1776.494261
1226.743379,-7105.977043,306.438199,1406.391290
1226.743691,-7105.977043,536.266849,962.267725
1226.744002,-7698.141797,1072.533697,74.020594
1226.744313,-8660.409521,76.609550,-592.164754
1226.744625,-9770.718434,383.047749,-666.185348
1226.744936,-10140.821405,-383.047749,-1110.308913
1226.745248,-11029.068536,-612.876398,-740.205942
1226.745559,-11103.089130,-766.095498,-0.000000
1226.745870,-10658.965565,-1378.971896,888.247130
1226.746182,-10288.862594,-2145.067394,1554.432478
1226.746493,-9844.739029,-995.924147,2146.597232
1226.746804,-9252.574275,-536.266849,1924.535449
1226.747116,-7994.224174,76.609550,2368.659014
1226.747427,-6957.935855,383.047749,1998.556043
1226.747739,-6143.709319,1225.752797,1332.370696
1226.748050,-5921.647536,1685.410096,518.144159
1226.748361,-6957.935855,1072.533697,-148.041188
1226.748673,-7179.997637,842.705048,-814.226536
1226.748984,-8068.244768,1378.971896,-1110.308913
1226.749295,-8882.471304,612.876398,-740.205942
1226.749607,-9622.677246,229.828649,-1258.350101
1226.749918,-10658.965565,-383.047749,-666.185348
1226.750230,-10436.903782,-383.047749,-0.000000
1226.750541,-10362.883188,-536.266849,592.164754
1226.750852,-9844.739029,-459.657299,1184.329507
1226.751164,-9104.533087,-306.438199,1480.411884
1226.751475,-8956.491898,0.000000,2368.659014
1226.751787,-7402.059420,76.609550,2072.576638
1226.752098,-7031.956449,306.438199,1628.453072
1226.752409,-7698.141797,306.438199,888.247130
1226.752721,-8438.347739,306.438199,148.041188
1226.753032,-8882.471304,689.485948,-370.102971
1226.753343,-9400.615463,766.095498,-962.267725
1226.753655,-9474.636058,229.828649,-1036.288319
1226.753966,-9992.780217,-229.828649,-1110.308913
1226.754278,-10288.862594,-1225.752797,-370.102971
1226.754589,-9992.780217,-1991.848295,-0.000000
1226.754900,-9474.636058,-1838.629195,1036.288319
1226.755212,-9474.636058,-1378.971896,1702.473667
1226.755523,-9474.636058,-1302.362347,1924.535449
1226.755834,-8660.409521,-1302.362347,2072.576638
1226.756146,-7846.182985,-995.924147,1924.535449
1226.756457,-6587.832884,153.219100,1850.514855
1226.756769,-6883.915261,842.705048,740.205942
1226.757080,-7476.080014,-383.047749,-222.061783
1226.757391,-7550.100608,-153.219100,-666.185348
1226.757703,-8068.244768,-306.438199,-1110.308913
1226.758014,-9030.512492,229.828649,-1332.370696
1226.758325,-10362.883188,153.219100,-1406.391290
1226.758637,-11029.068536,-306.438199,-0.000000
1226.758948,-11917.315666,-1455.581446,296.082377
1226.759260,-11029.068536,-1302.362347,1036.288319
1226.759571,-10436.903782,0.000000,1406.391290
1226.759882,-9548.656652,76.609550,1702.473667
1226.760194,-8660.409521,229.828649,1924.535449
1226.760505,-8068.244768,383.047749,1480.411884
1226.760816,-7550.100608,1072.533697,1036.288319
1226.761128,-7550.100608,1225.752797,518.144159
1226.761439,-7698.141797,1532.190996,-148.041188
1226.761751,-8142.265362,1072.533697,-666.185348
1226.762062,-8734.430116,306.438199,-1406.391290
1226.762373,-9326.594869,0.000000,-1258.350101
1226.762685,-10584.944971,-306.438199,-592.164754
1226.762996,-11399.171507,-766.095498,-0.000000
1226.763308,-11325.150913,-1149.143247,1110.308913
1226.763619,-10510.924376,-766.095498,1850.514855
1226.763930,-9844.739029,-459.657299,1924.535449
1226.764242,-8586.388927,0.000000,1924.535449
1226.764553,-7105.977043,153.219100,2368.659014
1226.764864,-6217.729913,842.705048,1702.473667
1226.765176,-5551.544565,1915.238745,1258.350101
1226.765487,-5921.647536,1685.410096,518.144159
1226.765799,-7031.956449,1302.362347,-370.102971
1226.766110,-7105.977043,1149.143247,-740.205942
1226.766421,-8290.306550,1302.362347,-1480.411884
1226.766733,-8808.450710,1302.362347,-1554.432478
1226.767044,-9918.759623,383.047749,-1036.288319
1226.767355,-10955.047942,-612.876398,-148.041188
1226.767667,-10362.883188,-612.876398,740.205942
1226.767978,-10066.800811,-612.876398,1332.370696
1226.768290,-9992.780217,0.000000,1554.432478
1226.768601,-9178.553681,229.828649,2146.597232
1226.768912,-8364.327145,995.924147,1628.453072
1226.769224,-7476.080014,536.266849,1924.535449
1226.769535,-7550.100608,1149.143247,1332.370696
1226.769846,-8290.306550,842.705048,888.247130
1226.770158,-8882.471304,76.609550,-0.000000
1226.770469,-9178.553681,0.000000,-444.123565
1226.770781,-9400.615463,306.438199,-1258.350101
1226.771092,-9178.553681,-153.219100,-1110.308913
1226.771403,-10732.986159,-1149.143247,-740.205942
1226.771715,-11103.089130,-2451.505594,222.061783
1226.772026,-10955.047942,-2221.676944,666.185348
1226.772337,-10510.924376,-1762.019645,1480.411884
1226.772649,-9474.636058,-1685.410096,1480.411884
1226.772960,-8956.491898,-1302.362347,1480.411884
1226.773272,-7920.203579,-995.924147,1850.514855
1226.773583,-7402.059420,-1762.019645,1258.350101
1226.773894,-6809.894666,0.000000,592.164754
1226.774206,-6883.915261,612.876398,296.082377
1226.774517,-7254.018232,0.000000,-148.041188
1226.774828,-7772.162391,-306.438199,-1036.288319
1226.775140,-8808.450710,-229.828649,-1628.453072
1226.775451,-9326.594869,1149.143247,-1184.329507
1226.775763,-10362.883188,766.095498,-1110.308913
1226.776074,-10658.965565,0.000000,-444.123565
1226.776385,-11251.130318,-1072.533697,296.082377
1226.776697,-10584.944971,-1149.143247,1036.288319
1226.777008,-9696.697840,-153.219100,1258.350101
1226.777320,-9326.594869,76.609550,1480.411884
1226.777631,-7624.121203,153.219100,1628.453072
1226.777942,-7031.956449,689.485948,1184.329507
1226.778254,-6217.729913,689.485948,1554.432478
1226.778565,-7772.162391,459.657299,1036.288319
1226.778876,-8512.368333,919.314598,-0.000000
1226.779188,-9326.594869,1455.581446,-296.082377
1226.779499,-9548.656652,1072.533697,-888.247130
1226.779811,-9918.759623,459.657299,-888.247130
1226.780122,-10584.944971,0.000000,-814.226536
1226.780433,-10510.924376,0.000000,-74.020594
1226.780745,-9918.759623,229.828649,962.267725
1226.781056,-9696.697840,-536.266849,1628.453072
1226.781367,-9104.533087,76.609550,2294.638420
1226.781679,-8142.265362,-306.438199,2368.659014
1226.781990,-7031.956449,0.000000,2368.659014
1226.782302,-6143.709319,995.924147,1998.556043
1226.782613,-5329.482782,2145.067394,1184.329507
1226.782924,-6587.832884,1685.410096,370.102971
1226.783236,-7105.977043,689.485948,-148.041188
1226.783547,-7994.224174,1072.533697,-296.082377
1226.783858,-8808.450710,766.095498,-444.123565
1226.784170,-9474.636058,0.000000,-370.102971
1226.784481,-10066.800811,-229.828649,-666.185348
1226.784793,-10584.944971,-536.266849,-0.000000
1226.785104,-9844.739029,-153.219100,666.185348
1226.785415,-9844.739029,-1072.533697,1332.370696
1226.785727,-9474.636058,-383.047749,1702.473667
1226.786038,-9104.533087,-229.828649,2146.597232
1226.786349,-8290.306550,-306.438199,2294.638420
1226.786661,-7994.224174,383.047749,1850.514855
1226.786972,-7846.182985,612.876398,1776.494261
1226.787284,-7920.203579,612.876398,962.267725
1226.787595,-8808.450710,306.438199,-0.000000
1226.787906,-9548.656652,76.609550,-518.144159
1226.788218,-9030.512492,612.876398,-740.205942
1226.788529,-9844.739029,-612.876398,-1110.308913
1226.788841,-10436.903782,-1608.800546,-518.144159
1226.789152,-10436.903782,-1991.848295,-0.000000
1226.789463,-10288.862594,-1991.848295,518.144159
1226.789775,-10066.800811,-1378.971896,518.144159
1226.790086,-9400.615463,-536.266849,1480.411884
1226.790397,-8956.491898,-612.876398,1406.391290
1226.790709,-8068.244768,-766.095498,2072.576638
1226.791020,-7476.080014,-306.438199,1554.432478
1226.791332,-6809.894666,459.657299,1776.494261
1226.791643,-7328.038826,536.266849,740.205942
1226.791954,-7105.977043,0.000000,-0.000000
1226.792266,-7254.018232,-536.266849,-1258.350101
1226.792577,-8216.285956,-306.438199,-1702.473667
1226.792888,-8512.368333,0.000000,-1628.453072
1226.793200,-10140.821405,0.000000,-1776.494261
1226.793511,-11177.109724,-689.485948,-666.185348
1226.793823,-11473.192101,-536.266849,592.164754
1226.794134,-11029.068536,-229.828649,814.226536
1226.794445,-9918.759623,229.828649,1184.329507
1226.794757,-9252.574275,306.438199,1480.411884
1226.795068,-8216.285956,536.266849,1924.535449
1226.795380,-7328.038826,689.485948,1702.473667
1226.795691,-6957.935855,612.876398,1258.350101
1226.796002,-7402.059420,306.438199,814.226536
1226.796314,-7846.182985,689.485948,-0.000000
1226.796625,-8660.409521,153.219100,-592.164754
1226.796937,-9252.574275,0.000000,-1184.329507
1226.797248,-9844.739029,0.000000,-1110.308913
1226.797560,-10955.047942,-306.438199,-518.144159
1226.797871,-10584.944971,-1225.752797,296.082377
1226.798182,-10658.965565,-1072.533697,1184.329507
1226.798494,-9844.739029,-842.705048,1850.514855
1226.798805,-8882.471304,-383.047749,2220.617826
1226.799117,-7920.203579,-306.438199,2590.720797
1226.799428,-7328.038826,229.828649,2738.761985
1226.799739,-7105.977043,612.876398,1924.535449
1226.800051,-5847.626942,1302.362347,1480.411884
1226.800362,-6291.750507,919.314598,370.102971
1226.800674,-6735.874072,306.438199,-592.164754
1226.800985,-7105.977043,153.219100,-1184.329507
1226.801296,-8808.450710,-229.828649,-1554.432478
1226.801608,-9474.636058,-153.219100,-888.247130
1226.801919,-11251.130318,-383.047749,-370.102971
1226.802231,-11917.315666,-459.657299,-0.000000
1226.802542,-11103.089130,-536.266849,962.267725
1226.802854,-10066.800811,-229.828649,1258.350101
1226.803165,-9178.553681,0.000000,1480.411884
1226.803476,-8512.368333,306.438199,1554.432478
1226.803788,-7772.162391,0.000000,2072.576638
1226.804099,-7402.059420,229.828649,1998.556043
1226.804411,-7994.224174,0.000000,814.226536
1226.804722,-8660.409521,229.828649,370.102971
1226.805033,-9030.512492,-229.828649,-666.185348
1226.805345,-9548.656652,153.219100,-1110.308913
1226.805656,-9770.718434,-229.828649,-1184.329507
1226.805968,-10732.986159,-995.924147,-888.247130
1226.806279,-11325.150913,-1762.019645,-148.041188
1226.806590,-11103.089130,-1608.800546,222.061783
1226.806902,-10362.883188,-995.924147,1036.288319
1226.807213,-9178.553681,229.828649,1480.411884
1226.807525,-8586.388927,0.000000,962.267725
1226.807836,-7846.182985,383.047749,1406.391290
1226.808147,-6587.832884,383.047749,1480.411884
1226.808459,-6439.791695,306.438199,1406.391290
1226.808770,-6735.874072,842.705048,740.205942
1226.809082,-7994.224174,536.266849,-148.041188
1226.809393,-8216.285956,842.705048,-518.144159
1226.809705,-8586.388927,76.609550,-1184.329507
1226.810016,-8438.347739,306.438199,-1184.329507
1226.810327,-9252.574275,383.047749,-1184.329507
1226.810639,-10362.883188,-229.828649,-74.020594
1226.810950,-10584.944971,-1072.533697,592.164754
1226.811262,-10288.862594,-689.485948,1406.391290
1226.811573,-9548.656652,-153.219100,1554.432478
1226.811884,-8956.491898,-229.828649,1776.494261
1226.812196,-7698.141797,0.000000,2294.638420
1226.812507,-7476.080014,153.219100,1628.453072
1226.812819,-7105.977043,919.314598,1776.494261
1226.813130,-8068.244768,689.485948,1036.288319
1226.813441,-9622.677246,766.095498,296.082377
1226.813753,-9770.718434,919.314598,-222.061783
1226.814064,-9696.697840,306.438199,-666.185348
1226.814376,-9104.533087,76.609550,-666.185348
1226.814687,-9992.780217,459.657299,-1036.288319
1226.814999,-10214.842000,0.000000,-0.000000
1226.815310,-9770.718434,-919.314598,740.205942
1226.815621,-9622.677246,-842.705048,1406.391290
1226.815933,-8882.471304,-536.266849,1702.473667
1226.816244,-8586.388927,-383.047749,1554.432478
1226.816556,-7846.182985,-383.047749,1702.473667
1226.816867,-6883.915261,-536.266849,1850.514855
1226.817178,-6587.832884,-612.876398,1184.329507
1226.817490,-7031.956449,153.219100,814.226536
1226.817801,-8290.306550,-459.657299,444.123565
1226.818113,-8364.327145,-383.047749,-0.000000
1226.818424,-8586.388927,-229.828649,-444.123565
1226.818735,-9696.697840,-536.266849,-444.123565
1226.819047,-10066.800811,-689.485948,-592.164754
1226.819358,-10362.883188,-612.876398,-74.020594
1226.819670,-9844.739029,-459.657299,592.164754
1226.819981,-9252.574275,-612.876398,740.205942
1226.820292,-9030.512492,-76.609550,1110.308913
1226.820604,-8586.388927,-229.828649,1184.329507
1226.820915,-7920.203579,153.219100,1406.391290
1226.821227,-7254.018232,766.095498,1110.308913
1226.821538,-8216.285956,995.924147,666.185348
1226.821850,-8808.450710,1455.581446,1036.288319
1226.822161,-8808.450710,766.095498,-0.000000
1226.822472,-8882.471304,229.828649,-74.020594
1226.822784,-8956.491898,76.609550,-740.205942
1226.823095,-9326.594869,-459.657299,-814.226536
1226.823407,-10066.800811,-1302.362347,-740.205942
1226.823718,-10658.965565,-1991.848295,-222.061783
1226.824029,-10140.821405,-1532.190996,-0.000000
1226.824341,-10510.924376,-842.705048,-0.000000
1226.824652,-9918.759623,-1149.143247,1258.350101
1226.824964,-9474.636058,-842.705048,1480.411884
1226.825275,-8808.450710,-383.047749,1776.494261
1226.825586,-7920.203579,-76.609550,1998.556043
1226.825898,-7179.997637,0.000000,1850.514855
1226.826209,-6957.935855,459.657299,592.164754
1226.826521,-6735.874072,842.705048,-0.000000
1226.826832,-7328.038826,229.828649,-814.226536
1226.827144,-7994.224174,459.657299,-1110.308913
1226.827455,-8364.327145,995.924147,-1258.350101
1226.827766,-9326.594869,842.705048,-1184.329507
1226.828078,-10732.986159,-153.219100,-222.061783
1226.828389,-11029.068536,-1072.533697,296.082377
1226.828701,-10807.006753,-842.705048,1332.370696
1226.829012,-10214.842000,-153.219100,1628.453072
1226.829323,-9252.574275,536.266849,1850.514855
1226.829635,-8438.347739,383.047749,1776.494261
1226.829946,-8068.244768,459.657299,1628.453072
1226.830258,-7031.956449,229.828649,1850.514855
1226.830569,-7105.977043,383.047749,1110.308913
1226.830880,-8364.327145,383.047749,592.164754
1226.831192,-8734.430116,383.047749,-0.000000
1226.831503,-8882.471304,0.000000,-148.041188
1226.831815,-9918.759623,-306.438199,-222.061783
1226.832126,-10066.800811,-536.266849,-148.041188
1226.832437,-10881.027347,-1072.533697,296.082377
1226.832749,-10658.965565,-842.705048,888.247130
1226.833060,-9992.780217,-229.828649,1184.329507
1226.833372,-8660.409521,0.000000,1554.432478
1226.833683,-8734.430116,-612.876398,1702.473667
1226.833995,-7254.018232,229.828649,1998.556043
1226.834306,-6291.750507,459.657299,1850.514855
1226.834617,-6587.832884,995.924147,1332.370696
1226.834929,-6661.853478,995.924147,592.164754
1226.835240,-7846.182985,153.219100,-222.061783
1226.835552,-7328.038826,-229.828649,-444.123565
1226.835863,-8216.285956,0.000000,-888.247130
1226.836174,-9030.512492,-306.438199,-1480.411884
1226.836486,-9770.718434,-766.095498,-1110.308913
1226.836797,-10584.944971,-1532.190996,-222.061783
1226.837109,-11029.068536,-995.924147,518.144159
1226.837420,-11325.150913,-995.924147,1258.350101
1226.837731,-10436.903782,-383.047749,1332.370696
1226.838043,-9622.677246,76.609550,1554.432478
1226.838354,-8660.409521,612.876398,1258.350101
1226.838666,-7105.977043,919.314598,1110.308913
1226.838977,-7105.977043,1225.752797,444.123565
1226.839289,-7772.162391,459.657299,444.123565
1226.839600,-9030.512492,459.657299,-0.000000
1226.839911,-9178.553681,612.876398,-222.061783
1226.840223,-9326.594869,153.219100,-592.164754
1226.840534,-9400.615463,-383.047749,-592.164754
1226.840846,-9548.656652,-1455.581446,-444.123565
1226.841157,-9918.759623,-2068.457845,-296.082377
1226.841468,-10362.883188,-1685.410096,-148.041188
1226.841780,-10066.800811,-1225.752797,666.185348
1226.842091,-9844.739029,-919.314598,1110.308913
1226.842403,-9696.697840,-536.266849,1554.432478
1226.842714,-8660.409521,-766.095498,1998.556043
1226.843025,-7624.121203,-919.314598,1998.556043
1226.843337,-6883.915261,0.000000,1702.473667
1226.843648,-6217.729913,842.705048,1554.432478
1226.843960,-6587.832884,306.438199,-0.000000
1226.844271,-7179.997637,0.000000,-518.144159
1226.844582,-8142.265362,229.828649,-1258.350101
1226.844894,-8068.244768,842.705048,-1184.329507
1226.845205,-9474.636058,536.266849,-888.247130
1226.845517,-11251.130318,-612.876398,-222.061783
1226.845828,-10584.944971,-536.266849,518.144159
1226.846140,-11103.089130,-383.047749,296.082377
1226.846451,-10214.842000,459.657299,1628.453072
1226.846762,-9178.553681,306.438199,1332.370696
1226.847074,-8808.450710,306.438199,1480.411884
1226.847385,-7698.141797,612.876398,1998.556043
1226.847697,-7179.997637,689.485948,1776.494261
1226.848008,-7994.224174,229.828649,1110.308913
1226.848319,-8290.306550,1072.533697,1036.288319
1226.848631,-8734.430116,459.657299,-222.061783
1226.848942,-9400.615463,-306.438199,-888.247130
1226.849254,-9622.677246,536.266849,-888.247130
1226.849565,-10214.842000,229.828649,-592.164754
1226.849876,-10807.006753,-766.095498,-0.000000
1226.850188,-10510.924376,-1072.533697,1258.350101
1226.850499,-9548.656652,-612.876398,1776.494261
1226.850811,-8586.388927,-1149.143247,2516.700203
1226.851122,-8364.327145,-766.095498,2516.700203
1226.851434,-7105.977043,-153.219100,2146.597232
1226.851745,-6439.791695,689.485948,1554.432478
1226.852056,-6291.750507,1608.800546,962.267725
1226.852368,-6439.791695,1838.629195,370.102971
1226.852679,-7105.977043,1225.752797,-370.102971
1226.852991,-7402.059420,995.924147,-444.123565
1226.853302,-8068.244768,766.095498,-1258.350101
1226.853613,-9104.533087,689.485948,-888.247130
1226.853925,-9918.759623,153.219100,-592.164754
1226.854236,-10658.965565,-459.657299,-0.000000
1226.854548,-10362.883188,-153.219100,666.185348
1226.854859,-10362.883188,-536.266849,1332.370696
1226.855170,-9696.697840,-383.047749,1480.411884
1226.855482,-9400.615463,229.828649,1258.350101
1226.855793,-8660.409521,306.438199,1480.411884
1226.856105,-8068.244768,76.609550,1184.329507
1226.856416,-7920.203579,459.657299,962.267725
1226.856727,-8734.430116,459.657299,444.123565
1226.857039,-9326.594869,229.828649,-0.000000
1226.857350,-9400.615463,153.219100,-592.164754
1226.857662,-9474.636058,76.609550,-962.267725
1226.857973,-9770.718434,-229.828649,-666.185348
1226.858285,-10066.800811,-1608.800546,-592.164754
1226.858596,-10288.862594,-1915.238745,-148.041188
1226.858907,-10066.800811,-1455.581446,370.102971
1226.859219,-10066.800811,-1149.143247,592.164754
1226.859530,-9992.780217,-536.266849,888.247130
1226.859842,-9326.594869,-612.876398,1332.370696
1226.860153,-8142.265362,76.609550,1628.453072
1226.860464,-6957.935855,306.438199,1924.535449
1226.860776,-6439.791695,229.828649,1332.370696
1226.861087,-6809.894666,229.828649,518.144159
1226.861399,-7105.977043,0.000000,296.082377
1226.861710,-7402.059420,0.000000,-296.082377
1226.862021,-8290.306550,0.000000,-814.226536
1226.862333,-8660.409521,689.485948,-740.205942
1226.862644,-9844.739029,153.219100,-740.205942
1226.862956,-10510.924376,-995.924147,-296.082377
1226.863267,-11399.171507,-612.876398,518.144159
1226.863579,-11473.192101,-383.047749,814.226536
1226.863890,-10362.883188,-76.609550,1480.411884
1226.864201,-9400.615463,153.219100,1480.411884
1226.864513,-8512.368333,459.657299,1702.473667
1226.864824,-7698.141797,766.095498,1554.432478
1226.865136,-6883.915261,842.705048,2072.576638
1226.865447,-7328.038826,689.485948,1406.391290
1226.865758,-8512.368333,229.828649,518.144159
1226.866070,-9252.574275,536.266849,-148.041188
1226.866381,-9918.759623,536.266849,-666.185348
1226.866693,-9770.718434,306.438199,-666.185348
1226.867004,-10066.800811,0.000000,-666.185348
1226.867315,-9918.759623,-1072.533697,-0.000000
1226.867627,-9992.780217,-1149.143247,666.185348
1226.867938,-9474.636058,-995.924147,2294.638420
1226.868250,-9178.553681,-1302.362347,2368.659014
1226.868561,-9178.553681,-766.095498,2442.679609
1226.868872,-7476.080014,0.000000,2442.679609
1226.869184,-6439.791695,536.266849,1554.432478
1226.869495,-5847.626942,1455.581446,888.247130
1226.869807,-6143.709319,1378.971896,-0.000000
1226.870118,-6735.874072,383.047749,-666.185348
1226.870430,-7624.121203,0.000000,-666.185348
1226.870741,-8438.347739,459.657299,-740.205942
1226.871052,-9474.636058,0.000000,-444.123565
1226.871364,-10066.800811,-383.047749,-444.123565
1226.871675,-10658.965565,-995.924147,-0.000000
1226.871987,-10510.924376,-842.705048,740.205942
1226.872298,-10436.903782,0.000000,1258.350101
1226.872609,-10066.800811,-229.828649,1406.391290
1226.872921,-9252.574275,306.438199,1628.453072
1226.873232,-8364.327145,0.000000,1776.494261
1226.873544,-7254.018232,0.000000,1776.494261
1226.873855,-7772.162391,306.438199,1184.329507
1226.874166,-8660.409521,0.000000,148.041188
1226.874478,-8956.491898,383.047749,-148.041188
1226.874789,-9400.615463,766.095498,-814.226536
1226.875101,-9400.615463,0.000000,-1036.288319
1226.875412,-9770.718434,-383.047749,-740.205942
1226.875724,-10362.883188,-1455.581446,-222.061783
1226.876035,-10732.986159,-2145.067394,-0.000000
1226.876346,-10214.842000,-1762.019645,888.247130
1226.876658,-9770.718434,-1532.190996,1184.329507
1226.876969,-9474.636058,-766.095498,2072.576638
1226.877281,-8882.471304,-919.314598,1406.391290
1226.877592,-7994.224174,-459.657299,1776.494261
1226.877903,-6883.915261,0.000000,1628.453072
1226.878215,-7105.977043,306.438199,1480.411884
1226.878526,-7402.059420,229.828649,814.226536
1226.878838,-7550.100608,229.828649,-0.000000
1226.879149,-7772.162391,0.000000,-666.185348
1226.879460,-8808.450710,612.876398,-1554.432478
1226.879772,-9104.533087,1532.190996,-1480.411884
1226.880083,-9844.739029,842.705048,-1480.411884
1226.880395,-10436.903782,0.000000,-74.020594
1226.880706,-10732.986159,-995.924147,666.185348
1226.881018,-11103.089130,-995.924147,1480.411884
1226.881329,-10066.800811,-536.266849,1702.473667
1226.881640,-9104.533087,-689.485948,1924.535449
1226.881952,-8586.388927,-995.924147,1480.411884
1226.882263,-7846.182985,0.000000,1258.350101
1226.882575,-6735.874072,536.266849,1406.391290
1226.882886,-7624.121203,459.657299,518.144159
1226.883197,-8364.327145,459.657299,444.123565
1226.883509,-9178.553681,383.047749,-296.082377
1226.883820,-9252.574275,536.266849,-592.164754
1226.884132,-9622.677246,229.828649,-740.205942
1226.884443,-9844.739029,-306.438199,-518.144159
1226.884754,-9918.759623,-1072.533697,-296.082377
1226.885066,-9992.780217,-1072.533697,814.226536
1226.885377,-9252.574275,-1149.143247,1998.556043
1226.885689,-9326.594869,-689.485948,1480.411884
1226.886000,-8956.491898,-383.047749,1628.453072
1226.886311,-7846.182985,0.000000,1924.535449
1226.886623,-7402.059420,383.047749,1480.411884
1226.886934,-6069.688724,1072.533697,1036.288319
1226.887246,-6735.874072,1149.143247,222.061783
1226.887557,-7105.977043,383.047749,-962.267725
1226.887869,-7698.141797,76.609550,-814.226536
1226.888180,-8216.285956,306.438199,-1554.432478
1226.888491,-9326.594869,229.828649,-1628.453072
1226.888803,-10362.883188,0.000000,-888.247130
1226.889114,-11621.233289,0.000000,-444.123565
1226.889426,-11103.089130,0.000000,1184.329507
1226.889737,-11325.150913,-153.219100,1258.350101
1226.890048,-10288.862594,229.828649,1776.494261
1226.890360,-9548.656652,0.000000,1924.535449
1226.890671,-8142.265362,229.828649,1924.535449
1226.890983,-6883.915261,842.705048,1406.391290
1226.891294,-7254.018232,1378.971896,814.226536
1226.891605,-8290.306550,459.657299,148.041188
1226.891917,-8734.430116,459.657299,-0.000000
1226.892228,-8808.450710,0.000000,-740.205942
1226.892540,-8734.430116,153.219100,-1036.288319
1226.892851,-9400.615463,-995.924147,-740.205942
1226.893160,-10066.800811,-1762.019645,-0.000000
1226.893472,-10214.842000,-1608.800546,296.082377
1226.893783,-9992.780217,-1455.581446,814.226536
1226.894094,-10066.800811,-1378.971896,1184.329507
1226.894406,-9992.780217,-766.095498,1554.432478
1226.894717,-9400.615463,-995.924147,1628.453072
1226.895029,-8290.306550,0.000000,1480.411884
1226.895340,-7105.977043,689.485948,1480.411884
1226.895652,-6735.874072,1225.752797,1184.329507
1226.895963,-6809.894666,689.485948,370.102971
1226.896275,-6883.915261,0.000000,-74.020594
1226.896586,-7254.018232,-536.266849,-444.123565
1226.896898,-8216.285956,229.828649,-814.226536
1226.897209,-9030.512492,229.828649,-1628.453072
1226.897521,-9548.656652,383.047749,-370.102971
1226.897832,-10584.944971,-842.705048,-0.000000
1226.898144,-11029.068536,-1225.752797,962.267725
1226.898455,-10732.986159,-1072.533697,1406.391290
1226.898767,-10658.965565,-306.438199,1554.432478
1226.899078,-9252.574275,-306.438199,1406.391290
1226.899390,-8290.306550,459.657299,1258.350101
1226.899701,-7772.162391,766.095498,1480.411884
1226.900013,-7105.977043,0.000000,1480.411884
1226.900324,-8290.306550,229.828649,666.185348
1226.900636,-9030.512492,536.266849,296.082377
1226.900947,-9474.636058,459.657299,-74.020594
1226.901259,-9770.718434,153.219100,-888.247130
1226.901570,-9992.780217,0.000000,-1110.308913
1226.901881,-10140.821405,76.609550,-444.123565
1226.902193,-9918.759623,-536.266849,-296.082377
1226.902504,-9696.697840,-536.266849,666.185348
1226.902816,-9474.636058,-766.095498,1332.370696
1226.903127,-9326.594869,-919.314598,1924.535449
1226.903439,-8882.471304,-1149.143247,2294.638420
1226.903750,-7846.182985,0.000000,2516.700203
1226.904062,-7254.018232,-153.219100,1628.453072
1226.904373,-6587.832884,612.876398,1110.308913
1226.904685,-6883.915261,612.876398,222.061783
1226.904996,-7105.977043,536.266849,-814.226536
1226.905308,-7179.997637,689.485948,-888.247130
1226.905619,-8290.306550,689.485948,-1332.370696
1226.905931,-9400.615463,689.485948,-1036.288319
1226.906242,-10140.821405,459.657299,-814.226536
1226.906554,-10658.965565,0.000000,-0.000000
1226.906865,-10732.986159,0.000000,1036.288319
1226.907177,-10584.944971,-459.657299,1332.370696
1226.907488,-9696.697840,-306.438199,1850.514855
1226.907800,-8956.491898,-766.095498,1924.535449
1226.908111,-8068.244768,-153.219100,1998.556043
1226.908423,-7624.121203,153.219100,1406.391290
1226.908734,-7920.203579,306.438199,1036.288319
1226.909046,-8660.409521,76.609550,148.041188
1226.909357,-9178.553681,536.266849,-0.000000
1226.909668,-9844.739029,842.705048,-962.267725
1226.909980,-9252.574275,306.438199,-888.247130
1226.910291,-9474.636058,-612.876398,-296.082377
1226.910603,-10214.842000,-1608.800546,296.082377
1226.910914,-9992.780217,-1991.848295,444.123565
1226.911226,-9770.718434,-1685.410096,1184.329507
1226.911537,-10140.821405,-842.705048,1776.494261
1226.911849,-9400.615463,-919.314598,1628.453072
1226.912160,-7920.203579,-383.047749,1776.494261
1226.912472,-7031.956449,0.000000,1776.494261
1226.912783,-6291.750507,229.828649,1776.494261
1226.913095,-6291.750507,459.657299,1184.329507
1226.913406,-6883.915261,842.705048,370.102971
1226.913718,-7402.059420,689.485948,-296.082377
1226.914029,-8586.388927,459.657299,-1480.411884
1226.914341,-8808.450710,842.705048,-1258.350101
1226.914652,-9178.553681,995.924147,-1406.391290
1226.914964,-10214.842000,-153.219100,-592.164754
1226.915275,-11103.089130,-1532.190996,370.102971
1226.915587,-11251.130318,-1225.752797,1258.350101
1226.915898,-11251.130318,-689.485948,814.226536
1226.916210,-10214.842000,-536.266849,2146.597232
1226.916521,-9474.636058,-536.266849,1628.453072
1226.916833,-7994.224174,0.000000,1110.308913
1226.917144,-7254.018232,689.485948,1110.308913
1226.917455,-7402.059420,1149.143247,888.247130
1226.917767,-9030.512492,919.314598,592.164754
1226.918078,-9844.739029,842.705048,370.102971
1226.918390,-9474.636058,459.657299,-370.102971
1226.918701,-9178.553681,229.828649,-444.123565
1226.919013,-9252.574275,0.000000,-1036.288319
1226.919324,-9918.759623,-536.266849,-518.144159
1226.919636,-9918.759623,-919.314598,-0.000000
1226.919947,-9548.656652,-536.266849,1258.350101
1226.920259,-9178.553681,-612.876398,1924.535449
1226.920570,-8808.450710,-536.266849,1776.494261
1226.920882,-8068.244768,153.219100,1850.514855
1226.921193,-7105.977043,0.000000,1850.514855
1226.921505,-5699.585753,766.095498,1702.473667
1226.921816,-6291.750507,1149.143247,1036.288319
1226.922128,-7476.080014,229.828649,296.082377
1226.922439,-7772.162391,0.000000,-0.000000
1226.922751,-7772.162391,0.000000,-444.123565
1226.923062,-8216.285956,229.828649,-814.226536
1226.923374,-8734.430116,-153.219100,-888.247130
1226.923685,-9622.677246,-536.266849,-518.144159
1226.923997,-10658.965565,-153.219100,-74.020594
1226.924308,-10881.027347,-306.438199,1184.329507
1226.924620,-10881.027347,0.000000,1258.350101
1226.924931,-10362.883188,76.609550,1480.411884
1226.925242,-8956.491898,153.219100,1554.432478
1226.925554,-7179.997637,153.219100,1628.453072
1226.925865,-6661.853478,229.828649,962.267725
1226.926177,-7328.038826,-229.828649,814.226536
1226.926488,-9178.553681,-459.657299,148.041188
1226.926800,-9548.656652,-995.924147,-0.000000
1226.927111,-9548.656652,-383.047749,-370.102971
1226.927423,-10066.800811,-766.095498,-444.123565
1226.927734,-10584.944971,-1302.362347,-444.123565
1226.928046,-10288.862594,-2221.676944,-296.082377
1226.928357,-9030.512492,-1149.143247,-0.000000
1226.928669,-9474.636058,-612.876398,666.185348
1226.928980,-9474.636058,-1149.143247,888.247130
1226.929292,-9474.636058,-766.095498,1406.391290
1226.929603,-8734.430116,-459.657299,1480.411884
1226.929915,-7550.100608,0.000000,1406.391290
1226.930226,-7328.038826,1072.533697,1554.432478
1226.930538,-7624.121203,919.314598,518.144159
1226.930849,-7402.059420,229.828649,-0.000000
1226.931161,-7254.018232,229.828649,-814.226536
1226.931472,-8512.368333,306.438199,-1480.411884
1226.931784,-8586.388927,995.924147,-1406.391290
1226.932095,-9474.636058,766.095498,-1554.432478
1226.932407,-10584.944971,459.657299,-740.205942
1226.932718,-10658.965565,-153.219100,-0.000000
1226.933029,-10436.903782,-536.266849,1110.308913
1226.933341,-10436.903782,0.000000,1258.350101
1226.933652,-10066.800811,306.438199,1406.391290
1226.933964,-9104.533087,0.000000,1850.514855
1226.934275,-8586.388927,-306.438199,1554.432478
1226.934587,-8290.306550,459.657299,1406.391290
1226.934898,-8216.285956,536.266849,814.226536
1226.935210,-8882.471304,612.876398,518.144159
1226.935521,-9178.553681,1072.533697,-444.123565
1226.935833,-9030.512492,842.705048,-740.205942
1226.936144,-8734.430116,383.047749,-740.205942
1226.936456,-9474.636058,0.000000,-592.164754
1226.936767,-9992.780217,0.000000,-0.000000
1226.937079,-9622.677246,229.828649,666.185348
1226.937390,-9400.615463,153.219100,1480.411884
1226.937702,-8808.450710,-306.438199,1702.473667
1226.938013,-8290.306550,0.000000,2220.617826
1226.938325,-7476.080014,76.609550,2072.576638
1226.938636,-6439.791695,229.828649,2072.576638
1226.938948,-6587.832884,536.266849,1554.432478
1226.939259,-6217.729913,612.876398,1110.308913
1226.939571,-6883.915261,76.609550,296.082377
1226.939882,-7031.956449,-306.438199,222.061783
1226.940194,-7105.977043,-306.438199,296.082377
1226.940505,-9326.594869,306.438199,-222.061783
1226.940816,-9844.739029,-306.438199,-0.000000
1226.941128,-10955.047942,-842.705048,370.102971
1226.941439,-11251.130318,-689.485948,1406.391290
1226.941751,-11325.150913,-842.705048,1924.535449
1226.942062,-10881.027347,-536.266849,1924.535449
1226.942374,-9622.677246,-612.876398,1998.556043
1226.942685,-8290.306550,0.000000,1776.494261
1226.942997,-6883.915261,153.219100,1480.411884
1226.943308,-6957.935855,995.924147,370.102971
1226.943620,-7920.203579,459.657299,-0.000000
1226.943931,-8734.430116,459.657299,-0.000000
1226.944243,-9104.533087,689.485948,-296.082377
1226.944554,-10066.800811,306.438199,-740.205942
1226.944866,-10214.842000,-842.705048,-962.267725
1226.945177,-10584.944971,-1225.752797,-666.185348
1226.945489,-10658.965565,-1838.629195,-0.000000
1226.945800,-10214.842000,-1991.848295,444.123565
1226.946112,-10214.842000,-1225.752797,814.226536
1226.946423,-9696.697840,-1225.752797,1184.329507
1226.946735,-9030.512492,-766.095498,1184.329507
1226.947046,-8512.368333,-229.828649,1332.370696
1226.947358,-7254.018232,689.485948,518.144159
1226.947669,-7105.977043,536.266849,518.144159
1226.947981,-7179.997637,612.876398,-148.041188
1226.948292,-6735.874072,383.047749,-296.082377
1226.948603,-7476.080014,306.438199,-888.247130
1226.948915,-8364.327145,0.000000,-1110.308913
1226.949226,-8808.450710,76.609550,-888.247130
1226.949538,-9844.739029,-459.657299,-1036.288319
1226.949849,-10362.883188,-842.705048,-370.102971
1226.950161,-11251.130318,-1149.143247,-518.144159
1226.950472,-10584.944971,229.828649,74.020594
1226.950784,-9770.718434,0.000000,592.164754
1226.951095,-8882.471304,-536.266849,444.123565
1226.951407,-8216.285956,0.000000,592.164754
1226.951718,-7920.203579,612.876398,888.247130
1226.952030,-7402.059420,1072.533697,1332.370696
1226.952341,-8216.285956,689.485948,666.185348
1226.952653,-8660.409521,459.657299,592.164754
1226.952964,-9252.574275,612.876398,-0.000000
1226.953276,-9104.533087,383.047749,222.061783
1226.953587,-9474.636058,229.828649,-148.041188
1226.953899,-10658.965565,-153.219100,-222.061783
1226.954210,-11325.150913,-766.095498,-0.000000
1226.954522,-10214.842000,-1225.752797,814.226536
1226.954833,-9622.677246,-689.485948,1332.370696
1226.955145,-9326.594869,-842.705048,1406.391290
1226.955456,-9252.574275,-766.095498,1702.473667
1226.955768,-7994.224174,-229.828649,1998.556043
1226.956079,-7105.977043,536.266849,2220.617826
1226.956390,-6365.771101,1149.143247,2294.638420
1226.956702,-6365.771101,766.095498,1776.494261
1226.957013,-7105.977043,229.828649,370.102971
1226.957325,-6735.874072,766.095498,222.061783
1226.957636,-7550.100608,842.705048,-666.185348
1226.957948,-8586.388927,995.924147,-962.267725
1226.958259,-9474.636058,306.438199,-740.205942
1226.958571,-10510.924376,-1149.143247,-0.000000
1226.958882,-11325.150913,-919.314598,888.247130
1226.959194,-11399.171507,-459.657299,1406.391290
1226.959505,-10881.027347,306.438199,1776.494261
1226.959817,-10066.800811,-612.876398,1924.535449
1226.960128,-8882.471304,-459.657299,2072.576638
1226.960440,-7254.018232,-153.219100,1776.494261
1226.960751,-6883.915261,0.000000,1850.514855
1226.961063,-7254.018232,153.219100,1258.350101
1226.961374,-7994.224174,0.000000,592.164754
1226.961686,-7920.203579,612.876398,-0.000000
1226.961997,-8512.368333,459.657299,-592.164754
1226.962309,-9104.533087,-153.219100,-592.164754
1226.962620,-10214.842000,-1149.143247,-666.185348
1226.962932,-10584.944971,-1608.800546,-666.185348
1226.963243,-10214.842000,-1532.190996,-0.000000
1226.963555,-10510.924376,-1378.971896,962.267725
1226.963866,-9992.780217,-1225.752797,1406.391290
1226.964177,-9104.533087,-995.924147,1554.432478
1226.964489,-7698.141797,-229.828649,1628.453072
1226.964800,-6883.915261,766.095498,1406.391290
1226.965112,-6809.894666,995.924147,444.123565
1226.965423,-6809.894666,1149.143247,-74.020594
1226.965735,-6661.853478,306.438199,-814.226536
1226.966046,-7772.162391,-153.219100,-1110.308913
1226.966358,-8882.471304,0.000000,-1480.411884
1226.966669,-9474.636058,612.876398,-1924.535449
1226.966981,-10436.903782,0.000000,-1406.391290
1226.967292,-11473.192101,-1302.362347,-74.020594
1226.967604,-11029.068536,-1838.629195,592.164754
1226.967915,-11399.171507,-1225.752797,518.144159
1226.968227,-11177.109724,-459.657299,1110.308913
1226.968538,-9992.780217,689.485948,1110.308913
1226.968850,-9178.553681,612.876398,1036.288319
1226.969161,-7994.224174,1072.533697,888.247130
1226.969473,-6883.915261,995.924147,1258.350101
1226.969784,-7105.977043,1378.971896,1258.350101
1226.970096,-7994.224174,612.876398,-0.000000
1226.970407,-8660.409521,689.485948,-74.020594
1226.970719,-9104.533087,153.219100,-444.123565
1226.971030,-9474.636058,0.000000,-444.123565
1226.971342,-10362.883188,-995.924147,-296.082377
1226.971653,-10955.047942,-1455.581446,296.082377
1226.971964,-10807.006753,-1532.190996,1036.288319
1226.972276,-10066.800811,-1378.971896,1776.494261
1226.972587,-9474.636058,-1455.581446,1850.514855
1226.972899,-8734.430116,-842.705048,2146.597232
1226.973210,-7550.100608,-229.828649,2294.638420
1226.973522,-6365.771101,536.266849,1850.514855
1226.973833,-5773.606348,1608.800546,1628.453072
1226.974145,-5107.421000,1455.581446,962.267725
1226.974456,-6217.729913,842.705048,-296.082377
1226.974768,-6883.915261,383.047749,-222.061783
1226.975079,-7624.121203,306.438199,-518.144159
1226.975391,-8586.388927,536.266849,-666.185348
1226.975702,-10066.800811,229.828649,-518.144159
1226.976014,-10955.047942,-766.095498,-0.000000
1226.976325,-11177.109724,-1532.190996,1258.350101
1226.976637,-11029.068536,-766.095498,1702.473667
1226.976948,-10436.903782,-459.657299,1702.473667
1226.977260,-9326.594869,-153.219100,1776.494261
1226.977571,-8142.265362,0.000000,1998.556043
1226.977883,-7105.977043,306.438199,1554.432478
1226.978194,-6735.874072,536.266849,1110.308913
1226.978506,-7402.059420,689.485948,666.185348
1226.978817,-8660.409521,229.828649,-0.000000
1226.979129,-8808.450710,1072.533697,-444.123565
1226.979440,-9918.759623,1455.581446,-888.247130
1226.979751,-10140.821405,0.000000,-962.267725
1226.980063,-10881.027347,-689.485948,-592.164754
1226.980374,-10881.027347,-1302.362347,-148.041188
1226.980686,-10436.903782,-995.924147,370.102971
1226.980997,-10288.862594,-919.314598,1036.288319
1226.981309,-9696.697840,-306.438199,1036.288319
1226.981620,-8586.388927,229.828649,1480.411884
1226.981932,-7994.224174,76.609550,1480.411884
1226.982243,-7179.997637,459.657299,1184.329507
1226.982555,-6661.853478,995.924147,962.267725
1226.982866,-7105.977043,1532.190996,-0.000000
1226.983178,-7254.018232,536.266849,-518.144159
1226.983489,-7846.182985,0.000000,-888.247130
1226.983801,-7994.224174,0.000000,-1480.411884
1226.984112,-9178.553681,153.219100,-1184.329507
1226.984424,-10732.986159,-229.828649,-814.226536
1226.984735,-11547.212695,-1149.143247,-0.000000
1226.985047,-11621.233289,-1608.800546,740.205942
1226.985358,-11103.089130,-1225.752797,1628.453072
1226.985670,-10066.800811,-995.924147,1406.391290
1226.985981,-9104.533087,0.000000,518.144159
1226.986293,-7105.977043,689.485948,1110.308913
1226.986604,-6365.771101,842.705048,740.205942
1226.986916,-6957.935855,612.876398,1110.308913
1226.987227,-8142.265362,229.828649,1036.288319
1226.987538,-8956.491898,612.876398,740.205942
1226.987850,-9326.594869,1072.533697,444.123565
1226.988161,-9770.718434,842.705048,-0.000000
1226.988473,-9696.697840,0.000000,-814.226536
1226.988784,-10140.821405,-383.047749,-666.185348
1226.989096,-9696.697840,-766.095498,-74.020594
1226.989407,-9548.656652,-766.095498,1110.308913
1226.989719,-9622.677246,-766.095498,1332.370696
1226.990030,-9844.739029,-1225.752797,1702.473667
1226.990342,-8956.491898,-612.876398,2368.659014
1226.990653,-7772.162391,-536.266849,2368.659014
1226.990965,-6513.812290,1149.143247,2368.659014
1226.991276,-6069.688724,76.609550,1924.535449
1226.991588,-6291.750507,459.657299,814.226536
1226.991899,-6661.853478,689.485948,444.123565
1226.992211,-6957.935855,995.924147,-296.082377
1226.992522,-7698.141797,919.314598,-814.226536
1226.992834,-8734.430116,536.266849,-814.226536
1226.993145,-10214.842000,612.876398,-444.123565
1226.993457,-10510.924376,0.000000,-222.061783
1226.993768,-11029.068536,-306.438199,592.164754
1226.994080,-11399.171507,-459.657299,1184.329507
1226.994391,-10732.986159,-459.657299,1184.329507
1226.994703,-9400.615463,-229.828649,1406.391290
1226.995014,-8216.285956,-153.219100,1554.432478
1226.995325,-7846.182985,0.000000,1480.411884
1226.995637,-7254.018232,383.047749,1480.411884
1226.995948,-8142.265362,0.000000,1036.288319
1226.996260,-9326.594869,-1072.533697,740.205942
1226.996571,-8956.491898,459.657299,148.041188
1226.996883,-9326.594869,306.438199,-740.205942
1226.997194,-9178.553681,-383.047749,-814.226536
1226.997505,-9992.780217,-1225.752797,-740.205942
1226.997817,-10584.944971,-1685.410096,-296.082377
1226.998128,-9992.780217,-1149.143247,740.205942
1226.998439,-10436.903782,-766.095498,1480.411884
1226.998751,-9030.512492,-919.314598,1776.494261
1226.999062,-9030.512492,-612.876398,1480.411884
1226.999374,-7772.162391,-459.657299,1924.535449
1226.999685,-6661.853478,306.438199,1554.432478
1226.999996,-6143.709319,1149.143247,962.267725
1227.000308,-5921.647536,766.095498,370.102971
1227.000619,-6587.832884,-229.828649,-444.123565
1227.000931,-7179.997637,-766.095498,-666.185348
1227.001242,-8142.265362,0.000000,-1036.288319
1227.001553,-9252.574275,383.047749,-1036.288319
1227.001865,-10140.821405,-383.047749,-518.144159
1227.002176,-11325.150913,-995.924147,296.082377
1227.002488,-11473.192101,-1378.971896,962.267725
1227.002799,-11399.171507,-1378.971896,888.247130
1227.003110,-10214.842000,-383.047749,1406.391290
1227.003422,-9252.574275,-459.657299,1480.411884
1227.003733,-7698.141797,-383.047749,666.185348
1227.004045,-7550.100608,536.266849,1406.391290
1227.004356,-7476.080014,1149.143247,1036.288319
1227.004667,-8216.285956,995.924147,814.226536
1227.004979,-8660.409521,919.314598,222.061783
1227.005290,-8882.471304,153.219100,-148.041188
1227.005601,-8882.471304,0.000000,-814.226536
1227.005913,-8956.491898,612.876398,-888.247130
1227.006224,-9918.759623,0.000000,-592.164754
1227.006536,-10436.903782,-766.095498,-148.041188
1227.006847,-10140.821405,-689.485948,814.226536
1227.007158,-10066.800811,-536.266849,1332.370696
1227.007470,-9696.697840,-766.095498,1776.494261
1227.007781,-9326.594869,-153.219100,1924.535449
1227.008093,-7772.162391,0.000000,1924.535449
1227.008404,-6513.812290,306.438199,1850.514855
1227.008715,-5921.647536,536.266849,1702.473667
1227.009027,-6513.812290,766.095498,592.164754
1227.009338,-7105.977043,459.657299,-0.000000
1227.009650,-7328.038826,842.705048,-370.102971
1227.009961,-8364.327145,995.924147,-814.226536
1227.010272,-9030.512492,1072.533697,-1110.308913
1227.010584,-10066.800811,153.219100,-1036.288319
1227.010895,-10881.027347,-459.657299,-0.000000
1227.011207,-10881.027347,-919.314598,1184.329507
1227.011518,-10584.944971,-153.219100,1332.370696
1227.011829,-10140.821405,-229.828649,1480.411884
1227.012141,-9030.512492,-536.266849,2146.597232
1227.012452,-7772.162391,-383.047749,1924.535449
1227.012763,-6883.915261,-536.266849,1480.411884
1227.013075,-7179.997637,383.047749,814.226536
1227.013386,-8142.265362,76.609550,370.102971
1227.013698,-9400.615463,0.000000,-0.000000
1227.014009,-9844.739029,153.219100,-296.082377
1227.014320,-9696.697840,-229.828649,-592.164754
1227.014632,-9918.759623,-1225.752797,-444.123565
1227.014943,-10584.944971,-1532.190996,-296.082377
1227.015255,-9992.780217,-1838.629195,222.061783
1227.015566,-9844.739029,-1378.971896,666.185348
1227.015877,-9474.636058,-1532.190996,1480.411884
1227.016189,-9104.533087,-1072.533697,1258.350101
1227.016500,-8364.327145,-536.266849,1480.411884
1227.016812,-7402.059420,0.000000,1628.453072
1227.017123,-6513.812290,229.828649,1332.370696
1227.017434,-6513.812290,0.000000,518.144159
1227.017746,-6661.853478,0.000000,-0.000000
1227.018057,-7550.100608,-536.266849,-222.061783
1227.018369,-8142.265362,-689.485948,-888.247130
1227.018680,-8882.471304,153.219100,-1110.308913
1227.018991,-9622.677246,0.000000,-1332.370696
1227.019303,-10362.883188,-76.609550,-666.185348
1227.019614,-10881.027347,-1302.362347,-0.000000
1227.019925,-10955.047942,-689.485948,962.267725
1227.020237,-10807.006753,-1225.752797,888.247130
1227.020548,-10214.842000,766.095498,1258.350101
1227.020860,-9474.636058,76.609550,1258.350101
1227.021171,-8290.306550,229.828649,1332.370696
1227.021482,-7254.018232,306.438199,1258.350101
1227.021794,-7254.018232,612.876398,962.267725
1227.022105,-8660.409521,612.876398,518.144159
1227.022417,-9400.615463,1072.533697,-148.041188
1227.022728,-9622.677246,1149.143247,-370.102971
1227.023039,-9400.615463,689.485948,-1036.288319
1227.023351,-9548.656652,0.000000,-518.144159
1227.023662,-10510.924376,-536.266849,-296.082377
1227.023974,-10584.944971,-612.876398,-0.000000
1227.024285,-9622.677246,-229.828649,814.226536
1227.024596,-9104.533087,-153.219100,1184.329507
1227.024908,-9178.553681,-306.438199,1258.350101
1227.025219,-8068.244768,153.219100,1776.494261
1227.025531,-7254.018232,1225.752797,2146.597232
1227.025842,-6513.812290,919.314598,1702.473667
1227.026153,-6513.812290,1225.752797,1406.391290
1227.026465,-7402.059420,459.657299,370.102971
1227.026776,-7328.038826,306.438199,-0.000000
1227.027087,-7328.038826,229.828649,-444.123565
1227.027399,-8068.244768,766.095498,-1258.350101
1227.027710,-8956.491898,612.876398,-1036.288319
1227.028022,-10362.883188,0.000000,-740.205942
1227.028333,-10436.903782,-1225.752797,592.164754
1227.028644,-10732.986159,-1149.143247,1480.411884
1227.028956,-10658.965565,-842.705048,1480.411884
1227.029267,-10214.842000,-383.047749,1628.453072
1227.029579,-8882.471304,459.657299,1776.494261
1227.029890,-7994.224174,689.485948,1184.329507
1227.030201,-6809.894666,536.266849,1628.453072
1227.030513,-7772.162391,0.000000,666.185348
1227.030824,-9326.594869,-229.828649,148.041188
1227.031136,-9474.636058,459.657299,-0.000000
1227.031447,-9770.718434,536.266849,-666.185348
1227.031758,-9992.780217,76.609550,-518.144159
1227.032070,-10288.862594,-1302.362347,-74.020594
1227.032381,-9992.780217,-2221.676944,296.082377
1227.032693,-9844.739029,-1149.143247,444.123565
1227.033004,-9992.780217,-842.705048,1110.308913
1227.033315,-10140.821405,-459.657299,1480.411884
1227.033627,-9178.553681,-536.266849,1776.494261
1227.033938,-8068.244768,-536.266849,1998.556043
1227.034249,-7105.977043,536.266849,1702.473667
1227.034561,-7031.956449,153.219100,1184.329507
1227.034872,-6883.915261,612.876398,1480.411884
1227.035184,-7105.977043,536.266849,296.082377
1227.035495,-7254.018232,-306.438199,-296.082377
1227.035806,-7920.203579,-383.047749,-814.226536
1227.036118,-8512.368333,0.000000,-962.267725
1227.036429,-9252.574275,0.000000,-962.267725
1227.036741,-9770.718434,-153.219100,-592.164754
1227.037052,-10436.903782,-229.828649,370.102971
1227.037363,-10807.006753,-612.876398,962.267725
1227.037675,-10584.944971,-536.266849,962.267725
1227.037986,-9622.677246,76.609550,1332.370696
1227.038298,-8512.368333,306.438199,1406.391290
1227.038609,-8068.244768,459.657299,666.185348
1227.038920,-8142.265362,536.266849,962.267725
1227.039232,-7994.224174,1149.143247,740.205942
1227.039543,-8956.491898,842.705048,296.082377
1227.039854,-8808.450710,459.657299,296.082377
1227.040166,-9326.594869,536.266849,-296.082377
1227.040477,-9326.594869,76.609550,-444.123565
1227.040789,-9474.636058,-306.438199,-518.144159
1227.041100,-10362.883188,-689.485948,-0.000000
1227.041411,-10214.842000,-842.705048,592.164754
1227.041723,-9548.656652,-995.924147,1110.308913
1227.042034,-9400.615463,-383.047749,1184.329507
1227.042346,-8734.430116,-153.219100,1776.494261
1227.042657,-8364.327145,229.828649,1776.494261
1227.042968,-7105.977043,995.924147,1480.411884
1227.043280,-6439.791695,1378.971896,1480.411884
1227.043591,-6217.729913,1225.752797,814.226536
1227.043903,-7105.977043,689.485948,-0.000000
1227.044214,-7031.956449,1225.752797,-0.000000
1227.044525,-7476.080014,995.924147,-888.247130
1227.044837,-8364.327145,536.266849,-1184.329507
1227.045148,-9400.615463,76.609550,-1332.370696
1227.045460,-10955.047942,-1072.533697,-444.123565
1227.045771,-11251.130318,-1685.410096,666.185348
1227.046082,-11325.150913,-1149.143247,1258.350101
1227.046394,-10807.006753,-919.314598,1702.473667
1227.046705,-10066.800811,-1225.752797,1850.514855
1227.047016,-8586.388927,-1455.581446,2072.576638
1227.047328,-7254.018232,-153.219100,1480.411884
1227.047639,-7254.018232,689.485948,1332.370696
1227.047951,-7328.038826,459.657299,1110.308913
1227.048262,-8586.388927,0.000000,370.102971
1227.048573,-9474.636058,306.438199,-0.000000
1227.048885,-9548.656652,383.047749,-592.164754
1227.049196,-9844.739029,995.924147,-666.185348
1227.049508,-10140.821405,-1302.362347,-0.000000
1227.049819,-10658.965565,-1532.190996,-0.000000
1227.050130,-10214.842000,-1378.971896,666.185348
1227.050442,-9696.697840,-995.924147,1332.370696
1227.050753,-9326.594869,-995.924147,1554.432478
1227.051065,-8586.388927,-766.095498,1406.391290
1227.051376,-7105.977043,0.000000,1702.473667
1227.051687,-6513.812290,459.657299,1258.350101
1227.051999,-5995.668130,1225.752797,962.267725
1227.052310,-6809.894666,459.657299,740.205942
1227.052622,-7328.038826,76.609550,-0.000000
1227.052933,-7772.162391,0.000000,-518.144159
1227.053244,-9030.512492,153.219100,-888.247130
1227.053556,-9104.533087,1302.362347,-1036.288319
1227.053867,-9770.718434,0.000000,-1258.350101
1227.054178,-10584.944971,-306.438199,-518.144159
1227.054490,-10584.944971,-1072.533697,444.123565
1227.054801,-10732.986159,-919.314598,962.267725
1227.055113,-10510.924376,-383.047749,1480.411884
1227.055424,-9770.718434,0.000000,1258.350101
1227.055735,-8956.491898,0.000000,1258.350101
1227.056047,-7328.038826,536.266849,1258.350101
1227.056358,-7105.977043,383.047749,814.226536
1227.056670,-7624.121203,383.047749,888.247130
1227.056981,-8956.491898,306.438199,148.041188
1227.057292,-9252.574275,1149.143247,-0.000000
1227.057604,-9474.636058,689.485948,-296.082377
1227.057915,-9474.636058,0.000000,-296.082377
1227.058227,-9918.759623,0.000000,-814.226536
1227.058538,-9474.636058,-766.095498,-148.041188
1227.058849,-9474.636058,-612.876398,-0.000000
1227.059161,-9326.594869,-536.266849,444.123565
1227.059472,-9326.594869,-612.876398,1036.288319
1227.059784,-9252.574275,-842.705048,1184.329507
1227.060095,-8660.409521,0.000000,1554.432478
1227.060406,-7920.203579,459.657299,1850.514855
1227.060718,-7254.018232,842.705048,1702.473667
1227.061029,-6735.874072,536.266849,1110.308913
1227.061340,-6957.935855,459.657299,518.144159
1227.061652,-6883.915261,229.828649,-74.020594
1227.061963,-7105.977043,0.000000,-518.144159
1227.062275,-7772.162391,76.609550,-888.247130
1227.062586,-8956.491898,0.000000,-1110.308913
1227.062897,-10584.944971,-689.485948,-518.144159
1227.063209,-11177.109724,-1149.143247,444.123565
1227.063520,-11547.212695,-1072.533697,1480.411884
1227.063832,-11325.150913,-842.705048,2220.617826
1227.064143,-10510.924376,-612.876398,1850.514855
1227.064454,-9104.533087,-766.095498,1924.535449
1227.064766,-7846.182985,0.000000,1480.411884
1227.065077,-7031.956449,842.705048,1480.411884
1227.065389,-7031.956449,919.314598,666.185348
1227.065700,-7994.224174,612.876398,-0.000000
1227.066011,-8290.306550,995.924147,-74.020594
1227.066323,-9178.553681,1455.581446,-592.164754
1227.066634,-8882.471304,1149.143247,-888.247130
1227.066946,-9622.677246,-229.828649,-444.123565
1227.067257,-10436.903782,-1072.533697,-0.000000
1227.067568,-10436.903782,-1225.752797,444.123565
1227.067880,-10436.903782,-995.924147,1184.329507
1227.068191,-9918.759623,-1149.143247,1258.350101
1227.068502,-9844.739029,-612.876398,1332.370696
1227.068814,-8438.347739,153.219100,1998.556043
1227.069125,-7179.997637,612.876398,1332.370696
1227.069437,-6587.832884,919.314598,1036.288319
1227.069748,-6513.812290,995.924147,370.102971
1227.070059,-6291.750507,612.876398,-296.082377
1227.070371,-6883.915261,459.657299,-1036.288319
1227.070682,-8364.327145,612.876398,-1036.288319
1227.070994,-9030.512492,842.705048,-1406.391290
1227.071305,-10214.842000,0.000000,-962.267725
1227.071616,-10881.027347,-995.924147,444.123565
1227.071928,-11769.274478,-2221.676944,962.267725
1227.072239,-11769.274478,-1762.019645,1480.411884
1227.072551,-10881.027347,-536.266849,1332.370696
1227.072862,-9918.759623,689.485948,1184.329507
1227.073173,-8068.244768,-229.828649,1036.288319
1227.073485,-7105.977043,995.924147,740.205942
1227.073796,-6883.915261,995.924147,814.226536
1227.074108,-7698.141797,766.095498,814.226536
1227.074419,-8660.409521,842.705048,518.144159
1227.074730,-9400.615463,919.314598,296.082377
1227.075042,-9770.718434,459.657299,-74.020594
1227.075353,-10140.821405,0.000000,-814.226536
1227.075664,-9696.697840,229.828649,-962.267725
1227.075976,-9622.677246,-383.047749,-296.082377
1227.076287,-9918.759623,-995.924147,222.061783
1227.076599,-9622.677246,-1149.143247,1036.288319
1227.076910,-10066.800811,-995.924147,1332.370696
1227.077221,-9104.533087,-536.266849,1702.473667
1227.077533,-8216.285956,536.266849,1702.473667
1227.077844,-7031.956449,766.095498,1480.411884
1227.078156,-6365.771101,1149.143247,1258.350101
1227.078467,-5921.647536,306.438199,888.247130
1227.078778,-6587.832884,229.828649,-74.020594
1227.079090,-6809.894666,76.609550,-0.000000
1227.079401,-7772.162391,0.000000,-518.144159
1227.079713,-8808.450710,0.000000,-888.247130
1227.080024,-10214.842000,-612.876398,-962.267725
1227.080335,-10658.965565,-995.924147,-148.041188
1227.080647,-11177.109724,-306.438199,740.205942
1227.080958,-11547.212695,-383.047749,1332.370696
1227.081270,-11029.068536,-612.876398,1406.391290
1227.081581,-9770.718434,-306.438199,1554.432478
1227.081892,-7994.224174,0.000000,1480.411884
1227.082204,-6883.915261,536.266849,1480.411884
1227.082515,-6439.791695,306.438199,962.267725
1227.082826,-7328.038826,536.266849,1036.288319
1227.083138,-9178.553681,306.438199,370.102971
1227.083449,-9474.636058,1149.143247,592.164754
1227.083761,-9474.636058,842.705048,222.061783
1227.084072,-9548.656652,-536.266849,-370.102971
1227.084383,-10066.800811,-1378.971896,-222.061783
1227.084695,-10066.800811,-1378.971896,-444.123565
1227.085006,-9696.697840,-919.314598,-0.000000
1227.085318,-10066.800811,-689.485948,518.144159
1227.085629,-9992.780217,0.000000,1036.288319
1227.085940,-9252.574275,-1149.143247,1258.350101
1227.086252,-8142.265362,-536.266849,1406.391290
1227.086563,-6809.894666,-229.828649,1998.556043
1227.086875,-6365.771101,0.000000,1998.556043
1227.087186,-6661.853478,0.000000,1036.288319
1227.087497,-6439.791695,-306.438199,444.123565
1227.087809,-7402.059420,0.000000,-444.123565
1227.088120,-8586.388927,383.047749,-962.267725
1227.088432,-9030.512492,919.314598,-1702.473667
1227.088743,-10066.800811,306.438199,-1258.350101
1227.089054,-10732.986159,-459.657299,-518.144159
1227.089366,-10881.027347,-995.924147,222.061783
1227.089677,-11029.068536,-612.876398,814.226536
1227.089988,-10066.800811,-995.924147,1036.288319
1227.090300,-9844.739029,-459.657299,814.226536
1227.090611,-9326.594869,-153.219100,1110.308913
1227.090923,-8586.388927,842.705048,740.205942
1227.091234,-7402.059420,1225.752797,1628.453072
1227.091545,-7920.203579,689.485948,1258.350101
1227.091857,-8734.430116,459.657299,740.205942
1227.092168,-8882.471304,1149.143247,-222.061783
1227.092480,-9030.512492,995.924147,-888.247130
1227.092791,-8956.491898,536.266849,-1036.288319
1227.093102,-9400.615463,-689.485948,-1110.308913
1227.093414,-10140.821405,-842.705048,-370.102971
1227.093725,-10436.903782,-995.924147,296.082377
1227.094037,-10288.862594,-919.314598,1110.308913
1227.094348,-10140.821405,-995.924147,1776.494261
1227.094659,-9696.697840,-153.219100,2146.597232
1227.094971,-8364.327145,-306.438199,2442.679609
1227.095282,-6809.894666,306.438199,2368.659014
1227.095594,-5773.606348,995.924147,1924.535449
1227.095905,-6069.688724,1149.143247,1036.288319
1227.096216,-6661.853478,612.876398,148.041188
1227.096528,-6883.915261,919.314598,-814.226536
1227.096839,-7624.121203,1225.752797,-1258.350101
1227.097150,-8438.347739,766.095498,-1850.514855
1227.097462,-9474.636058,0.000000,-740.205942
1227.097773,-10436.903782,-842.705048,-74.020594
1227.098085,-11029.068536,-1991.848295,1110.308913
1227.098396,-11547.212695,-842.705048,1406.391290
1227.098707,-11177.109724,-459.657299,1554.432478
1227.099019,-10436.903782,-229.828649,1850.514855
1227.099330,-8734.430116,153.219100,1776.494261
1227.099642,-7402.059420,689.485948,1258.350101
1227.099953,-6365.771101,612.876398,1406.391290
1227.100264,-7105.977043,306.438199,444.123565
1227.100576,-7846.182985,0.000000,-74.020594
1227.100887,-8734.430116,76.609550,-222.061783
1227.101199,-9474.636058,0.000000,-444.123565
1227.101510,-10362.883188,-842.705048,-296.082377
1227.101821,-10881.027347,-1608.800546,-370.102971
1227.102133,-10362.883188,-2451.505594,-222.061783
1227.102444,-10362.883188,-1378.971896,-0.000000
1227.102756,-9844.739029,-1225.752797,740.205942
1227.103067,-9474.636058,-1378.971896,962.267725
1227.103378,-8660.409521,-842.705048,1332.370696
1227.103690,-7179.997637,-153.219100,1406.391290
1227.104001,-6439.791695,0.000000,1110.308913
1227.104312,-6513.812290,0.000000,1332.370696
1227.104624,-6809.894666,0.000000,148.041188
1227.104935,-7920.203579,-383.047749,-592.164754
1227.105247,-8586.388927,229.828649,-518.144159
1227.105558,-9252.574275,0.000000,-814.226536
1227.105869,-9474.636058,306.438199,-1110.308913
1227.106181,-10140.821405,-459.657299,-814.226536
1227.106492,-11177.109724,-995.924147,-370.102971
1227.106804,-11103.089130,-1302.362347,518.144159
1227.107115,-11029.068536,153.219100,148.041188
1227.107426,-10881.027347,842.705048,518.144159
1227.107738,-9400.615463,76.609550,740.205942
1227.108049,-8142.265362,919.314598,1406.391290
1227.108361,-7105.977043,612.876398,1480.411884
1227.108672,-6957.935855,766.095498,1258.350101
1227.108983,-7994.224174,612.876398,740.205942
1227.109295,-8956.491898,842.705048,148.041188
1227.109606,-9474.636058,1378.971896,-0.000000
1227.109918,-9104.533087,1225.752797,-740.205942
1227.110229,-9030.512492,842.705048,-518.144159
1227.110540,-9474.636058,-306.438199,-444.123565
1227.110852,-9696.697840,-842.705048,-74.020594
1227.111163,-9474.636058,-842.705048,814.226536
1227.111474,-8956.491898,-689.485948,1480.411884
1227.111786,-8586.388927,-612.876398,1850.514855
1227.112097,-8586.388927,76.609550,1850.514855
1227.112409,-7179.997637,459.657299,1998.556043
1227.112720,-7105.977043,995.924147,1406.391290
1227.113031,-6883.915261,1302.362347,1850.514855
1227.113343,-7698.141797,1532.190996,592.164754
1227.113654,-7920.203579,1302.362347,-0.000000
1227.113966,-7550.100608,1072.533697,-222.061783
1227.114277,-7772.162391,995.924147,-814.226536
1227.114588,-8290.306550,919.314598,-814.226536
1227.114900,-9104.533087,229.828649,-666.185348
1227.115211,-9696.697840,-383.047749,-0.000000
1227.115523,-9992.780217,-229.828649,962.267725
1227.115834,-10955.047942,-383.047749,1258.350101
1227.116145,-10881.027347,-612.876398,1776.494261
1227.116457,-9992.780217,-306.438199,2146.597232
1227.116768,-8364.327145,-306.438199,1776.494261
1227.117080,-7698.141797,766.095498,1850.514855
1227.117391,-7624.121203,-459.657299,1554.432478
1227.117702,-8512.368333,-383.047749,1036.288319
1227.118014,-9178.553681,-153.219100,370.102971
1227.118325,-9326.594869,306.438199,-370.102971
1227.118636,-9622.677246,612.876398,-814.226536
1227.118948,-9252.574275,-995.924147,-1184.329507
1227.119259,-9548.656652,-1072.533697,-370.102971
1227.119571,-9918.759623,-1991.848295,-0.000000
1227.119882,-9696.697840,-766.095498,518.144159
1227.120193,-10510.924376,-1378.971896,1332.370696
1227.120505,-9770.718434,-1072.533697,1406.391290
1227.120816,-8882.471304,-459.657299,1480.411884
1227.121128,-7624.121203,0.000000,1036.288319
1227.121439,-6217.729913,-229.828649,1332.370696
1227.121750,-6513.812290,306.438199,296.082377
1227.122062,-7105.977043,76.609550,-296.082377
1227.122373,-7031.956449,-766.095498,-592.164754
1227.122685,-8364.327145,-842.705048,-962.267725
1227.122996,-9400.615463,0.000000,-1110.308913
1227.123307,-9474.636058,459.657299,-1184.329507
1227.123619,-10214.842000,-229.828649,-1110.308913
1227.123930,-11029.068536,-612.876398,-518.144159
1227.124242,-11547.212695,76.609550,222.061783
1227.124553,-11325.150913,0.000000,666.185348
1227.124864,-9844.739029,306.438199,1110.308913
1227.125176,-9030.512492,229.828649,1258.350101
1227.125487,-7772.162391,153.219100,1406.391290
1227.125798,-7179.997637,766.095498,1332.370696
1227.126110,-6957.935855,1072.533697,1258.350101
1227.126421,-7550.100608,1225.752797,740.205942
1227.126733,-8660.409521,995.924147,444.123565
1227.127044,-9030.512492,1225.752797,-74.020594
1227.127355,-9400.615463,229.828649,-444.123565
1227.127667,-9770.718434,0.000000,-370.102971
1227.127978,-10288.862594,-153.219100,222.061783
1227.128290,-10140.821405,-1225.752797,962.267725
1227.128601,-9844.739029,-1991.848295,2072.576638
1227.128912,-9918.759623,-2068.457845,2590.720797
1227.129224,-9400.615463,-1225.752797,2294.638420
1227.129535,-7920.203579,153.219100,2220.617826
1227.129847,-7254.018232,536.266849,2146.597232
1227.130158,-5847.626942,1762.019645,1924.535449
1227.130469,-5699.585753,1149.143247,1332.370696
1227.130781,-6291.750507,229.828649,592.164754
1227.131092,-6661.853478,842.705048,370.102971
1227.131404,-7624.121203,1302.362347,-296.082377
1227.131715,-8290.306550,1608.800546,-814.226536
1227.132026,-9030.512492,459.657299,-962.267725
1227.132338,-10288.862594,-383.047749,-444.123565
1227.132649,-10510.924376,-842.705048,222.061783
1227.132960,-10732.986159,-536.266849,888.247130
1227.133272,-11325.150913,-383.047749,1258.350101
1227.133583,-10436.903782,-995.924147,1628.453072
1227.133895,-9104.533087,-612.876398,2072.576638
1227.134206,-7846.182985,0.000000,1628.453072
1227.134517,-7772.162391,76.609550,1406.391290
1227.134829,-7994.224174,612.876398,1184.329507
1227.135140,-8882.471304,689.485948,370.102971
1227.135452,-9326.594869,1072.533697,-0.000000
1227.135763,-9770.718434,1072.533697,-518.144159
1227.136074,-9622.677246,459.657299,-518.144159
1227.136386,-9770.718434,-383.047749,-444.123565
1227.136697,-9622.677246,-1532.190996,-370.102971
1227.137009,-9770.718434,-1302.362347,-592.164754
1227.137320,-9474.636058,-919.314598,370.102971
1227.137631,-9400.615463,-1608.800546,1110.308913
1227.137943,-9326.594869,-1915.238745,888.247130
1227.138254,-8586.388927,-689.485948,1184.329507
1227.138566,-7402.059420,153.219100,1110.308913
1227.138877,-7031.956449,229.828649,1110.308913
1227.139188,-7031.956449,383.047749,740.205942
1227.139500,-7476.080014,-153.219100,444.123565
1227.139811,-7846.182985,-383.047749,-296.082377
1227.140122,-8808.450710,383.047749,-370.102971
1227.140434,-9178.553681,1072.533697,-1036.288319
1227.140745,-9548.656652,919.314598,-1702.473667
1227.141057,-9474.636058,-229.828649,-1036.288319
1227.141368,-9622.677246,-536.266849,-148.041188
1227.141679,-9992.780217,-306.438199,592.164754
1227.141991,-10140.821405,-459.657299,1036.288319
1227.142302,-10066.800811,-536.266849,1332.370696
1227.142614,-9104.533087,-766.095498,1480.411884
1227.142925,-8290.306550,0.000000,1332.370696
1227.143236,-7698.141797,-153.219100,888.247130
1227.143548,-7772.162391,0.000000,814.226536
1227.143859,-8808.450710,0.000000,222.061783
1227.144171,-9178.553681,306.438199,296.082377
1227.144482,-9252.574275,76.609550,-74.020594
1227.144793,-9548.656652,0.000000,-148.041188
1227.145105,-9918.759623,-689.485948,-74.020594
1227.145416,-10066.800811,-1072.533697,-222.061783
1227.145728,-9622.677246,-842.705048,-74.020594
1227.146039,-9030.512492,-842.705048,592.164754
1227.146350,-9696.697840,-1225.752797,888.247130
1227.146662,-9252.574275,-995.924147,1406.391290
1227.146973,-8734.430116,-995.924147,1850.514855
1227.147284,-7846.182985,-383.047749,2368.659014
1227.147596,-7328.038826,919.314598,2146.597232
1227.147907,-6883.915261,1149.143247,1554.432478
1227.148219,-7550.100608,766.095498,296.082377
1227.148530,-6661.853478,1225.752797,444.123565
1227.148841,-6809.894666,1608.800546,-1110.308913
1227.149153,-7550.100608,1302.362347,-1258.350101
1227.149464,-8586.388927,612.876398,-1406.391290
1227.149776,-9844.739029,0.000000,-888.247130
1227.150087,-10362.883188,-612.876398,-0.000000
1227.150398,-10658.965565,-306.438199,962.267725
1227.150710,-11251.130318,-919.314598,1406.391290
1227.151021,-10658.965565,-1225.752797,2146.597232
1227.151333,-9326.594869,-842.705048,1998.556043
1227.151644,-8438.347739,306.438199,1702.473667
1227.151955,-7698.141797,689.485948,1702.473667
1227.152267,-7772.162391,766.095498,1110.308913
1227.152578,-8438.347739,229.828649,666.185348
1227.152889,-8438.347739,153.219100,-0.000000
1227.153201,-8808.450710,1455.581446,-296.082377
1227.153512,-9326.594869,383.047749,-1258.350101
1227.153824,-9474.636058,0.000000,-1110.308913
1227.154135,-9918.759623,-995.924147,-444.123565
1227.154446,-10066.800811,-1072.533697,-0.000000
1227.154758,-9992.780217,-383.047749,962.267725
1227.155069,-10214.842000,-919.314598,1184.329507
1227.155381,-9622.677246,-689.485948,1776.494261
1227.155692,-8586.388927,-612.876398,2072.576638
1227.156003,-7846.182985,229.828649,2072.576638
1227.156315,-6735.874072,766.095498,1924.535449
1227.156626,-6809.894666,766.095498,962.267725
1227.156938,-6513.812290,383.047749,148.041188
1227.157249,-6661.853478,153.219100,-888.247130
1227.157560,-7624.121203,76.609550,-1258.350101
1227.157872,-8808.450710,919.314598,-1406.391290
1227.158183,-9844.739029,1149.143247,-666.185348
1227.158495,-10732.986159,-612.876398,-444.123565
1227.158806,-11473.192101,-1225.752797,740.205942
1227.159117,-11695.253884,-766.095498,1480.411884
1227.159429,-11251.130318,-612.876398,1258.350101
1227.159740,-10140.821405,-153.219100,1554.432478
1227.160051,-8290.306550,536.266849,1036.288319
1227.160363,-6883.915261,766.095498,888.247130
1227.160674,-6365.771101,1225.752797,814.226536
1227.160986,-7254.018232,383.047749,888.247130
1227.161297,-8586.388927,383.047749,518.144159
1227.161608,-9474.636058,536.266849,148.041188
1227.161920,-9918.759623,76.609550,148.041188
1227.162231,-9918.759623,0.000000,-296.082377
1227.162543,-10140.821405,-995.924147,-296.082377
1227.162854,-9992.780217,-1149.143247,-0.000000
1227.163165,-9918.759623,-1378.971896,148.041188
1227.163477,-9474.636058,-1302.362347,962.267725
1227.163788,-9474.636058,-1225.752797,1332.370696
1227.164100,-9030.512492,-1072.533697,1480.411884
1227.164411,-7846.182985,-229.828649,1480.411884
1227.164722,-6809.894666,842.705048,1480.411884
1227.165034,-5847.626942,1991.848295,1480.411884
1227.165345,-6069.688724,995.924147,814.226536
1227.165657,-6809.894666,306.438199,370.102971
1227.165968,-7402.059420,689.485948,-296.082377
1227.166279,-7920.203579,1225.752797,-592.164754
1227.166591,-8882.471304,1225.752797,-1036.288319
1227.166902,-9548.656652,229.828649,-1110.308913
1227.167213,-10214.842000,-689.485948,-444.123565
1227.167525,-10362.883188,-995.924147,-0.000000
1227.167836,-10955.047942,-842.705048,888.247130
1227.168148,-10955.047942,-842.705048,1480.411884
1227.168459,-10436.903782,-459.657299,1776.494261
1227.168770,-9326.594869,-842.705048,1924.535449
1227.169082,-7846.182985,0.000000,1628.453072
1227.169393,-7698.141797,536.266849,1332.370696
1227.169705,-7846.182985,383.047749,1036.288319
1227.170016,-8808.450710,153.219100,962.267725
1227.170327,-9474.636058,1072.533697,148.041188
1227.170639,-9326.594869,689.485948,-444.123565
1227.170950,-9474.636058,153.219100,-666.185348
1227.171262,-9474.636058,-766.095498,-370.102971
1227.171573,-9474.636058,-1225.752797,-296.082377
1227.171884,-9252.574275,-919.314598,-0.000000
1227.172196,-8956.491898,-919.314598,592.164754
1227.172507,-9400.615463,-766.095498,1258.350101
1227.172819,-9474.636058,-1149.143247,1036.288319
1227.173130,-8660.409521,-153.219100,1332.370696
1227.173441,-7698.141797,0.000000,2146.597232
1227.173753,-7105.977043,459.657299,1850.514855
1227.174064,-7105.977043,459.657299,1480.411884
1227.174375,-7476.080014,-153.219100,666.185348
1227.174687,-7624.121203,-536.266849,-0.000000
1227.174998,-8142.265362,766.095498,-740.205942
1227.175310,-8734.430116,1225.752797,-1406.391290
1227.175621,-8956.491898,459.657299,-1554.432478
1227.175932,-9622.677246,-383.047749,-370.102971
1227.176244,-10066.800811,-1225.752797,518.144159
1227.176555,-10510.924376,-1225.752797,1184.329507
1227.176867,-10732.986159,-995.924147,1628.453072
1227.177178,-9918.759623,0.000000,1850.514855
1227.177489,-8956.491898,306.438199,1406.391290
1227.177801,-7254.018232,0.000000,1332.370696
1227.178112,-7031.956449,229.828649,1184.329507
1227.178424,-7624.121203,459.657299,814.226536
1227.178735,-8586.388927,383.047749,592.164754
1227.179046,-9104.533087,612.876398,-0.000000
1227.179358,-9622.677246,459.657299,-74.020594
1227.179669,-9474.636058,0.000000,-518.144159
1227.179981,-10214.842000,0.000000,-1184.329507
1227.180292,-9844.739029,-459.657299,-444.123565
1227.180603,-9844.739029,-612.876398,-518.144159
1227.180915,-10362.883188,-459.657299,592.164754
1227.181226,-10288.862594,-842.705048,1480.411884
1227.181537,-9918.759623,-995.924147,1776.494261
1227.181849,-8586.388927,-306.438199,2146.597232
1227.182160,-7328.038826,229.828649,1998.556043
1227.182472,-6217.729913,766.095498,1776.494261
1227.182783,-5847.626942,766.095498,740.205942
1227.183094,-6661.853478,689.485948,-0.000000
1227.183406,-6735.874072,459.657299,-296.082377
1227.183717,-7920.203579,842.705048,-888.247130
1227.184029,-8808.450710,919.314598,-1480.411884
1227.184340,-9326.594869,76.609550,-1554.432478
1227.184651,-10288.862594,-842.705048,-1110.308913
1227.184963,-10584.944971,-766.095498,222.061783
1227.185274,-11029.068536,-1302.362347,1332.370696
1227.185586,-11029.068536,-1455.581446,1776.494261
1227.185897,-10436.903782,-1378.971896,2294.638420
1227.186208,-9326.594869,-766.095498,2294.638420
1227.186520,-7994.224174,0.000000,1258.350101
1227.186831,-6661.853478,766.095498,1184.329507
1227.187143,-7031.956449,612.876398,740.205942
1227.187454,-7698.141797,-229.828649,296.082377
1227.187765,-8290.306550,766.095498,-222.061783
1227.188077,-9178.553681,689.485948,-370.102971
1227.188388,-9770.718434,76.609550,-666.185348
1227.188699,-10214.842000,-1225.752797,-592.164754
1227.189011,-10140.821405,-1608.800546,-222.061783
1227.189322,-9622.677246,-919.314598,370.102971
1227.189634,-9622.677246,-1378.971896,814.226536
1227.189945,-9400.615463,-1225.752797,1184.329507
1227.190256,-9992.780217,-1149.143247,1332.370696
1227.190568,-8956.491898,-612.876398,1924.535449
1227.190879,-7772.162391,-153.219100,1776.494261
1227.191191,-7328.038826,612.876398,1258.350101
1227.191502,-7402.059420,1072.533697,592.164754
1227.191813,-7105.977043,1225.752797,-148.041188
1227.192125,-7328.038826,153.219100,-740.205942
1227.192436,-7846.182985,0.000000,-814.226536
1227.192748,-8956.491898,612.876398,-962.267725
1227.193059,-10066.800811,229.828649,-592.164754
1227.193370,-11029.068536,-536.266849,-222.061783
1227.193682,-11103.089130,-459.657299,518.144159
1227.193993,-11029.068536,0.000000,1110.308913
1227.194305,-9918.759623,-306.438199,888.247130
1227.194616,-9326.594869,-153.219100,1036.288319
1227.194927,-8290.306550,306.438199,1332.370696
1227.195239,-7179.997637,1149.143247,1110.308913
1227.195550,-6883.915261,766.095498,1332.370696
1227.195861,-7624.121203,306.438199,888.247130
1227.196173,-8364.327145,76.609550,814.226536
1227.196484,-8956.491898,229.828649,296.082377
1227.196796,-9548.656652,689.485948,222.061783
1227.197107,-10288.862594,919.314598,-148.041188
1227.197418,-9918.759623,-383.047749,-296.082377
1227.197730,-9918.759623,-612.876398,222.061783
1227.198041,-9252.574275,-689.485948,666.185348
1227.198353,-9104.533087,-689.485948,1184.329507
1227.198664,-9030.512492,-383.047749,1480.411884
1227.198976,-8512.368333,229.828649,1554.432478
1227.199287,-7772.162391,1149.143247,1776.494261
1227.199599,-6809.894666,1072.533697,1924.535449
1227.199910,-6217.729913,1149.143247,1998.556043
1227.200222,-6661.853478,919.314598,666.185348
1227.200533,-6957.935855,689.485948,-222.061783
1227.200845,-7105.977043,1225.752797,-666.185348
1227.201156,-8068.244768,995.924147,-1184.329507
1227.201468,-8660.409521,383.047749,-1332.370696
1227.201779,-10288.862594,-612.876398,-1184.329507
1227.202091,-10732.986159,-1149.143247,222.061783
1227.202402,-11325.150913,-1225.752797,592.164754
1227.202714,-11103.089130,-919.314598,1036.288319
1227.203025,-10807.006753,-1455.581446,1110.308913
1227.203337,-9992.780217,-1378.971896,1776.494261
1227.203648,-8808.450710,-919.314598,1258.350101
1227.203960,-8068.244768,0.000000,888.247130
1227.204271,-7846.182985,995.924147,740.205942
1227.204583,-8660.409521,0.000000,518.144159
1227.204894,-9104.533087,306.438199,-0.000000
1227.205206,-9474.636058,995.924147,-222.061783
1227.205517,-9030.512492,689.485948,-444.123565
1227.205829,-9326.594869,153.219100,-962.267725
1227.206140,-9030.512492,-995.924147,-814.226536
1227.206452,-9474.636058,-1532.190996,-444.123565
1227.206763,-9474.636058,-383.047749,-0.000000
1227.207075,-9696.697840,-1302.362347,518.144159
1227.207386,-9770.718434,-1225.752797,1184.329507
1227.207698,-9474.636058,-766.095498,1036.288319
1227.208009,-8660.409521,-229.828649,1258.350101
1227.208321,-7772.162391,76.609550,1406.391290
1227.208632,-7105.977043,536.266849,1258.350101
1227.208944,-6883.915261,383.047749,1036.288319
1227.209255,-7328.038826,-153.219100,148.041188
1227.209567,-7698.141797,-612.876398,-518.144159
1227.209878,-8808.450710,0.000000,-666.185348
1227.210190,-9030.512492,459.657299,-888.247130
1227.210501,-9548.656652,0.000000,-666.185348
1227.210813,-10140.821405,-1378.971896,-0.000000
1227.211124,-10436.903782,-995.924147,740.205942
1227.211436,-11029.068536,-689.485948,1110.308913
1227.211747,-10288.862594,-689.485948,1554.432478
1227.212059,-9844.739029,0.000000,1554.432478
1227.212370,-8512.368333,459.657299,1628.453072
1227.212682,-6883.915261,766.095498,1110.308913
1227.212993,-7179.997637,842.705048,1184.329507
1227.213305,-7698.141797,842.705048,814.226536
1227.213616,-9178.553681,612.876398,222.061783
1227.213928,-9252.574275,1685.410096,518.144159
1227.214239,-9474.636058,689.485948,-148.041188
1227.214551,-9622.677246,-229.828649,-222.061783
1227.214862,-10288.862594,-689.485948,-0.000000
1227.215174,-10140.821405,-766.095498,370.102971
1227.215485,-9918.759623,-612.876398,888.247130
1227.215797,-9326.594869,0.000000,962.267725
1227.216108,-8956.491898,153.219100,1332.370696
1227.216420,-8512.368333,0.000000,1406.391290
1227.216731,-7550.100608,306.438199,1702.473667
1227.217043,-7179.997637,1302.362347,1554.432478
1227.217354,-6439.791695,1302.362347,1480.411884
1227.217666,-6809.894666,689.485948,444.123565
1227.217977,-7476.080014,153.219100,-0.000000
1227.218289,-7846.182985,0.000000,-592.164754
1227.218600,-8438.347739,229.828649,-814.226536
1227.218912,-9252.574275,-383.047749,-1184.329507
1227.219223,-9622.677246,-229.828649,-592.164754
1227.219535,-10214.842000,-1225.752797,148.041188
1227.219846,-10288.862594,-1685.410096,888.247130
1227.220158,-10584.944971,-1302.362347,1258.350101
1227.220469,-10214.842000,-229.828649,962.267725
1227.220781,-9548.656652,229.828649,1036.288319
1227.221092,-8142.265362,306.438199,1850.514855
1227.221404,-7624.121203,-153.219100,1110.308913
1227.221715,-7402.059420,-383.047749,888.247130
1227.222027,-8734.430116,-612.876398,666.185348
1227.222338,-9326.594869,-153.219100,592.164754
1227.222650,-9474.636058,229.828649,-0.000000
1227.222961,-9696.697840,0.000000,-444.123565
1227.223273,-9400.615463,-919.314598,-296.082377
1227.223584,-9252.574275,-2068.457845,-370.102971
1227.223895,-9696.697840,-1762.019645,-518.144159
1227.224207,-9326.594869,-919.314598,518.144159
1227.224518,-9622.677246,-995.924147,814.226536
1227.224830,-9696.697840,-1532.190996,1184.329507
1227.225141,-9030.512492,-1225.752797,1332.370696
1227.225453,-8068.244768,-383.047749,1554.432478
1227.225764,-7402.059420,76.609550,1702.473667
1227.226076,-7328.038826,383.047749,1776.494261
1227.226387,-7476.080014,76.609550,888.247130
1227.226699,-7994.224174,-842.705048,518.144159
1227.227010,-8216.285956,-153.219100,-0.000000
1227.227322,-8808.450710,536.266849,-888.247130
1227.227633,-8882.471304,689.485948,-1258.350101
1227.227945,-9474.636058,-153.219100,-814.226536
1227.228256,-9696.697840,-1608.800546,-0.000000
1227.228568,-10881.027347,-1685.410096,888.247130
1227.228879,-11103.089130,-1455.581446,1258.350101
1227.229191,-10732.986159,-1072.533697,2072.576638
1227.229502,-10066.800811,-612.876398,2146.597232
1227.229814,-8734.430116,229.828649,2294.638420
1227.230125,-7031.956449,383.047749,1554.432478
1227.230437,-7105.977043,383.047749,740.205942
1227.230748,-7624.121203,995.924147,148.041188
1227.231060,-8068.244768,1915.238745,-370.102971
1227.231371,-8364.327145,2145.067394,-444.123565
1227.231683,-9030.512492,1762.019645,-444.123565
1227.231994,-9474.636058,1532.190996,-666.185348
1227.232306,-9992.780217,612.876398,-370.102971
1227.232617,-9622.677246,-383.047749,-0.000000
1227.232929,-9104.533087,-306.438199,666.185348
1227.233240,-9178.553681,76.609550,1036.288319
1227.233552,-9104.533087,229.828649,1628.453072
1227.233863,-8734.430116,-842.705048,1702.473667
1227.234175,-7550.100608,153.219100,1850.514855
1227.234486,-7328.038826,1225.752797,1480.411884
1227.234798,-7402.059420,1378.971896,962.267725
1227.235109,-8068.244768,612.876398,-148.041188
1227.235421,-7624.121203,612.876398,-222.061783
1227.235732,-7254.018232,612.876398,-1184.329507
1227.236044,-8142.265362,612.876398,-1184.329507
1227.236355,-8956.491898,0.000000,-1332.370696
1227.236667,-9844.739029,-842.705048,-1258.350101
1227.236978,-10140.821405,-1455.581446,-0.000000
1227.237290,-10288.862594,-919.314598,592.164754
1227.237601,-10658.965565,0.000000,1184.329507
1227.237913,-10510.924376,-995.924147,1258.350101
1227.238224,-9696.697840,0.000000,1110.308913
1227.238536,-8364.327145,306.438199,1036.288319
1227.238847,-7328.038826,766.095498,666.185348
1227.239159,-6957.935855,536.266849,296.082377
1227.239470,-8290.306550,-153.219100,148.041188
1227.239782,-9030.512492,-612.876398,-0.000000
1227.240093,-9548.656652,0.000000,-296.082377
1227.240405,-9918.759623,-459.657299,-518.144159
1227.240716,-10510.924376,-1608.800546,-74.020594
1227.241028,-10807.006753,-1608.800546,296.082377
1227.241339,-10510.924376,-2145.067394,-0.000000
1227.241651,-10214.842000,-1608.800546,814.226536
1227.241962,-9844.739029,-1225.752797,1258.350101
1227.242274,-9474.636058,-1302.362347,1184.329507
1227.242585,-8882.471304,-842.705048,1184.329507
1227.242897,-7476.080014,0.000000,2072.576638
1227.243208,-7105.977043,0.000000,1332.370696
1227.243520,-6735.874072,1149.143247,962.267725
1227.243831,-7328.038826,1149.143247,444.123565
1227.244143,-7550.100608,459.657299,-74.020594
1227.244454,-8364.327145,153.219100,-444.123565
1227.244766,-9326.594869,1072.533697,-1184.329507
1227.245077,-9252.574275,842.705048,-1036.288319
1227.245389,-9696.697840,-153.219100,-222.061783
1227.245700,-10362.883188,-919.314598,592.164754
1227.246012,-10436.903782,-1225.752797,1554.432478
1227.246323,-10214.842000,-1072.533697,2072.576638
1227.246635,-9474.636058,-306.438199,2368.659014
1227.246946,-8808.450710,-229.828649,2368.659014
1227.247258,-7624.121203,459.657299,1628.453072
1227.247569,-7031.956449,1225.752797,1258.350101
1227.247881,-7105.977043,1608.800546,1184.329507
1227.248192,-7402.059420,1608.800546,888.247130
1227.248504,-8216.285956,1762.019645,296.082377
1227.248815,-8882.471304,1532.190996,222.061783
1227.249127,-9474.636058,995.924147,-0.000000
1227.249438,-9844.739029,689.485948,-0.000000
1227.249750,-9844.739029,-229.828649,-74.020594
1227.250061,-9030.512492,-459.657299,666.185348
1227.250373,-8956.491898,153.219100,592.164754
1227.250684,-8956.491898,0.000000,666.185348
1227.250996,-8808.450710,-459.657299,1332.370696
1227.251307,-8216.285956,-612.876398,1924.535449
1227.251619,-7328.038826,-536.266849,2294.638420
1227.251930,-7328.038826,-612.876398,1850.514855
1227.252242,-7105.977043,76.609550,1258.350101
1227.252553,-7476.080014,306.438199,148.041188
1227.252865,-7698.141797,153.219100,-740.205942
1227.253176,-7772.162391,306.438199,-814.226536
1227.253488,-8586.388927,0.000000,-1332.370696
1227.253799,-9770.718434,-229.828649,-1184.329507
1227.254111,-10658.965565,-842.705048,-444.123565
1227.254422,-10881.027347,-1302.362347,444.123565
1227.254734,-11103.089130,-1532.190996,962.267725
1227.255045,-10214.842000,-1072.533697,962.267725
1227.255357,-9622.677246,-612.876398,1036.288319
1227.255668,-9252.574275,-842.705048,962.267725
1227.255980,-8142.265362,0.000000,962.267725
1227.256291,-7994.224174,689.485948,666.185348
1227.256603,-8808.450710,536.266849,518.144159
1227.256914,-9622.677246,153.219100,592.164754
1227.257226,-9474.636058,459.657299,74.020594
1227.257537,-9474.636058,536.266849,-296.082377
1227.257849,-9474.636058,153.219100,-814.226536
1227.258160,-10214.842000,-612.876398,-666.185348
1227.258472,-10436.903782,-1225.752797,-666.185348
1227.258783,-10140.821405,-919.314598,-222.061783
1227.259095,-9770.718434,-459.657299,666.185348
1227.259406,-9474.636058,-995.924147,1184.329507
1227.259718,-9844.739029,-1149.143247,1110.308913
1227.260029,-8438.347739,-1455.581446,1998.556043
1227.260341,-7994.224174,0.000000,1628.453072
1227.260652,-7624.121203,612.876398,1924.535449
1227.260964,-7402.059420,1072.533697,1406.391290
1227.261275,-7402.059420,383.047749,518.144159
1227.261587,-7254.018232,842.705048,-74.020594
1227.261898,-7402.059420,1378.971896,-740.205942
1227.262210,-7550.100608,1915.238745,-1184.329507
1227.262521,-7994.224174,1072.533697,-1258.350101
1227.262833,-8956.491898,-306.438199,-222.061783
1227.263144,-9918.759623,-1072.533697,444.123565
1227.263456,-10140.821405,-919.314598,1776.494261
1227.263767,-10214.842000,-689.485948,1998.556043
1227.264079,-9252.574275,-383.047749,2368.659014
1227.264390,-8956.491898,0.000000,2146.597232
1227.264702,-7328.038826,995.924147,1702.473667
1227.265013,-7179.997637,1225.752797,1258.350101
1227.265325,-7846.182985,1225.752797,962.267725
1227.265636,-8512.368333,1302.362347,592.164754
1227.265948,-8660.409521,1455.581446,-148.041188
1227.266259,-8512.368333,995.924147,-222.061783
1227.266571,-8364.327145,383.047749,-444.123565
1227.266882,-8956.491898,-459.657299,-296.082377
1227.267194,-9918.759623,-1455.581446,-148.041188
1227.267505,-9992.780217,-1455.581446,444.123565
1227.267817,-10066.800811,-1302.362347,1554.432478
1227.268128,-9696.697840,-1225.752797,2146.597232
1227.268440,-9696.697840,-1455.581446,2220.617826
1227.268751,-8956.491898,-1378.971896,2368.659014
1227.269063,-7179.997637,-459.657299,2220.617826
1227.269374,-7105.977043,0.000000,1036.288319
1227.269686,-6735.874072,612.876398,740.205942
1227.269997,-7624.121203,-306.438199,-370.102971
1227.270309,-7550.100608,-229.828649,-444.123565
1227.270620,-8142.265362,0.000000,-1036.288319
1227.270932,-9252.574275,153.219100,-888.247130
1227.271243,-10214.842000,0.000000,-962.267725
1227.271555,-10658.965565,-1149.143247,-222.061783
1227.271866,-10510.924376,-1302.362347,296.082377
1227.272178,-10288.862594,-1378.971896,592.164754
1227.272489,-9992.780217,-1072.533697,592.164754
1227.272801,-10066.800811,-459.657299,740.205942
1227.273112,-9326.594869,-153.219100,962.267725
1227.273424,-8586.388927,383.047749,962.267725
