#time,accel_x,accel_y,accel_z
1206.307555,-9030.512492,-153.219100,518.144159
1206.307866,-9104.533087,0.000000,444.123565
1206.308177,-8956.491898,-229.828649,444.123565
1206.308488,-8808.450710,0.000000,592.164754
1206.308800,-8808.450710,0.000000,296.082377
1206.309111,-8734.430116,76.609550,518.144159
1206.309422,-9104.533087,-306.438199,370.102971
1206.309733,-8660.409521,0.000000,222.061783
1206.310044,-9030.512492,0.000000,592.164754
1206.310355,-8956.491898,0.000000,592.164754
1206.310667,-8882.471304,0.000000,518.144159
1206.310978,-8956.491898,-306.438199,592.164754
1206.311289,-9474.636058,459.657299,592.164754
1206.311600,-8882.471304,0.000000,888.247130
1206.311911,-8882.471304,536.266849,666.185348
1206.312223,-8660.409521,0.000000,444.123565
1206.312534,-8586.388927,0.000000,518.144159
1206.312845,-8586.388927,0.000000,592.164754
1206.313156,-8808.450710,0.000000,370.102971
1206.313467,-8808.450710,153.219100,592.164754
1206.313778,-8882.471304,229.828649,518.144159
1206.314090,-9030.512492,0.000000,592.164754
1206.314401,-8882.471304,0.000000,666.185348
1206.314712,-8956.491898,0.000000,518.144159
1206.315023,-8882.471304,0.000000,518.144159
1206.315334,-8808.450710,-153.219100,592.164754
1206.315646,-8956.491898,0.000000,592.164754
1206.315957,-9030.512492,-76.609550,518.144159
1206.316268,-8808.450710,-306.438199,518.144159
1206.316579,-8956.491898,-766.095498,518.144159
1206.316890,-8882.471304,0.000000,-0.000000
1206.317202,-9030.512492,0.000000,740.205942
1206.317513,-8956.491898,-229.828649,518.144159
1206.317824,-8956.491898,0.000000,370.102971
1206.318135,-9030.512492,0.000000,518.144159
1206.318446,-9030.512492,-153.219100,296.082377
1206.318757,-8882.471304,306.438199,740.205942
1206.319069,-9104.533087,-229.828649,592.164754
1206.319380,-8882.471304,-229.828649,888.247130
1206.319691,-8808.450710,153.219100,592.164754
1206.320002,-8586.388927,0.000000,518.144159
1206.320313,-8808.450710,-153.219100,444.123565
1206.320625,-8956.491898,-459.657299,592.164754
1206.320936,-8882.471304,-306.438199,444.123565
1206.321247,-9252.574275,229.828649,-0.000000
1206.321558,-8882.471304,153.219100,518.144159
1206.321869,-9030.512492,0.000000,592.164754
1206.322180,-9178.553681,0.000000,592.164754
1206.322492,-8808.450710,-306.438199,444.123565
1206.322803,-9104.533087,-153.219100,370.102971
1206.323114,-9104.533087,229.828649,296.082377
1206.323425,-8808.450710,-459.657299,592.164754
1206.323736,-8438.347739,-306.438199,740.205942
1206.324048,-8734.430116,76.609550,-0.000000
1206.324359,-8808.450710,-306.438199,518.144159
1206.324670,-8882.471304,-153.219100,518.144159
1206.324981,-9030.512492,-229.828649,518.144159
1206.325292,-8956.491898,0.000000,592.164754
1206.325604,-9326.594869,-153.219100,444.123565
1206.325915,-8882.471304,76.609550,370.102971
1206.326226,-8882.471304,-229.828649,148.041188
1206.326537,-8956.491898,-459.657299,296.082377
1206.326848,-8882.471304,0.000000,518.144159
1206.327159,-8956.491898,-153.219100,518.144159
1206.327471,-9030.512492,0.000000,444.123565
1206.327782,-8882.471304,0.000000,592.164754
1206.328093,-8808.450710,306.438199,370.102971
1206.328404,-8734.430116,-306.438199,296.082377
1206.328715,-8734.430116,0.000000,444.123565
1206.329027,-8956.491898,76.609550,592.164754
1206.329338,-8882.471304,0.000000,666.185348
1206.329649,-8882.471304,-153.219100,592.164754
1206.329960,-8956.491898,-306.438199,592.164754
1206.330271,-9104.533087,383.047749,592.164754
1206.330582,-8734.430116,0.000000,666.185348
1206.330894,-8660.409521,0.000000,444.123565
1206.331205,-9030.512492,383.047749,518.144159
1206.331516,-8956.491898,-229.828649,222.061783
1206.331827,-8956.491898,0.000000,444.123565
1206.332138,-9030.512492,-76.609550,740.205942
1206.332450,-8956.491898,76.609550,666.185348
1206.332761,-9400.615463,0.000000,518.144159
1206.333072,-8956.491898,0.000000,444.123565
1206.333383,-8364.327145,0.000000,592.164754
1206.333694,-8882.471304,0.000000,370.102971
1206.334006,-10807.006753,536.266849,222.061783
1206.334317,-11695.253884,2374.896044,370.102971
1206.334628,-8956.491898,4749.792088,888.247130
1206.334939,-7846.182985,4060.306139,888.247130
1206.335250,-6809.894666,2145.067394,1850.514855
1206.335561,-6513.812290,-1072.533697,-0.000000
1206.335873,-7105.977043,-1225.752797,-518.144159
1206.336184,-6809.894666,0.000000,-0.000000
1206.336495,-11251.130318,-995.924147,-1332.370696
1206.336806,-12953.603985,-229.828649,-518.144159
1206.337117,-10584.944971,919.314598,518.144159
1206.337429,-9400.615463,-153.219100,1480.411884
1206.337740,-9252.574275,-766.095498,2812.782580
1206.338051,-11843.295072,536.266849,1036.288319
1206.338362,-8438.347739,4749.792088,2516.700203
1206.338673,-4737.318029,5132.839837,1628.453072
1206.338984,-7550.100608,3217.601092,1036.288319
1206.339296,-8364.327145,2221.676944,-370.102971
1206.339607,-7402.059420,3294.210641,-1924.535449
1206.339918,-8808.450710,3064.381992,-1480.411884
1206.340229,-8956.491898,3753.867940,-518.144159
1206.340540,-12065.356855,1991.848295,-1628.453072
1206.340852,-13989.892304,-919.314598,888.247130
1206.341163,-8808.450710,-1225.752797,3034.844362
1206.341474,-10362.883188,459.657299,888.247130
1206.341785,-8216.285956,5056.230287,2664.741391
1206.342096,-7772.162391,5898.935335,1702.473667
1206.342407,-8216.285956,2834.553343,2146.597232
1206.342719,-6069.688724,4136.915689,1702.473667
1206.343030,-7772.162391,7354.516781,296.082377
1206.343341,-8068.244768,7277.907231,-1036.288319
1206.343652,-10066.800811,5362.668486,-1480.411884
1206.343963,-10066.800811,4443.353888,-888.247130
1206.344275,-9474.636058,5439.278036,-1554.432478
1206.344586,-11103.089130,5056.230287,148.041188
1206.344897,-11251.130318,4213.525239,1258.350101
1206.345208,-10362.883188,4136.915689,1850.514855
1206.345519,-8586.388927,5439.278036,2664.741391
1206.345831,-6957.935855,4979.620737,2368.659014
1206.346142,-5625.565159,4596.572988,962.267725
1206.346453,-4885.359217,3983.696590,148.041188
1206.346764,-3997.112087,4366.744339,-296.082377
1206.347075,-5773.606348,2987.772442,-1480.411884
1206.347386,-8364.327145,2068.457845,-740.205942
1206.347698,-10288.862594,919.314598,-148.041188
1206.348009,-10881.027347,-459.657299,740.205942
1206.348320,-10362.883188,-2068.457845,1776.494261
1206.348631,-11103.089130,-2068.457845,1924.535449
1206.348942,-10955.047942,-1225.752797,2368.659014
1206.349254,-9474.636058,229.828649,2368.659014
1206.349565,-8290.306550,1455.581446,1776.494261
1206.349876,-6735.874072,2681.334243,444.123565
1206.350187,-7105.977043,2451.505594,-740.205942
1206.350498,-6809.894666,2451.505594,-814.226536
1206.350809,-6217.729913,1991.848295,-1184.329507
1206.351121,-7105.977043,0.000000,-1628.453072
1206.351432,-8586.388927,-2681.334243,-1036.288319
1206.351743,-9992.780217,-4136.915689,-148.041188
1206.352054,-11547.212695,-4673.182538,370.102971
1206.352365,-12361.439231,-4903.011187,1184.329507
1206.352677,-13471.748144,-4979.620737,666.185348
1206.352988,-12657.521608,-2987.772442,962.267725
1206.353299,-11473.192101,-1915.238745,-0.000000
1206.353610,-9030.512492,-1608.800546,444.123565
1206.353921,-7328.038826,-1225.752797,-0.000000
1206.354233,-7846.182985,-383.047749,444.123565
1206.354544,-7772.162391,1149.143247,222.061783
1206.354855,-9252.574275,1149.143247,-740.205942
1206.355166,-9844.739029,1302.362347,-0.000000
1206.355477,-10362.883188,306.438199,222.061783
1206.355788,-11473.192101,-766.095498,296.082377
1206.356100,-11991.336260,-1455.581446,1036.288319
1206.356411,-12435.459826,-1225.752797,1036.288319
1206.356722,-12139.377449,-536.266849,814.226536
1206.357033,-10362.883188,1149.143247,592.164754
1206.357344,-8142.265362,1532.190996,-518.144159
1206.357656,-5995.668130,1838.629195,-1110.308913
1206.357967,-4959.379811,1991.848295,-1850.514855
1206.358278,-4219.173869,2451.505594,-1110.308913
1206.358589,-4515.256246,1532.190996,222.061783
1206.358900,-7402.059420,153.219100,1998.556043
1206.359211,-9400.615463,-612.876398,2960.823768
1206.359523,-10732.986159,-459.657299,2886.803174
1206.359834,-10436.903782,0.000000,2738.761985
1206.360145,-10362.883188,0.000000,1554.432478
1206.360456,-9400.615463,1149.143247,666.185348
1206.360767,-8142.265362,1302.362347,-444.123565
1206.361079,-6883.915261,2145.067394,-444.123565
1206.361390,-5847.626942,2681.334243,-888.247130
1206.361701,-5847.626942,3064.381992,-592.164754
1206.362012,-6661.853478,2451.505594,-666.185348
1206.362323,-6291.750507,1149.143247,-0.000000
1206.362635,-6883.915261,689.485948,1184.329507
1206.362946,-7920.203579,0.000000,1702.473667
1206.363257,-9548.656652,-1378.971896,1998.556043
1206.363568,-10584.944971,-2145.067394,2294.638420
1206.363879,-10881.027347,-2451.505594,2368.659014
1206.364190,-9770.718434,-1532.190996,1776.494261
1206.364502,-9622.677246,-153.219100,1480.411884
1206.364813,-9474.636058,-383.047749,518.144159
1206.365124,-8364.327145,153.219100,-148.041188
1206.365435,-8438.347739,842.705048,-296.082377
1206.365746,-8290.306550,1149.143247,-814.226536
1206.366058,-8660.409521,459.657299,-592.164754
1206.366369,-9326.594869,-536.266849,-222.061783
1206.366680,-9548.656652,-1302.362347,592.164754
1206.366991,-10288.862594,-2221.676944,962.267725
1206.367302,-10436.903782,-2528.115143,1924.535449
1206.367613,-11103.089130,-3217.601092,2072.576638
1206.367925,-10658.965565,-2757.943793,1850.514855
1206.368236,-10362.883188,-2068.457845,1110.308913
1206.368547,-10214.842000,-1072.533697,-0.000000
1206.368858,-9252.574275,306.438199,-740.205942
1206.369169,-8438.347739,1991.848295,-1184.329507
1206.369481,-8364.327145,1378.971896,-1332.370696
1206.369792,-7920.203579,2068.457845,-1406.391290
1206.370103,-7994.224174,1991.848295,-888.247130
1206.370414,-7772.162391,536.266849,-0.000000
1206.370725,-8364.327145,-459.657299,592.164754
1206.371037,-9252.574275,-1072.533697,888.247130
1206.371348,-10066.800811,-1532.190996,666.185348
1206.371659,-10362.883188,-995.924147,666.185348
1206.371970,-10510.924376,-1149.143247,518.144159
1206.372281,-10214.842000,-536.266849,-0.000000
1206.372592,-10362.883188,0.000000,-296.082377
1206.372904,-9474.636058,842.705048,-74.020594
1206.373215,-8142.265362,1149.143247,-370.102971
1206.373526,-7476.080014,1302.362347,-370.102971
1206.373837,-6957.935855,1532.190996,-222.061783
1206.374148,-6069.688724,1685.410096,370.102971
1206.374460,-7254.018232,1532.190996,1036.288319
1206.374771,-8586.388927,2145.067394,1924.535449
1206.375082,-9400.615463,919.314598,1702.473667
1206.375393,-9696.697840,689.485948,1480.411884
1206.375704,-10362.883188,383.047749,1184.329507
1206.376015,-10288.862594,536.266849,518.144159
1206.376327,-9992.780217,689.485948,-222.061783
1206.376638,-8808.450710,76.609550,-592.164754
1206.376949,-8216.285956,-689.485948,-370.102971
1206.377260,-7328.038826,-919.314598,-74.020594
1206.377572,-7105.977043,-766.095498,296.082377
1206.377883,-6661.853478,-1302.362347,888.247130
1206.378194,-7254.018232,-1991.848295,1776.494261
1206.378506,-8290.306550,-2374.896044,2368.659014
1206.378817,-8364.327145,-1532.190996,2294.638420
1206.379128,-9178.553681,-995.924147,2516.700203
1206.379439,-10140.821405,229.828649,1776.494261
1206.379751,-10436.903782,612.876398,1702.473667
1206.380062,-10140.821405,536.266849,592.164754
1206.380373,-9622.677246,689.485948,-0.000000
1206.380685,-8438.347739,842.705048,-444.123565
1206.380996,-7846.182985,919.314598,-666.185348
1206.381307,-8068.244768,153.219100,-666.185348
1206.381618,-8142.265362,-2298.286494,-296.082377
1206.381930,-9178.553681,-1149.143247,296.082377
1206.382241,-10436.903782,-536.266849,888.247130
1206.382552,-10807.006753,-1302.362347,1332.370696
1206.382864,-11177.109724,-1685.410096,1554.432478
1206.383175,-10732.986159,-1225.752797,1776.494261
1206.383486,-10362.883188,-612.876398,1110.308913
1206.383797,-10214.842000,0.000000,370.102971
1206.384109,-9326.594869,1991.848295,370.102971
1206.384420,-8364.327145,1915.238745,-296.082377
1206.384731,-7624.121203,1225.752797,-148.041188
1206.385043,-7772.162391,536.266849,-370.102971
1206.385354,-8068.244768,612.876398,-222.061783
1206.385665,-8438.347739,995.924147,-0.000000
1206.385977,-9104.533087,76.609550,296.082377
1206.386288,-9918.759623,153.219100,888.247130
1206.386599,-9770.718434,229.828649,962.267725
1206.386910,-9548.656652,-229.828649,1332.370696
1206.387222,-9178.553681,0.000000,1110.308913
1206.387533,-8512.368333,0.000000,444.123565
1206.387844,-7772.162391,383.047749,-0.000000
1206.388156,-6587.832884,306.438199,-370.102971
1206.388467,-6217.729913,0.000000,-814.226536
1206.388778,-7105.977043,689.485948,-518.144159
1206.389089,-7920.203579,0.000000,-74.020594
1206.389401,-7772.162391,1225.752797,-0.000000
1206.389712,-8290.306550,1225.752797,814.226536
1206.390023,-8808.450710,689.485948,1480.411884
1206.390335,-8734.430116,0.000000,1628.453072
1206.390646,-8808.450710,-612.876398,592.164754
1206.390957,-9030.512492,0.000000,-74.020594
1206.391268,-8512.368333,-153.219100,-296.082377
1206.391580,-9474.636058,-689.485948,-740.205942
1206.391891,-9696.697840,-766.095498,-370.102971
1206.392202,-9844.739029,-1225.752797,-518.144159
1206.392514,-10436.903782,-1378.971896,370.102971
1206.392825,-10807.006753,-1149.143247,666.185348
1206.393136,-10436.903782,-1378.971896,518.144159
1206.393447,-9178.553681,-919.314598,962.267725
1206.393759,-9030.512492,-1378.971896,1258.350101
1206.394070,-9326.594869,-919.314598,1332.370696
1206.394381,-9548.656652,766.095498,1554.432478
1206.394693,-9844.739029,1225.752797,1554.432478
1206.395004,-9770.718434,1072.533697,1332.370696
1206.395315,-9622.677246,383.047749,740.205942
1206.395626,-9178.553681,536.266849,-0.000000
1206.395938,-9178.553681,0.000000,-296.082377
1206.396249,-9178.553681,229.828649,-74.020594
1206.396560,-9400.615463,-459.657299,-0.000000
1206.396872,-9622.677246,-842.705048,296.082377
1206.397183,-9178.553681,-1762.019645,962.267725
1206.397494,-8438.347739,-1915.238745,1406.391290
1206.397806,-7920.203579,-1378.971896,1628.453072
1206.398117,-7624.121203,-995.924147,1406.391290
1206.398428,-7402.059420,-1225.752797,1110.308913
1206.398739,-7105.977043,-536.266849,962.267725
1206.399051,-7994.224174,612.876398,666.185348
1206.399362,-8216.285956,1532.190996,814.226536
1206.399673,-8290.306550,1225.752797,740.205942
1206.399985,-8290.306550,612.876398,592.164754
1206.400296,-8142.265362,0.000000,-0.000000
1206.400607,-7920.203579,76.609550,-222.061783
1206.400918,-7698.141797,229.828649,-296.082377
1206.401230,-8660.409521,0.000000,-296.082377
1206.401541,-8660.409521,-383.047749,222.061783
1206.401852,-9696.697840,-536.266849,518.144159
1206.402164,-9770.718434,0.000000,740.205942
1206.402475,-9474.636058,459.657299,888.247130
1206.402786,-9474.636058,229.828649,222.061783
1206.403097,-9178.553681,536.266849,222.061783
1206.403409,-9178.553681,0.000000,370.102971
1206.403720,-9326.594869,229.828649,222.061783
1206.404031,-9252.574275,612.876398,74.020594
1206.404343,-9326.594869,459.657299,148.041188
1206.404654,-9252.574275,536.266849,222.061783
1206.404965,-8734.430116,306.438199,-0.000000
1206.405276,-9178.553681,919.314598,-0.000000
1206.405588,-9548.656652,383.047749,-148.041188
1206.405899,-9474.636058,919.314598,-222.061783
1206.406210,-9918.759623,1072.533697,-148.041188
1206.406522,-9696.697840,612.876398,74.020594
1206.406833,-9474.636058,76.609550,518.144159
1206.407144,-9252.574275,0.000000,592.164754
1206.407455,-8142.265362,-612.876398,740.205942
1206.407767,-7698.141797,-766.095498,444.123565
1206.408078,-7402.059420,-919.314598,740.205942
1206.408389,-7698.141797,-1225.752797,814.226536
1206.408701,-8068.244768,-1532.190996,1184.329507
1206.409012,-8586.388927,-995.924147,1258.350101
1206.409323,-9030.512492,0.000000,1554.432478
1206.409635,-9178.553681,459.657299,1628.453072
1206.409946,-9030.512492,229.828649,1406.391290
1206.410257,-8364.327145,0.000000,1184.329507
1206.410568,-7846.182985,-306.438199,-0.000000
1206.410880,-7179.997637,689.485948,-296.082377
1206.411191,-7624.121203,306.438199,-222.061783
1206.411502,-8438.347739,-306.438199,-296.082377
1206.411814,-8734.430116,-766.095498,148.041188
1206.412125,-9474.636058,-919.314598,666.185348
1206.412436,-10214.842000,-1149.143247,1258.350101
1206.412747,-10214.842000,-1532.190996,1554.432478
1206.413059,-11029.068536,-1532.190996,740.205942
1206.413370,-9622.677246,-459.657299,666.185348
1206.413681,-8956.491898,-306.438199,740.205942
1206.413993,-9030.512492,459.657299,814.226536
1206.414304,-8956.491898,1149.143247,518.144159
1206.414615,-8808.450710,1532.190996,296.082377
1206.414926,-8586.388927,1378.971896,888.247130
1206.415238,-7772.162391,919.314598,666.185348
1206.415549,-8438.347739,306.438199,-0.000000
1206.415860,-8808.450710,153.219100,370.102971
1206.416172,-9474.636058,-229.828649,148.041188
1206.416483,-10066.800811,-76.609550,370.102971
1206.416794,-10288.862594,-383.047749,296.082377
1206.417105,-9696.697840,-612.876398,592.164754
1206.417417,-8586.388927,-1149.143247,518.144159
1206.417728,-7772.162391,-766.095498,296.082377
1206.418039,-7105.977043,-306.438199,-0.000000
1206.418351,-7105.977043,-689.485948,-0.000000
1206.418662,-8142.265362,-383.047749,518.144159
1206.418973,-7698.141797,0.000000,370.102971
1206.419284,-8290.306550,995.924147,814.226536
1206.419596,-8808.450710,536.266849,1184.329507
1206.419907,-9474.636058,383.047749,1110.308913
1206.420218,-9474.636058,-459.657299,1258.350101
1206.420530,-9030.512492,306.438199,518.144159
1206.420841,-8438.347739,-459.657299,-0.000000
1206.421152,-8734.430116,0.000000,-740.205942
1206.421464,-9326.594869,612.876398,-1036.288319
1206.421775,-9548.656652,536.266849,-1184.329507
1206.422086,-9474.636058,1838.629195,-666.185348
1206.422397,-9770.718434,1149.143247,-0.000000
1206.422709,-9326.594869,459.657299,962.267725
1206.423020,-8956.491898,-842.705048,814.226536
1206.423331,-8290.306550,-536.266849,1480.411884
1206.423643,-8364.327145,0.000000,1110.308913
1206.423954,-9474.636058,-612.876398,1184.329507
1206.424265,-9992.780217,-459.657299,1036.288319
1206.424576,-10066.800811,153.219100,740.205942
1206.424888,-9326.594869,76.609550,666.185348
1206.425199,-8882.471304,-383.047749,666.185348
1206.425510,-8882.471304,306.438199,148.041188
1206.425822,-8882.471304,536.266849,-148.041188
1206.426133,-9104.533087,919.314598,-0.000000
1206.426444,-9030.512492,1149.143247,296.082377
1206.426755,-8734.430116,919.314598,888.247130
1206.427067,-8586.388927,536.266849,1110.308913
1206.427378,-7846.182985,-459.657299,1702.473667
1206.427689,-7254.018232,-919.314598,1480.411884
1206.428001,-8290.306550,-689.485948,740.205942
1206.428312,-7402.059420,-536.266849,740.205942
1206.428623,-8068.244768,-1072.533697,518.144159
1206.428934,-8364.327145,-995.924147,518.144159
1206.429246,-8512.368333,229.828649,666.185348
1206.429557,-8512.368333,229.828649,592.164754
1206.429868,-8882.471304,306.438199,518.144159
1206.430180,-7920.203579,0.000000,888.247130
1206.430491,-7920.203579,229.828649,444.123565
1206.430802,-7920.203579,76.609550,296.082377
1206.431113,-7772.162391,-229.828649,296.082377
1206.431425,-8586.388927,-306.438199,-148.041188
1206.431736,-8956.491898,-766.095498,296.082377
1206.432047,-9548.656652,-1225.752797,-0.000000
1206.432359,-11177.109724,-1149.143247,222.061783
1206.432670,-11029.068536,-1149.143247,592.164754
1206.432981,-10584.944971,-612.876398,370.102971
1206.433293,-9918.759623,-536.266849,296.082377
1206.433604,-9400.615463,153.219100,-0.000000
1206.433915,-8586.388927,766.095498,-0.000000
1206.434226,-8216.285956,1455.581446,222.061783
1206.434538,-8956.491898,2221.676944,666.185348
1206.434849,-8956.491898,2145.067394,518.144159
1206.435160,-8660.409521,383.047749,666.185348
1206.435472,-8734.430116,153.219100,444.123565
1206.435783,-9178.553681,-229.828649,370.102971
1206.436094,-9844.739029,-612.876398,-0.000000
1206.436405,-9992.780217,-1072.533697,148.041188
1206.436717,-9622.677246,-1302.362347,222.061783
1206.437028,-10140.821405,-1608.800546,-0.000000
1206.437339,-9030.512492,-919.314598,666.185348
1206.437651,-8068.244768,-612.876398,518.144159
1206.437962,-7920.203579,-459.657299,592.164754
1206.438273,-7550.100608,0.000000,740.205942
1206.438584,-7772.162391,-229.828649,740.205942
1206.438896,-7624.121203,536.266849,1184.329507
1206.439207,-8142.265362,1149.143247,1554.432478
1206.439518,-9104.533087,1302.362347,1480.411884
1206.439830,-8956.491898,0.000000,1406.391290
1206.440141,-8586.388927,383.047749,962.267725
1206.440452,-8290.306550,-153.219100,444.123565
1206.440763,-7920.203579,0.000000,-222.061783
1206.441075,-8364.327145,459.657299,-1036.288319
1206.441386,-8808.450710,229.828649,-1184.329507
1206.441697,-9104.533087,612.876398,-518.144159
1206.442009,-9992.780217,459.657299,-148.041188
1206.442320,-10214.842000,1225.752797,518.144159
1206.442631,-9992.780217,76.609550,1184.329507
1206.442942,-9400.615463,-459.657299,1332.370696
1206.443254,-8734.430116,-229.828649,1628.453072
1206.443565,-8660.409521,-229.828649,1480.411884
1206.443876,-9252.574275,-383.047749,888.247130
1206.444188,-9178.553681,153.219100,222.061783
1206.444499,-9474.636058,153.219100,-0.000000
1206.444810,-9178.553681,536.266849,518.144159
1206.445122,-9104.533087,383.047749,-0.000000
1206.445433,-9252.574275,536.266849,296.082377
1206.445744,-9104.533087,383.047749,370.102971
1206.446055,-9030.512492,459.657299,740.205942
1206.446367,-9400.615463,919.314598,814.226536
1206.446678,-8882.471304,612.876398,1110.308913
1206.446989,-8438.347739,-153.219100,888.247130
1206.447301,-7772.162391,-612.876398,1036.288319
1206.447612,-7698.141797,-1532.190996,962.267725
1206.447923,-7254.018232,-1455.581446,592.164754
1206.448234,-7550.100608,-1608.800546,296.082377
1206.448546,-8512.368333,-1532.190996,148.041188
1206.448857,-9030.512492,-919.314598,444.123565
1206.449168,-9178.553681,0.000000,518.144159
1206.449480,-10066.800811,689.485948,-0.000000
1206.449791,-9178.553681,995.924147,666.185348
1206.450102,-7846.182985,459.657299,1184.329507
1206.450413,-7476.080014,-306.438199,1036.288319
1206.450725,-7624.121203,-459.657299,296.082377
1206.451036,-7624.121203,-536.266849,-0.000000
1206.451347,-8290.306550,-229.828649,-74.020594
1206.451659,-9178.553681,-536.266849,-74.020594
1206.451970,-9918.759623,-689.485948,-518.144159
1206.452281,-10881.027347,-1225.752797,-0.000000
1206.452592,-11325.150913,-842.705048,444.123565
1206.452904,-11399.171507,-766.095498,518.144159
1206.453215,-10584.944971,-229.828649,592.164754
1206.453526,-9400.615463,76.609550,666.185348
1206.453838,-8512.368333,306.438199,666.185348
1206.454149,-8364.327145,689.485948,148.041188
1206.454460,-8586.388927,1149.143247,740.205942
1206.454771,-9178.553681,1378.971896,518.144159
1206.455083,-8364.327145,995.924147,814.226536
1206.455394,-8660.409521,153.219100,518.144159
1206.455705,-9178.553681,-383.047749,444.123565
1206.456017,-9548.656652,0.000000,222.061783
1206.456328,-10066.800811,-689.485948,-296.082377
1206.456639,-9918.759623,-612.876398,1332.370696
1206.456951,-9400.615463,-842.705048,814.226536
1206.457262,-9104.533087,-842.705048,740.205942
1206.457573,-8216.285956,-995.924147,740.205942
1206.457884,-7105.977043,-306.438199,962.267725
1206.458196,-6661.853478,-459.657299,888.247130
1206.458507,-6439.791695,0.000000,740.205942
1206.458818,-6957.935855,153.219100,370.102971
1206.459130,-7698.141797,153.219100,1110.308913
1206.459441,-8882.471304,919.314598,1332.370696
1206.459752,-8956.491898,689.485948,1406.391290
1206.460063,-9474.636058,0.000000,962.267725
1206.460375,-9400.615463,-689.485948,888.247130
1206.460686,-8438.347739,-612.876398,222.061783
1206.460997,-8586.388927,76.609550,-370.102971
1206.461309,-9178.553681,459.657299,-888.247130
1206.461620,-9474.636058,383.047749,-592.164754
1206.461931,-9622.677246,383.047749,-370.102971
1206.462242,-9622.677246,306.438199,-74.020594
1206.462554,-9326.594869,0.000000,296.082377
1206.462865,-9400.615463,-689.485948,592.164754
1206.463176,-9400.615463,-995.924147,1036.288319
1206.463488,-9178.553681,-612.876398,1184.329507
1206.463799,-10436.903782,-766.095498,888.247130
1206.464110,-9474.636058,-306.438199,1036.288319
1206.464421,-9992.780217,0.000000,-0.000000
1206.464733,-9474.636058,459.657299,370.102971
1206.465044,-9178.553681,459.657299,-0.000000
1206.465355,-9474.636058,383.047749,-0.000000
1206.465667,-9400.615463,612.876398,-222.061783
1206.465978,-8808.450710,0.000000,296.082377
1206.466289,-8808.450710,0.000000,666.185348
1206.466600,-8512.368333,-383.047749,740.205942
1206.466912,-8438.347739,-919.314598,814.226536
1206.467223,-8586.388927,-995.924147,1258.350101
1206.467534,-8068.244768,-1072.533697,1332.370696
1206.467846,-8290.306550,-1762.019645,814.226536
1206.468157,-7994.224174,-1378.971896,740.205942
1206.468468,-8364.327145,-995.924147,222.061783
1206.468780,-8512.368333,-229.828649,740.205942
1206.469091,-8512.368333,536.266849,888.247130
1206.469402,-8956.491898,766.095498,444.123565
1206.469713,-8364.327145,1072.533697,740.205942
1206.470025,-8142.265362,1072.533697,666.185348
1206.470336,-7624.121203,76.609550,592.164754
1206.470647,-7550.100608,0.000000,-0.000000
1206.470959,-7994.224174,-229.828649,-370.102971
1206.471270,-8660.409521,-1072.533697,-222.061783
1206.471581,-9326.594869,-689.485948,-222.061783
1206.471892,-10288.862594,-919.314598,-0.000000
1206.472204,-11177.109724,-1225.752797,296.082377
1206.472515,-11473.192101,-919.314598,962.267725
1206.472826,-11177.109724,-306.438199,814.226536
1206.473138,-10140.821405,-306.438199,518.144159
1206.473449,-9104.533087,383.047749,518.144159
1206.473760,-8364.327145,612.876398,666.185348
1206.474071,-7624.121203,1685.410096,370.102971
1206.474383,-8068.244768,1915.238745,-0.000000
1206.474694,-8734.430116,1915.238745,370.102971
1206.475005,-8512.368333,1225.752797,1036.288319
1206.475317,-8734.430116,459.657299,814.226536
1206.475628,-9326.594869,0.000000,518.144159
1206.475939,-9844.739029,-306.438199,-222.061783
1206.476250,-9548.656652,-306.438199,-0.000000
1206.476562,-9696.697840,-153.219100,148.041188
1206.476873,-9400.615463,-842.705048,444.123565
1206.477184,-8808.450710,-1455.581446,1036.288319
1206.477496,-8364.327145,-1685.410096,1036.288319
1206.477807,-7550.100608,-1072.533697,740.205942
1206.478118,-6957.935855,-229.828649,666.185348
1206.478429,-7772.162391,-536.266849,-0.000000
1206.478741,-7698.141797,-383.047749,666.185348
1206.479052,-8290.306550,-153.219100,814.226536
1206.479363,-9104.533087,919.314598,1184.329507
1206.479675,-9622.677246,1072.533697,1332.370696
1206.479986,-9622.677246,536.266849,1258.350101
1206.480297,-9030.512492,76.609550,444.123565
1206.480608,-8142.265362,0.000000,-0.000000
1206.480920,-7402.059420,459.657299,-740.205942
1206.481231,-8068.244768,766.095498,-1480.411884
1206.481542,-8438.347739,459.657299,-814.226536
1206.481854,-9474.636058,306.438199,-666.185348
1206.482165,-9918.759623,153.219100,-0.000000
1206.482476,-9992.780217,-153.219100,814.226536
1206.482787,-10288.862594,-842.705048,592.164754
1206.483099,-9474.636058,-1838.629195,1184.329507
1206.483410,-8882.471304,-689.485948,1184.329507
1206.483721,-9252.574275,-536.266849,1110.308913
1206.484033,-9844.739029,0.000000,1184.329507
1206.484344,-9696.697840,229.828649,1184.329507
1206.484655,-9400.615463,536.266849,740.205942
1206.484966,-8956.491898,536.266849,370.102971
1206.485278,-8882.471304,842.705048,-0.000000
1206.485589,-8808.450710,1378.971896,-222.061783
1206.485900,-8438.347739,459.657299,296.082377
1206.486211,-8956.491898,383.047749,296.082377
1206.486523,-9030.512492,76.609550,740.205942
1206.486834,-9326.594869,-153.219100,888.247130
1206.487145,-8882.471304,-536.266849,962.267725
1206.487457,-7846.182985,-229.828649,962.267725
1206.487768,-8142.265362,-153.219100,962.267725
1206.488079,-7476.080014,-612.876398,666.185348
1206.488390,-7105.977043,-842.705048,592.164754
1206.488702,-7846.182985,-306.438199,592.164754
1206.489013,-8660.409521,229.828649,444.123565
1206.489324,-8882.471304,995.924147,666.185348
1206.489636,-8956.491898,995.924147,740.205942
1206.489947,-8808.450710,995.924147,814.226536
1206.490258,-7550.100608,383.047749,962.267725
1206.490569,-8734.430116,153.219100,666.185348
1206.490881,-7698.141797,-153.219100,666.185348
1206.491192,-7846.182985,-459.657299,-0.000000
1206.491503,-9326.594869,-995.924147,-0.000000
1206.491814,-9400.615463,-612.876398,148.041188
1206.492126,-10436.903782,-689.485948,-370.102971
1206.492437,-10584.944971,-306.438199,370.102971
1206.492748,-10510.924376,-459.657299,444.123565
1206.493060,-10584.944971,-459.657299,-74.020594
1206.493371,-9400.615463,-459.657299,-0.000000
1206.493682,-8290.306550,306.438199,296.082377
1206.493993,-8438.347739,536.266849,222.061783
1206.494305,-9104.533087,1532.190996,740.205942
1206.494616,-9548.656652,1685.410096,666.185348
1206.494927,-8956.491898,995.924147,1036.288319
1206.495239,-9326.594869,995.924147,814.226536
1206.495550,-9474.636058,766.095498,962.267725
1206.495861,-9252.574275,-383.047749,-0.000000
1206.496172,-9474.636058,-229.828649,-0.000000
1206.496484,-9326.594869,0.000000,-0.000000
1206.496795,-9474.636058,-383.047749,148.041188
1206.497106,-9474.636058,-1225.752797,740.205942
1206.497418,-8512.368333,-1762.019645,1110.308913
1206.497729,-7994.224174,-1378.971896,962.267725
1206.498040,-7254.018232,-1072.533697,1036.288319
1206.498351,-7105.977043,-383.047749,666.185348
1206.498663,-7402.059420,-306.438199,888.247130
1206.498974,-7698.141797,76.609550,1184.329507
1206.499285,-8586.388927,766.095498,1184.329507
1206.499596,-9474.636058,1149.143247,1110.308913
1206.499908,-9326.594869,1072.533697,962.267725
1206.500219,-8586.388927,153.219100,666.185348
1206.500530,-8216.285956,0.000000,74.020594
1206.500842,-7920.203579,-153.219100,-518.144159
1206.501153,-8364.327145,153.219100,-592.164754
1206.501464,-8734.430116,306.438199,-592.164754
1206.501775,-9030.512492,0.000000,-444.123565
1206.502087,-9622.677246,0.000000,-370.102971
1206.502398,-9474.636058,306.438199,592.164754
1206.502709,-9696.697840,-612.876398,1184.329507
1206.503021,-9770.718434,-842.705048,1406.391290
1206.503332,-9696.697840,-306.438199,1110.308913
1206.503643,-9770.718434,0.000000,888.247130
1206.503954,-9400.615463,0.000000,740.205942
1206.504266,-9770.718434,229.828649,296.082377
1206.504577,-9622.677246,995.924147,-0.000000
1206.504888,-9104.533087,612.876398,370.102971
1206.505199,-9400.615463,459.657299,-74.020594
1206.505511,-9252.574275,383.047749,74.020594
1206.505822,-8808.450710,536.266849,518.144159
1206.506133,-9474.636058,0.000000,666.185348
1206.506445,-9252.574275,-153.219100,814.226536
1206.506756,-9030.512492,0.000000,740.205942
1206.507067,-8438.347739,306.438199,666.185348
1206.507378,-7920.203579,-383.047749,370.102971
1206.507690,-7476.080014,-689.485948,370.102971
1206.508001,-7105.977043,-1225.752797,370.102971
1206.508312,-7328.038826,-995.924147,444.123565
1206.508624,-8068.244768,-842.705048,592.164754
1206.508935,-9252.574275,-766.095498,1036.288319
1206.509246,-9696.697840,0.000000,1406.391290
1206.509557,-9178.553681,306.438199,1850.514855
1206.509869,-8142.265362,229.828649,1332.370696
1206.510180,-7624.121203,-459.657299,1406.391290
1206.510491,-7624.121203,-766.095498,370.102971
1206.510802,-7402.059420,-306.438199,-0.000000
1206.511114,-7920.203579,-612.876398,-0.000000
1206.511425,-9030.512492,-766.095498,-0.000000
1206.511736,-10066.800811,0.000000,-148.041188
1206.512048,-10436.903782,-766.095498,-0.000000
1206.512359,-10955.047942,0.000000,444.123565
1206.512670,-10436.903782,-153.219100,-0.000000
1206.512981,-9918.759623,0.000000,148.041188
1206.513293,-9474.636058,0.000000,666.185348
1206.513604,-8660.409521,0.000000,740.205942
1206.513915,-8438.347739,459.657299,666.185348
1206.514227,-8290.306550,1072.533697,740.205942
1206.514538,-8290.306550,1455.581446,518.144159
1206.514849,-8068.244768,1455.581446,518.144159
1206.515160,-7920.203579,459.657299,444.123565
1206.515472,-9104.533087,153.219100,-0.000000
1206.515783,-9844.739029,-383.047749,518.144159
1206.516094,-10732.986159,-306.438199,592.164754
1206.516405,-10584.944971,-689.485948,740.205942
1206.516717,-10214.842000,-766.095498,888.247130
1206.517028,-9178.553681,-1378.971896,1184.329507
1206.517339,-8438.347739,-1762.019645,1036.288319
1206.517651,-7402.059420,-1302.362347,1036.288319
1206.517962,-6513.812290,-766.095498,888.247130
1206.518273,-6291.750507,-612.876398,296.082377
1206.518584,-7031.956449,-383.047749,444.123565
1206.518896,-7772.162391,76.609550,518.144159
1206.519207,-8290.306550,766.095498,888.247130
1206.519518,-8808.450710,1608.800546,888.247130
1206.519830,-9104.533087,689.485948,1332.370696
1206.520141,-9030.512492,-306.438199,1036.288319
1206.520452,-8734.430116,-612.876398,296.082377
1206.520763,-8364.327145,76.609550,-148.041188
1206.521075,-8512.368333,612.876398,-666.185348
1206.521386,-8660.409521,842.705048,-666.185348
1206.521697,-9104.533087,459.657299,-888.247130
1206.522009,-9622.677246,306.438199,-592.164754
1206.522320,-9474.636058,153.219100,222.061783
1206.522631,-9918.759623,-459.657299,740.205942
1206.522942,-10140.821405,-766.095498,888.247130
1206.523254,-9696.697840,-995.924147,1036.288319
1206.523565,-9770.718434,-612.876398,962.267725
1206.523876,-9474.636058,-536.266849,740.205942
1206.524187,-9326.594869,306.438199,666.185348
1206.524499,-8660.409521,842.705048,592.164754
1206.524810,-9104.533087,766.095498,148.041188
1206.525121,-8808.450710,842.705048,148.041188
1206.525433,-8956.491898,306.438199,148.041188
1206.525744,-9252.574275,919.314598,-74.020594
1206.526055,-9030.512492,995.924147,-0.000000
1206.526366,-9030.512492,383.047749,-0.000000
1206.526678,-9104.533087,229.828649,-0.000000
1206.526989,-9030.512492,-306.438199,740.205942
1206.527300,-8734.430116,-383.047749,740.205942
1206.527612,-8734.430116,-1762.019645,1184.329507
1206.527923,-8660.409521,-2068.457845,1258.350101
1206.528234,-7994.224174,-1225.752797,1258.350101
1206.528545,-7846.182985,-689.485948,888.247130
1206.528857,-7624.121203,153.219100,1258.350101
1206.529168,-7994.224174,-842.705048,888.247130
1206.529479,-7994.224174,306.438199,740.205942
1206.529790,-8216.285956,1455.581446,666.185348
1206.530102,-8068.244768,1072.533697,518.144159
1206.530413,-7994.224174,919.314598,592.164754
1206.530724,-7772.162391,76.609550,296.082377
1206.531036,-7846.182985,-383.047749,-74.020594
1206.531347,-8364.327145,-459.657299,-296.082377
1206.531658,-9030.512492,-459.657299,-222.061783
1206.531969,-10066.800811,-612.876398,-0.000000
1206.532281,-10436.903782,-1072.533697,666.185348
1206.532592,-10881.027347,-1149.143247,1110.308913
1206.532903,-10510.924376,-995.924147,1258.350101
1206.533215,-9622.677246,-536.266849,888.247130
1206.533526,-8734.430116,0.000000,592.164754
1206.533837,-7920.203579,306.438199,222.061783
1206.534148,-7994.224174,842.705048,148.041188
1206.534460,-8290.306550,1455.581446,814.226536
1206.534771,-9178.553681,383.047749,740.205942
1206.535082,-9326.594869,306.438199,666.185348
1206.535393,-9474.636058,0.000000,592.164754
1206.535705,-9844.739029,-766.095498,148.041188
1206.536016,-9992.780217,-229.828649,-0.000000
1206.536327,-9844.739029,76.609550,-0.000000
1206.536639,-9400.615463,-306.438199,222.061783
1206.536950,-8808.450710,-383.047749,814.226536
1206.537261,-8660.409521,-1149.143247,740.205942
1206.537572,-8216.285956,-919.314598,888.247130
1206.537884,-7179.997637,-689.485948,814.226536
1206.538195,-6587.832884,-383.047749,370.102971
1206.538506,-6661.853478,-1149.143247,666.185348
1206.538818,-7328.038826,-995.924147,666.185348
1206.539129,-8364.327145,536.266849,888.247130
1206.539440,-9548.656652,842.705048,1258.350101
1206.539751,-9548.656652,1072.533697,1036.288319
1206.540063,-9474.636058,459.657299,814.226536
1206.540374,-9252.574275,0.000000,296.082377
1206.540685,-8586.388927,229.828649,-592.164754
1206.540996,-7994.224174,612.876398,-1184.329507
1206.541308,-8808.450710,536.266849,-1110.308913
1206.541619,-8660.409521,919.314598,-666.185348
1206.541930,-9400.615463,-229.828649,-518.144159
1206.542242,-9992.780217,-383.047749,518.144159
1206.542553,-9844.739029,-612.876398,962.267725
1206.542864,-9918.759623,-383.047749,1036.288319
1206.543175,-9918.759623,-383.047749,1036.288319
1206.543487,-9252.574275,0.000000,592.164754
1206.543798,-9400.615463,229.828649,-0.000000
1206.544109,-9178.553681,766.095498,518.144159
1206.544421,-9622.677246,1225.752797,518.144159
1206.544732,-9326.594869,1149.143247,740.205942
1206.545043,-9030.512492,919.314598,370.102971
1206.545354,-9104.533087,612.876398,-0.000000
1206.545666,-8586.388927,459.657299,-0.000000
1206.545977,-8734.430116,842.705048,222.061783
1206.546288,-8882.471304,459.657299,222.061783
1206.546599,-9326.594869,153.219100,370.102971
1206.546911,-9474.636058,-689.485948,888.247130
1206.547222,-8808.450710,-612.876398,1628.453072
1206.547533,-7994.224174,-766.095498,814.226536
1206.547845,-7698.141797,-1072.533697,1036.288319
1206.548156,-7698.141797,-612.876398,814.226536
1206.548467,-7550.100608,-1225.752797,518.144159
1206.548778,-7698.141797,-459.657299,592.164754
1206.549090,-8660.409521,306.438199,370.102971
1206.549401,-8586.388927,536.266849,814.226536
1206.549712,-8142.265362,229.828649,962.267725
1206.550024,-8068.244768,0.000000,962.267725
1206.550335,-7846.182985,-612.876398,962.267725
1206.550646,-8290.306550,-995.924147,518.144159
1206.550957,-8290.306550,-612.876398,666.185348
1206.551269,-9326.594869,-1149.143247,296.082377
1206.551580,-10214.842000,-1225.752797,-0.000000
1206.551891,-10436.903782,-766.095498,370.102971
1206.552203,-10140.821405,-995.924147,296.082377
1206.552514,-10066.800811,-1072.533697,370.102971
1206.552825,-9326.594869,-536.266849,888.247130
1206.553136,-9770.718434,-306.438199,-0.000000
1206.553448,-9104.533087,-229.828649,370.102971
1206.553759,-8512.368333,0.000000,666.185348
1206.554070,-9030.512492,459.657299,518.144159
1206.554381,-9030.512492,842.705048,592.164754
1206.554693,-9548.656652,919.314598,296.082377
1206.555004,-9548.656652,536.266849,666.185348
1206.555315,-9992.780217,306.438199,-148.041188
1206.555627,-9844.739029,459.657299,444.123565
1206.555938,-9992.780217,-229.828649,-296.082377
1206.556249,-9992.780217,766.095498,-370.102971
1206.556560,-9918.759623,0.000000,-148.041188
1206.556872,-9178.553681,0.000000,-74.020594
1206.557183,-8586.388927,0.000000,444.123565
1206.557494,-8364.327145,-536.266849,740.205942
1206.557806,-7846.182985,-919.314598,740.205942
1206.558117,-7328.038826,-229.828649,666.185348
1206.558428,-7698.141797,-689.485948,1110.308913
1206.558739,-7846.182985,76.609550,962.267725
1206.559051,-8660.409521,689.485948,1110.308913
1206.559362,-9252.574275,1149.143247,1036.288319
1206.559673,-8882.471304,1378.971896,1110.308913
1206.559984,-8586.388927,842.705048,666.185348
1206.560296,-7846.182985,612.876398,222.061783
1206.560607,-7105.977043,459.657299,-0.000000
1206.560918,-7772.162391,153.219100,-888.247130
1206.561230,-8586.388927,536.266849,-222.061783
1206.561541,-8956.491898,306.438199,-222.061783
1206.561852,-9622.677246,306.438199,-148.041188
1206.562163,-9622.677246,0.000000,444.123565
1206.562475,-9326.594869,-153.219100,740.205942
1206.562786,-9474.636058,-536.266849,962.267725
1206.563097,-9178.553681,-766.095498,1036.288319
1206.563409,-9252.574275,-153.219100,740.205942
1206.563720,-9104.533087,76.609550,1258.350101
1206.564031,-9474.636058,229.828649,1036.288319
1206.564342,-9326.594869,76.609550,888.247130
1206.564654,-9178.553681,536.266849,518.144159
1206.564965,-8438.347739,919.314598,444.123565
1206.565276,-9252.574275,459.657299,296.082377
1206.565587,-9400.615463,306.438199,222.061783
1206.565899,-9474.636058,612.876398,-0.000000
1206.566210,-9770.718434,-459.657299,518.144159
1206.566521,-9400.615463,-306.438199,740.205942
1206.566833,-9474.636058,-306.438199,592.164754
1206.567144,-8660.409521,-612.876398,1036.288319
1206.567455,-8216.285956,-919.314598,1258.350101
1206.567766,-8586.388927,-1455.581446,518.144159
1206.568078,-7920.203579,-995.924147,888.247130
1206.568389,-7846.182985,-1149.143247,148.041188
1206.568700,-8438.347739,-995.924147,592.164754
1206.569012,-8660.409521,-306.438199,666.185348
1206.569323,-8956.491898,0.000000,666.185348
1206.569634,-8882.471304,459.657299,1258.350101
1206.569945,-8438.347739,306.438199,1406.391290
1206.570257,-8586.388927,0.000000,962.267725
1206.570568,-8142.265362,-229.828649,222.061783
1206.570879,-8142.265362,-612.876398,-296.082377
1206.571190,-8216.285956,459.657299,-222.061783
1206.571502,-8956.491898,459.657299,-592.164754
1206.571813,-9474.636058,0.000000,-592.164754
1206.572124,-9918.759623,-536.266849,-148.041188
1206.572436,-10214.842000,-536.266849,-0.000000
1206.572747,-10140.821405,536.266849,518.144159
1206.573058,-10066.800811,-1072.533697,592.164754
1206.573369,-9400.615463,-612.876398,666.185348
1206.573681,-8808.450710,-612.876398,962.267725
1206.573992,-8512.368333,76.609550,888.247130
1206.574303,-8438.347739,995.924147,740.205942
1206.574615,-8882.471304,995.924147,518.144159
1206.574926,-8734.430116,995.924147,740.205942
1206.575237,-8734.430116,306.438199,444.123565
1206.575548,-9030.512492,0.000000,148.041188
1206.575860,-9252.574275,76.609550,-0.000000
1206.576171,-9622.677246,536.266849,-148.041188
1206.576482,-9844.739029,306.438199,-0.000000
1206.576793,-9474.636058,0.000000,444.123565
1206.577105,-8882.471304,-766.095498,888.247130
1206.577416,-8142.265362,-1072.533697,592.164754
1206.577727,-7402.059420,-536.266849,2072.576638
1206.578039,-7031.956449,-766.095498,962.267725
1206.578350,-7105.977043,-306.438199,666.185348
1206.578661,-7476.080014,153.219100,888.247130
1206.578972,-7920.203579,689.485948,1036.288319
1206.579284,-8956.491898,1149.143247,1258.350101
1206.579595,-9178.553681,1149.143247,1406.391290
1206.579907,-8808.450710,766.095498,1480.411884
1206.580218,-9252.574275,0.000000,888.247130
1206.580530,-8142.265362,0.000000,592.164754
1206.580841,-7846.182985,76.609550,-222.061783
1206.581153,-8290.306550,-383.047749,-370.102971
1206.581464,-8512.368333,-612.876398,-222.061783
1206.581776,-9400.615463,-153.219100,-0.000000
1206.582087,-9696.697840,0.000000,-0.000000
1206.582399,-9918.759623,306.438199,888.247130
1206.582710,-10214.842000,-306.438199,1184.329507
1206.583022,-9474.636058,-536.266849,1184.329507
1206.583333,-8512.368333,0.000000,888.247130
1206.583645,-8438.347739,0.000000,592.164754
1206.583956,-8586.388927,612.876398,592.164754
1206.584268,-8956.491898,919.314598,592.164754
1206.584579,-9030.512492,1149.143247,666.185348
1206.584891,-8734.430116,612.876398,888.247130
1206.585202,-9178.553681,0.000000,518.144159
1206.585514,-9696.697840,-536.266849,-0.000000
1206.585825,-9474.636058,0.000000,148.041188
1206.586136,-9770.718434,0.000000,-0.000000
1206.586448,-9474.636058,0.000000,370.102971
1206.586759,-9104.533087,-383.047749,222.061783
1206.587071,-8660.409521,0.000000,222.061783
1206.587382,-7920.203579,-842.705048,666.185348
1206.587694,-7254.018232,-1149.143247,814.226536
1206.588005,-7328.038826,-995.924147,518.144159
1206.588317,-7328.038826,-612.876398,518.144159
1206.588628,-7624.121203,-612.876398,444.123565
1206.588940,-8142.265362,-612.876398,740.205942
1206.589251,-8882.471304,76.609550,592.164754
1206.589563,-8734.430116,995.924147,370.102971
1206.589874,-9252.574275,689.485948,962.267725
1206.590186,-8956.491898,0.000000,592.164754
1206.590497,-8660.409521,-766.095498,222.061783
1206.590809,-8660.409521,-842.705048,-74.020594
1206.591120,-8364.327145,-536.266849,-0.000000
1206.591432,-8512.368333,-229.828649,-222.061783
1206.591743,-9326.594869,-306.438199,-0.000000
1206.592055,-9474.636058,-1149.143247,370.102971
1206.592366,-10436.903782,-1838.629195,740.205942
1206.592678,-9992.780217,-995.924147,1332.370696
1206.592989,-10288.862594,-536.266849,592.164754
1206.593301,-9474.636058,-536.266849,518.144159
1206.593612,-8660.409521,-459.657299,592.164754
1206.593923,-8808.450710,0.000000,370.102971
1206.594235,-9252.574275,766.095498,-0.000000
1206.594546,-9178.553681,1455.581446,666.185348
1206.594858,-9474.636058,1302.362347,962.267725
1206.595169,-9548.656652,383.047749,518.144159
1206.595481,-9474.636058,229.828649,592.164754
1206.595792,-9326.594869,383.047749,-0.000000
1206.596104,-9696.697840,229.828649,-0.000000
1206.596415,-9622.677246,0.000000,222.061783
1206.596727,-9474.636058,0.000000,148.041188
1206.597038,-9030.512492,-766.095498,666.185348
1206.597350,-8734.430116,-612.876398,814.226536
1206.597661,-7772.162391,-1225.752797,1184.329507
1206.597973,-7328.038826,-919.314598,814.226536
1206.598284,-7105.977043,-536.266849,740.205942
1206.598596,-7105.977043,0.000000,888.247130
1206.598907,-7698.141797,306.438199,1258.350101
1206.599219,-8438.347739,842.705048,814.226536
1206.599530,-8734.430116,689.485948,1258.350101
1206.599842,-8438.347739,842.705048,1406.391290
1206.600153,-8512.368333,1378.971896,666.185348
1206.600465,-7994.224174,612.876398,518.144159
1206.600776,-7476.080014,229.828649,-0.000000
1206.601088,-7698.141797,0.000000,-296.082377
1206.601399,-8216.285956,76.609550,-222.061783
1206.601710,-8586.388927,76.609550,-222.061783
1206.602022,-9400.615463,0.000000,-148.041188
1206.602333,-9918.759623,-536.266849,592.164754
1206.602645,-9918.759623,-766.095498,888.247130
1206.602956,-9474.636058,-689.485948,1110.308913
1206.603268,-9178.553681,-919.314598,888.247130
1206.603579,-8956.491898,-229.828649,962.267725
1206.603891,-8734.430116,-153.219100,666.185348
1206.604202,-8512.368333,536.266849,444.123565
1206.604514,-9918.759623,766.095498,296.082377
1206.604825,-9400.615463,689.485948,592.164754
1206.605137,-10066.800811,612.876398,-0.000000
1206.605448,-9770.718434,919.314598,-0.000000
1206.605760,-9696.697840,459.657299,-0.000000
1206.606071,-9844.739029,0.000000,-0.000000
1206.606383,-9474.636058,383.047749,-148.041188
1206.606694,-9104.533087,-919.314598,296.082377
1206.607006,-8142.265362,-995.924147,740.205942
1206.607317,-8586.388927,-1225.752797,222.061783
1206.607629,-8586.388927,-1302.362347,370.102971
1206.607940,-8216.285956,-1455.581446,666.185348
1206.608252,-7772.162391,-1532.190996,666.185348
1206.608563,-7920.203579,-1225.752797,888.247130
1206.608875,-8290.306550,-919.314598,666.185348
1206.609186,-9770.718434,-612.876398,962.267725
1206.609497,-8882.471304,153.219100,888.247130
1206.609809,-8290.306550,766.095498,1036.288319
1206.610120,-8512.368333,0.000000,1184.329507
1206.610432,-7698.141797,-536.266849,962.267725
1206.610743,-8512.368333,-689.485948,-0.000000
1206.611055,-8438.347739,-153.219100,-74.020594
1206.611366,-8290.306550,612.876398,-222.061783
1206.611678,-9696.697840,-459.657299,-592.164754
1206.611989,-9622.677246,-612.876398,-0.000000
1206.612301,-9104.533087,-766.095498,148.041188
1206.612612,-9474.636058,-689.485948,370.102971
1206.612924,-9400.615463,-459.657299,962.267725
1206.613235,-9104.533087,0.000000,888.247130
1206.613547,-8438.347739,0.000000,962.267725
1206.613858,-8734.430116,536.266849,666.185348
1206.614170,-8438.347739,536.266849,962.267725
1206.614481,-9178.553681,919.314598,296.082377
1206.614793,-8734.430116,1455.581446,296.082377
1206.615104,-8882.471304,612.876398,296.082377
1206.615416,-8956.491898,0.000000,-0.000000
1206.615727,-9622.677246,-153.219100,-0.000000
1206.616039,-9992.780217,0.000000,592.164754
1206.616350,-9770.718434,-459.657299,592.164754
1206.616662,-9474.636058,-612.876398,1332.370696
1206.616973,-9104.533087,-995.924147,814.226536
1206.617284,-8882.471304,-1455.581446,1110.308913
1206.617596,-8438.347739,-919.314598,1036.288319
1206.617907,-7402.059420,-536.266849,888.247130
1206.618219,-7254.018232,-306.438199,370.102971
1206.618530,-7772.162391,-229.828649,296.082377
1206.618842,-8142.265362,0.000000,444.123565
1206.619153,-8364.327145,1302.362347,814.226536
1206.619465,-8660.409521,842.705048,814.226536
1206.619776,-9030.512492,612.876398,1258.350101
1206.620088,-8734.430116,0.000000,740.205942
1206.620399,-8586.388927,153.219100,296.082377
1206.620711,-8068.244768,229.828649,148.041188
1206.621022,-8364.327145,306.438199,-666.185348
1206.621334,-8660.409521,459.657299,-518.144159
1206.621645,-9252.574275,0.000000,-296.082377
1206.621957,-9474.636058,0.000000,-666.185348
1206.622268,-9696.697840,0.000000,666.185348
1206.622580,-10066.800811,0.000000,814.226536
1206.622891,-9474.636058,-459.657299,1110.308913
1206.623203,-9178.553681,-612.876398,962.267725
1206.623514,-9252.574275,0.000000,740.205942
1206.623826,-9252.574275,-306.438199,740.205942
1206.624137,-8956.491898,536.266849,666.185348
1206.624449,-9178.553681,1149.143247,1332.370696
1206.624760,-8808.450710,995.924147,518.144159
1206.625072,-9030.512492,459.657299,-0.000000
1206.625383,-9252.574275,383.047749,-0.000000
1206.625694,-9030.512492,1072.533697,222.061783
1206.626006,-9474.636058,459.657299,222.061783
1206.626317,-9474.636058,0.000000,444.123565
1206.626629,-9770.718434,-919.314598,518.144159
1206.626940,-8956.491898,-612.876398,962.267725
1206.627252,-8216.285956,-689.485948,888.247130
1206.627563,-7772.162391,-766.095498,888.247130
1206.627875,-7920.203579,-919.314598,592.164754
1206.628186,-7402.059420,-766.095498,518.144159
1206.628498,-7846.182985,-459.657299,444.123565
1206.628809,-8364.327145,536.266849,518.144159
1206.629121,-9030.512492,0.000000,888.247130
1206.629432,-9252.574275,536.266849,814.226536
1206.629744,-8734.430116,612.876398,962.267725
1206.630055,-8660.409521,229.828649,1110.308913
1206.630367,-8882.471304,-383.047749,888.247130
1206.630678,-8660.409521,-995.924147,888.247130
1206.630990,-8290.306550,-459.657299,222.061783
1206.631301,-8660.409521,-689.485948,-222.061783
1206.631613,-9252.574275,-612.876398,-444.123565
1206.631924,-9548.656652,-229.828649,-74.020594
1206.632236,-9696.697840,-306.438199,370.102971
1206.632547,-9918.759623,-459.657299,740.205942
1206.632859,-9770.718434,0.000000,1184.329507
1206.633170,-9474.636058,-306.438199,592.164754
1206.633481,-9030.512492,-536.266849,370.102971
1206.633793,-8734.430116,-153.219100,444.123565
1206.634104,-8660.409521,766.095498,518.144159
1206.634416,-9252.574275,1072.533697,444.123565
1206.634727,-9918.759623,766.095498,444.123565
1206.635039,-9770.718434,766.095498,740.205942
1206.635350,-9622.677246,689.485948,296.082377
1206.635662,-9400.615463,0.000000,370.102971
1206.635973,-9030.512492,306.438199,222.061783
1206.636285,-9622.677246,612.876398,-0.000000
1206.636596,-9104.533087,306.438199,148.041188
1206.636908,-8956.491898,-153.219100,444.123565
1206.637219,-8734.430116,-612.876398,1184.329507
1206.637531,-8216.285956,-306.438199,1332.370696
1206.637842,-7920.203579,-689.485948,1110.308913
1206.638154,-7179.997637,-383.047749,666.185348
1206.638465,-7105.977043,76.609550,518.144159
1206.638777,-7624.121203,459.657299,370.102971
1206.639088,-7920.203579,612.876398,1036.288319
1206.639400,-8660.409521,842.705048,962.267725
1206.639711,-8882.471304,842.705048,1406.391290
1206.640023,-8882.471304,306.438199,814.226536
1206.640334,-9622.677246,76.609550,444.123565
1206.640646,-7772.162391,536.266849,592.164754
1206.640957,-7846.182985,0.000000,-444.123565
1206.641268,-8290.306550,0.000000,-370.102971
1206.641580,-8438.347739,-229.828649,-296.082377
1206.641891,-9474.636058,-229.828649,-518.144159
1206.642203,-9548.656652,153.219100,444.123565
1206.642514,-9696.697840,0.000000,666.185348
1206.642826,-9474.636058,-1225.752797,666.185348
1206.643137,-9030.512492,-766.095498,962.267725
1206.643449,-8882.471304,-229.828649,518.144159
1206.643760,-8586.388927,-229.828649,740.205942
1206.644072,-9326.594869,536.266849,592.164754
1206.644383,-9844.739029,766.095498,592.164754
1206.644695,-9844.739029,459.657299,296.082377
1206.645006,-9622.677246,0.000000,518.144159
1206.645318,-9548.656652,766.095498,-0.000000
1206.645629,-9474.636058,459.657299,-370.102971
1206.645941,-9252.574275,383.047749,-370.102971
1206.646252,-9622.677246,153.219100,-0.000000
1206.646564,-9252.574275,-76.609550,740.205942
1206.646875,-9622.677246,-689.485948,592.164754
1206.647187,-9474.636058,-612.876398,888.247130
1206.647498,-8438.347739,-612.876398,666.185348
1206.647810,-7698.141797,-919.314598,370.102971
1206.648121,-7328.038826,-842.705048,296.082377
1206.648433,-7698.141797,-689.485948,148.041188
1206.648744,-8216.285956,-689.485948,888.247130
1206.649055,-9104.533087,0.000000,1036.288319
1206.649367,-9474.636058,459.657299,1258.350101
1206.649678,-8956.491898,459.657299,1406.391290
1206.649990,-8734.430116,689.485948,888.247130
1206.650301,-8142.265362,-229.828649,666.185348
1206.650613,-8142.265362,-306.438199,148.041188
1206.650924,-8142.265362,-459.657299,-148.041188
1206.651236,-8364.327145,0.000000,-370.102971
1206.651547,-9030.512492,-153.219100,148.041188
1206.651859,-9622.677246,-459.657299,370.102971
1206.652170,-10214.842000,-383.047749,592.164754
1206.652482,-10140.821405,-459.657299,740.205942
1206.652793,-9400.615463,-689.485948,1258.350101
1206.653105,-9178.553681,-1302.362347,1036.288319
1206.653416,-8586.388927,-1225.752797,814.226536
1206.653728,-8142.265362,-612.876398,888.247130
1206.654039,-7920.203579,459.657299,370.102971
1206.654351,-8438.347739,1302.362347,370.102971
1206.654662,-8956.491898,1072.533697,296.082377
1206.654974,-9326.594869,995.924147,592.164754
1206.655285,-9474.636058,306.438199,-0.000000
1206.655597,-9770.718434,153.219100,-0.000000
1206.655908,-9622.677246,229.828649,444.123565
1206.656220,-10066.800811,0.000000,-0.000000
1206.656531,-9918.759623,-383.047749,666.185348
1206.656842,-9548.656652,-842.705048,888.247130
1206.657154,-9030.512492,-995.924147,1406.391290
1206.657465,-8142.265362,-689.485948,666.185348
1206.657777,-7772.162391,-689.485948,888.247130
1206.658088,-7105.977043,-383.047749,666.185348
1206.658400,-7179.997637,-459.657299,222.061783
1206.658711,-8364.327145,-153.219100,444.123565
1206.659023,-8808.450710,153.219100,814.226536
1206.659334,-9474.636058,689.485948,1036.288319
1206.659646,-9696.697840,612.876398,888.247130
1206.659957,-9178.553681,842.705048,1258.350101
1206.660269,-9326.594869,0.000000,296.082377
1206.660580,-7698.141797,0.000000,518.144159
1206.660892,-7698.141797,0.000000,-74.020594
1206.661203,-8216.285956,-306.438199,-296.082377
1206.661515,-8364.327145,0.000000,-74.020594
1206.661826,-9252.574275,-229.828649,-444.123565
1206.662138,-9548.656652,-536.266849,-222.061783
1206.662449,-9178.553681,76.609550,444.123565
1206.662761,-9400.615463,-612.876398,444.123565
1206.663072,-9844.739029,-459.657299,962.267725
1206.663384,-9696.697840,-689.485948,888.247130
1206.663695,-9474.636058,-536.266849,1036.288319
1206.664007,-9770.718434,-76.609550,1258.350101
1206.664318,-9474.636058,229.828649,1406.391290
1206.664629,-9326.594869,0.000000,592.164754
1206.664941,-9178.553681,612.876398,-0.000000
1206.665252,-8586.388927,842.705048,-0.000000
1206.665564,-8512.368333,612.876398,-296.082377
1206.665875,-8438.347739,919.314598,-74.020594
1206.666187,-8882.471304,76.609550,-148.041188
1206.666498,-8956.491898,-689.485948,-0.000000
1206.666810,-9400.615463,-1149.143247,444.123565
1206.667121,-9104.533087,-383.047749,1406.391290
1206.667433,-8956.491898,-1762.019645,888.247130
1206.667744,-8512.368333,-1532.190996,1036.288319
1206.668056,-8068.244768,-1915.238745,1110.308913
1206.668367,-8216.285956,-1608.800546,740.205942
1206.668679,-8068.244768,-919.314598,1036.288319
1206.668990,-8660.409521,0.000000,962.267725
1206.669302,-8660.409521,689.485948,592.164754
1206.669613,-8364.327145,1149.143247,962.267725
1206.669925,-8290.306550,0.000000,666.185348
1206.670236,-7698.141797,76.609550,-0.000000
1206.670548,-7994.224174,229.828649,-0.000000
1206.670859,-8734.430116,153.219100,-0.000000
1206.671171,-9030.512492,153.219100,-0.000000
1206.671482,-9400.615463,76.609550,-222.061783
1206.671794,-9918.759623,-229.828649,-0.000000
1206.672105,-9474.636058,-459.657299,296.082377
1206.672416,-9474.636058,-459.657299,222.061783
1206.672728,-9400.615463,-612.876398,666.185348
1206.673039,-9104.533087,-536.266849,518.144159
1206.673351,-9474.636058,-536.266849,666.185348
1206.673662,-8956.491898,-383.047749,1036.288319
1206.673974,-9030.512492,0.000000,740.205942
1206.674285,-9178.553681,766.095498,1036.288319
1206.674597,-9400.615463,536.266849,888.247130
1206.674908,-10066.800811,-306.438199,666.185348
1206.675220,-9326.594869,-995.924147,814.226536
1206.675531,-9770.718434,-229.828649,740.205942
1206.675843,-9992.780217,0.000000,370.102971
1206.676154,-9696.697840,153.219100,370.102971
1206.676466,-9474.636058,-383.047749,444.123565
1206.676777,-8660.409521,76.609550,370.102971
1206.677089,-8734.430116,0.000000,148.041188
1206.677400,-7772.162391,153.219100,370.102971
1206.677712,-7328.038826,0.000000,592.164754
1206.678023,-7105.977043,0.000000,296.082377
1206.678335,-6957.935855,0.000000,148.041188
1206.678646,-7254.018232,0.000000,370.102971
1206.678958,-8290.306550,0.000000,814.226536
1206.679269,-8808.450710,0.000000,1480.411884
1206.679581,-9178.553681,612.876398,1184.329507
1206.679892,-9104.533087,842.705048,1332.370696
1206.680203,-8882.471304,0.000000,888.247130
1206.680515,-8438.347739,0.000000,592.164754
1206.680826,-7920.203579,153.219100,-222.061783
1206.681138,-7994.224174,612.876398,-592.164754
1206.681449,-8734.430116,306.438199,-592.164754
1206.681761,-9252.574275,459.657299,-222.061783
1206.682072,-10066.800811,-229.828649,296.082377
1206.682384,-9844.739029,0.000000,814.226536
1206.682696,-10066.800811,-383.047749,1036.288319
1206.683007,-10288.862594,-612.876398,1036.288319
1206.683319,-9474.636058,-306.438199,888.247130
1206.683630,-8882.471304,306.438199,592.164754
1206.683942,-8438.347739,689.485948,370.102971
1206.684254,-8216.285956,1608.800546,370.102971
1206.684565,-8882.471304,995.924147,740.205942
1206.684877,-8586.388927,689.485948,592.164754
1206.685188,-9474.636058,383.047749,296.082377
1206.685500,-9548.656652,153.219100,296.082377
1206.685811,-9696.697840,-306.438199,370.102971
1206.686123,-10436.903782,-766.095498,296.082377
1206.686435,-9770.718434,-229.828649,296.082377
1206.686746,-9326.594869,-383.047749,1184.329507
1206.687058,-9030.512492,-995.924147,740.205942
1206.687369,-8512.368333,-1225.752797,888.247130
1206.687681,-7846.182985,-1302.362347,1036.288319
1206.687992,-7476.080014,-842.705048,740.205942
1206.688304,-7031.956449,-306.438199,296.082377
1206.688616,-7402.059420,0.000000,148.041188
1206.688927,-7402.059420,306.438199,-0.000000
1206.689239,-8068.244768,919.314598,592.164754
1206.689550,-8364.327145,689.485948,1110.308913
1206.689862,-8956.491898,612.876398,814.226536
1206.690174,-9252.574275,0.000000,1110.308913
1206.690485,-8512.368333,0.000000,592.164754
1206.690797,-8586.388927,-153.219100,296.082377
1206.691108,-8808.450710,0.000000,-74.020594
1206.691420,-8808.450710,153.219100,-518.144159
1206.691731,-9622.677246,-383.047749,-74.020594
1206.692043,-9696.697840,-153.219100,148.041188
1206.692355,-9844.739029,-766.095498,-0.000000
1206.692666,-9844.739029,-919.314598,444.123565
1206.692978,-9178.553681,-995.924147,740.205942
1206.693289,-8882.471304,-995.924147,740.205942
1206.693601,-8808.450710,-612.876398,814.226536
1206.693912,-8882.471304,-153.219100,666.185348
1206.694224,-8808.450710,0.000000,1406.391290
1206.694536,-9622.677246,1378.971896,1184.329507
1206.694847,-9770.718434,612.876398,962.267725
1206.695159,-9622.677246,689.485948,370.102971
1206.695470,-9178.553681,766.095498,-0.000000
1206.695782,-8734.430116,1072.533697,-74.020594
1206.696094,-8882.471304,1302.362347,-592.164754
1206.696405,-8512.368333,689.485948,-0.000000
1206.696717,-8956.491898,0.000000,370.102971
1206.697028,-8586.388927,0.000000,740.205942
1206.697340,-8290.306550,-459.657299,1110.308913
1206.697651,-8290.306550,-1072.533697,962.267725
1206.697963,-7772.162391,-995.924147,1184.329507
1206.698275,-7698.141797,-1149.143247,1036.288319
1206.698586,-7698.141797,-536.266849,1628.453072
1206.698898,-8068.244768,-229.828649,1258.350101
1206.699209,-8808.450710,306.438199,1332.370696
1206.699521,-9030.512492,919.314598,1480.411884
1206.699833,-8734.430116,689.485948,1110.308913
1206.700144,-8216.285956,842.705048,444.123565
1206.700456,-8068.244768,153.219100,-0.000000
1206.700767,-7846.182985,383.047749,-296.082377
1206.701079,-7920.203579,383.047749,-74.020594
1206.701390,-8586.388927,689.485948,-74.020594
1206.701702,-9548.656652,0.000000,-0.000000
1206.702014,-9844.739029,-306.438199,296.082377
1206.702325,-9992.780217,-459.657299,888.247130
1206.702637,-10066.800811,0.000000,962.267725
1206.702948,-9622.677246,-153.219100,666.185348
1206.703260,-9252.574275,-229.828649,740.205942
1206.703571,-8808.450710,0.000000,666.185348
1206.703883,-8290.306550,-689.485948,666.185348
1206.704195,-8956.491898,-306.438199,148.041188
1206.704506,-9252.574275,689.485948,518.144159
1206.704818,-9252.574275,459.657299,444.123565
1206.705129,-8956.491898,76.609550,444.123565
1206.705441,-9252.574275,153.219100,296.082377
1206.705753,-9918.759623,-459.657299,222.061783
1206.706064,-9696.697840,0.000000,888.247130
1206.706376,-10140.821405,536.266849,-0.000000
1206.706687,-9252.574275,689.485948,666.185348
1206.706999,-8956.491898,-383.047749,592.164754
1206.707310,-8882.471304,-1302.362347,666.185348
1206.707622,-7772.162391,-1302.362347,666.185348
1206.707934,-6957.935855,-995.924147,370.102971
1206.708245,-7328.038826,-1225.752797,-0.000000
1206.708557,-7624.121203,-1225.752797,444.123565
1206.708868,-8364.327145,-766.095498,740.205942
1206.709180,-9030.512492,0.000000,1110.308913
1206.709491,-8882.471304,536.266849,1480.411884
1206.709803,-9400.615463,536.266849,1332.370696
1206.710115,-9030.512492,306.438199,1110.308913
1206.710426,-8216.285956,0.000000,518.144159
1206.710738,-7402.059420,76.609550,-0.000000
1206.711049,-8364.327145,383.047749,-444.123565
1206.711361,-8586.388927,536.266849,-1184.329507
1206.711673,-9030.512492,76.609550,-444.123565
1206.711984,-9992.780217,-766.095498,-0.000000
1206.712296,-10288.862594,-689.485948,370.102971
1206.712607,-9992.780217,-995.924147,592.164754
1206.712919,-10140.821405,-1378.971896,740.205942
1206.713230,-9844.739029,-766.095498,1036.288319
1206.713542,-8660.409521,-1072.533697,888.247130
1206.713854,-8290.306550,-229.828649,888.247130
1206.714165,-8364.327145,153.219100,740.205942
1206.714477,-8882.471304,383.047749,592.164754
1206.714788,-8882.471304,842.705048,740.205942
1206.715100,-9104.533087,459.657299,518.144159
1206.715411,-9548.656652,383.047749,148.041188
1206.715723,-9474.636058,0.000000,-222.061783
1206.716035,-9844.739029,0.000000,-222.061783
1206.716346,-9400.615463,-153.219100,148.041188
1206.716658,-9992.780217,-612.876398,592.164754
1206.716969,-9400.615463,-612.876398,1110.308913
1206.717281,-8734.430116,-383.047749,1184.329507
1206.717593,-8068.244768,-689.485948,1036.288319
1206.717904,-6957.935855,-612.876398,962.267725
1206.718216,-6365.771101,0.000000,-0.000000
1206.718527,-6661.853478,306.438199,370.102971
1206.718839,-7105.977043,-229.828649,296.082377
1206.719150,-8512.368333,306.438199,592.164754
1206.719462,-9326.594869,766.095498,592.164754
1206.719774,-9548.656652,383.047749,1110.308913
1206.720085,-9326.594869,0.000000,1036.288319
1206.720397,-9178.553681,0.000000,666.185348
1206.720708,-9030.512492,0.000000,-0.000000
1206.721020,-8438.347739,536.266849,-740.205942
1206.721332,-8512.368333,919.314598,-444.123565
1206.721643,-9030.512492,995.924147,-296.082377
1206.721955,-9474.636058,459.657299,-222.061783
1206.722266,-9104.533087,689.485948,222.061783
1206.722578,-9326.594869,689.485948,444.123565
1206.722889,-9696.697840,229.828649,370.102971
1206.723201,-10066.800811,306.438199,666.185348
1206.723513,-9400.615463,842.705048,740.205942
1206.723824,-9474.636058,-153.219100,518.144159
1206.724136,-9400.615463,306.438199,666.185348
1206.724447,-9178.553681,842.705048,814.226536
1206.724759,-8660.409521,689.485948,518.144159
1206.725070,-8660.409521,0.000000,296.082377
1206.725382,-9326.594869,76.609550,370.102971
1206.725694,-8956.491898,995.924147,-148.041188
1206.726005,-9104.533087,689.485948,-0.000000
1206.726317,-9400.615463,0.000000,444.123565
1206.726628,-9178.553681,-153.219100,296.082377
1206.726940,-9178.553681,-842.705048,444.123565
1206.727252,-8364.327145,-1302.362347,962.267725
1206.727563,-8142.265362,-1532.190996,1406.391290
1206.727875,-7624.121203,-1685.410096,1184.329507
1206.728186,-7772.162391,-1685.410096,888.247130
1206.728498,-7550.100608,-1455.581446,888.247130
1206.728809,-8364.327145,-766.095498,740.205942
1206.729121,-8734.430116,153.219100,888.247130
1206.729433,-8882.471304,842.705048,888.247130
1206.729744,-8956.491898,919.314598,962.267725
1206.730056,-8808.450710,612.876398,518.144159
1206.730367,-8364.327145,229.828649,296.082377
1206.730679,-7698.141797,-306.438199,222.061783
1206.730990,-7772.162391,-536.266849,-222.061783
1206.731302,-8364.327145,-536.266849,-222.061783
1206.731614,-9474.636058,-766.095498,-222.061783
1206.731925,-10214.842000,-995.924147,-0.000000
1206.732237,-11325.150913,-1072.533697,444.123565
1206.732548,-11399.171507,-1378.971896,888.247130
1206.732860,-10436.903782,-689.485948,740.205942
1206.733172,-9622.677246,-842.705048,518.144159
1206.733483,-9030.512492,-536.266849,296.082377
1206.733795,-8438.347739,0.000000,370.102971
1206.734106,-8216.285956,689.485948,592.164754
1206.734418,-8364.327145,1072.533697,1036.288319
1206.734729,-8956.491898,689.485948,1036.288319
1206.735041,-9474.636058,612.876398,888.247130
1206.735353,-9696.697840,153.219100,222.061783
1206.735664,-9474.636058,1072.533697,-0.000000
1206.735976,-10066.800811,995.924147,-0.000000
1206.736287,-9992.780217,689.485948,-296.082377
1206.736599,-9770.718434,229.828649,296.082377
1206.736910,-9326.594869,0.000000,740.205942
1206.737222,-7994.224174,0.000000,1036.288319
1206.737534,-7179.997637,-383.047749,740.205942
1206.737845,-6069.688724,-153.219100,962.267725
1206.738157,-6217.729913,-689.485948,370.102971
1206.738468,-6587.832884,0.000000,222.061783
1206.738780,-7254.018232,306.438199,592.164754
1206.739092,-8660.409521,0.000000,740.205942
1206.739403,-9474.636058,-383.047749,1332.370696
1206.739715,-9770.718434,383.047749,1332.370696
1206.740026,-9400.615463,0.000000,1258.350101
1206.740338,-9326.594869,0.000000,518.144159
1206.740649,-8734.430116,-383.047749,-0.000000
1206.740961,-7994.224174,0.000000,-296.082377
1206.741273,-7920.203579,536.266849,-518.144159
1206.741584,-8660.409521,766.095498,-444.123565
1206.741896,-9622.677246,76.609550,-148.041188
1206.742207,-9844.739029,306.438199,666.185348
1206.742519,-9918.759623,76.609550,888.247130
1206.742831,-10214.842000,0.000000,1110.308913
1206.743142,-9770.718434,0.000000,962.267725
1206.743454,-9622.677246,-306.438199,888.247130
1206.743765,-9326.594869,-459.657299,592.164754
1206.744077,-9474.636058,-536.266849,592.164754
1206.744388,-9474.636058,536.266849,592.164754
1206.744700,-8882.471304,995.924147,666.185348
1206.745012,-8956.491898,-383.047749,592.164754
1206.745323,-8734.430116,-689.485948,592.164754
1206.745635,-8438.347739,-536.266849,222.061783
1206.745946,-9178.553681,-229.828649,-148.041188
1206.746258,-9400.615463,0.000000,222.061783
1206.746569,-9400.615463,0.000000,444.123565
1206.746881,-9548.656652,-536.266849,296.082377
1206.747193,-9030.512492,-1378.971896,888.247130
1206.747504,-8438.347739,-1149.143247,888.247130
1206.747816,-7994.224174,-1225.752797,962.267725
1206.748127,-7846.182985,-995.924147,740.205942
1206.748439,-7698.141797,-842.705048,444.123565
1206.748751,-8290.306550,-536.266849,296.082377
1206.749062,-8290.306550,995.924147,370.102971
1206.749374,-8438.347739,1532.190996,518.144159
1206.749685,-8068.244768,1149.143247,518.144159
1206.749997,-8882.471304,919.314598,370.102971
1206.750308,-8660.409521,76.609550,296.082377
1206.750620,-8068.244768,-153.219100,222.061783
1206.750932,-8438.347739,-383.047749,74.020594
1206.751243,-8808.450710,-612.876398,-222.061783
1206.751555,-9622.677246,0.000000,-74.020594
1206.751866,-9770.718434,-1072.533697,-0.000000
1206.752178,-9844.739029,-459.657299,-0.000000
1206.752489,-10214.842000,-689.485948,444.123565
1206.752801,-9992.780217,-459.657299,592.164754
1206.753113,-9474.636058,-459.657299,740.205942
1206.753424,-8882.471304,-459.657299,296.082377
1206.753736,-8364.327145,76.609550,814.226536
1206.754047,-8364.327145,459.657299,740.205942
1206.754359,-8438.347739,1072.533697,1110.308913
1206.754671,-8956.491898,1225.752797,888.247130
1206.754982,-9104.533087,842.705048,1036.288319
1206.755294,-8808.450710,766.095498,1184.329507
1206.755605,-9252.574275,153.219100,518.144159
1206.755917,-9178.553681,229.828649,370.102971
1206.756228,-9696.697840,229.828649,-0.000000
1206.756540,-9622.677246,459.657299,888.247130
1206.756852,-9030.512492,0.000000,444.123565
1206.757163,-8142.265362,-306.438199,1036.288319
1206.757475,-7846.182985,-919.314598,740.205942
1206.757786,-7846.182985,-1225.752797,962.267725
1206.758098,-7105.977043,-1225.752797,888.247130
1206.758409,-7328.038826,-689.485948,592.164754
1206.758721,-7994.224174,-459.657299,814.226536
1206.759033,-9178.553681,-1149.143247,1258.350101
1206.759344,-9622.677246,-459.657299,1406.391290
1206.759656,-9696.697840,153.219100,1258.350101
1206.759967,-9474.636058,689.485948,1184.329507
1206.760279,-8882.471304,0.000000,518.144159
1206.760591,-8438.347739,-383.047749,-0.000000
1206.760902,-7772.162391,0.000000,-370.102971
1206.761214,-7846.182985,229.828649,-592.164754
1206.761525,-8660.409521,919.314598,-74.020594
1206.761837,-9474.636058,842.705048,-74.020594
1206.762148,-10140.821405,0.000000,444.123565
1206.762460,-9992.780217,-383.047749,1258.350101
1206.762772,-9992.780217,-306.438199,1036.288319
1206.763083,-9400.615463,0.000000,1036.288319
1206.763395,-9252.574275,-229.828649,370.102971
1206.763706,-9030.512492,-612.876398,518.144159
1206.764018,-9030.512492,0.000000,-0.000000
1206.764330,-9178.553681,536.266849,444.123565
1206.764641,-9474.636058,229.828649,222.061783
1206.764953,-8734.430116,-306.438199,444.123565
1206.765264,-8882.471304,-766.095498,296.082377
1206.765576,-9178.553681,-229.828649,-0.000000
1206.765887,-9178.553681,-153.219100,-0.000000
1206.766199,-9474.636058,0.000000,222.061783
1206.766511,-8882.471304,229.828649,592.164754
1206.766822,-9030.512492,0.000000,296.082377
1206.767134,-9696.697840,-229.828649,740.205942
1206.767445,-8142.265362,0.000000,592.164754
1206.767757,-7624.121203,0.000000,370.102971
1206.768068,-7105.977043,0.000000,-0.000000
1206.768380,-7254.018232,-536.266849,-0.000000
1206.768692,-8216.285956,0.000000,-222.061783
1206.769003,-8290.306550,76.609550,-0.000000
1206.769315,-9178.553681,842.705048,592.164754
1206.769626,-9548.656652,536.266849,1258.350101
1206.769938,-9326.594869,-229.828649,1110.308913
1206.770250,-8660.409521,-995.924147,1332.370696
1206.770561,-8068.244768,-1149.143247,1036.288319
1206.770873,-8660.409521,-1378.971896,592.164754
1206.771184,-8882.471304,-1302.362347,222.061783
1206.771496,-9474.636058,-612.876398,-0.000000
1206.771807,-10066.800811,-1302.362347,-0.000000
1206.772119,-10288.862594,-842.705048,296.082377
1206.772431,-10140.821405,-689.485948,370.102971
1206.772742,-10510.924376,-689.485948,962.267725
1206.773054,-9696.697840,-689.485948,962.267725
1206.773365,-9474.636058,-612.876398,592.164754
1206.773677,-8808.450710,536.266849,592.164754
1206.773988,-8290.306550,1378.971896,1036.288319
1206.774300,-8882.471304,1302.362347,814.226536
1206.774612,-8142.265362,1455.581446,1110.308913
1206.774923,-8512.368333,1378.971896,1184.329507
1206.775235,-8512.368333,842.705048,888.247130
1206.775546,-8808.450710,842.705048,518.144159
1206.775858,-8956.491898,1532.190996,370.102971
1206.776170,-9474.636058,842.705048,-0.000000
1206.776481,-9474.636058,229.828649,-0.000000
1206.776793,-9696.697840,153.219100,148.041188
1206.777104,-8882.471304,306.438199,962.267725
1206.777416,-8068.244768,-229.828649,1406.391290
1206.777727,-7920.203579,-919.314598,1110.308913
1206.778039,-7254.018232,-766.095498,1480.411884
1206.778351,-6883.915261,-306.438199,962.267725
1206.778662,-6587.832884,-153.219100,1036.288319
1206.778974,-8142.265362,229.828649,962.267725
1206.779285,-8660.409521,766.095498,1184.329507
1206.779597,-9030.512492,766.095498,1110.308913
1206.779908,-8882.471304,766.095498,1184.329507
1206.780220,-8882.471304,76.609550,518.144159
1206.780532,-8438.347739,0.000000,-74.020594
1206.780843,-7698.141797,612.876398,-814.226536
1206.781155,-7846.182985,229.828649,-962.267725
1206.781466,-8364.327145,459.657299,-518.144159
1206.781778,-9548.656652,383.047749,-222.061783
1206.782089,-10436.903782,153.219100,-0.000000
1206.782401,-10362.883188,-153.219100,666.185348
1206.782712,-10288.862594,-229.828649,740.205942
1206.783024,-9696.697840,-383.047749,370.102971
1206.783335,-9622.677246,-459.657299,-0.000000
1206.783647,-9252.574275,-612.876398,592.164754
1206.783958,-8956.491898,0.000000,222.061783
1206.784269,-9770.718434,383.047749,-148.041188
1206.784581,-9918.759623,459.657299,-0.000000
1206.784892,-9400.615463,383.047749,296.082377
1206.785204,-9252.574275,-306.438199,296.082377
1206.785515,-8660.409521,0.000000,296.082377
1206.785827,-8734.430116,76.609550,-0.000000
1206.786138,-9104.533087,0.000000,-74.020594
1206.786450,-8660.409521,459.657299,222.061783
1206.786761,-9030.512492,383.047749,444.123565
1206.787073,-9030.512492,-612.876398,666.185348
1206.787384,-8586.388927,-1378.971896,1110.308913
1206.787696,-7994.224174,-1378.971896,962.267725
1206.788007,-7624.121203,-1302.362347,888.247130
1206.788318,-7920.203579,-1302.362347,518.144159
1206.788630,-8290.306550,-1225.752797,666.185348
1206.788941,-8660.409521,-689.485948,814.226536
1206.789253,-8956.491898,153.219100,1184.329507
1206.789564,-9178.553681,842.705048,1258.350101
1206.789876,-8882.471304,766.095498,1184.329507
1206.790187,-8364.327145,0.000000,1036.288319
1206.790499,-7328.038826,-229.828649,814.226536
1206.790810,-7179.997637,-536.266849,-74.020594
1206.791122,-7254.018232,76.609550,-0.000000
1206.791433,-8734.430116,-306.438199,-296.082377
1206.791744,-9326.594869,-459.657299,370.102971
1206.792056,-10066.800811,-842.705048,962.267725
1206.792367,-10732.986159,-1302.362347,962.267725
1206.792679,-10214.842000,-766.095498,1258.350101
1206.792990,-9252.574275,0.000000,1332.370696
1206.793302,-9400.615463,-459.657299,518.144159
1206.793613,-8956.491898,0.000000,814.226536
1206.793925,-8734.430116,536.266849,592.164754
1206.794236,-8734.430116,1378.971896,1110.308913
1206.794548,-9030.512492,1838.629195,962.267725
1206.794859,-9104.533087,1685.410096,888.247130
1206.795170,-9030.512492,1455.581446,444.123565
1206.795482,-8438.347739,995.924147,74.020594
1206.795793,-9252.574275,919.314598,-74.020594
1206.796105,-9400.615463,1072.533697,-222.061783
1206.796416,-9474.636058,919.314598,-0.000000
1206.796728,-9918.759623,0.000000,370.102971
1206.797039,-9548.656652,-153.219100,740.205942
1206.797351,-8734.430116,-383.047749,888.247130
1206.797662,-8142.265362,-689.485948,518.144159
1206.797974,-7105.977043,-766.095498,888.247130
1206.798285,-6365.771101,-689.485948,592.164754
1206.798597,-6735.874072,-689.485948,666.185348
1206.798908,-7698.141797,-383.047749,888.247130
1206.799219,-8586.388927,0.000000,962.267725
1206.799531,-9178.553681,153.219100,962.267725
1206.799842,-8956.491898,153.219100,1184.329507
1206.800154,-8734.430116,-383.047749,814.226536
1206.800465,-9030.512492,-229.828649,296.082377
1206.800777,-8290.306550,0.000000,-0.000000
1206.801088,-7920.203579,229.828649,-444.123565
1206.801400,-8586.388927,383.047749,-518.144159
1206.801711,-8956.491898,536.266849,-370.102971
1206.802023,-9622.677246,536.266849,-148.041188
1206.802334,-9548.656652,76.609550,296.082377
1206.802645,-9474.636058,0.000000,444.123565
1206.802957,-9844.739029,-1455.581446,666.185348
1206.803268,-9252.574275,-459.657299,888.247130
1206.803580,-9474.636058,-766.095498,592.164754
1206.803891,-9252.574275,-842.705048,444.123565
1206.804203,-9622.677246,-153.219100,296.082377
1206.804514,-9844.739029,0.000000,518.144159
1206.804826,-9622.677246,153.219100,518.144159
1206.805137,-9696.697840,-536.266849,370.102971
1206.805449,-9474.636058,153.219100,-0.000000
1206.805760,-8956.491898,306.438199,-74.020594
1206.806071,-9622.677246,0.000000,-0.000000
1206.806383,-9400.615463,229.828649,666.185348
1206.806694,-9400.615463,0.000000,740.205942
1206.807006,-9326.594869,-919.314598,962.267725
1206.807317,-8586.388927,-1149.143247,1406.391290
1206.807629,-8438.347739,-995.924147,962.267725
1206.807940,-7476.080014,-153.219100,888.247130
1206.808252,-7179.997637,-536.266849,370.102971
1206.808563,-7550.100608,-1225.752797,370.102971
1206.808875,-7846.182985,-459.657299,296.082377
1206.809186,-8512.368333,383.047749,666.185348
1206.809497,-9030.512492,919.314598,814.226536
1206.809809,-8956.491898,1225.752797,1184.329507
1206.810120,-8512.368333,689.485948,1036.288319
1206.810432,-7476.080014,153.219100,814.226536
1206.810743,-7624.121203,76.609550,-0.000000
1206.811055,-7846.182985,0.000000,-148.041188
1206.811366,-8512.368333,306.438199,-148.041188
1206.811678,-9474.636058,-229.828649,-74.020594
1206.811989,-9992.780217,-612.876398,-0.000000
1206.812301,-10658.965565,-612.876398,148.041188
1206.812612,-10362.883188,-229.828649,814.226536
1206.812924,-10066.800811,-1225.752797,1036.288319
1206.813235,-9548.656652,-1149.143247,740.205942
1206.813546,-8808.450710,-612.876398,814.226536
1206.813858,-8438.347739,229.828649,814.226536
1206.814169,-8068.244768,919.314598,740.205942
1206.814481,-8364.327145,1378.971896,888.247130
1206.814792,-8512.368333,1149.143247,444.123565
1206.815104,-9474.636058,383.047749,148.041188
1206.815415,-8808.450710,0.000000,444.123565
1206.815727,-9474.636058,536.266849,296.082377
1206.816038,-10066.800811,0.000000,222.061783
1206.816350,-9992.780217,-229.828649,296.082377
1206.816661,-9992.780217,-842.705048,222.061783
1206.816972,-9474.636058,-842.705048,370.102971
1206.817284,-8808.450710,-536.266849,444.123565
1206.817595,-8808.450710,-689.485948,370.102971
1206.817907,-7698.141797,-995.924147,592.164754
1206.818218,-7031.956449,-1072.533697,666.185348
1206.818530,-7105.977043,-1072.533697,962.267725
1206.818841,-7846.182985,-766.095498,666.185348
1206.819153,-8882.471304,-459.657299,1110.308913
1206.819464,-9622.677246,0.000000,962.267725
1206.819776,-9474.636058,995.924147,888.247130
1206.820087,-9326.594869,766.095498,962.267725
1206.820398,-8956.491898,-383.047749,444.123565
1206.820710,-8734.430116,0.000000,-296.082377
1206.821021,-8364.327145,689.485948,-666.185348
1206.821333,-8364.327145,1072.533697,-814.226536
1206.821644,-8808.450710,1149.143247,-444.123565
1206.821956,-9252.574275,536.266849,-74.020594
1206.822267,-9400.615463,383.047749,296.082377
1206.822579,-9326.594869,-306.438199,1036.288319
1206.822890,-9548.656652,-306.438199,740.205942
1206.823202,-9252.574275,-306.438199,1036.288319
1206.823513,-9104.533087,-383.047749,888.247130
1206.823825,-8734.430116,-536.266849,1036.288319
1206.824136,-9178.553681,-229.828649,962.267725
1206.824447,-9252.574275,0.000000,592.164754
1206.824759,-8882.471304,459.657299,296.082377
1206.825070,-8808.450710,995.924147,-0.000000
1206.825382,-9030.512492,0.000000,-74.020594
1206.825693,-8734.430116,229.828649,-222.061783
1206.826005,-9178.553681,459.657299,-0.000000
1206.826316,-9178.553681,766.095498,222.061783
1206.826628,-9104.533087,766.095498,592.164754
1206.826939,-9474.636058,-689.485948,740.205942
1206.827251,-8882.471304,-459.657299,1110.308913
1206.827562,-8364.327145,-612.876398,814.226536
1206.827873,-7920.203579,-459.657299,666.185348
1206.828185,-8068.244768,-612.876398,518.144159
1206.828496,-8290.306550,-689.485948,518.144159
1206.828808,-8438.347739,-689.485948,592.164754
1206.829119,-8660.409521,306.438199,444.123565
1206.829431,-8956.491898,612.876398,666.185348
1206.829742,-9104.533087,536.266849,740.205942
1206.830054,-8586.388927,306.438199,592.164754
1206.830365,-8438.347739,0.000000,444.123565
1206.830677,-8290.306550,-153.219100,296.082377
1206.830988,-8068.244768,-153.219100,148.041188
1206.831299,-8808.450710,-383.047749,-222.061783
1206.831611,-9178.553681,-995.924147,-222.061783
1206.831922,-10288.862594,-689.485948,-0.000000
1206.832234,-10214.842000,-919.314598,444.123565
1206.832545,-10436.903782,-1072.533697,814.226536
1206.832857,-10288.862594,-1225.752797,666.185348
1206.833168,-9918.759623,-995.924147,592.164754
1206.833480,-9178.553681,-459.657299,222.061783
1206.833791,-8882.471304,-229.828649,444.123565
1206.834103,-8808.450710,612.876398,592.164754
1206.834414,-9104.533087,842.705048,1332.370696
1206.834725,-8956.491898,766.095498,1332.370696
1206.835037,-8956.491898,536.266849,1332.370696
1206.835348,-9400.615463,306.438199,666.185348
1206.835660,-9104.533087,612.876398,444.123565
1206.835971,-9178.553681,919.314598,-148.041188
1206.836283,-8956.491898,766.095498,-222.061783
1206.836594,-9030.512492,612.876398,-296.082377
1206.836906,-9326.594869,-229.828649,-222.061783
1206.837217,-7920.203579,153.219100,888.247130
1206.837529,-7772.162391,-306.438199,666.185348
1206.837840,-7698.141797,-459.657299,740.205942
1206.838152,-7105.977043,-229.828649,740.205942
1206.838463,-6883.915261,-153.219100,814.226536
1206.838774,-6957.935855,-612.876398,1036.288319
1206.839086,-7994.224174,153.219100,1332.370696
1206.839397,-9030.512492,459.657299,1554.432478
1206.839709,-9326.594869,459.657299,1258.350101
1206.840020,-9400.615463,612.876398,1036.288319
1206.840332,-9474.636058,0.000000,518.144159
1206.840643,-8956.491898,-229.828649,-0.000000
1206.840955,-8290.306550,306.438199,-592.164754
1206.841266,-8142.265362,1072.533697,-740.205942
1206.841578,-8586.388927,1072.533697,-666.185348
1206.841889,-9622.677246,766.095498,-148.041188
1206.842200,-9770.718434,459.657299,740.205942
1206.842512,-9474.636058,229.828649,1480.411884
1206.842823,-9252.574275,0.000000,1110.308913
1206.843135,-9178.553681,0.000000,1036.288319
1206.843446,-8882.471304,-229.828649,814.226536
1206.843758,-8512.368333,-919.314598,444.123565
1206.844069,-9030.512492,-689.485948,518.144159
1206.844381,-9696.697840,-153.219100,444.123565
1206.844692,-9474.636058,0.000000,666.185348
1206.845004,-9844.739029,-306.438199,962.267725
1206.845315,-9326.594869,-459.657299,592.164754
1206.845626,-9178.553681,76.609550,222.061783
1206.845938,-9326.594869,459.657299,370.102971
1206.846249,-9104.533087,612.876398,-0.000000
1206.846561,-9400.615463,229.828649,666.185348
1206.846872,-9104.533087,612.876398,888.247130
1206.847184,-9030.512492,-995.924147,1110.308913
1206.847495,-8660.409521,-1378.971896,1036.288319
1206.847807,-7772.162391,-1072.533697,1110.308913
1206.848118,-7328.038826,-1225.752797,666.185348
1206.848430,-7920.203579,-1532.190996,296.082377
1206.848741,-7994.224174,-1225.752797,444.123565
1206.849052,-8290.306550,0.000000,222.061783
1206.849364,-8660.409521,995.924147,666.185348
1206.849675,-9178.553681,536.266849,888.247130
1206.849987,-8956.491898,306.438199,1036.288319
1206.850298,-8660.409521,-153.219100,1036.288319
1206.850610,-8142.265362,0.000000,518.144159
1206.850921,-7846.182985,0.000000,518.144159
1206.851233,-8216.285956,-689.485948,-296.082377
1206.851544,-9030.512492,-842.705048,-74.020594
1206.851856,-9696.697840,-1378.971896,-0.000000
1206.852167,-10362.883188,-1149.143247,222.061783
1206.852479,-10584.944971,-1072.533697,666.185348
1206.852790,-10436.903782,-842.705048,740.205942
1206.853101,-9918.759623,-383.047749,740.205942
1206.853413,-9326.594869,306.438199,370.102971
1206.853724,-8512.368333,766.095498,592.164754
1206.854036,-8068.244768,1302.362347,148.041188
1206.854347,-7624.121203,1532.190996,814.226536
1206.854659,-8142.265362,1838.629195,666.185348
1206.854970,-8586.388927,842.705048,592.164754
1206.855282,-9178.553681,459.657299,518.144159
1206.855593,-9400.615463,842.705048,148.041188
1206.855905,-9622.677246,459.657299,-74.020594
1206.856216,-9992.780217,76.609550,-0.000000
1206.856527,-9918.759623,-229.828649,296.082377
1206.856839,-9622.677246,-536.266849,-0.000000
1206.857150,-9252.574275,-689.485948,814.226536
1206.857462,-8364.327145,-1302.362347,888.247130
1206.857773,-7402.059420,-1149.143247,814.226536
1206.858085,-6957.935855,-1072.533697,888.247130
1206.858396,-6735.874072,-536.266849,1036.288319
1206.858708,-7105.977043,0.000000,1110.308913
1206.859019,-8438.347739,-153.219100,1258.350101
1206.859331,-9178.553681,153.219100,1184.329507
1206.859642,-9474.636058,536.266849,1036.288319
1206.859953,-9104.533087,919.314598,962.267725
1206.860265,-9104.533087,306.438199,370.102971
1206.860576,-8882.471304,76.609550,-74.020594
1206.860888,-8290.306550,153.219100,-666.185348
1206.861199,-8290.306550,1532.190996,-962.267725
1206.861511,-8438.347739,1378.971896,-370.102971
1206.861822,-9474.636058,383.047749,-0.000000
1206.862134,-9622.677246,306.438199,740.205942
1206.862445,-9622.677246,-306.438199,1036.288319
1206.862757,-9400.615463,-229.828649,1110.308913
1206.863068,-9548.656652,76.609550,370.102971
1206.863380,-9104.533087,-153.219100,962.267725
1206.863691,-9030.512492,-842.705048,592.164754
1206.864002,-8882.471304,-536.266849,740.205942
1206.864314,-9992.780217,383.047749,370.102971
1206.864625,-9474.636058,536.266849,518.144159
1206.864937,-9252.574275,-229.828649,518.144159
1206.865248,-9178.553681,-383.047749,370.102971
1206.865560,-8808.450710,0.000000,-148.041188
1206.865871,-8660.409521,76.609550,-74.020594
1206.866183,-8956.491898,0.000000,296.082377
1206.866494,-9474.636058,306.438199,740.205942
1206.866806,-9474.636058,0.000000,888.247130
1206.867117,-9400.615463,-459.657299,962.267725
1206.867428,-8586.388927,-1072.533697,1036.288319
1206.867740,-7846.182985,-689.485948,666.185348
1206.868051,-7698.141797,-919.314598,-0.000000
1206.868363,-7476.080014,-1225.752797,-0.000000
1206.868674,-8216.285956,-612.876398,148.041188
1206.868986,-8660.409521,-612.876398,592.164754
1206.869297,-9030.512492,306.438199,1036.288319
1206.869609,-9104.533087,383.047749,1110.308913
1206.869920,-9030.512492,306.438199,1110.308913
1206.870232,-8438.347739,76.609550,666.185348
1206.870543,-7846.182985,-229.828649,370.102971
1206.870854,-7476.080014,-612.876398,-0.000000
1206.871166,-7994.224174,-612.876398,-0.000000
1206.871477,-8882.471304,-842.705048,-74.020594
1206.871789,-9474.636058,-919.314598,-0.000000
1206.872100,-10066.800811,-1302.362347,296.082377
1206.872412,-10658.965565,-1149.143247,370.102971
1206.872723,-10658.965565,-919.314598,518.144159
1206.873035,-10214.842000,-842.705048,444.123565
1206.873346,-9622.677246,-306.438199,370.102971
1206.873658,-9178.553681,229.828649,-0.000000
1206.873969,-8734.430116,612.876398,222.061783
1206.874280,-8586.388927,919.314598,814.226536
1206.874592,-8660.409521,1072.533697,666.185348
1206.874903,-8956.491898,689.485948,888.247130
1206.875215,-9252.574275,-153.219100,666.185348
1206.875526,-9326.594869,-306.438199,370.102971
1206.875838,-9622.677246,229.828649,-74.020594
1206.876149,-10362.883188,-229.828649,-0.000000
1206.876461,-10066.800811,-383.047749,444.123565
1206.876772,-9918.759623,-766.095498,148.041188
1206.877084,-9030.512492,-306.438199,518.144159
1206.877395,-7994.224174,0.000000,370.102971
1206.877707,-7328.038826,-76.609550,-0.000000
1206.878018,-6143.709319,0.000000,222.061783
1206.878329,-6217.729913,-153.219100,592.164754
1206.878641,-6513.812290,153.219100,962.267725
1206.878952,-7772.162391,-153.219100,1184.329507
1206.879264,-9104.533087,229.828649,1406.391290
1206.879575,-9548.656652,536.266849,1554.432478
1206.879887,-9326.594869,1455.581446,1702.473667
1206.880198,-9030.512492,536.266849,740.205942
1206.880510,-8364.327145,-383.047749,518.144159
1206.880821,-7698.141797,-383.047749,-0.000000
1206.881133,-7624.121203,383.047749,-296.082377
1206.881444,-8068.244768,842.705048,-296.082377
1206.881755,-9030.512492,919.314598,-444.123565
1206.882067,-9696.697840,459.657299,444.123565
1206.882378,-9400.615463,612.876398,962.267725
1206.882690,-9474.636058,383.047749,1110.308913
1206.883001,-9844.739029,229.828649,962.267725
1206.883313,-9844.739029,229.828649,740.205942
1206.883624,-9918.759623,-612.876398,1036.288319
1206.883936,-9474.636058,-766.095498,740.205942
1206.884247,-9622.677246,-153.219100,814.226536
1206.884549,-9400.615463,612.876398,518.144159
1206.884861,-9104.533087,612.876398,296.082377
1206.885172,-8512.368333,153.219100,148.041188
1206.885484,-7994.224174,383.047749,-0.000000
1206.885795,-8068.244768,1149.143247,222.061783
1206.886107,-8512.368333,689.485948,666.185348
1206.886418,-8956.491898,306.438199,444.123565
1206.886730,-9548.656652,0.000000,888.247130
1206.887041,-9622.677246,-383.047749,1184.329507
1206.887353,-9474.636058,-766.095498,1554.432478
1206.887664,-9030.512492,-1838.629195,1184.329507
1206.887976,-7846.182985,-1455.581446,1036.288319
1206.888287,-7105.977043,-1915.238745,592.164754
1206.888599,-7105.977043,-1302.362347,296.082377
1206.888910,-7179.997637,-689.485948,222.061783
1206.889222,-7550.100608,0.000000,518.144159
1206.889533,-7994.224174,229.828649,666.185348
1206.889845,-8438.347739,842.705048,592.164754
1206.890156,-8734.430116,0.000000,740.205942
1206.890468,-8734.430116,229.828649,592.164754
1206.890779,-8808.450710,-306.438199,444.123565
1206.891091,-8808.450710,-459.657299,-0.000000
1206.891402,-9030.512492,-612.876398,-74.020594
1206.891714,-9548.656652,-842.705048,-148.041188
1206.892025,-9770.718434,-1149.143247,-0.000000
1206.892337,-9844.739029,-689.485948,592.164754
1206.892648,-10362.883188,-1915.238745,222.061783
1206.892960,-10066.800811,-612.876398,-0.000000
1206.893271,-10436.903782,-306.438199,148.041188
1206.893583,-9474.636058,76.609550,222.061783
1206.893894,-9326.594869,459.657299,444.123565
1206.894206,-9326.594869,536.266849,592.164754
1206.894517,-9474.636058,766.095498,666.185348
1206.894829,-9474.636058,1149.143247,1184.329507
1206.895140,-9400.615463,0.000000,666.185348
1206.895452,-8956.491898,383.047749,740.205942
1206.895763,-8956.491898,689.485948,296.082377
1206.896075,-9252.574275,536.266849,148.041188
1206.896386,-8882.471304,306.438199,-148.041188
1206.896698,-8808.450710,0.000000,-0.000000
1206.897009,-9030.512492,76.609550,444.123565
1206.897321,-8512.368333,0.000000,444.123565
1206.897632,-8142.265362,-536.266849,592.164754
1206.897944,-7772.162391,-229.828649,814.226536
1206.898255,-7624.121203,-689.485948,666.185348
1206.898567,-7476.080014,-919.314598,1554.432478
1206.898878,-8068.244768,-689.485948,1628.453072
1206.899190,-8512.368333,0.000000,1850.514855
1206.899501,-8142.265362,689.485948,1702.473667
1206.899813,-8142.265362,536.266849,1480.411884
1206.900124,-8142.265362,306.438199,592.164754
1206.900436,-8216.285956,459.657299,-222.061783
1206.900747,-8068.244768,995.924147,-444.123565
1206.901059,-7994.224174,1378.971896,-814.226536
1206.901370,-8438.347739,1378.971896,-592.164754
1206.901682,-9104.533087,612.876398,-0.000000
1206.901993,-9992.780217,0.000000,222.061783
1206.902305,-9992.780217,-153.219100,1702.473667
1206.902616,-9696.697840,-612.876398,1850.514855
1206.902928,-9844.739029,-383.047749,1480.411884
1206.903239,-9474.636058,-536.266849,1332.370696
1206.903551,-9030.512492,-766.095498,1036.288319
1206.903862,-8586.388927,-689.485948,518.144159
1206.904174,-8956.491898,0.000000,296.082377
1206.904485,-9696.697840,536.266849,370.102971
1206.904797,-9474.636058,1991.848295,222.061783
1206.905108,-9622.677246,383.047749,296.082377
1206.905420,-9992.780217,-153.219100,-0.000000
1206.905731,-9548.656652,0.000000,222.061783
1206.906043,-9622.677246,306.438199,444.123565
1206.906354,-9696.697840,536.266849,592.164754
1206.906666,-9696.697840,153.219100,666.185348
1206.906977,-9252.574275,-536.266849,1480.411884
1206.907289,-8882.471304,-1225.752797,814.226536
1206.907600,-7846.182985,-919.314598,740.205942
1206.907912,-7179.997637,-459.657299,370.102971
1206.908223,-6883.915261,-536.266849,-222.061783
1206.908535,-7328.038826,-995.924147,-296.082377
1206.908846,-7994.224174,-689.485948,-0.000000
1206.909158,-8290.306550,0.000000,518.144159
1206.909469,-8882.471304,76.609550,962.267725
1206.909781,-9474.636058,459.657299,1036.288319
1206.910092,-9400.615463,-612.876398,1480.411884
1206.910404,-8660.409521,-766.095498,888.247130
1206.910715,-8216.285956,-689.485948,370.102971
1206.911027,-8068.244768,-306.438199,-0.000000
1206.911338,-8808.450710,0.000000,-814.226536
1206.911650,-9252.574275,0.000000,-592.164754
1206.911961,-9474.636058,0.000000,-370.102971
1206.912273,-9474.636058,-1302.362347,-0.000000
1206.912584,-10214.842000,-842.705048,148.041188
1206.912896,-10214.842000,-1072.533697,444.123565
1206.913207,-9770.718434,-766.095498,148.041188
1206.913519,-9400.615463,0.000000,592.164754
1206.913830,-8882.471304,306.438199,518.144159
1206.914142,-9400.615463,919.314598,740.205942
1206.914453,-9030.512492,995.924147,1184.329507
1206.914765,-9178.553681,1225.752797,962.267725
1206.915076,-9326.594869,842.705048,444.123565
1206.915388,-8956.491898,766.095498,-74.020594
1206.915699,-9030.512492,459.657299,-0.000000
1206.916011,-9400.615463,76.609550,-74.020594
1206.916322,-9622.677246,-229.828649,-0.000000
1206.916634,-9770.718434,-689.485948,74.020594
1206.916945,-9992.780217,-1302.362347,444.123565
1206.917257,-8808.450710,-1378.971896,962.267725
1206.917568,-8438.347739,-1608.800546,1184.329507
1206.917880,-7550.100608,-1302.362347,1110.308913
1206.918191,-7105.977043,-766.095498,888.247130
1206.918503,-6883.915261,-229.828649,888.247130
1206.918814,-7105.977043,459.657299,962.267725
1206.919126,-7846.182985,612.876398,740.205942
1206.919437,-8882.471304,1685.410096,370.102971
1206.919749,-8586.388927,1838.629195,666.185348
1206.920060,-8438.347739,995.924147,592.164754
1206.920372,-8290.306550,0.000000,370.102971
1206.920683,-8290.306550,-306.438199,-0.000000
1206.920995,-8142.265362,0.000000,-74.020594
1206.921306,-8586.388927,612.876398,-222.061783
1206.921618,-9178.553681,153.219100,-0.000000
1206.921929,-9992.780217,-306.438199,370.102971
1206.922241,-10362.883188,-153.219100,814.226536
1206.922552,-9992.780217,-383.047749,1110.308913
1206.922864,-9622.677246,0.000000,962.267725
1206.923175,-8808.450710,-229.828649,592.164754
1206.923487,-8882.471304,-306.438199,296.082377
1206.923798,-8808.450710,0.000000,518.144159
1206.924110,-9474.636058,0.000000,-74.020594
1206.924421,-9770.718434,689.485948,666.185348
1206.924733,-9918.759623,459.657299,740.205942
1206.925044,-9622.677246,229.828649,370.102971
1206.925356,-9252.574275,-229.828649,370.102971
1206.925667,-9252.574275,459.657299,-0.000000
1206.925979,-9252.574275,766.095498,-0.000000
1206.926290,-9474.636058,919.314598,-0.000000
1206.926602,-9326.594869,1455.581446,518.144159
1206.926913,-9104.533087,229.828649,370.102971
1206.927225,-8660.409521,-459.657299,814.226536
1206.927536,-8068.244768,-1149.143247,814.226536
1206.927848,-7624.121203,-1225.752797,444.123565
1206.928159,-7476.080014,-1149.143247,370.102971
1206.928471,-7846.182985,-1455.581446,296.082377
1206.928782,-8364.327145,-1455.581446,444.123565
1206.929094,-8512.368333,-229.828649,740.205942
1206.929405,-8734.430116,153.219100,962.267725
1206.929717,-9104.533087,383.047749,888.247130
1206.930028,-9178.553681,459.657299,814.226536
1206.930340,-8290.306550,306.438199,592.164754
1206.930651,-7846.182985,229.828649,-0.000000
1206.930963,-7624.121203,306.438199,-222.061783
1206.931274,-8512.368333,383.047749,-740.205942
1206.931586,-8956.491898,0.000000,-148.041188
1206.931897,-9548.656652,-612.876398,-74.020594
1206.932209,-10066.800811,-1149.143247,444.123565
1206.932520,-10288.862594,-1378.971896,666.185348
1206.932832,-10362.883188,-1302.362347,814.226536
1206.933143,-10288.862594,-1225.752797,666.185348
1206.933455,-9696.697840,-459.657299,518.144159
1206.933766,-9474.636058,-536.266849,296.082377
1206.934078,-8512.368333,1149.143247,740.205942
1206.934389,-8734.430116,536.266849,1036.288319
1206.934701,-8882.471304,842.705048,1036.288319
1206.935012,-8882.471304,689.485948,962.267725
1206.935324,-8734.430116,612.876398,592.164754
1206.935635,-8956.491898,0.000000,370.102971
1206.935947,-9548.656652,0.000000,148.041188
1206.936258,-9918.759623,306.438199,-0.000000
1206.936570,-10214.842000,-153.219100,-222.061783
1206.936881,-9992.780217,0.000000,518.144159
1206.937193,-9252.574275,-306.438199,814.226536
1206.937504,-8068.244768,-689.485948,888.247130
1206.937816,-7179.997637,-842.705048,740.205942
1206.938127,-6513.812290,0.000000,592.164754
1206.938439,-6883.915261,76.609550,666.185348
1206.938750,-7328.038826,842.705048,592.164754
1206.939062,-7698.141797,995.924147,1702.473667
1206.939373,-8438.347739,536.266849,1332.370696
1206.939685,-9178.553681,689.485948,1332.370696
1206.939996,-9178.553681,536.266849,1110.308913
1206.940308,-9400.615463,0.000000,592.164754
1206.940619,-8882.471304,0.000000,148.041188
1206.940931,-9104.533087,459.657299,-888.247130
1206.941242,-9178.553681,1225.752797,-592.164754
1206.941554,-9104.533087,919.314598,-444.123565
1206.941865,-9474.636058,383.047749,-74.020594
1206.942177,-9474.636058,383.047749,518.144159
1206.942488,-9178.553681,229.828649,666.185348
1206.942800,-8882.471304,-459.657299,888.247130
1206.943111,-8512.368333,-919.314598,888.247130
1206.943423,-8882.471304,-919.314598,962.267725
1206.943734,-8512.368333,-766.095498,592.164754
1206.944046,-9474.636058,-306.438199,592.164754
1206.944357,-10140.821405,153.219100,740.205942
1206.944669,-10066.800811,383.047749,740.205942
1206.944980,-9548.656652,0.000000,296.082377
1206.945292,-9178.553681,0.000000,148.041188
1206.945603,-8660.409521,-383.047749,370.102971
1206.945915,-8364.327145,0.000000,-0.000000
1206.946226,-9696.697840,612.876398,-74.020594
1206.946538,-8808.450710,306.438199,592.164754
1206.946849,-9252.574275,-383.047749,592.164754
1206.947161,-9252.574275,-919.314598,1184.329507
1206.947472,-8290.306550,-1225.752797,1258.350101
1206.947784,-7772.162391,-1225.752797,888.247130
1206.948096,-7105.977043,-1532.190996,666.185348
1206.948407,-7624.121203,-1608.800546,666.185348
1206.948719,-7994.224174,-842.705048,518.144159
1206.949030,-8438.347739,-536.266849,-0.000000
1206.949342,-8956.491898,459.657299,592.164754
1206.949653,-8808.450710,689.485948,444.123565
1206.949965,-8734.430116,459.657299,740.205942
1206.950276,-8290.306550,-383.047749,592.164754
1206.950588,-8142.265362,-229.828649,518.144159
1206.950899,-8364.327145,-612.876398,-0.000000
1206.951211,-8734.430116,0.000000,-0.000000
1206.951522,-9548.656652,-536.266849,-0.000000
1206.951834,-9918.759623,-689.485948,-0.000000
1206.952145,-10436.903782,-1149.143247,592.164754
1206.952457,-11029.068536,-1302.362347,518.144159
1206.952768,-10510.924376,-766.095498,888.247130
1206.953080,-10214.842000,0.000000,518.144159
1206.953391,-9548.656652,-229.828649,296.082377
1206.953703,-8586.388927,612.876398,592.164754
1206.954014,-8364.327145,1302.362347,592.164754
1206.954326,-7994.224174,1838.629195,888.247130
1206.954637,-8290.306550,1685.410096,592.164754
1206.954949,-8660.409521,1149.143247,814.226536
1206.955260,-8956.491898,459.657299,592.164754
1206.955572,-9104.533087,306.438199,592.164754
1206.955883,-9474.636058,383.047749,74.020594
1206.956195,-9844.739029,0.000000,-0.000000
1206.956506,-9696.697840,-306.438199,222.061783
1206.956818,-9770.718434,-689.485948,740.205942
1206.957129,-8808.450710,-766.095498,1110.308913
1206.957441,-7698.141797,-536.266849,1110.308913
1206.957752,-7476.080014,-842.705048,666.185348
1206.958064,-7031.956449,-459.657299,740.205942
1206.958375,-6291.750507,0.000000,1036.288319
1206.958687,-6883.915261,-306.438199,1184.329507
1206.958998,-7772.162391,0.000000,1332.370696
1206.959310,-8808.450710,459.657299,1628.453072
1206.959621,-9326.594869,995.924147,1258.350101
1206.959933,-9252.574275,1225.752797,1036.288319
1206.960244,-9178.553681,612.876398,814.226536
1206.960556,-8956.491898,612.876398,-148.041188
1206.960867,-8290.306550,459.657299,-888.247130
1206.961179,-7624.121203,842.705048,-666.185348
1206.961490,-8512.368333,842.705048,-740.205942
1206.961802,-9474.636058,612.876398,-148.041188
1206.962113,-9844.739029,0.000000,296.082377
1206.962425,-9548.656652,-536.266849,814.226536
1206.962736,-9622.677246,-995.924147,1258.350101
1206.963048,-9548.656652,-689.485948,592.164754
1206.963359,-9326.594869,-1225.752797,814.226536
1206.963671,-9326.594869,-842.705048,740.205942
1206.963982,-9474.636058,-536.266849,666.185348
1206.964294,-9992.780217,0.000000,592.164754
1206.964605,-10140.821405,459.657299,592.164754
1206.964917,-9252.574275,612.876398,370.102971
1206.965228,-9030.512492,995.924147,-0.000000
1206.965540,-8586.388927,-153.219100,-148.041188
1206.965851,-8586.388927,0.000000,-296.082377
1206.966163,-9326.594869,153.219100,-74.020594
1206.966474,-8882.471304,229.828649,370.102971
1206.966786,-9252.574275,0.000000,444.123565
1206.967097,-9400.615463,-995.924147,740.205942
1206.967409,-8734.430116,-1378.971896,1258.350101
1206.967720,-8290.306550,-1608.800546,1036.288319
1206.968032,-7328.038826,-919.314598,740.205942
1206.968343,-7772.162391,-1225.752797,-0.000000
1206.968655,-7994.224174,-1225.752797,148.041188
1206.968966,-8290.306550,-612.876398,370.102971
1206.969278,-8660.409521,153.219100,666.185348
1206.969589,-8882.471304,383.047749,1184.329507
1206.969901,-8660.409521,0.000000,814.226536
1206.970212,-8364.327145,-1378.971896,666.185348
1206.970524,-7846.182985,-919.314598,518.144159
1206.970835,-7772.162391,-153.219100,222.061783
1206.971147,-8216.285956,0.000000,-0.000000
1206.971458,-8882.471304,-306.438199,-0.000000
1206.971770,-9622.677246,-612.876398,222.061783
1206.972081,-10584.944971,-153.219100,518.144159
1206.972393,-10658.965565,0.000000,296.082377
1206.972704,-9918.759623,-306.438199,1110.308913
1206.973016,-9548.656652,-766.095498,666.185348
1206.973327,-9030.512492,-612.876398,370.102971
1206.973639,-8586.388927,229.828649,518.144159
1206.973950,-8512.368333,306.438199,666.185348
1206.974262,-8586.388927,995.924147,1110.308913
1206.974573,-9326.594869,842.705048,888.247130
1206.974885,-9400.615463,612.876398,962.267725
1206.975196,-9474.636058,536.266849,592.164754
1206.975508,-9252.574275,842.705048,592.164754
1206.975819,-9622.677246,919.314598,-0.000000
1206.976131,-9844.739029,766.095498,-296.082377
1206.976442,-9548.656652,536.266849,222.061783
1206.976754,-9400.615463,459.657299,518.144159
1206.977065,-8956.491898,306.438199,962.267725
1206.977377,-8660.409521,-153.219100,444.123565
1206.977688,-7994.224174,-842.705048,814.226536
1206.978000,-7105.977043,-536.266849,888.247130
1206.978311,-7031.956449,-536.266849,592.164754
1206.978623,-7254.018232,-306.438199,592.164754
1206.978934,-8142.265362,0.000000,1110.308913
1206.979246,-8882.471304,919.314598,1554.432478
1206.979557,-9030.512492,995.924147,1480.411884
1206.979869,-8956.491898,1149.143247,1258.350101
1206.980180,-8586.388927,1072.533697,962.267725
1206.980492,-8586.388927,76.609550,222.061783
1206.980803,-8142.265362,459.657299,-296.082377
1206.981115,-7772.162391,689.485948,-592.164754
1206.981426,-8290.306550,459.657299,-444.123565
1206.981738,-9178.553681,-229.828649,-296.082377
1206.982049,-9844.739029,-306.438199,-0.000000
1206.982361,-9696.697840,-919.314598,296.082377
1206.982672,-9548.656652,-766.095498,518.144159
1206.982984,-9252.574275,-689.485948,1036.288319
1206.983295,-9104.533087,-1149.143247,592.164754
1206.983607,-8734.430116,-1072.533697,666.185348
1206.983918,-8882.471304,-689.485948,592.164754
1206.984230,-9400.615463,-306.438199,592.164754
1206.984541,-9696.697840,536.266849,370.102971
1206.984852,-9474.636058,1225.752797,296.082377
1206.985164,-9474.636058,229.828649,-0.000000
1206.985475,-9474.636058,0.000000,-74.020594
1206.985787,-9178.553681,536.266849,-592.164754
1206.986098,-9622.677246,612.876398,-296.082377
1206.986410,-9770.718434,459.657299,-74.020594
1206.986721,-9474.636058,0.000000,296.082377
1206.987033,-9548.656652,-153.219100,592.164754
1206.987344,-8290.306550,-766.095498,1332.370696
1206.987656,-7994.224174,-1378.971896,962.267725
1206.987967,-7254.018232,-1149.143247,814.226536
1206.988279,-7105.977043,-1225.752797,814.226536
1206.988590,-7550.100608,-1378.971896,518.144159
1206.988902,-7846.182985,-919.314598,814.226536
1206.989213,-8734.430116,-153.219100,1184.329507
1206.989525,-8882.471304,306.438199,1480.411884
1206.989836,-8956.491898,153.219100,740.205942
1206.990148,-9030.512492,0.000000,1036.288319
1206.990459,-8216.285956,0.000000,814.226536
1206.990771,-8290.306550,-153.219100,518.144159
1206.991082,-8512.368333,0.000000,370.102971
1206.991394,-9252.574275,612.876398,148.041188
1206.991705,-8956.491898,306.438199,-0.000000
1206.992016,-9178.553681,-766.095498,814.226536
1206.992328,-10288.862594,-1608.800546,444.123565
1206.992639,-10510.924376,-995.924147,962.267725
1206.992951,-9696.697840,-766.095498,1036.288319
1206.993262,-9474.636058,-842.705048,814.226536
1206.993574,-8956.491898,-459.657299,814.226536
1206.993885,-8956.491898,229.828649,222.061783
1206.994197,-8438.347739,306.438199,1258.350101
1206.994508,-8438.347739,1608.800546,740.205942
1206.994820,-9622.677246,2068.457845,370.102971
1206.995131,-9400.615463,1532.190996,592.164754
1206.995443,-8956.491898,1149.143247,666.185348
1206.995754,-9474.636058,459.657299,222.061783
1206.996066,-9696.697840,919.314598,-0.000000
1206.996377,-9844.739029,842.705048,-0.000000
1206.996689,-9474.636058,-153.219100,-0.000000
1206.997000,-8734.430116,-1072.533697,888.247130
1206.997312,-8142.265362,-1225.752797,740.205942
1206.997623,-7476.080014,-1302.362347,888.247130
1206.997935,-6735.874072,-1302.362347,1184.329507
1206.998246,-6735.874072,-1072.533697,666.185348
1206.998558,-6661.853478,0.000000,592.164754
1206.998869,-7476.080014,306.438199,814.226536
1206.999180,-8142.265362,689.485948,888.247130
1206.999492,-9474.636058,1225.752797,592.164754
1206.999803,-9252.574275,1225.752797,1110.308913
1207.000115,-9400.615463,689.485948,592.164754
1207.000426,-9474.636058,0.000000,-0.000000
1207.000738,-8734.430116,-229.828649,-296.082377
1207.001049,-8364.327145,76.609550,-740.205942
1207.001361,-8290.306550,229.828649,-370.102971
1207.001672,-9030.512492,-459.657299,-222.061783
1207.001984,-9918.759623,0.000000,-0.000000
1207.002295,-9770.718434,153.219100,444.123565
1207.002607,-9696.697840,-153.219100,444.123565
1207.002918,-9770.718434,-612.876398,444.123565
1207.003230,-9474.636058,-306.438199,518.144159
1207.003541,-9326.594869,-536.266849,-0.000000
1207.003853,-8660.409521,76.609550,592.164754
1207.004164,-9474.636058,459.657299,740.205942
1207.004476,-9770.718434,0.000000,1110.308913
1207.004787,-9770.718434,76.609550,962.267725
1207.005099,-9548.656652,76.609550,740.205942
1207.005410,-9326.594869,0.000000,222.061783
1207.005722,-9104.533087,306.438199,-222.061783
1207.006033,-9030.512492,459.657299,-518.144159
1207.006344,-9696.697840,383.047749,-148.041188
1207.006656,-9030.512492,229.828649,518.144159
1207.006967,-9770.718434,-153.219100,222.061783
1207.007279,-8882.471304,-766.095498,1184.329507
1207.007590,-7920.203579,-1302.362347,888.247130
1207.007902,-7105.977043,-1225.752797,1036.288319
1207.008213,-7105.977043,-1685.410096,1184.329507
1207.008525,-7476.080014,-2298.286494,1184.329507
1207.008836,-7402.059420,-1225.752797,962.267725
1207.009148,-8956.491898,229.828649,444.123565
1207.009459,-8956.491898,689.485948,1036.288319
1207.009771,-9030.512492,612.876398,814.226536
1207.010082,-8734.430116,459.657299,962.267725
1207.010394,-7994.224174,-153.219100,370.102971
1207.010705,-7920.203579,229.828649,-74.020594
1207.011017,-8068.244768,536.266849,-0.000000
1207.011328,-8808.450710,536.266849,-74.020594
1207.011640,-9252.574275,-612.876398,740.205942
1207.011951,-10140.821405,-1225.752797,814.226536
1207.012263,-10658.965565,-1225.752797,1036.288319
1207.012574,-10436.903782,-842.705048,1258.350101
1207.012886,-9622.677246,-306.438199,1110.308913
1207.013197,-9030.512492,153.219100,148.041188
1207.013508,-8290.306550,-459.657299,148.041188
1207.013820,-7920.203579,229.828649,-0.000000
1207.014131,-7920.203579,919.314598,148.041188
1207.014443,-8438.347739,1685.410096,370.102971
1207.014754,-9104.533087,1149.143247,518.144159
1207.015066,-9770.718434,153.219100,518.144159
1207.015377,-9622.677246,0.000000,518.144159
1207.015689,-10214.842000,-229.828649,370.102971
1207.016000,-10066.800811,-383.047749,592.164754
1207.016312,-10436.903782,0.000000,148.041188
1207.016623,-10288.862594,-1149.143247,222.061783
1207.016935,-9622.677246,-842.705048,148.041188
1207.017246,-8734.430116,-612.876398,444.123565
1207.017558,-7772.162391,-842.705048,444.123565
1207.017869,-7179.997637,-842.705048,-0.000000
1207.018181,-6587.832884,-383.047749,-148.041188
1207.018492,-7031.956449,-1225.752797,-0.000000
1207.018804,-7105.977043,0.000000,592.164754
1207.019115,-8808.450710,229.828649,1110.308913
1207.019427,-9696.697840,383.047749,1184.329507
1207.019738,-10066.800811,612.876398,1554.432478
1207.020050,-9696.697840,383.047749,1184.329507
1207.020361,-9696.697840,0.000000,370.102971
1207.020672,-8216.285956,0.000000,-0.000000
1207.020984,-7698.141797,459.657299,-740.205942
1207.021295,-7550.100608,612.876398,-592.164754
1207.021607,-8438.347739,612.876398,-518.144159
1207.021918,-9326.594869,689.485948,-370.102971
1207.022230,-9474.636058,536.266849,222.061783
1207.022541,-9696.697840,0.000000,370.102971
1207.022853,-9548.656652,-229.828649,592.164754
1207.023164,-9622.677246,0.000000,666.185348
1207.023476,-9400.615463,-689.485948,888.247130
1207.023787,-9178.553681,-306.438199,592.164754
1207.024099,-9770.718434,-153.219100,1110.308913
1207.024410,-9844.739029,0.000000,962.267725
1207.024722,-9770.718434,153.219100,814.226536
1207.025033,-9252.574275,459.657299,518.144159
1207.025345,-8734.430116,1072.533697,-74.020594
1207.025656,-8660.409521,1072.533697,-518.144159
1207.025968,-8364.327145,1149.143247,-444.123565
1207.026279,-9400.615463,536.266849,-0.000000
1207.026591,-9474.636058,536.266849,666.185348
1207.026902,-9622.677246,-153.219100,1184.329507
1207.027214,-9474.636058,-842.705048,1554.432478
1207.027525,-8660.409521,-842.705048,1554.432478
1207.027836,-7846.182985,-1378.971896,1184.329507
1207.028148,-7105.977043,-1302.362347,444.123565
1207.028459,-7402.059420,-1149.143247,296.082377
1207.028771,-7550.100608,-842.705048,888.247130
1207.029082,-8586.388927,-306.438199,592.164754
1207.029394,-8956.491898,459.657299,740.205942
1207.029705,-8882.471304,536.266849,888.247130
1207.030017,-8660.409521,995.924147,962.267725
1207.030328,-8068.244768,383.047749,592.164754
1207.030640,-7624.121203,0.000000,444.123565
1207.030951,-8142.265362,-383.047749,-0.000000
1207.031263,-8734.430116,0.000000,148.041188
1207.031574,-9252.574275,-153.219100,296.082377
1207.031886,-9696.697840,-1072.533697,592.164754
1207.032197,-10362.883188,-1149.143247,740.205942
1207.032509,-10140.821405,-919.314598,888.247130
1207.032820,-10288.862594,-383.047749,740.205942
1207.033132,-9622.677246,-536.266849,-0.000000
1207.033443,-9030.512492,76.609550,148.041188
1207.033755,-8734.430116,306.438199,148.041188
1207.034066,-8660.409521,306.438199,148.041188
1207.034378,-8882.471304,842.705048,666.185348
1207.034689,-9474.636058,995.924147,962.267725
1207.035000,-9326.594869,612.876398,1184.329507
1207.035312,-9474.636058,153.219100,740.205942
1207.035623,-9400.615463,383.047749,740.205942
1207.035935,-9770.718434,383.047749,-0.000000
1207.036246,-10066.800811,153.219100,-222.061783
1207.036558,-9548.656652,229.828649,-0.000000
1207.036869,-9326.594869,0.000000,-0.000000
1207.037181,-8734.430116,-459.657299,296.082377
1207.037492,-7550.100608,-1225.752797,592.164754
1207.037804,-7328.038826,-842.705048,666.185348
1207.038115,-7105.977043,-842.705048,444.123565
1207.038427,-6661.853478,76.609550,962.267725
1207.038738,-7920.203579,306.438199,814.226536
1207.039050,-8660.409521,153.219100,1406.391290
1207.039361,-9474.636058,383.047749,1258.350101
1207.039673,-9474.636058,995.924147,1184.329507
1207.039984,-8956.491898,1072.533697,888.247130
1207.040296,-8512.368333,0.000000,222.061783
1207.040607,-8512.368333,0.000000,-222.061783
1207.040919,-8068.244768,383.047749,-740.205942
1207.041230,-8216.285956,459.657299,-666.185348
1207.041542,-8586.388927,995.924147,-296.082377
1207.041853,-9696.697840,689.485948,-222.061783
1207.042164,-9696.697840,0.000000,666.185348
1207.042476,-9252.574275,-536.266849,1332.370696
1207.042787,-9326.594869,0.000000,1110.308913
1207.043099,-9474.636058,0.000000,1036.288319
1207.043410,-9474.636058,-306.438199,814.226536
1207.043722,-9252.574275,0.000000,888.247130
1207.044033,-9474.636058,229.828649,666.185348
1207.044345,-9474.636058,689.485948,962.267725
1207.044656,-9622.677246,766.095498,592.164754
1207.044968,-8956.491898,995.924147,296.082377
1207.045279,-8734.430116,383.047749,-0.000000
1207.045591,-9474.636058,0.000000,-148.041188
1207.045902,-8808.450710,919.314598,148.041188
1207.046214,-9030.512492,383.047749,296.082377
1207.046525,-9400.615463,0.000000,1184.329507
1207.046837,-9252.574275,-766.095498,1184.329507
1207.047148,-9104.533087,-1072.533697,1554.432478
1207.047460,-8216.285956,-536.266849,1628.453072
1207.047771,-7254.018232,-1762.019645,1332.370696
1207.048083,-6883.915261,-1608.800546,740.205942
1207.048394,-7179.997637,-1532.190996,444.123565
1207.048705,-7772.162391,-1455.581446,222.061783
1207.049017,-8216.285956,-612.876398,444.123565
1207.049328,-9030.512492,76.609550,740.205942
1207.049640,-9030.512492,689.485948,740.205942
1207.049951,-9622.677246,383.047749,296.082377
1207.050263,-8734.430116,0.000000,592.164754
1207.050574,-8068.244768,76.609550,592.164754
1207.050886,-7846.182985,-153.219100,148.041188
1207.051197,-8438.347739,-536.266849,148.041188
1207.051509,-9326.594869,-536.266849,-0.000000
1207.051820,-9400.615463,0.000000,296.082377
1207.052132,-10066.800811,-842.705048,148.041188
1207.052443,-10436.903782,-995.924147,148.041188
1207.052755,-9696.697840,-1225.752797,592.164754
1207.053066,-9696.697840,-1072.533697,-0.000000
1207.053378,-9178.553681,-612.876398,296.082377
1207.053689,-9252.574275,0.000000,370.102971
1207.054001,-9252.574275,536.266849,592.164754
1207.054312,-8734.430116,536.266849,962.267725
1207.054624,-8438.347739,1225.752797,888.247130
1207.054935,-9178.553681,995.924147,666.185348
1207.055247,-9252.574275,995.924147,518.144159
1207.055558,-9400.615463,612.876398,296.082377
1207.055869,-9992.780217,612.876398,-0.000000
1207.056181,-10066.800811,383.047749,-222.061783
1207.056492,-10066.800811,689.485948,-222.061783
1207.056804,-9400.615463,-229.828649,74.020594
1207.057115,-8734.430116,-383.047749,740.205942
1207.057427,-7624.121203,-842.705048,814.226536
1207.057738,-7402.059420,-1302.362347,1110.308913
1207.058050,-7105.977043,-995.924147,1332.370696
1207.058361,-6735.874072,-1072.533697,1110.308913
1207.058673,-6883.915261,-306.438199,1184.329507
1207.058984,-7772.162391,0.000000,1036.288319
1207.059296,-8290.306550,612.876398,962.267725
1207.059607,-9178.553681,995.924147,814.226536
1207.059919,-9400.615463,612.876398,1406.391290
1207.060230,-9326.594869,0.000000,814.226536
1207.060542,-9178.553681,-306.438199,666.185348
1207.060853,-8068.244768,0.000000,148.041188
1207.061165,-7920.203579,306.438199,-296.082377
1207.061476,-7402.059420,383.047749,-74.020594
1207.061788,-8290.306550,0.000000,-370.102971
1207.062099,-8956.491898,153.219100,444.123565
1207.062411,-9252.574275,-306.438199,1036.288319
1207.062722,-9622.677246,-459.657299,1110.308913
1207.063033,-9252.574275,-612.876398,1036.288319
1207.063345,-9474.636058,-536.266849,814.226536
1207.063656,-9474.636058,-153.219100,592.164754
1207.063968,-9548.656652,0.000000,666.185348
1207.064279,-9918.759623,0.000000,148.041188
1207.064591,-9474.636058,842.705048,370.102971
1207.064902,-8956.491898,0.000000,-0.000000
1207.065214,-9474.636058,-383.047749,-0.000000
1207.065525,-9326.594869,-153.219100,-0.000000
1207.065837,-9104.533087,306.438199,-74.020594
1207.066148,-9622.677246,459.657299,74.020594
1207.066460,-9400.615463,842.705048,370.102971
1207.066771,-9696.697840,76.609550,-74.020594
1207.067083,-9178.553681,-383.047749,814.226536
1207.067394,-8216.285956,-766.095498,740.205942
1207.067706,-8068.244768,-1302.362347,444.123565
1207.068017,-7994.224174,-1225.752797,592.164754
1207.068329,-8142.265362,-1302.362347,222.061783
1207.068640,-8142.265362,-919.314598,666.185348
1207.068952,-8290.306550,-1149.143247,814.226536
1207.069263,-8512.368333,-306.438199,962.267725
1207.069575,-8808.450710,0.000000,1110.308913
1207.069886,-9030.512492,0.000000,814.226536
1207.070197,-8216.285956,0.000000,592.164754
1207.070509,-7920.203579,76.609550,222.061783
1207.070820,-8142.265362,-383.047749,-0.000000
1207.071132,-8068.244768,0.000000,-0.000000
1207.071443,-8956.491898,-306.438199,-148.041188
1207.071755,-9474.636058,459.657299,-0.000000
1207.072066,-9918.759623,-612.876398,962.267725
1207.072378,-10436.903782,-1225.752797,1036.288319
1207.072689,-9696.697840,-1149.143247,1036.288319
1207.073001,-8660.409521,-536.266849,518.144159
1207.073312,-8216.285956,0.000000,222.061783
1207.073624,-7846.182985,383.047749,-0.000000
1207.073935,-8290.306550,766.095498,296.082377
1207.074247,-8808.450710,1072.533697,222.061783
1207.074558,-8956.491898,1762.019645,592.164754
1207.074870,-9326.594869,1455.581446,740.205942
1207.075181,-9252.574275,689.485948,666.185348
1207.075493,-9252.574275,0.000000,740.205942
1207.075804,-9548.656652,-383.047749,444.123565
1207.076116,-9770.718434,0.000000,370.102971
1207.076427,-10362.883188,0.000000,370.102971
1207.076739,-10362.883188,-766.095498,592.164754
1207.077050,-9326.594869,-459.657299,740.205942
1207.077361,-8438.347739,-459.657299,592.164754
1207.077673,-7476.080014,-383.047749,814.226536
1207.077984,-7179.997637,-229.828649,444.123565
1207.078296,-7254.018232,0.000000,296.082377
1207.078607,-6735.874072,0.000000,740.205942
1207.078919,-8512.368333,459.657299,814.226536
1207.079230,-8956.491898,995.924147,1702.473667
1207.079542,-9474.636058,1072.533697,1258.350101
1207.079853,-9400.615463,919.314598,1332.370696
1207.080165,-9104.533087,76.609550,1110.308913
1207.080476,-9030.512492,-306.438199,518.144159
1207.080788,-8068.244768,459.657299,222.061783
1207.081099,-7920.203579,459.657299,-666.185348
1207.081411,-8290.306550,842.705048,-666.185348
1207.081722,-8512.368333,153.219100,-222.061783
1207.082034,-9326.594869,76.609550,-0.000000
1207.082345,-9252.574275,76.609550,444.123565
1207.082657,-9548.656652,-459.657299,814.226536
1207.082968,-9696.697840,-766.095498,888.247130
1207.083280,-9252.574275,0.000000,888.247130
1207.083591,-9030.512492,-459.657299,888.247130
1207.083902,-9030.512492,-842.705048,888.247130
1207.084214,-9844.739029,459.657299,592.164754
1207.084525,-9474.636058,995.924147,518.144159
1207.084837,-9104.533087,919.314598,666.185348
1207.085148,-9104.533087,383.047749,222.061783
1207.085460,-8734.430116,383.047749,-0.000000
1207.085771,-8142.265362,612.876398,-592.164754
1207.086083,-8808.450710,306.438199,-740.205942
1207.086394,-9400.615463,0.000000,-0.000000
1207.086705,-9400.615463,0.000000,296.082377
1207.087017,-9770.718434,-1149.143247,666.185348
1207.087328,-9178.553681,-1685.410096,1110.308913
1207.087640,-8734.430116,-1608.800546,1110.308913
1207.087951,-7920.203579,-1608.800546,814.226536
1207.088263,-7698.141797,-1685.410096,444.123565
1207.088574,-7772.162391,-1378.971896,814.226536
1207.088885,-7698.141797,-766.095498,1110.308913
1207.089197,-8512.368333,0.000000,666.185348
1207.089508,-9104.533087,919.314598,592.164754
1207.089820,-9252.574275,995.924147,592.164754
1207.090131,-8734.430116,612.876398,222.061783
1207.090443,-7624.121203,383.047749,-0.000000
1207.090754,-7402.059420,0.000000,-148.041188
1207.091066,-7846.182985,-689.485948,-222.061783
1207.091377,-8956.491898,-383.047749,-74.020594
1207.091688,-9918.759623,-689.485948,-0.000000
1207.092000,-10288.862594,-919.314598,740.205942
