#time,accel_x,accel_y,accel_z
1298.974354,-8808.450710,-76.609550,666.185348
1298.974665,-8956.491898,-383.047749,370.102971
1298.974977,-9178.553681,-153.219100,518.144159
1298.975289,-8882.471304,0.000000,518.144159
1298.975601,-8956.491898,-153.219100,370.102971
1298.975912,-8734.430116,-306.438199,592.164754
1298.976224,-8882.471304,0.000000,148.041188
1298.976536,-8956.491898,229.828649,222.061783
1298.976848,-8808.450710,-612.876398,592.164754
1298.977159,-9030.512492,0.000000,592.164754
1298.977471,-8956.491898,-153.219100,666.185348
1298.977783,-9030.512492,-306.438199,666.185348
1298.978095,-8660.409521,-153.219100,666.185348
1298.978406,-9178.553681,76.609550,444.123565
1298.978718,-8808.450710,612.876398,592.164754
1298.979030,-8734.430116,0.000000,444.123565
1298.979342,-8956.491898,0.000000,444.123565
1298.979653,-8956.491898,0.000000,518.144159
1298.979965,-8882.471304,0.000000,592.164754
1298.980277,-8660.409521,76.609550,592.164754
1298.980589,-8734.430116,0.000000,666.185348
1298.980900,-9030.512492,0.000000,444.123565
1298.981212,-9252.574275,0.000000,592.164754
1298.981524,-8882.471304,-229.828649,370.102971
1298.981836,-8586.388927,76.609550,148.041188
1298.982147,-8956.491898,0.000000,444.123565
1298.982459,-9104.533087,0.000000,370.102971
1298.982771,-9030.512492,0.000000,666.185348
1298.983083,-8956.491898,-229.828649,444.123565
1298.983394,-9030.512492,0.000000,592.164754
1298.983706,-8882.471304,-229.828649,592.164754
1298.984018,-8734.430116,-153.219100,370.102971
1298.984329,-9030.512492,76.609550,222.061783
1298.984641,-9030.512492,153.219100,518.144159
1298.984953,-8882.471304,76.609550,666.185348
1298.985265,-8808.450710,0.000000,666.185348
1298.985576,-8586.388927,0.000000,518.144159
1298.985888,-8512.368333,-229.828649,592.164754
1298.986200,-8956.491898,76.609550,222.061783
1298.986512,-8734.430116,229.828649,740.205942
1298.986823,-8734.430116,0.000000,370.102971
1298.987135,-8882.471304,0.000000,666.185348
1298.987447,-8956.491898,0.000000,592.164754
1298.987759,-8882.471304,0.000000,518.144159
1298.988070,-8734.430116,0.000000,740.205942
1298.988382,-8438.347739,0.000000,444.123565
1298.988694,-8660.409521,0.000000,592.164754
1298.989006,-8808.450710,0.000000,296.082377
1298.989317,-9030.512492,76.609550,592.164754
1298.989629,-8882.471304,0.000000,740.205942
1298.989941,-8808.450710,0.000000,740.205942
1298.990253,-8882.471304,0.000000,518.144159
1298.990564,-9030.512492,153.219100,592.164754
1298.990876,-8438.347739,0.000000,296.082377
1298.991188,-8882.471304,0.000000,444.123565
1298.991500,-8734.430116,76.609550,444.123565
1298.991811,-9030.512492,-153.219100,740.205942
1298.992123,-9104.533087,0.000000,518.144159
1298.992435,-8882.471304,0.000000,444.123565
1298.992747,-8808.450710,76.609550,518.144159
1298.993058,-9030.512492,0.000000,296.082377
1298.993370,-9030.512492,0.000000,518.144159
1298.993682,-9474.636058,153.219100,296.082377
1298.993994,-8882.471304,0.000000,814.226536
1298.994305,-8956.491898,-229.828649,592.164754
1298.994617,-9030.512492,-306.438199,518.144159
1298.994929,-8956.491898,-383.047749,444.123565
1298.995241,-8882.471304,-383.047749,592.164754
1298.995552,-8734.430116,459.657299,740.205942
1298.995864,-8956.491898,-306.438199,1258.350101
1298.996176,-8586.388927,153.219100,296.082377
1298.996488,-8882.471304,-612.876398,740.205942
1298.996799,-8956.491898,-306.438199,592.164754
1298.997111,-8882.471304,0.000000,518.144159
1298.997423,-8808.450710,0.000000,592.164754
1298.997734,-8956.491898,0.000000,444.123565
1298.998046,-8882.471304,-306.438199,296.082377
1298.998358,-8512.368333,0.000000,518.144159
1298.998670,-8882.471304,-306.438199,222.061783
1298.998981,-8956.491898,0.000000,444.123565
1298.999293,-8882.471304,0.000000,518.144159
1298.999605,-8956.491898,0.000000,666.185348
1298.999917,-9030.512492,0.000000,592.164754
1299.000228,-9178.553681,-229.828649,-0.000000
1299.000540,-8956.491898,76.609550,444.123565
1299.000852,-8808.450710,0.000000,296.082377
1299.001164,-9030.512492,76.609550,-0.000000
1299.001475,-8808.450710,0.000000,518.144159
1299.001787,-8882.471304,0.000000,370.102971
1299.002099,-8956.491898,-153.219100,370.102971
1299.002411,-9104.533087,-153.219100,592.164754
1299.002722,-8882.471304,-536.266849,444.123565
1299.003034,-9030.512492,0.000000,370.102971
1299.003346,-9326.594869,0.000000,370.102971
1299.003658,-11473.192101,766.095498,370.102971
1299.003969,-10955.047942,3294.210641,444.123565
1299.004281,-8438.347739,4903.011187,666.185348
1299.004593,-7476.080014,3217.601092,962.267725
1299.004905,-6513.812290,919.314598,1406.391290
1299.005216,-6587.832884,-1149.143247,-0.000000
1299.005528,-7105.977043,-1072.533697,222.061783
1299.005840,-8290.306550,-229.828649,-444.123565
1299.006152,-12287.418637,-842.705048,-1554.432478
1299.006463,-12213.398043,383.047749,-74.020594
1299.006775,-9992.780217,842.705048,518.144159
1299.007087,-8882.471304,0.000000,1850.514855
1299.007399,-9474.636058,-383.047749,2516.700203
1299.007710,-11473.192101,1225.752797,1036.288319
1299.008022,-7105.977043,4903.011187,2442.679609
1299.008334,-5255.462188,5132.839837,1776.494261
1299.008646,-8216.285956,2911.162892,888.247130
1299.008957,-7328.038826,2987.772442,-740.205942
1299.009269,-7994.224174,3064.381992,-2220.617826
1299.009581,-9252.574275,3217.601092,-814.226536
1299.009893,-9030.512492,3830.477490,-518.144159
1299.010204,-13323.706956,1378.971896,-1258.350101
1299.010516,-12509.480420,-842.705048,1998.556043
1299.010828,-8438.347739,-842.705048,2368.659014
1299.011140,-10510.924376,1302.362347,1036.288319
1299.011451,-7624.121203,6358.592633,2960.823768
1299.011763,-8438.347739,5209.449386,962.267725
1299.012075,-7179.997637,2834.553343,2812.782580
1299.012386,-5773.606348,5132.839837,1850.514855
1299.012698,-7920.203579,5975.544884,-222.061783
1299.013010,-8364.327145,6435.202183,-1036.288319
1299.013322,-10066.800811,5132.839837,-444.123565
1299.013633,-9326.594869,5056.230287,-1776.494261
1299.013945,-10436.903782,5515.887586,-592.164754
1299.014257,-11547.212695,4749.792088,-0.000000
1299.014569,-10732.986159,3907.087040,1628.453072
1299.014880,-10732.986159,4060.306139,2220.617826
1299.015192,-8364.327145,4366.744339,2590.720797
1299.015504,-6587.832884,4903.011187,1110.308913
1299.015816,-5921.647536,5286.058936,148.041188
1299.016127,-5477.523971,5056.230287,518.144159
1299.016439,-5551.544565,5056.230287,-518.144159
1299.016751,-6587.832884,4749.792088,-740.205942
1299.017063,-8216.285956,4826.401637,-518.144159
1299.017374,-9844.739029,2604.724693,-370.102971
1299.017686,-10362.883188,1608.800546,444.123565
1299.017998,-10436.903782,1838.629195,814.226536
1299.018310,-11029.068536,306.438199,1480.411884
1299.018621,-10436.903782,1608.800546,1554.432478
1299.018933,-8808.450710,2987.772442,1406.391290
1299.019245,-7328.038826,4290.134789,888.247130
1299.019557,-6439.791695,3140.991542,-0.000000
1299.019868,-6883.915261,2987.772442,-592.164754
1299.020180,-7254.018232,3294.210641,-962.267725
1299.020492,-6809.894666,2911.162892,-740.205942
1299.020804,-8364.327145,612.876398,-814.226536
1299.021115,-9844.739029,-1915.238745,-0.000000
1299.021427,-11103.089130,-2528.115143,740.205942
1299.021739,-12287.418637,-2298.286494,1036.288319
1299.022051,-13619.789333,-1915.238745,1406.391290
1299.022362,-13545.768739,-153.219100,1110.308913
1299.022674,-12139.377449,1685.410096,518.144159
1299.022986,-9770.718434,3140.991542,-0.000000
1299.023298,-7698.141797,3983.696590,-74.020594
1299.023609,-6365.771101,4443.353888,-148.041188
1299.023921,-6365.771101,4749.792088,592.164754
1299.024233,-6735.874072,4749.792088,518.144159
1299.024545,-8586.388927,3140.991542,-592.164754
1299.024856,-9918.759623,1378.971896,-148.041188
1299.025168,-11695.253884,919.314598,-148.041188
1299.025480,-12509.480420,306.438199,-296.082377
1299.025791,-13027.624579,-229.828649,444.123565
1299.026103,-12805.562797,536.266849,962.267725
1299.026415,-10732.986159,1915.238745,1554.432478
1299.026727,-9252.574275,2911.162892,1924.535449
1299.027038,-6661.853478,3753.867940,2368.659014
1299.027350,-3478.967927,4136.915689,1110.308913
1299.027662,-1776.494261,5056.230287,-148.041188
1299.027974,-1924.535449,4596.572988,-1480.411884
1299.028285,-4293.194464,2987.772442,-1332.370696
1299.028597,-8142.265362,1149.143247,-666.185348
1299.028909,-12139.377449,536.266849,592.164754
1299.029221,-14730.098246,612.876398,1702.473667
1299.029532,-15766.386565,842.705048,2664.741391
1299.029844,-13545.768739,842.705048,3627.009116
1299.030156,-10362.883188,2221.676944,2442.679609
1299.030468,-6069.688724,2757.943793,1776.494261
1299.030779,-2960.823768,3983.696590,666.185348
1299.031091,-1110.308913,5132.839837,-518.144159
1299.031403,-1776.494261,4596.572988,-1332.370696
1299.031715,-4959.379811,3370.820191,-1702.473667
1299.032026,-7772.162391,1149.143247,-1036.288319
1299.032338,-9992.780217,995.924147,-0.000000
1299.032650,-11843.295072,-995.924147,296.082377
1299.032962,-12805.562797,-3830.477490,1702.473667
1299.033273,-11991.336260,-5439.278036,1998.556043
1299.033585,-10881.027347,-6052.154434,2146.597232
1299.033897,-10140.821405,-4290.134789,1924.535449
1299.034209,-10214.842000,-1685.410096,1332.370696
1299.034520,-10066.800811,-612.876398,592.164754
1299.034832,-9104.533087,2068.457845,-296.082377
1299.035144,-8882.471304,3524.039291,-0.000000
1299.035456,-8734.430116,2757.943793,-296.082377
1299.035767,-7920.203579,1072.533697,-0.000000
1299.036079,-7920.203579,-919.314598,-0.000000
1299.036391,-8586.388927,-2068.457845,222.061783
1299.036703,-9400.615463,-1838.629195,-74.020594
1299.037014,-10584.944971,-2604.724693,-222.061783
1299.037326,-11399.171507,-2298.286494,-0.000000
1299.037638,-11843.295072,-1608.800546,1036.288319
1299.037950,-11769.274478,0.000000,666.185348
1299.038261,-11843.295072,1608.800546,222.061783
1299.038573,-10658.965565,2528.115143,-444.123565
1299.038885,-8142.265362,2451.505594,-1036.288319
1299.039197,-6587.832884,3064.381992,-2442.679609
1299.039508,-5477.523971,3524.039291,-2590.720797
1299.039820,-6661.853478,2528.115143,-1850.514855
1299.040132,-7550.100608,1149.143247,-0.000000
1299.040443,-9474.636058,0.000000,2146.597232
1299.040755,-11251.130318,-1149.143247,3034.844362
1299.041067,-11547.212695,-2451.505594,3775.050304
1299.041379,-10584.944971,-2681.334243,2886.803174
1299.041690,-9548.656652,-1302.362347,1702.473667
1299.042002,-7254.018232,-459.657299,-518.144159
1299.042314,-6143.709319,2298.286494,-1998.556043
1299.042626,-6587.832884,2911.162892,-2368.659014
1299.042937,-7105.977043,3983.696590,-1406.391290
1299.043249,-7105.977043,3447.429741,-222.061783
1299.043561,-6809.894666,1838.629195,222.061783
1299.043873,-6957.935855,0.000000,1776.494261
1299.044184,-6587.832884,-2221.676944,2368.659014
1299.044496,-6217.729913,-2451.505594,2664.741391
1299.044808,-8586.388927,-3677.258390,2516.700203
1299.045120,-10214.842000,-3140.991542,2146.597232
1299.045431,-11695.253884,-459.657299,1702.473667
1299.045743,-12879.583391,1762.019645,148.041188
1299.046055,-12065.356855,2911.162892,74.020594
1299.046367,-10140.821405,3830.477490,-148.041188
1299.046678,-7476.080014,1838.629195,-0.000000
1299.046990,-5551.544565,0.000000,296.082377
1299.047302,-4663.297435,-1225.752797,370.102971
1299.047614,-4959.379811,-1838.629195,962.267725
1299.047925,-7105.977043,-2145.067394,1184.329507
1299.048233,-9400.615463,-2451.505594,1850.514855
1299.048544,-11917.315666,-1532.190996,2738.761985
1299.048856,-13841.851115,-1072.533697,1702.473667
1299.049167,-13915.871710,-689.485948,1184.329507
1299.049479,-12731.542202,0.000000,814.226536
1299.049790,-10732.986159,689.485948,148.041188
1299.050101,-8660.409521,153.219100,-1036.288319
1299.050413,-7476.080014,229.828649,-1776.494261
1299.050724,-7402.059420,1072.533697,-1554.432478
1299.051036,-7550.100608,1685.410096,-814.226536
1299.051347,-8364.327145,1149.143247,-0.000000
1299.051658,-8882.471304,-1302.362347,2516.700203
1299.051970,-9844.739029,-2374.896044,2590.720797
1299.052281,-9992.780217,-3524.039291,4293.194464
1299.052592,-9474.636058,-3830.477490,2664.741391
1299.052904,-9400.615463,-2221.676944,1480.411884
1299.053215,-9030.512492,76.609550,-222.061783
1299.053527,-8586.388927,1378.971896,-1110.308913
1299.053838,-9548.656652,1915.238745,-1776.494261
1299.054149,-8216.285956,3217.601092,-1702.473667
1299.054461,-8068.244768,2911.162892,-1406.391290
1299.054772,-7105.977043,1838.629195,-1036.288319
1299.055084,-6439.791695,536.266849,-222.061783
1299.055395,-5403.503377,-1225.752797,148.041188
1299.055706,-6513.812290,-2221.676944,814.226536
1299.056018,-8068.244768,-2298.286494,1776.494261
1299.056329,-9696.697840,-1532.190996,1332.370696
1299.056641,-11843.295072,76.609550,2072.576638
1299.056952,-12213.398043,842.705048,2146.597232
1299.057263,-11473.192101,842.705048,1776.494261
1299.057575,-9104.533087,459.657299,888.247130
1299.057886,-6513.812290,-306.438199,-518.144159
1299.058197,-4811.338623,-306.438199,-1480.411884
1299.058509,-4663.297435,-766.095498,-2368.659014
1299.058820,-5847.626942,-229.828649,-2220.617826
1299.059132,-8142.265362,459.657299,-1702.473667
1299.059443,-10807.006753,383.047749,296.082377
1299.059754,-12879.583391,0.000000,1332.370696
1299.060066,-13101.645173,-1072.533697,2072.576638
1299.060377,-11917.315666,-1608.800546,2368.659014
1299.060689,-9992.780217,-1302.362347,1850.514855
1299.061000,-9104.533087,-1378.971896,222.061783
1299.061311,-9030.512492,536.266849,-296.082377
1299.061623,-8290.306550,1455.581446,-1036.288319
1299.061934,-9548.656652,1915.238745,-1332.370696
1299.062245,-9474.636058,2374.896044,-740.205942
1299.062557,-8660.409521,1225.752797,-296.082377
1299.062868,-8142.265362,-536.266849,1554.432478
1299.063180,-8216.285956,-2451.505594,2516.700203
1299.063491,-7624.121203,-3140.991542,2516.700203
1299.063802,-8290.306550,-2374.896044,2368.659014
1299.064114,-9696.697840,-1225.752797,2220.617826
1299.064425,-10436.903782,612.876398,1628.453072
1299.064737,-10732.986159,1838.629195,888.247130
1299.065048,-9918.759623,1685.410096,444.123565
1299.065359,-8808.450710,919.314598,-444.123565
1299.065671,-7476.080014,459.657299,-1332.370696
1299.065982,-5403.503377,0.000000,-740.205942
1299.066294,-5403.503377,-919.314598,-814.226536
1299.066605,-7031.956449,-2451.505594,-0.000000
1299.066916,-9770.718434,-2451.505594,1406.391290
1299.067228,-10658.965565,-1149.143247,1776.494261
1299.067539,-11103.089130,76.609550,2960.823768
1299.067850,-11843.295072,153.219100,3330.926739
1299.068162,-10140.821405,-995.924147,3404.947333
1299.068473,-8364.327145,-1378.971896,2368.659014
1299.068785,-5551.544565,-153.219100,1628.453072
1299.069096,-4663.297435,-229.828649,-222.061783
1299.069407,-5773.606348,995.924147,-2294.638420
1299.069719,-6957.935855,1685.410096,-2368.659014
1299.070030,-8290.306550,1762.019645,-2294.638420
1299.070342,-9252.574275,1915.238745,-592.164754
1299.070653,-10732.986159,2068.457845,592.164754
1299.070964,-12139.377449,383.047749,1110.308913
1299.071276,-10732.986159,-229.828649,2368.659014
1299.071587,-9474.636058,-919.314598,2220.617826
1299.071898,-8364.327145,-536.266849,2146.597232
1299.072210,-8290.306550,0.000000,444.123565
1299.072521,-8364.327145,995.924147,-666.185348
1299.072833,-8586.388927,2911.162892,-1110.308913
1299.073144,-8512.368333,3064.381992,-222.061783
1299.073455,-8734.430116,1532.190996,-296.082377
1299.073767,-8586.388927,-995.924147,-0.000000
1299.074078,-7994.224174,-1838.629195,222.061783
1299.074390,-7846.182985,-1991.848295,148.041188
1299.074701,-8808.450710,-842.705048,222.061783
1299.075012,-10436.903782,-1149.143247,666.185348
1299.075324,-11695.253884,-919.314598,1258.350101
1299.075635,-11473.192101,-459.657299,1628.453072
1299.075947,-11177.109724,229.828649,1184.329507
1299.076258,-9844.739029,0.000000,518.144159
1299.076569,-7772.162391,-1225.752797,-0.000000
1299.076881,-5995.668130,-1838.629195,-518.144159
1299.077192,-5255.462188,-1685.410096,-740.205942
1299.077503,-6809.894666,-1149.143247,-1110.308913
1299.077815,-9696.697840,306.438199,-518.144159
1299.078126,-11843.295072,612.876398,814.226536
1299.078438,-11547.212695,1149.143247,1554.432478
1299.078749,-11029.068536,0.000000,2664.741391
1299.079060,-9178.553681,-1149.143247,2886.803174
1299.079372,-8142.265362,-2374.896044,2664.741391
1299.079683,-6883.915261,-2451.505594,2146.597232
1299.079995,-6069.688724,-919.314598,148.041188
1299.080306,-6735.874072,0.000000,-1332.370696
1299.080617,-7179.997637,1302.362347,-1480.411884
1299.080929,-9474.636058,1378.971896,-1628.453072
1299.081240,-9992.780217,1302.362347,-1184.329507
1299.081551,-10436.903782,1149.143247,-296.082377
1299.081863,-10510.924376,0.000000,888.247130
1299.082174,-9622.677246,-919.314598,1924.535449
1299.082486,-8808.450710,-1608.800546,1702.473667
1299.082797,-7772.162391,-1762.019645,1332.370696
1299.083108,-8142.265362,-689.485948,1332.370696
1299.083420,-8956.491898,689.485948,592.164754
1299.083731,-9030.512492,1608.800546,666.185348
1299.084043,-9252.574275,919.314598,222.061783
1299.084354,-8882.471304,0.000000,592.164754
1299.084665,-8512.368333,-919.314598,296.082377
1299.084977,-7624.121203,-1072.533697,222.061783
1299.085288,-7402.059420,-842.705048,148.041188
1299.085600,-8142.265362,-995.924147,-370.102971
1299.085911,-8808.450710,-459.657299,222.061783
1299.086222,-10066.800811,383.047749,518.144159
1299.086534,-9992.780217,536.266849,1406.391290
1299.086845,-9696.697840,306.438199,1406.391290
1299.087156,-9474.636058,229.828649,1332.370696
1299.087468,-7994.224174,-1149.143247,518.144159
1299.087779,-7328.038826,-995.924147,-222.061783
1299.088091,-7476.080014,-995.924147,-962.267725
1299.088402,-8956.491898,0.000000,-1332.370696
1299.088713,-10510.924376,1225.752797,-740.205942
1299.089025,-11325.150913,2145.067394,-74.020594
1299.089336,-11547.212695,1608.800546,1184.329507
1299.089648,-10436.903782,459.657299,2072.576638
1299.089959,-8956.491898,-1072.533697,2146.597232
1299.090270,-7476.080014,-2068.457845,2886.803174
1299.090582,-5699.585753,-1225.752797,1702.473667
1299.090893,-6735.874072,-842.705048,-222.061783
1299.091204,-7920.203579,0.000000,-814.226536
1299.091516,-8660.409521,766.095498,-888.247130
1299.091827,-9992.780217,1302.362347,-1036.288319
1299.092139,-10584.944971,1532.190996,-370.102971
1299.092450,-11547.212695,1685.410096,-666.185348
1299.092761,-10658.965565,153.219100,740.205942
1299.093073,-8512.368333,-153.219100,592.164754
1299.093384,-7476.080014,-612.876398,888.247130
1299.093696,-7402.059420,-689.485948,1036.288319
1299.094007,-8364.327145,-612.876398,814.226536
1299.094318,-9326.594869,0.000000,1554.432478
1299.094630,-9696.697840,689.485948,1628.453072
1299.094941,-10066.800811,919.314598,666.185348
1299.095253,-9252.574275,383.047749,592.164754
1299.095564,-7402.059420,-459.657299,888.247130
1299.095875,-6883.915261,-1378.971896,222.061783
1299.096187,-7179.997637,-612.876398,-222.061783
1299.096498,-8512.368333,536.266849,-370.102971
1299.096809,-9474.636058,1302.362347,370.102971
1299.097121,-9622.677246,2145.067394,666.185348
1299.097432,-9844.739029,1838.629195,518.144159
1299.097744,-9474.636058,1685.410096,444.123565
1299.098055,-8734.430116,383.047749,962.267725
1299.098366,-7105.977043,153.219100,518.144159
1299.098678,-6957.935855,-459.657299,-0.000000
1299.098989,-7550.100608,-1072.533697,-222.061783
1299.099301,-9252.574275,-459.657299,-592.164754
1299.099612,-10658.965565,1149.143247,518.144159
1299.099923,-11251.130318,2068.457845,740.205942
1299.100235,-10881.027347,1532.190996,1110.308913
1299.100546,-9548.656652,0.000000,1628.453072
1299.100857,-8142.265362,-1378.971896,2220.617826
1299.101169,-7031.956449,-2221.676944,2072.576638
1299.101480,-6217.729913,-2068.457845,1110.308913
1299.101792,-6661.853478,-995.924147,-0.000000
1299.102103,-7920.203579,-306.438199,-592.164754
1299.102414,-9104.533087,229.828649,-592.164754
1299.102726,-11177.109724,383.047749,-518.144159
1299.103037,-11473.192101,766.095498,296.082377
1299.103349,-11473.192101,536.266849,962.267725
1299.103660,-9844.739029,0.000000,1110.308913
1299.103971,-8290.306550,-536.266849,888.247130
1299.104283,-7031.956449,-1072.533697,-0.000000
1299.104594,-7105.977043,0.000000,740.205942
1299.104906,-8216.285956,-536.266849,518.144159
1299.105217,-9326.594869,1072.533697,444.123565
1299.105528,-10066.800811,1225.752797,1036.288319
1299.105840,-10140.821405,612.876398,1406.391290
1299.106151,-9030.512492,-459.657299,1480.411884
1299.106462,-8438.347739,-995.924147,1184.329507
1299.106774,-7254.018232,-842.705048,740.205942
1299.107085,-6957.935855,-689.485948,-74.020594
1299.107397,-8438.347739,689.485948,-592.164754
1299.107708,-9252.574275,229.828649,-74.020594
1299.108019,-9400.615463,612.876398,222.061783
1299.108331,-9622.677246,306.438199,592.164754
1299.108642,-9400.615463,-229.828649,814.226536
1299.108954,-9326.594869,-306.438199,740.205942
1299.109265,-8808.450710,-1225.752797,888.247130
1299.109576,-7920.203579,-1225.752797,-0.000000
1299.109888,-8364.327145,-1608.800546,-0.000000
1299.110199,-9918.759623,-153.219100,592.164754
1299.110510,-10732.986159,1225.752797,370.102971
1299.110822,-10807.006753,1608.800546,888.247130
1299.111133,-10510.924376,1532.190996,1480.411884
1299.111445,-8956.491898,229.828649,1998.556043
1299.111756,-7105.977043,-995.924147,1258.350101
1299.112067,-6661.853478,-1149.143247,1036.288319
1299.112379,-5847.626942,-1915.238745,444.123565
1299.112690,-7179.997637,-1225.752797,-296.082377
1299.113002,-8882.471304,383.047749,-518.144159
1299.113313,-9918.759623,1225.752797,-962.267725
1299.113624,-11399.171507,1302.362347,-222.061783
1299.113936,-11695.253884,1608.800546,148.041188
1299.114247,-11103.089130,459.657299,888.247130
1299.114559,-8956.491898,-459.657299,740.205942
1299.114870,-7328.038826,-995.924147,740.205942
1299.115181,-6957.935855,-689.485948,-0.000000
1299.115493,-7105.977043,-153.219100,-370.102971
1299.115804,-8068.244768,612.876398,-296.082377
1299.116115,-8956.491898,995.924147,296.082377
1299.116427,-9918.759623,919.314598,1184.329507
1299.116738,-10658.965565,306.438199,888.247130
1299.117050,-9918.759623,-1072.533697,1332.370696
1299.117361,-9030.512492,-1762.019645,1258.350101
1299.117672,-8216.285956,-459.657299,444.123565
1299.117984,-8142.265362,229.828649,-444.123565
1299.118295,-8734.430116,842.705048,-1110.308913
1299.118607,-8586.388927,1378.971896,-814.226536
1299.118918,-9178.553681,1532.190996,-592.164754
1299.119229,-9178.553681,1072.533697,74.020594
1299.119541,-9400.615463,0.000000,222.061783
1299.119852,-8364.327145,-689.485948,888.247130
1299.120163,-7698.141797,-1455.581446,962.267725
1299.120475,-7476.080014,-1838.629195,814.226536
1299.120786,-9178.553681,-1302.362347,740.205942
1299.121098,-10214.842000,-536.266849,888.247130
1299.121409,-10732.986159,689.485948,1332.370696
1299.121720,-11177.109724,1455.581446,1628.453072
1299.122032,-10362.883188,459.657299,1850.514855
1299.122343,-7846.182985,-919.314598,2368.659014
1299.122655,-6217.729913,-2068.457845,1480.411884
1299.122966,-5107.421000,-1455.581446,1184.329507
1299.123277,-5921.647536,-842.705048,74.020594
1299.123589,-8364.327145,-612.876398,-592.164754
1299.123900,-9622.677246,-383.047749,222.061783
1299.124212,-10955.047942,1225.752797,-0.000000
1299.124523,-11399.171507,1915.238745,592.164754
1299.124834,-11917.315666,1302.362347,814.226536
1299.125146,-10658.965565,536.266849,1110.308913
1299.125457,-8290.306550,-536.266849,888.247130
1299.125768,-6883.915261,-766.095498,666.185348
1299.126080,-5773.606348,-766.095498,-0.000000
1299.126391,-6735.874072,0.000000,-444.123565
1299.126703,-7920.203579,383.047749,296.082377
1299.127014,-9844.739029,919.314598,-0.000000
1299.127325,-10510.924376,1225.752797,740.205942
1299.127637,-10658.965565,766.095498,1480.411884
1299.127948,-10510.924376,-842.705048,1850.514855
1299.128260,-9474.636058,-1608.800546,1554.432478
1299.128571,-7994.224174,-995.924147,1406.391290
1299.128882,-7476.080014,-1149.143247,-0.000000
1299.129194,-8364.327145,-306.438199,-222.061783
1299.129505,-9770.718434,536.266849,-666.185348
1299.129816,-9844.739029,1225.752797,-0.000000
1299.130128,-9992.780217,383.047749,296.082377
1299.130439,-8882.471304,-612.876398,518.144159
1299.130751,-7772.162391,-1455.581446,-0.000000
1299.131062,-7031.956449,-1532.190996,-0.000000
1299.131373,-6735.874072,-1072.533697,-0.000000
1299.131685,-8290.306550,-459.657299,296.082377
1299.131996,-10584.944971,459.657299,518.144159
1299.132308,-11177.109724,1302.362347,1258.350101
1299.132619,-10436.903782,1149.143247,1554.432478
1299.132930,-9326.594869,76.609550,1850.514855
1299.133242,-8512.368333,-1762.019645,1628.453072
1299.133553,-6735.874072,-2451.505594,740.205942
1299.133865,-5625.565159,-2757.943793,-0.000000
1299.134176,-6957.935855,-2451.505594,-740.205942
1299.134487,-8660.409521,-842.705048,-962.267725
1299.134799,-10362.883188,229.828649,-666.185348
1299.135110,-11547.212695,919.314598,-0.000000
1299.135421,-11769.274478,919.314598,1184.329507
1299.135733,-11473.192101,1072.533697,1776.494261
1299.136044,-10140.821405,-1225.752797,1776.494261
1299.136356,-8068.244768,-995.924147,1110.308913
1299.136667,-5995.668130,-1378.971896,592.164754
1299.136978,-5699.585753,-612.876398,-148.041188
1299.137290,-6661.853478,153.219100,-740.205942
1299.137601,-8660.409521,459.657299,-518.144159
1299.137913,-10584.944971,536.266849,518.144159
1299.138224,-11621.233289,1072.533697,888.247130
1299.138535,-11843.295072,1302.362347,1332.370696
1299.138847,-10732.986159,-995.924147,2072.576638
1299.139158,-8586.388927,-1685.410096,1702.473667
1299.139469,-7772.162391,-1685.410096,888.247130
1299.139781,-7328.038826,-536.266849,-0.000000
1299.140092,-7476.080014,766.095498,-148.041188
1299.140404,-7920.203579,995.924147,-0.000000
1299.140715,-8364.327145,1302.362347,370.102971
1299.141026,-9252.574275,0.000000,-74.020594
1299.141338,-8586.388927,-229.828649,370.102971
1299.141649,-8216.285956,76.609550,222.061783
1299.141961,-7846.182985,-919.314598,148.041188
1299.142272,-8956.491898,-1608.800546,148.041188
1299.142583,-10140.821405,-1455.581446,740.205942
1299.142895,-10510.924376,153.219100,814.226536
1299.143206,-10214.842000,1225.752797,1258.350101
1299.143518,-10066.800811,1378.971896,1776.494261
1299.143829,-8808.450710,-689.485948,1628.453072
1299.144140,-7031.956449,-1532.190996,1258.350101
1299.144452,-5699.585753,-1762.019645,592.164754
1299.144763,-6069.688724,-1225.752797,-148.041188
1299.145074,-7772.162391,-842.705048,-1406.391290
1299.145386,-9178.553681,383.047749,-1184.329507
1299.145697,-10807.006753,1532.190996,-1110.308913
1299.146009,-11473.192101,1302.362347,-74.020594
1299.146320,-11991.336260,1532.190996,222.061783
1299.146631,-11029.068536,383.047749,1406.391290
1299.146943,-9178.553681,-689.485948,1036.288319
1299.147254,-7105.977043,-842.705048,666.185348
1299.147566,-6143.709319,-689.485948,-0.000000
1299.147877,-7031.956449,-919.314598,-666.185348
1299.148188,-8216.285956,-306.438199,-296.082377
1299.148499,-9474.636058,1149.143247,-148.041188
1299.148811,-11325.150913,1685.410096,296.082377
1299.149122,-11695.253884,1302.362347,1184.329507
1299.149433,-10140.821405,153.219100,1628.453072
1299.149745,-9030.512492,-1072.533697,1554.432478
1299.150056,-7179.997637,-1378.971896,740.205942
1299.150367,-6883.915261,-995.924147,-0.000000
1299.150679,-7846.182985,76.609550,-740.205942
1299.150990,-8290.306550,995.924147,-592.164754
1299.151301,-8586.388927,1302.362347,-296.082377
1299.151613,-8956.491898,612.876398,-0.000000
1299.151924,-9918.759623,0.000000,444.123565
1299.152235,-9474.636058,-842.705048,888.247130
1299.152547,-8512.368333,-1072.533697,296.082377
1299.152858,-8068.244768,-536.266849,296.082377
1299.153169,-8364.327145,-306.438199,444.123565
1299.153480,-9104.533087,0.000000,666.185348
1299.153792,-11177.109724,306.438199,814.226536
1299.154103,-9696.697840,1532.190996,1628.453072
1299.154414,-9770.718434,919.314598,1850.514855
1299.154726,-8956.491898,-459.657299,2072.576638
1299.155037,-7105.977043,-842.705048,1258.350101
1299.155348,-6365.771101,-1685.410096,-0.000000
1299.155660,-6291.750507,-1991.848295,-148.041188
1299.155971,-8068.244768,229.828649,-1332.370696
1299.156282,-10214.842000,995.924147,-962.267725
1299.156594,-11399.171507,1608.800546,518.144159
1299.156905,-11547.212695,1149.143247,1628.453072
1299.157216,-11547.212695,306.438199,2220.617826
1299.157527,-9992.780217,76.609550,2146.597232
1299.157839,-7328.038826,76.609550,1480.411884
1299.158150,-5625.565159,-536.266849,592.164754
1299.158461,-5329.482782,0.000000,-518.144159
1299.158773,-6365.771101,536.266849,-1110.308913
1299.159084,-8364.327145,919.314598,-1036.288319
1299.159395,-10584.944971,1455.581446,-74.020594
1299.159707,-11843.295072,1225.752797,962.267725
1299.160018,-11325.150913,153.219100,1998.556043
1299.160329,-10732.986159,-1225.752797,2738.761985
1299.160641,-8586.388927,-2987.772442,2960.823768
1299.160952,-6809.894666,-2068.457845,2072.576638
1299.161263,-6661.853478,-1302.362347,148.041188
1299.161575,-6735.874072,153.219100,-296.082377
1299.161886,-8068.244768,536.266849,-592.164754
1299.162197,-9104.533087,1149.143247,-518.144159
1299.162508,-9030.512492,842.705048,-74.020594
1299.162820,-9844.739029,-536.266849,-0.000000
1299.163131,-9474.636058,229.828649,444.123565
1299.163442,-9178.553681,-1149.143247,148.041188
1299.163754,-8512.368333,-689.485948,296.082377
1299.164065,-8808.450710,-459.657299,296.082377
1299.164376,-9548.656652,76.609550,666.185348
1299.164688,-10140.821405,1072.533697,962.267725
1299.164999,-9992.780217,612.876398,1998.556043
1299.165310,-9474.636058,-689.485948,1924.535449
1299.165622,-7772.162391,-1608.800546,1998.556043
1299.165933,-7031.956449,-2451.505594,1110.308913
1299.166244,-6883.915261,-2221.676944,296.082377
1299.166555,-7179.997637,-1532.190996,-1406.391290
1299.166867,-8734.430116,76.609550,-1628.453072
1299.167178,-9474.636058,919.314598,-1332.370696
1299.167489,-10881.027347,1149.143247,-0.000000
1299.167801,-11843.295072,766.095498,592.164754
1299.168112,-10881.027347,229.828649,1628.453072
1299.168423,-9696.697840,-383.047749,1628.453072
1299.168735,-7402.059420,-842.705048,1406.391290
1299.169046,-6143.709319,-842.705048,-74.020594
1299.169357,-6143.709319,-1072.533697,-666.185348
1299.169669,-7550.100608,-842.705048,-1036.288319
1299.169980,-9178.553681,229.828649,-444.123565
1299.170291,-11177.109724,1838.629195,-0.000000
1299.170603,-12213.398043,1149.143247,814.226536
1299.170914,-11917.315666,76.609550,2072.576638
1299.171225,-10066.800811,-536.266849,2146.597232
1299.171536,-7328.038826,0.000000,1332.370696
1299.171848,-6217.729913,153.219100,222.061783
1299.172159,-6957.935855,1072.533697,-740.205942
1299.172470,-8142.265362,1225.752797,-1184.329507
1299.172782,-7994.224174,2221.676944,-1554.432478
1299.173093,-9104.533087,2374.896044,-666.185348
1299.173404,-9400.615463,842.705048,-0.000000
1299.173716,-9030.512492,-383.047749,666.185348
1299.174027,-8808.450710,-1225.752797,888.247130
1299.174338,-7994.224174,-2068.457845,814.226536
1299.174650,-8956.491898,-1378.971896,592.164754
1299.174961,-10066.800811,76.609550,666.185348
1299.175272,-10584.944971,1608.800546,518.144159
1299.175583,-10362.883188,2145.067394,592.164754
1299.175895,-9770.718434,2374.896044,1184.329507
1299.176206,-8734.430116,1149.143247,962.267725
1299.176517,-6883.915261,0.000000,1406.391290
1299.176829,-5551.544565,-1072.533697,962.267725
1299.177140,-5477.523971,-536.266849,222.061783
1299.177451,-6809.894666,536.266849,-1110.308913
1299.177763,-8364.327145,612.876398,-740.205942
1299.178074,-9474.636058,919.314598,-0.000000
1299.178385,-10955.047942,919.314598,814.226536
1299.178697,-11843.295072,766.095498,1702.473667
1299.179008,-11621.233289,-153.219100,2220.617826
1299.179319,-9178.553681,-1072.533697,1702.473667
1299.179631,-6883.915261,-766.095498,1480.411884
1299.179942,-5329.482782,-766.095498,444.123565
1299.180253,-5995.668130,-919.314598,-666.185348
1299.180564,-7698.141797,-306.438199,-74.020594
1299.180876,-9178.553681,919.314598,888.247130
1299.181187,-11251.130318,689.485948,1258.350101
1299.181498,-11917.315666,0.000000,2664.741391
1299.181810,-11547.212695,-1455.581446,2146.597232
1299.182121,-9844.739029,-1915.238745,2960.823768
1299.182432,-7402.059420,-1838.629195,1776.494261
1299.182744,-6957.935855,-1608.800546,-0.000000
1299.183055,-7550.100608,-689.485948,-444.123565
1299.183366,-8364.327145,229.828649,-444.123565
1299.183678,-9030.512492,919.314598,-222.061783
1299.183989,-9400.615463,766.095498,-0.000000
1299.184300,-9844.739029,1378.971896,444.123565
1299.184611,-9696.697840,0.000000,296.082377
1299.184923,-8364.327145,-383.047749,296.082377
1299.185234,-8290.306550,-689.485948,222.061783
1299.185545,-9252.574275,-612.876398,-0.000000
1299.185857,-10362.883188,0.000000,148.041188
1299.186168,-10732.986159,459.657299,888.247130
1299.186479,-10584.944971,612.876398,1480.411884
1299.186791,-10584.944971,-459.657299,1702.473667
1299.187102,-9252.574275,-1378.971896,1924.535449
1299.187413,-7105.977043,-2604.724693,1850.514855
1299.187725,-6587.832884,-2451.505594,962.267725
1299.188036,-6735.874072,-1455.581446,-0.000000
1299.188347,-7624.121203,-306.438199,-888.247130
1299.188659,-8660.409521,1225.752797,-1036.288319
1299.188970,-9474.636058,2911.162892,-1184.329507
1299.189281,-10584.944971,3677.258390,-444.123565
1299.189592,-10510.924376,2681.334243,518.144159
1299.189904,-9474.636058,689.485948,962.267725
1299.190215,-7328.038826,0.000000,1332.370696
1299.190526,-5847.626942,-689.485948,740.205942
1299.190838,-5995.668130,-919.314598,-74.020594
1299.191149,-7402.059420,-919.314598,-666.185348
1299.191460,-7846.182985,153.219100,-0.000000
1299.191772,-10140.821405,842.705048,-222.061783
1299.192083,-11843.295072,536.266849,962.267725
1299.192394,-12065.356855,229.828649,1406.391290
1299.192706,-10658.965565,-1072.533697,2368.659014
1299.193017,-8438.347739,-2145.067394,2220.617826
1299.193328,-6661.853478,-2374.896044,1406.391290
1299.193639,-6291.750507,-1532.190996,-370.102971
1299.193951,-6735.874072,-229.828649,-1258.350101
1299.194262,-8734.430116,1149.143247,-1776.494261
1299.194573,-9844.739029,1532.190996,-962.267725
1299.194885,-11251.130318,842.705048,-148.041188
1299.195196,-11103.089130,76.609550,518.144159
1299.195507,-9918.759623,-612.876398,962.267725
1299.195819,-9252.574275,-1302.362347,740.205942
1299.196130,-8808.450710,-1685.410096,814.226536
1299.196441,-9252.574275,-919.314598,296.082377
1299.196753,-9104.533087,0.000000,666.185348
1299.197064,-9770.718434,995.924147,666.185348
1299.197375,-10584.944971,766.095498,1184.329507
1299.197687,-10732.986159,-306.438199,1406.391290
1299.197998,-9104.533087,-842.705048,1850.514855
1299.198309,-6883.915261,-1072.533697,1628.453072
1299.198620,-6661.853478,-842.705048,666.185348
1299.198932,-7698.141797,-995.924147,-0.000000
1299.199243,-8956.491898,0.000000,-888.247130
1299.199554,-9474.636058,1302.362347,-666.185348
1299.199866,-10362.883188,2757.943793,-222.061783
1299.200177,-11029.068536,2451.505594,296.082377
1299.200488,-10510.924376,689.485948,1184.329507
1299.200800,-9104.533087,-536.266849,1110.308913
1299.201111,-6217.729913,-1532.190996,1184.329507
1299.201422,-5181.441594,-842.705048,666.185348
1299.201734,-5921.647536,-1072.533697,296.082377
1299.202045,-7328.038826,-536.266849,-296.082377
1299.202356,-9548.656652,995.924147,-0.000000
1299.202667,-10066.800811,2451.505594,740.205942
1299.202979,-11103.089130,2604.724693,888.247130
1299.203290,-10362.883188,1685.410096,1702.473667
1299.203601,-7772.162391,0.000000,2072.576638
1299.203913,-6439.791695,-1455.581446,888.247130
1299.204224,-6809.894666,-1455.581446,296.082377
1299.204535,-6809.894666,-383.047749,-518.144159
1299.204847,-8512.368333,689.485948,-1258.350101
1299.205158,-9474.636058,919.314598,-444.123565
1299.205469,-9770.718434,536.266849,-222.061783
1299.205781,-10881.027347,-536.266849,-0.000000
1299.206092,-9622.677246,459.657299,1332.370696
1299.206403,-8882.471304,-919.314598,740.205942
1299.206715,-8512.368333,-919.314598,296.082377
1299.207026,-8438.347739,-612.876398,814.226536
1299.207337,-9252.574275,-689.485948,-0.000000
1299.207648,-9104.533087,153.219100,296.082377
1299.207960,-10140.821405,995.924147,814.226536
1299.208271,-10584.944971,689.485948,1184.329507
1299.208582,-10066.800811,-536.266849,1036.288319
1299.208894,-9474.636058,-1762.019645,1332.370696
1299.209205,-8142.265362,-2911.162892,1110.308913
1299.209516,-7624.121203,-2757.943793,148.041188
1299.209828,-8586.388927,-2145.067394,-0.000000
1299.210139,-9548.656652,-919.314598,-296.082377
1299.210450,-10140.821405,536.266849,-0.000000
1299.210762,-10955.047942,995.924147,296.082377
1299.211073,-10955.047942,689.485948,888.247130
1299.211384,-10066.800811,153.219100,370.102971
1299.211696,-8364.327145,-306.438199,1036.288319
1299.212007,-6809.894666,-766.095498,666.185348
1299.212318,-6439.791695,-1378.971896,296.082377
1299.212629,-7254.018232,-995.924147,-0.000000
1299.212941,-8438.347739,766.095498,444.123565
1299.213252,-9548.656652,1072.533697,666.185348
1299.213563,-10955.047942,1149.143247,1184.329507
1299.213875,-10807.006753,1225.752797,1554.432478
1299.214186,-9844.739029,229.828649,1850.514855
1299.214497,-7994.224174,-842.705048,1480.411884
1299.214809,-6883.915261,-1302.362347,962.267725
1299.215120,-6809.894666,-1149.143247,296.082377
1299.215431,-7328.038826,-919.314598,-222.061783
1299.215743,-7994.224174,459.657299,-296.082377
1299.216054,-9474.636058,1838.629195,-740.205942
1299.216365,-9548.656652,1072.533697,222.061783
1299.216676,-10288.862594,153.219100,592.164754
1299.216988,-8882.471304,0.000000,814.226536
1299.217299,-7920.203579,0.000000,444.123565
1299.217610,-7254.018232,-153.219100,740.205942
1299.217922,-7698.141797,-919.314598,-0.000000
1299.218233,-9326.594869,-229.828649,-222.061783
1299.218544,-8956.491898,766.095498,518.144159
1299.218856,-9622.677246,1225.752797,-0.000000
1299.219167,-10140.821405,536.266849,740.205942
1299.219478,-9770.718434,-536.266849,1258.350101
1299.219790,-8438.347739,-2221.676944,1332.370696
1299.220101,-7476.080014,-2757.943793,1406.391290
1299.220412,-7328.038826,-2221.676944,296.082377
1299.220724,-8068.244768,-842.705048,-148.041188
1299.221035,-9030.512492,76.609550,-740.205942
1299.221346,-9474.636058,459.657299,-1110.308913
1299.221657,-10140.821405,1149.143247,-222.061783
1299.221969,-10436.903782,1302.362347,222.061783
1299.222280,-10658.965565,536.266849,296.082377
1299.222591,-9252.574275,-153.219100,592.164754
1299.222903,-7920.203579,-1149.143247,296.082377
1299.223214,-7402.059420,-2145.067394,444.123565
1299.223525,-8068.244768,-1225.752797,222.061783
1299.223837,-9400.615463,-383.047749,-0.000000
1299.224148,-11177.109724,1072.533697,592.164754
1299.224459,-11991.336260,1455.581446,1110.308913
1299.224771,-11547.212695,842.705048,1332.370696
1299.225082,-9770.718434,229.828649,1184.329507
1299.225393,-7476.080014,-459.657299,444.123565
1299.225704,-5477.523971,-1302.362347,-0.000000
1299.226016,-6291.750507,-689.485948,-1332.370696
1299.226327,-8364.327145,-229.828649,-1480.411884
1299.226638,-9326.594869,1762.019645,-1036.288319
1299.226950,-9992.780217,2221.676944,-222.061783
1299.227261,-10881.027347,1149.143247,592.164754
1299.227572,-10584.944971,842.705048,1184.329507
1299.227884,-9474.636058,-459.657299,1184.329507
1299.228195,-7328.038826,-306.438199,1332.370696
1299.228506,-7105.977043,-536.266849,592.164754
1299.228818,-8512.368333,-459.657299,-0.000000
1299.229129,-8956.491898,306.438199,148.041188
1299.229440,-9326.594869,1225.752797,444.123565
1299.229752,-9548.656652,1455.581446,962.267725
1299.230063,-9622.677246,1915.238745,1406.391290
1299.230374,-9252.574275,0.000000,1332.370696
1299.230685,-7254.018232,-919.314598,1924.535449
1299.230997,-6217.729913,-995.924147,1332.370696
1299.231308,-6143.709319,-842.705048,518.144159
1299.231619,-7105.977043,76.609550,-148.041188
1299.231931,-8660.409521,689.485948,-0.000000
1299.232242,-9474.636058,1455.581446,444.123565
1299.232553,-10732.986159,1685.410096,518.144159
1299.232865,-10881.027347,229.828649,1110.308913
1299.233176,-9844.739029,-842.705048,1110.308913
1299.233487,-8364.327145,-1608.800546,592.164754
1299.233799,-6809.894666,-1685.410096,444.123565
1299.234110,-7179.997637,-1608.800546,-370.102971
1299.234421,-8512.368333,-612.876398,-0.000000
1299.234732,-10066.800811,842.705048,962.267725
1299.235044,-11399.171507,1378.971896,1850.514855
1299.235355,-11177.109724,1378.971896,2590.720797
1299.235666,-11029.068536,153.219100,1998.556043
1299.235978,-8956.491898,-919.314598,1554.432478
1299.236289,-6957.935855,-1225.752797,592.164754
1299.236600,-6587.832884,-1532.190996,-740.205942
1299.236912,-7698.141797,-1149.143247,-1184.329507
1299.237223,-8956.491898,0.000000,-1776.494261
1299.237534,-9474.636058,1072.533697,-814.226536
1299.237846,-10288.862594,689.485948,-0.000000
1299.238157,-10955.047942,459.657299,740.205942
1299.238468,-11029.068536,0.000000,1258.350101
1299.238780,-9104.533087,-229.828649,1554.432478
1299.239091,-7179.997637,306.438199,888.247130
1299.239402,-6957.935855,0.000000,-0.000000
1299.239713,-8364.327145,-689.485948,-370.102971
1299.240025,-9474.636058,0.000000,-222.061783
1299.240336,-10436.903782,612.876398,-0.000000
1299.240647,-11769.274478,919.314598,370.102971
1299.240959,-11177.109724,-229.828649,1184.329507
1299.241270,-9918.759623,-1915.238745,1776.494261
1299.241581,-7476.080014,-2911.162892,1776.494261
1299.241893,-6735.874072,-2528.115143,666.185348
1299.242204,-6217.729913,-536.266849,814.226536
1299.242515,-7476.080014,1302.362347,-370.102971
1299.242827,-8290.306550,1991.848295,-0.000000
1299.243138,-9844.739029,1915.238745,370.102971
1299.243449,-10658.965565,1532.190996,814.226536
1299.243760,-10066.800811,766.095498,592.164754
1299.244072,-8512.368333,0.000000,444.123565
1299.244383,-6587.832884,-383.047749,-0.000000
1299.244694,-5699.585753,-1455.581446,-370.102971
1299.245006,-6809.894666,-1915.238745,-666.185348
1299.245317,-8660.409521,-1149.143247,518.144159
1299.245628,-10214.842000,306.438199,740.205942
1299.245940,-10732.986159,1762.019645,1850.514855
1299.246251,-10955.047942,842.705048,2294.638420
1299.246562,-10288.862594,-842.705048,2442.679609
1299.246874,-7920.203579,-1378.971896,1998.556043
1299.247185,-6143.709319,-995.924147,740.205942
1299.247496,-6069.688724,-1991.848295,-444.123565
1299.247808,-7550.100608,-1378.971896,-962.267725
1299.248119,-9104.533087,-306.438199,-1554.432478
1299.248431,-9992.780217,536.266849,-1036.288319
1299.248742,-10362.883188,689.485948,222.061783
1299.249053,-11621.233289,536.266849,962.267725
1299.249365,-11029.068536,76.609550,1480.411884
1299.249676,-9030.512492,-612.876398,888.247130
1299.249988,-6809.894666,-459.657299,740.205942
1299.250299,-6883.915261,-76.609550,370.102971
1299.250610,-8290.306550,-153.219100,-592.164754
1299.250922,-9548.656652,229.828649,-74.020594
1299.251233,-10732.986159,1149.143247,222.061783
1299.251544,-11325.150913,995.924147,1332.370696
1299.251856,-10955.047942,76.609550,1406.391290
1299.252167,-9918.759623,-1225.752797,1406.391290
1299.252479,-8142.265362,-1838.629195,888.247130
1299.252790,-7328.038826,-1149.143247,296.082377
1299.253101,-8216.285956,383.047749,-370.102971
1299.253413,-8956.491898,1915.238745,-962.267725
1299.253724,-9844.739029,2987.772442,-814.226536
1299.254036,-9844.739029,3294.210641,222.061783
1299.254347,-10066.800811,2451.505594,-0.000000
1299.254658,-9400.615463,1608.800546,1258.350101
1299.254970,-8216.285956,0.000000,814.226536
1299.255281,-7254.018232,-1225.752797,444.123565
1299.255593,-7105.977043,-1072.533697,-0.000000
1299.255904,-7846.182985,0.000000,-0.000000
1299.256215,-8956.491898,383.047749,814.226536
1299.256527,-9548.656652,1608.800546,888.247130
1299.256838,-9696.697840,1455.581446,1332.370696
1299.257150,-9696.697840,1302.362347,1258.350101
1299.257461,-7550.100608,766.095498,1258.350101
1299.257772,-5921.647536,0.000000,1036.288319
1299.258084,-5033.400406,-766.095498,148.041188
1299.258395,-5477.523971,-1378.971896,-444.123565
1299.258707,-7698.141797,-1302.362347,-962.267725
1299.259018,-9252.574275,0.000000,-592.164754
1299.259329,-10584.944971,76.609550,-148.041188
1299.259641,-11103.089130,229.828649,1332.370696
1299.259952,-11251.130318,0.000000,1628.453072
1299.260264,-10436.903782,-1225.752797,1776.494261
1299.260575,-7994.224174,-1225.752797,1702.473667
1299.260886,-6513.812290,-995.924147,814.226536
1299.261198,-7402.059420,-919.314598,-74.020594
1299.261509,-8216.285956,-229.828649,-148.041188
1299.261821,-9918.759623,766.095498,-592.164754
1299.262132,-10658.965565,1378.971896,222.061783
1299.262443,-11473.192101,1072.533697,1036.288319
1299.262755,-11991.336260,-1378.971896,1554.432478
1299.263066,-10436.903782,-2681.334243,2368.659014
1299.263378,-9104.533087,-2604.724693,2072.576638
1299.263689,-8882.471304,-2298.286494,1184.329507
1299.264000,-8956.491898,-459.657299,222.061783
1299.264312,-9252.574275,919.314598,-222.061783
1299.264623,-8956.491898,1455.581446,-296.082377
1299.264935,-9400.615463,1685.410096,-296.082377
1299.265246,-9696.697840,1225.752797,-222.061783
1299.265557,-9622.677246,459.657299,-74.020594
1299.265869,-8734.430116,76.609550,370.102971
1299.266180,-8142.265362,-153.219100,-0.000000
1299.266492,-7624.121203,-1378.971896,222.061783
1299.266803,-7476.080014,-1225.752797,444.123565
1299.267114,-9400.615463,-766.095498,1258.350101
1299.267426,-9770.718434,0.000000,2146.597232
1299.267737,-10066.800811,842.705048,2368.659014
1299.268049,-9696.697840,76.609550,2368.659014
1299.268360,-7550.100608,-612.876398,2146.597232
1299.268671,-4811.338623,-919.314598,740.205942
1299.268983,-3997.112087,-1225.752797,-296.082377
1299.269294,-5181.441594,-1225.752797,-1406.391290
1299.269606,-7402.059420,0.000000,-1776.494261
1299.269917,-9770.718434,1838.629195,-962.267725
1299.270228,-11399.171507,1838.629195,296.082377
1299.270540,-11843.295072,766.095498,1628.453072
1299.270851,-10807.006753,0.000000,2072.576638
1299.271163,-8956.491898,-995.924147,1850.514855
1299.271474,-7476.080014,-1149.143247,962.267725
1299.271785,-5477.523971,-1149.143247,-0.000000
1299.272097,-6513.812290,-842.705048,-74.020594
1299.272408,-8512.368333,-766.095498,-592.164754
1299.272720,-9474.636058,-229.828649,-0.000000
1299.273031,-11177.109724,842.705048,-0.000000
1299.273342,-12139.377449,0.000000,592.164754
1299.273654,-11029.068536,-919.314598,1110.308913
1299.273965,-10066.800811,-1532.190996,1628.453072
1299.274277,-8438.347739,-1762.019645,1184.329507
1299.274588,-8142.265362,-1762.019645,222.061783
1299.274899,-8956.491898,-766.095498,-148.041188
1299.275211,-8882.471304,842.705048,-518.144159
1299.275522,-9326.594869,1762.019645,-740.205942
1299.275834,-9992.780217,2068.457845,-518.144159
1299.276145,-10436.903782,842.705048,-518.144159
1299.276456,-9474.636058,0.000000,-0.000000
1299.276768,-8586.388927,-842.705048,-0.000000
1299.277079,-8216.285956,-1838.629195,-592.164754
1299.277391,-8808.450710,-1149.143247,-666.185348
1299.277702,-9548.656652,-919.314598,-74.020594
1299.278013,-10436.903782,-459.657299,370.102971
1299.278325,-10732.986159,459.657299,1554.432478
1299.278636,-11103.089130,766.095498,2146.597232
1299.278948,-9622.677246,459.657299,1998.556043
1299.279259,-7550.100608,-1072.533697,1776.494261
1299.279570,-5773.606348,-1685.410096,666.185348
1299.279882,-5329.482782,-1149.143247,-296.082377
1299.280193,-6735.874072,-612.876398,-1776.494261
1299.280505,-8512.368333,1378.971896,-1258.350101
1299.280816,-9178.553681,2221.676944,-1036.288319
1299.281127,-10362.883188,1838.629195,444.123565
1299.281439,-10658.965565,306.438199,1924.535449
1299.281750,-10140.821405,-689.485948,2368.659014
1299.282062,-7994.224174,-612.876398,2294.638420
1299.282373,-6661.853478,0.000000,888.247130
1299.282684,-6513.812290,0.000000,370.102971
1299.282996,-6957.935855,-153.219100,-444.123565
1299.283307,-8438.347739,842.705048,-222.061783
1299.283619,-9252.574275,2374.896044,-0.000000
1299.283930,-10881.027347,2374.896044,222.061783
1299.284241,-11547.212695,1225.752797,888.247130
1299.284553,-10066.800811,0.000000,1776.494261
1299.284864,-7476.080014,-1072.533697,1850.514855
1299.285176,-6217.729913,-1378.971896,740.205942
1299.285487,-6439.791695,0.000000,-74.020594
1299.285798,-7624.121203,229.828649,-814.226536
1299.286110,-9326.594869,1455.581446,-0.000000
1299.286421,-10510.924376,1915.238745,296.082377
1299.286733,-11399.171507,1455.581446,296.082377
1299.287044,-11547.212695,536.266849,814.226536
1299.287355,-10066.800811,-459.657299,1036.288319
1299.287667,-7772.162391,-1072.533697,-0.000000
1299.287978,-6365.771101,-842.705048,-74.020594
1299.288290,-7846.182985,-612.876398,-518.144159
1299.288601,-8882.471304,-459.657299,-0.000000
1299.288912,-9918.759623,766.095498,518.144159
1299.289224,-10807.006753,919.314598,1480.411884
1299.289535,-10732.986159,0.000000,1850.514855
1299.289847,-9622.677246,-766.095498,2072.576638
1299.290158,-7920.203579,-1532.190996,1554.432478
1299.290469,-6661.853478,-2145.067394,666.185348
1299.290781,-7624.121203,-2221.676944,-740.205942
1299.291092,-8660.409521,-995.924147,-1258.350101
1299.291404,-9844.739029,612.876398,-1258.350101
1299.291715,-10140.821405,1225.752797,-592.164754
1299.292026,-10658.965565,612.876398,-0.000000
1299.292338,-10436.903782,-153.219100,1184.329507
1299.292649,-9030.512492,-919.314598,1554.432478
1299.292961,-7328.038826,-1225.752797,1628.453072
1299.293272,-6661.853478,-1455.581446,962.267725
1299.293583,-7402.059420,-1455.581446,-444.123565
1299.293895,-8586.388927,-1608.800546,-148.041188
1299.294206,-9622.677246,153.219100,296.082377
1299.294518,-10807.006753,842.705048,888.247130
1299.294829,-11547.212695,383.047749,888.247130
1299.295140,-11029.068536,-383.047749,1702.473667
1299.295452,-8808.450710,-1608.800546,1850.514855
1299.295763,-6661.853478,-1608.800546,962.267725
1299.296075,-5921.647536,-1225.752797,-0.000000
1299.296386,-5773.606348,-153.219100,-666.185348
1299.296697,-6587.832884,1225.752797,-1036.288319
1299.297009,-8364.327145,2451.505594,-740.205942
1299.297320,-10140.821405,2451.505594,-0.000000
1299.297632,-10658.965565,1762.019645,296.082377
1299.297943,-10732.986159,766.095498,814.226536
1299.298254,-9474.636058,383.047749,592.164754
1299.298566,-8438.347739,-306.438199,370.102971
1299.298877,-8364.327145,-689.485948,-74.020594
1299.299189,-8142.265362,-842.705048,370.102971
1299.299500,-8438.347739,-229.828649,666.185348
1299.299811,-9252.574275,1149.143247,1184.329507
1299.300123,-10436.903782,1455.581446,1332.370696
1299.300434,-10658.965565,229.828649,1480.411884
1299.300746,-8808.450710,-383.047749,1702.473667
1299.301057,-7179.997637,-766.095498,1258.350101
1299.301368,-6513.812290,-1378.971896,-0.000000
1299.301680,-7624.121203,-1532.190996,-740.205942
1299.301991,-8660.409521,0.000000,-666.185348
1299.302303,-9178.553681,995.924147,-370.102971
1299.302614,-10436.903782,1225.752797,222.061783
1299.302925,-10732.986159,229.828649,1332.370696
1299.303237,-10288.862594,0.000000,814.226536
1299.303548,-8216.285956,-689.485948,1406.391290
1299.303860,-6291.750507,-919.314598,592.164754
1299.304171,-6143.709319,-1072.533697,148.041188
1299.304482,-7402.059420,-1685.410096,-444.123565
1299.304794,-8956.491898,-919.314598,-0.000000
1299.305105,-10436.903782,0.000000,370.102971
1299.305417,-11843.295072,995.924147,888.247130
1299.305728,-12139.377449,689.485948,1776.494261
1299.306039,-11177.109724,-1915.238745,2368.659014
1299.306351,-9178.553681,-2221.676944,2368.659014
1299.306662,-7031.956449,-1991.848295,1628.453072
1299.306974,-6365.771101,-1149.143247,222.061783
1299.307285,-6957.935855,0.000000,-518.144159
1299.307596,-8290.306550,1225.752797,-1776.494261
1299.307908,-8808.450710,2374.896044,-1184.329507
1299.308219,-9770.718434,2298.286494,-740.205942
1299.308531,-10658.965565,1608.800546,296.082377
1299.308842,-10584.944971,536.266849,666.185348
1299.309153,-9474.636058,0.000000,1110.308913
1299.309465,-8290.306550,-536.266849,592.164754
1299.309776,-7994.224174,-153.219100,518.144159
1299.310088,-8808.450710,766.095498,370.102971
1299.310399,-8882.471304,1532.190996,518.144159
1299.310710,-8956.491898,1378.971896,888.247130
1299.311022,-9622.677246,1685.410096,962.267725
1299.311333,-9252.574275,1532.190996,1036.288319
1299.311645,-7550.100608,995.924147,518.144159
1299.311956,-6217.729913,76.609550,296.082377
1299.312267,-6439.791695,-612.876398,-148.041188
1299.312579,-7698.141797,0.000000,-814.226536
1299.312890,-9252.574275,0.000000,-74.020594
1299.313202,-10214.842000,919.314598,666.185348
1299.313513,-11251.130318,536.266849,1184.329507
1299.313824,-11177.109724,459.657299,1628.453072
1299.314136,-9474.636058,0.000000,1332.370696
1299.314447,-7105.977043,-459.657299,1036.288319
1299.314759,-5329.482782,-766.095498,518.144159
1299.315070,-5773.606348,-612.876398,-296.082377
1299.315381,-7254.018232,-459.657299,-666.185348
1299.315693,-9548.656652,0.000000,-666.185348
1299.316004,-10658.965565,995.924147,592.164754
1299.316316,-11843.295072,1072.533697,1110.308913
1299.316627,-12287.418637,-536.266849,2146.597232
1299.316938,-10658.965565,-2757.943793,2442.679609
1299.317250,-8956.491898,-2911.162892,2146.597232
1299.317561,-7328.038826,-1915.238745,2442.679609
1299.317873,-7328.038826,-536.266849,-0.000000
1299.318184,-7550.100608,76.609550,-1036.288319
1299.318495,-7994.224174,842.705048,-1628.453072
1299.318807,-8512.368333,1838.629195,-1184.329507
1299.319118,-9844.739029,1455.581446,-1036.288319
1299.319430,-10732.986159,459.657299,-0.000000
1299.319741,-10955.047942,-842.705048,444.123565
1299.320052,-9770.718434,-1762.019645,1036.288319
1299.320364,-8956.491898,-1532.190996,1258.350101
1299.320675,-8734.430116,-1608.800546,1036.288319
1299.320987,-8586.388927,-1378.971896,1332.370696
1299.321298,-8882.471304,-536.266849,1184.329507
1299.321609,-9474.636058,153.219100,2146.597232
1299.321921,-9992.780217,-306.438199,2072.576638
1299.322232,-9326.594869,153.219100,1776.494261
1299.322544,-7994.224174,-229.828649,1258.350101
1299.322855,-6291.750507,-689.485948,740.205942
1299.323166,-6365.771101,-536.266849,-888.247130
1299.323478,-7994.224174,-153.219100,-666.185348
1299.323789,-9770.718434,1072.533697,-814.226536
1299.324101,-9992.780217,2451.505594,296.082377
1299.324412,-10658.965565,1685.410096,1332.370696
1299.324723,-9992.780217,459.657299,2294.638420
1299.325035,-8438.347739,-842.705048,1184.329507
1299.325346,-6291.750507,-919.314598,1110.308913
1299.325658,-5033.400406,-995.924147,296.082377
1299.325969,-5921.647536,-1302.362347,-370.102971
1299.326280,-8142.265362,-766.095498,-296.082377
1299.326592,-10140.821405,306.438199,-518.144159
1299.326903,-11103.089130,1302.362347,444.123565
1299.327215,-11769.274478,1302.362347,962.267725
1299.327526,-11399.171507,229.828649,1628.453072
1299.327837,-9844.739029,-995.924147,1628.453072
1299.328149,-7846.182985,-1838.629195,1776.494261
1299.328460,-6439.791695,-1149.143247,888.247130
1299.328772,-6735.874072,-229.828649,-74.020594
1299.329083,-7920.203579,306.438199,-666.185348
1299.329394,-8734.430116,1072.533697,-1184.329507
1299.329706,-9992.780217,2451.505594,-1406.391290
1299.330017,-10732.986159,1838.629195,-666.185348
1299.330329,-11251.130318,229.828649,-0.000000
1299.330640,-10584.944971,-995.924147,444.123565
1299.330951,-8586.388927,-1149.143247,592.164754
1299.331263,-7920.203579,-1378.971896,222.061783
1299.331574,-7624.121203,-842.705048,222.061783
1299.331886,-8290.306550,-536.266849,444.123565
1299.332197,-9104.533087,306.438199,1110.308913
1299.332508,-10288.862594,76.609550,1258.350101
1299.332820,-10881.027347,306.438199,1184.329507
1299.333131,-10066.800811,0.000000,1554.432478
1299.333443,-8586.388927,-689.485948,740.205942
1299.333754,-7328.038826,-1302.362347,-148.041188
1299.334065,-7846.182985,-842.705048,-1332.370696
1299.334377,-9400.615463,-612.876398,-814.226536
1299.334688,-9770.718434,1455.581446,-518.144159
1299.335000,-10362.883188,1072.533697,444.123565
1299.335311,-10584.944971,306.438199,1110.308913
1299.335622,-10066.800811,-536.266849,1480.411884
1299.335934,-8660.409521,-612.876398,1480.411884
1299.336245,-6735.874072,-229.828649,1036.288319
1299.336557,-5921.647536,0.000000,444.123565
1299.336868,-6809.894666,-229.828649,-0.000000
1299.337179,-8586.388927,0.000000,-592.164754
1299.337491,-9696.697840,1378.971896,-0.000000
1299.337802,-10436.903782,2374.896044,370.102971
1299.338114,-11473.192101,2068.457845,1036.288319
1299.338425,-10881.027347,229.828649,1776.494261
1299.338736,-7994.224174,-536.266849,1924.535449
1299.339048,-6587.832884,-1302.362347,1406.391290
1299.339359,-6587.832884,-689.485948,444.123565
1299.339671,-6365.771101,-306.438199,-148.041188
1299.339982,-8068.244768,153.219100,-814.226536
1299.340293,-9252.574275,1685.410096,-740.205942
1299.340605,-10140.821405,2145.067394,-74.020594
1299.340916,-11103.089130,1149.143247,222.061783
1299.341228,-10881.027347,153.219100,1184.329507
1299.341539,-8808.450710,-1072.533697,1480.411884
1299.341850,-7402.059420,-766.095498,518.144159
1299.342162,-6957.935855,-689.485948,740.205942
1299.342473,-7772.162391,-612.876398,296.082377
1299.342785,-8290.306550,229.828649,370.102971
1299.343096,-9030.512492,1378.971896,888.247130
1299.343407,-10140.821405,1532.190996,1258.350101
1299.343719,-10732.986159,229.828649,1110.308913
1299.344030,-9770.718434,-766.095498,1406.391290
1299.344342,-8216.285956,-2068.457845,1184.329507
1299.344653,-7105.977043,-2145.067394,888.247130
1299.344964,-7920.203579,-1915.238745,-74.020594
1299.345276,-9030.512492,-766.095498,-666.185348
1299.345587,-9178.553681,612.876398,-74.020594
1299.345899,-9474.636058,1149.143247,222.061783
1299.346210,-9918.759623,76.609550,518.144159
1299.346521,-9474.636058,-383.047749,1332.370696
1299.346833,-8290.306550,-536.266849,814.226536
1299.347144,-6587.832884,-1532.190996,1036.288319
1299.347456,-7031.956449,-1838.629195,222.061783
1299.347767,-8956.491898,-2298.286494,148.041188
1299.348078,-10140.821405,-1762.019645,148.041188
1299.348390,-11547.212695,0.000000,518.144159
1299.348701,-12213.398043,689.485948,814.226536
1299.349013,-11843.295072,842.705048,1480.411884
1299.349324,-10214.842000,-229.828649,1628.453072
1299.349635,-7624.121203,-1608.800546,1702.473667
1299.349947,-6143.709319,-1685.410096,1184.329507
1299.350258,-5847.626942,-842.705048,-0.000000
1299.350570,-6661.853478,383.047749,-962.267725
1299.350881,-7476.080014,1838.629195,-1406.391290
1299.351193,-9400.615463,1915.238745,-1184.329507
1299.351504,-10807.006753,2068.457845,-888.247130
1299.351816,-11843.295072,995.924147,148.041188
1299.352127,-11399.171507,-229.828649,1184.329507
1299.352439,-9474.636058,-612.876398,1628.453072
1299.352750,-8364.327145,-1149.143247,1110.308913
1299.353062,-7402.059420,-1685.410096,740.205942
1299.353373,-6661.853478,-766.095498,518.144159
1299.353685,-7031.956449,919.314598,-0.000000
1299.353996,-8068.244768,1991.848295,370.102971
1299.354308,-9696.697840,1378.971896,296.082377
1299.354619,-10436.903782,1149.143247,888.247130
1299.354931,-9326.594869,229.828649,1332.370696
1299.355242,-7920.203579,-766.095498,1036.288319
1299.355554,-7328.038826,-1838.629195,296.082377
1299.355865,-7476.080014,-1149.143247,-592.164754
1299.356177,-7698.141797,-459.657299,-592.164754
1299.356488,-8660.409521,229.828649,-74.020594
1299.356800,-9400.615463,612.876398,592.164754
1299.357111,-9844.739029,-459.657299,518.144159
1299.357423,-9400.615463,-919.314598,740.205942
1299.357734,-7402.059420,-383.047749,666.185348
1299.358046,-6661.853478,-612.876398,-0.000000
1299.358358,-7254.018232,-995.924147,296.082377
1299.358669,-8216.285956,-1762.019645,370.102971
1299.358981,-10066.800811,-306.438199,518.144159
1299.359292,-11621.233289,842.705048,814.226536
1299.359604,-12657.521608,995.924147,1258.350101
1299.359915,-11695.253884,0.000000,1702.473667
1299.360227,-9104.533087,-1225.752797,1924.535449
1299.360538,-7105.977043,-1378.971896,1554.432478
1299.360850,-6809.894666,-1838.629195,592.164754
1299.361161,-6883.915261,-689.485948,-0.000000
1299.361473,-8216.285956,689.485948,-1110.308913
1299.361784,-8956.491898,1532.190996,-1184.329507
1299.362096,-10288.862594,2451.505594,-888.247130
1299.362407,-11473.192101,2221.676944,-814.226536
1299.362719,-11325.150913,1532.190996,148.041188
1299.363030,-10066.800811,919.314598,1184.329507
1299.363342,-8512.368333,-383.047749,1406.391290
1299.363653,-7994.224174,-689.485948,1554.432478
1299.363965,-8068.244768,-459.657299,1036.288319
1299.364276,-8216.285956,0.000000,592.164754
1299.364588,-8438.347739,1762.019645,-0.000000
1299.364899,-9104.533087,2757.943793,148.041188
1299.365211,-9770.718434,2145.067394,296.082377
1299.365522,-8956.491898,383.047749,666.185348
1299.365834,-8290.306550,0.000000,814.226536
1299.366145,-6439.791695,-1685.410096,1110.308913
1299.366457,-7179.997637,-1225.752797,444.123565
1299.366768,-8216.285956,-536.266849,296.082377
1299.367080,-8068.244768,306.438199,-0.000000
1299.367391,-8216.285956,995.924147,592.164754
1299.367703,-8956.491898,612.876398,814.226536
1299.368014,-9030.512492,0.000000,1332.370696
1299.368326,-8956.491898,-919.314598,1110.308913
1299.368637,-5921.647536,76.609550,740.205942
1299.368949,-6957.935855,-612.876398,-370.102971
1299.369260,-8808.450710,-1072.533697,-370.102971
1299.369572,-9474.636058,306.438199,-296.082377
1299.369883,-10807.006753,1302.362347,-0.000000
1299.370195,-10584.944971,1685.410096,1184.329507
1299.370506,-10881.027347,76.609550,1924.535449
1299.370818,-10658.965565,-1072.533697,2294.638420
1299.371129,-8512.368333,-2221.676944,2664.741391
1299.371441,-7179.997637,-2528.115143,1850.514855
1299.371752,-6587.832884,-1991.848295,888.247130
1299.372064,-7920.203579,-1378.971896,-222.061783
1299.372375,-8956.491898,-842.705048,-1332.370696
1299.372687,-9252.574275,919.314598,-592.164754
1299.372998,-10658.965565,1455.581446,-962.267725
1299.373310,-11177.109724,1378.971896,-74.020594
1299.373621,-11621.233289,306.438199,444.123565
1299.373933,-10362.883188,-995.924147,962.267725
1299.374244,-8438.347739,-1455.581446,1258.350101
1299.374556,-7920.203579,-1455.581446,1110.308913
1299.374867,-8216.285956,-1378.971896,1110.308913
1299.375179,-9104.533087,-612.876398,666.185348
1299.375490,-9326.594869,306.438199,666.185348
1299.375802,-10436.903782,1685.410096,-0.000000
1299.376113,-10362.883188,1762.019645,518.144159
1299.376425,-9770.718434,766.095498,444.123565
1299.376736,-8142.265362,0.000000,-0.000000
1299.377048,-6587.832884,-153.219100,-296.082377
1299.377359,-7328.038826,-612.876398,-518.144159
1299.377671,-8734.430116,-306.438199,-444.123565
1299.377983,-9474.636058,459.657299,-0.000000
1299.378294,-9622.677246,1072.533697,592.164754
1299.378606,-9104.533087,919.314598,1554.432478
1299.378917,-8956.491898,-306.438199,1480.411884
1299.379229,-7698.141797,-1378.971896,1332.370696
1299.379540,-6587.832884,-1455.581446,1036.288319
1299.379852,-7031.956449,-842.705048,592.164754
1299.380163,-8882.471304,-995.924147,296.082377
1299.380475,-10066.800811,-383.047749,1036.288319
1299.380786,-10288.862594,1302.362347,814.226536
1299.381098,-10584.944971,689.485948,1480.411884
1299.381409,-9474.636058,76.609550,1554.432478
1299.381721,-8142.265362,-766.095498,1628.453072
1299.382032,-6587.832884,-1991.848295,2146.597232
1299.382344,-5699.585753,-2987.772442,1850.514855
1299.382655,-6365.771101,-1915.238745,814.226536
1299.382967,-7476.080014,-766.095498,-148.041188
1299.383278,-8734.430116,689.485948,-666.185348
1299.383590,-9844.739029,1685.410096,-370.102971
1299.383901,-11177.109724,1762.019645,-0.000000
1299.384213,-11843.295072,995.924147,444.123565
1299.384524,-10732.986159,0.000000,1184.329507
1299.384836,-8956.491898,-536.266849,1628.453072
1299.385147,-7550.100608,-766.095498,592.164754
1299.385459,-7846.182985,-383.047749,-222.061783
1299.385770,-7772.162391,76.609550,-814.226536
1299.386082,-9030.512492,536.266849,-296.082377
1299.386393,-10214.842000,1915.238745,592.164754
1299.386705,-11325.150913,1685.410096,740.205942
1299.387016,-11843.295072,459.657299,1184.329507
1299.387328,-10584.944971,-306.438199,1628.453072
1299.387639,-8882.471304,-766.095498,592.164754
1299.387951,-7624.121203,-612.876398,-0.000000
1299.388262,-7550.100608,-383.047749,-592.164754
1299.388574,-8216.285956,383.047749,-592.164754
1299.388885,-8882.471304,1225.752797,-0.000000
1299.389197,-9548.656652,1455.581446,222.061783
1299.389508,-9844.739029,1149.143247,296.082377
1299.389820,-9178.553681,1225.752797,296.082377
1299.390131,-7772.162391,919.314598,296.082377
1299.390443,-7031.956449,229.828649,74.020594
1299.390754,-7994.224174,-306.438199,-444.123565
1299.391066,-9030.512492,0.000000,-0.000000
1299.391377,-9696.697840,766.095498,148.041188
1299.391689,-10436.903782,1225.752797,962.267725
1299.392000,-10732.986159,689.485948,1924.535449
1299.392312,-9992.780217,0.000000,1924.535449
1299.392623,-8142.265362,-383.047749,1924.535449
1299.392935,-5329.482782,-1455.581446,1184.329507
1299.393246,-5403.503377,-1225.752797,-0.000000
1299.393558,-6217.729913,-995.924147,-296.082377
1299.393869,-7772.162391,-306.438199,-592.164754
1299.394181,-9030.512492,1149.143247,-296.082377
1299.394492,-9992.780217,1915.238745,-148.041188
1299.394804,-11177.109724,1991.848295,296.082377
1299.395115,-11029.068536,383.047749,1554.432478
1299.395427,-9622.677246,-1455.581446,1332.370696
1299.395738,-8142.265362,-1378.971896,1480.411884
1299.396050,-7105.977043,-1455.581446,740.205942
1299.396361,-7254.018232,-1225.752797,592.164754
1299.396673,-8364.327145,-536.266849,444.123565
1299.396984,-8586.388927,536.266849,518.144159
1299.397296,-9770.718434,1225.752797,740.205942
1299.397608,-10584.944971,1149.143247,1036.288319
1299.397919,-10436.903782,536.266849,1480.411884
1299.398231,-9252.574275,-306.438199,888.247130
1299.398542,-8512.368333,-1149.143247,592.164754
1299.398854,-8290.306550,-1838.629195,370.102971
1299.399165,-8364.327145,-1915.238745,444.123565
1299.399477,-8734.430116,-612.876398,148.041188
1299.399788,-9844.739029,0.000000,-0.000000
1299.400100,-9844.739029,306.438199,518.144159
1299.400411,-9918.759623,-229.828649,740.205942
1299.400723,-9178.553681,-612.876398,222.061783
1299.401034,-8068.244768,-1072.533697,666.185348
1299.401346,-7402.059420,-1378.971896,296.082377
1299.401657,-8216.285956,-995.924147,370.102971
1299.401969,-10066.800811,-536.266849,888.247130
1299.402280,-10584.944971,995.924147,1110.308913
1299.402592,-10362.883188,919.314598,1776.494261
1299.402903,-10214.842000,459.657299,1480.411884
1299.403215,-9178.553681,-153.219100,1332.370696
1299.403526,-7254.018232,-1225.752797,1406.391290
1299.403838,-5625.565159,-995.924147,666.185348
1299.404149,-5107.421000,-919.314598,-0.000000
1299.404461,-7105.977043,-766.095498,-1258.350101
1299.404772,-8438.347739,383.047749,-370.102971
1299.405084,-9104.533087,1455.581446,-0.000000
1299.405395,-10658.965565,1685.410096,-222.061783
1299.405707,-11473.192101,1455.581446,962.267725
1299.406018,-11029.068536,536.266849,962.267725
1299.406330,-8734.430116,-306.438199,1628.453072
1299.406641,-6883.915261,-1608.800546,1258.350101
1299.406953,-6291.750507,-1608.800546,296.082377
1299.407264,-6735.874072,-1225.752797,-592.164754
1299.407576,-7254.018232,-229.828649,-370.102971
1299.407887,-8882.471304,306.438199,296.082377
1299.408199,-10658.965565,459.657299,962.267725
1299.408510,-11917.315666,0.000000,1332.370696
1299.408822,-10807.006753,-459.657299,1554.432478
1299.409133,-8808.450710,-612.876398,888.247130
1299.409445,-7402.059420,-459.657299,518.144159
1299.409756,-6735.874072,-842.705048,-370.102971
1299.410068,-7772.162391,-766.095498,-888.247130
1299.410379,-8290.306550,-383.047749,-222.061783
1299.410691,-9326.594869,842.705048,-0.000000
1299.411002,-10214.842000,612.876398,148.041188
1299.411314,-11177.109724,536.266849,-0.000000
1299.411625,-9918.759623,0.000000,296.082377
1299.411937,-8364.327145,76.609550,222.061783
1299.412248,-8142.265362,-383.047749,-518.144159
1299.412560,-8956.491898,-229.828649,-148.041188
1299.412871,-10362.883188,0.000000,-0.000000
1299.413183,-10807.006753,459.657299,740.205942
1299.413494,-11325.150913,842.705048,1406.391290
1299.413806,-11029.068536,229.828649,1480.411884
1299.414117,-9474.636058,-766.095498,1480.411884
1299.414429,-6883.915261,-995.924147,1628.453072
1299.414740,-5773.606348,-1378.971896,666.185348
1299.415052,-6735.874072,-2145.067394,-296.082377
1299.415363,-8142.265362,-459.657299,-888.247130
1299.415675,-9326.594869,1225.752797,-740.205942
1299.415986,-10214.842000,2298.286494,-444.123565
1299.416298,-10955.047942,2604.724693,-0.000000
1299.416609,-10955.047942,1838.629195,666.185348
1299.416921,-8956.491898,919.314598,1332.370696
1299.417233,-7476.080014,-229.828649,1406.391290
1299.417544,-6365.771101,-383.047749,1184.329507
1299.417856,-6513.812290,-689.485948,592.164754
1299.418167,-7105.977043,-383.047749,-0.000000
1299.418479,-7698.141797,689.485948,-0.000000
1299.418790,-8882.471304,1762.019645,-296.082377
1299.419102,-9918.759623,1838.629195,740.205942
1299.419413,-10807.006753,612.876398,1480.411884
1299.419725,-9770.718434,0.000000,1850.514855
1299.420036,-8364.327145,-459.657299,1850.514855
1299.420348,-6883.915261,-766.095498,962.267725
1299.420659,-6957.935855,-612.876398,222.061783
1299.420971,-7772.162391,-536.266849,-0.000000
1299.421282,-7328.038826,536.266849,-518.144159
1299.421594,-8142.265362,1608.800546,-370.102971
1299.421905,-9326.594869,-76.609550,666.185348
1299.422217,-9474.636058,-919.314598,1036.288319
1299.422528,-8956.491898,-1532.190996,1258.350101
1299.422840,-8364.327145,-1378.971896,740.205942
1299.423151,-8586.388927,-1608.800546,444.123565
1299.423463,-9770.718434,-766.095498,296.082377
1299.423774,-10584.944971,306.438199,592.164754
1299.424086,-11029.068536,766.095498,-0.000000
1299.424397,-10066.800811,306.438199,888.247130
1299.424709,-10510.924376,-229.828649,1110.308913
1299.425020,-9326.594869,-1302.362347,1628.453072
1299.425332,-7920.203579,-2374.896044,1332.370696
1299.425643,-7105.977043,-2374.896044,1110.308913
1299.425955,-7624.121203,-1455.581446,-0.000000
1299.426266,-8808.450710,-229.828649,-370.102971
1299.426578,-9400.615463,919.314598,-666.185348
1299.426889,-10658.965565,1149.143247,-592.164754
1299.427201,-11251.130318,1532.190996,-148.041188
1299.427512,-11399.171507,995.924147,444.123565
1299.427824,-10510.924376,-229.828649,592.164754
1299.428135,-8290.306550,-766.095498,592.164754
1299.428447,-7254.018232,-1072.533697,370.102971
1299.428758,-6883.915261,-2298.286494,592.164754
1299.429070,-7179.997637,-229.828649,-74.020594
1299.429381,-8512.368333,0.000000,-0.000000
1299.429693,-9770.718434,1532.190996,962.267725
1299.430004,-10881.027347,1532.190996,1480.411884
1299.430316,-10955.047942,536.266849,1628.453072
1299.430627,-9178.553681,0.000000,1702.473667
1299.430939,-6957.935855,-612.876398,740.205942
1299.431250,-5921.647536,-459.657299,296.082377
1299.431562,-6883.915261,-995.924147,-740.205942
1299.431873,-7624.121203,153.219100,-740.205942
1299.432185,-8364.327145,1685.410096,-666.185348
1299.432496,-9400.615463,1608.800546,-0.000000
1299.432808,-10288.862594,536.266849,814.226536
1299.433119,-9548.656652,-995.924147,888.247130
1299.433431,-7402.059420,-1149.143247,1258.350101
1299.433742,-7105.977043,-1302.362347,666.185348
1299.434054,-7476.080014,-1608.800546,222.061783
1299.434365,-9474.636058,-1455.581446,518.144159
1299.434677,-9770.718434,-612.876398,740.205942
1299.434988,-9696.697840,0.000000,1036.288319
1299.435300,-10584.944971,0.000000,1480.411884
1299.435611,-10807.006753,0.000000,1110.308913
1299.435923,-9104.533087,-842.705048,1332.370696
1299.436234,-6809.894666,-1149.143247,814.226536
1299.436546,-6217.729913,-995.924147,-0.000000
1299.436858,-7624.121203,-612.876398,-666.185348
1299.437169,-9104.533087,383.047749,-888.247130
1299.437481,-9548.656652,1455.581446,-148.041188
1299.437792,-10288.862594,2068.457845,592.164754
1299.438104,-11399.171507,1608.800546,740.205942
1299.438415,-11695.253884,536.266849,1110.308913
1299.438727,-9474.636058,-919.314598,1332.370696
1299.439038,-7402.059420,-1455.581446,518.144159
1299.439350,-6735.874072,-995.924147,-74.020594
1299.439661,-7328.038826,-1378.971896,-222.061783
1299.439973,-8734.430116,-1378.971896,222.061783
1299.440284,-9992.780217,-459.657299,1184.329507
1299.440596,-10881.027347,842.705048,1628.453072
1299.440907,-11843.295072,995.924147,1850.514855
1299.441219,-11251.130318,229.828649,2220.617826
1299.441530,-9178.553681,-536.266849,2146.597232
1299.441842,-7105.977043,0.000000,888.247130
1299.442153,-6217.729913,689.485948,-0.000000
1299.442465,-7179.997637,76.609550,-296.082377
1299.442776,-8586.388927,536.266849,-888.247130
1299.443088,-8512.368333,2221.676944,-370.102971
1299.443399,-8882.471304,2145.067394,-592.164754
1299.443711,-9474.636058,1532.190996,-74.020594
1299.444022,-9104.533087,995.924147,888.247130
1299.444334,-7698.141797,153.219100,296.082377
1299.444645,-7179.997637,-153.219100,592.164754
1299.444957,-7772.162391,536.266849,296.082377
1299.445268,-9474.636058,766.095498,370.102971
1299.445580,-9548.656652,1302.362347,518.144159
1299.445891,-10510.924376,1532.190996,592.164754
1299.446203,-9474.636058,995.924147,1702.473667
1299.446514,-9104.533087,0.000000,1480.411884
1299.446826,-7994.224174,-995.924147,1554.432478
1299.447137,-6661.853478,-2221.676944,1110.308913
1299.447449,-6587.832884,-2145.067394,296.082377
1299.447760,-7846.182985,-1302.362347,-0.000000
1299.448072,-9252.574275,1072.533697,-1184.329507
1299.448383,-10140.821405,2451.505594,-740.205942
1299.448695,-10510.924376,1685.410096,148.041188
1299.449006,-10584.944971,842.705048,444.123565
1299.449318,-9474.636058,0.000000,814.226536
1299.449629,-8068.244768,-536.266849,1110.308913
1299.449941,-6513.812290,-1149.143247,592.164754
1299.450252,-6587.832884,-1378.971896,-296.082377
1299.450564,-7698.141797,-995.924147,-370.102971
1299.450875,-8808.450710,-153.219100,-148.041188
1299.451187,-10732.986159,995.924147,222.061783
1299.451499,-11843.295072,689.485948,1258.350101
1299.451810,-11917.315666,0.000000,1702.473667
1299.452122,-10807.006753,-1149.143247,1998.556043
1299.452433,-9030.512492,-1378.971896,1702.473667
1299.452745,-7254.018232,-1685.410096,740.205942
1299.453056,-7031.956449,-1532.190996,-222.061783
1299.453368,-8364.327145,-1455.581446,-814.226536
1299.453679,-9252.574275,-153.219100,-444.123565
1299.453991,-9918.759623,459.657299,-0.000000
1299.454302,-10066.800811,153.219100,814.226536
1299.454614,-10288.862594,-536.266849,888.247130
1299.454925,-9474.636058,-1072.533697,1480.411884
1299.455237,-7994.224174,-1302.362347,444.123565
1299.455549,-7920.203579,76.609550,222.061783
1299.455860,-8882.471304,306.438199,148.041188
1299.456172,-9474.636058,766.095498,444.123565
1299.456483,-9770.718434,842.705048,666.185348
1299.456795,-9918.759623,689.485948,1406.391290
1299.457106,-9844.739029,76.609550,1850.514855
1299.457418,-9030.512492,-689.485948,1332.370696
1299.457729,-7179.997637,-1378.971896,1776.494261
1299.458041,-6365.771101,-1838.629195,814.226536
1299.458352,-6735.874072,-1378.971896,-0.000000
1299.458664,-7994.224174,-229.828649,-0.000000
1299.458975,-8438.347739,1378.971896,-0.000000
1299.459287,-9178.553681,2145.067394,148.041188
1299.459599,-10066.800811,1762.019645,518.144159
1299.459910,-9992.780217,919.314598,1110.308913
1299.460222,-9326.594869,383.047749,962.267725
1299.460533,-6809.894666,0.000000,1406.391290
1299.460845,-6587.832884,-842.705048,222.061783
1299.461156,-6735.874072,-842.705048,-222.061783
1299.461468,-7179.997637,-689.485948,-0.000000
1299.461779,-8216.285956,459.657299,444.123565
1299.462091,-9474.636058,1072.533697,1258.350101
1299.462402,-10955.047942,1532.190996,1184.329507
1299.462714,-11325.150913,842.705048,962.267725
1299.463025,-9252.574275,76.609550,1406.391290
1299.463337,-7550.100608,-995.924147,148.041188
1299.463649,-6809.894666,-689.485948,-592.164754
1299.463960,-7624.121203,-919.314598,-1480.411884
1299.464272,-8586.388927,-919.314598,-1258.350101
1299.464583,-8956.491898,153.219100,-1036.288319
1299.464895,-9844.739029,153.219100,-148.041188
1299.465206,-11029.068536,-612.876398,740.205942
1299.465518,-11177.109724,-1149.143247,518.144159
1299.465829,-9992.780217,-995.924147,962.267725
1299.466141,-8882.471304,-383.047749,296.082377
1299.466452,-8364.327145,-383.047749,-222.061783
1299.466764,-9622.677246,-383.047749,-666.185348
1299.467075,-9844.739029,459.657299,-0.000000
1299.467387,-9770.718434,766.095498,-222.061783
1299.467699,-10140.821405,842.705048,370.102971
1299.468010,-10140.821405,-306.438199,740.205942
1299.468322,-9992.780217,-1838.629195,1258.350101
1299.468633,-7698.141797,-2145.067394,1258.350101
1299.468945,-7254.018232,-1608.800546,518.144159
1299.469256,-8364.327145,-842.705048,-0.000000
1299.469568,-9474.636058,229.828649,-370.102971
1299.469879,-9918.759623,1455.581446,-0.000000
1299.470191,-10140.821405,2374.896044,-222.061783
1299.470502,-9844.739029,2451.505594,518.144159
1299.470814,-9844.739029,995.924147,-0.000000
1299.471125,-8290.306550,536.266849,740.205942
1299.471437,-6143.709319,-229.828649,518.144159
1299.471748,-6069.688724,-919.314598,-0.000000
1299.472060,-7476.080014,-383.047749,-0.000000
1299.472372,-8956.491898,-1149.143247,-0.000000
1299.472683,-9252.574275,536.266849,1110.308913
1299.472995,-10584.944971,1685.410096,1406.391290
1299.473306,-11177.109724,1915.238745,2072.576638
1299.473618,-10214.842000,1149.143247,2590.720797
1299.473929,-7920.203579,76.609550,1924.535449
1299.474241,-5921.647536,153.219100,518.144159
1299.474552,-4959.379811,0.000000,-518.144159
1299.474864,-6143.709319,0.000000,-1110.308913
1299.475175,-7105.977043,153.219100,-1480.411884
1299.475487,-7920.203579,919.314598,-962.267725
1299.475798,-9400.615463,766.095498,148.041188
1299.476110,-10955.047942,-153.219100,888.247130
1299.476422,-11769.274478,-766.095498,1850.514855
1299.476733,-9844.739029,-1149.143247,1924.535449
1299.477045,-8512.368333,-689.485948,1702.473667
1299.477356,-8586.388927,-383.047749,962.267725
1299.477668,-8882.471304,0.000000,222.061783
1299.477979,-8882.471304,842.705048,-0.000000
1299.478291,-8882.471304,1149.143247,148.041188
1299.478602,-9252.574275,536.266849,518.144159
1299.478914,-9696.697840,-766.095498,1036.288319
1299.479225,-9400.615463,-2221.676944,1406.391290
1299.479537,-8290.306550,-2451.505594,1776.494261
1299.479848,-8660.409521,-2834.553343,666.185348
1299.480160,-9178.553681,-2145.067394,-148.041188
1299.480472,-9844.739029,76.609550,-222.061783
1299.480783,-9844.739029,1838.629195,-296.082377
1299.481095,-9844.739029,1915.238745,-0.000000
1299.481406,-9918.759623,1072.533697,1110.308913
1299.481718,-9696.697840,-306.438199,444.123565
1299.482029,-7920.203579,-842.705048,1332.370696
1299.482341,-7402.059420,-1225.752797,148.041188
1299.482652,-7772.162391,-1149.143247,-518.144159
1299.482964,-8438.347739,-1991.848295,-518.144159
1299.483275,-9992.780217,-1149.143247,-0.000000
1299.483587,-10807.006753,383.047749,1184.329507
1299.483898,-11917.315666,995.924147,1406.391290
1299.484210,-11473.192101,919.314598,2442.679609
1299.484522,-9696.697840,-383.047749,2072.576638
1299.484833,-6587.832884,-842.705048,1702.473667
1299.485145,-4737.318029,-612.876398,592.164754
1299.485456,-5033.400406,-306.438199,-592.164754
1299.485768,-6957.935855,-229.828649,-1406.391290
1299.486079,-7698.141797,612.876398,-1480.411884
1299.486391,-8586.388927,995.924147,-888.247130
1299.486702,-11029.068536,-153.219100,-370.102971
1299.487014,-11177.109724,-842.705048,962.267725
1299.487325,-11029.068536,-1991.848295,1036.288319
1299.487637,-8808.450710,-1378.971896,1850.514855
1299.487948,-8068.244768,-1455.581446,1184.329507
1299.488260,-9030.512492,-1072.533697,888.247130
1299.488572,-9400.615463,459.657299,444.123565
1299.488883,-9030.512492,2068.457845,296.082377
1299.489195,-8660.409521,2221.676944,814.226536
1299.489506,-9326.594869,1072.533697,444.123565
1299.489818,-8956.491898,-383.047749,592.164754
1299.490129,-7698.141797,-1302.362347,814.226536
1299.490441,-6957.935855,-1838.629195,592.164754
1299.490752,-7846.182985,-1302.362347,-0.000000
1299.491064,-9770.718434,-842.705048,-518.144159
1299.491375,-10288.862594,383.047749,-222.061783
1299.491687,-9918.759623,459.657299,-74.020594
1299.491998,-9474.636058,1149.143247,592.164754
1299.492310,-9770.718434,689.485948,814.226536
1299.492621,-9252.574275,-459.657299,962.267725
1299.492933,-7476.080014,-1149.143247,962.267725
1299.493245,-6143.709319,-1302.362347,444.123565
1299.493556,-7105.977043,-1608.800546,-74.020594
1299.493868,-9548.656652,-612.876398,-0.000000
1299.494179,-10584.944971,-306.438199,-0.000000
1299.494491,-10658.965565,1608.800546,888.247130
1299.494802,-11621.233289,1302.362347,1480.411884
1299.495114,-12139.377449,-306.438199,1924.535449
1299.495425,-9548.656652,-1072.533697,1850.514855
1299.495737,-7105.977043,-1532.190996,1184.329507
1299.496048,-5403.503377,-995.924147,-0.000000
1299.496360,-5995.668130,-995.924147,-1184.329507
1299.496671,-7772.162391,0.000000,-1480.411884
1299.496983,-8364.327145,536.266849,-814.226536
1299.497295,-9178.553681,1072.533697,-148.041188
1299.497606,-10362.883188,766.095498,74.020594
1299.497918,-10658.965565,-153.219100,962.267725
1299.498229,-9622.677246,-995.924147,1184.329507
1299.498541,-7994.224174,-383.047749,740.205942
1299.498852,-7994.224174,0.000000,740.205942
1299.499164,-8882.471304,-153.219100,518.144159
1299.499475,-9918.759623,0.000000,444.123565
1299.499787,-10066.800811,1455.581446,740.205942
1299.500098,-10066.800811,1762.019645,1184.329507
1299.500410,-9992.780217,919.314598,1332.370696
1299.500721,-9252.574275,0.000000,1332.370696
1299.501033,-6883.915261,-1225.752797,1554.432478
1299.501345,-5995.668130,-1225.752797,296.082377
1299.501656,-6661.853478,-1455.581446,-0.000000
1299.501968,-8586.388927,0.000000,-296.082377
1299.502279,-9400.615463,1378.971896,148.041188
1299.502591,-9326.594869,1991.848295,666.185348
1299.502902,-9992.780217,1685.410096,814.226536
1299.503214,-9844.739029,689.485948,814.226536
1299.503525,-9104.533087,459.657299,888.247130
1299.503837,-6957.935855,459.657299,592.164754
1299.504148,-6439.791695,1149.143247,-296.082377
1299.504460,-7402.059420,612.876398,-888.247130
1299.504771,-9252.574275,383.047749,-444.123565
1299.505083,-10066.800811,612.876398,296.082377
1299.505395,-10510.924376,1225.752797,2146.597232
1299.505706,-10955.047942,842.705048,2590.720797
1299.506018,-9992.780217,-459.657299,3330.926739
1299.506329,-8438.347739,-1762.019645,2590.720797
1299.506641,-7105.977043,-2451.505594,1184.329507
1299.506952,-5847.626942,-1378.971896,148.041188
1299.507264,-7254.018232,-842.705048,-1258.350101
1299.507575,-8290.306550,689.485948,-1332.370696
1299.507887,-9030.512492,1302.362347,-1258.350101
1299.508198,-9474.636058,153.219100,-444.123565
1299.508510,-10807.006753,0.000000,148.041188
1299.508821,-9992.780217,-459.657299,1554.432478
1299.509133,-8956.491898,-612.876398,962.267725
1299.509445,-7698.141797,-919.314598,1258.350101
1299.509756,-8142.265362,-1608.800546,888.247130
1299.510068,-8882.471304,-1762.019645,1036.288319
1299.510379,-9622.677246,-459.657299,962.267725
1299.510691,-9622.677246,919.314598,962.267725
1299.511002,-10881.027347,0.000000,444.123565
1299.511314,-11399.171507,-536.266849,444.123565
1299.511625,-9400.615463,-1915.238745,740.205942
1299.511937,-7550.100608,-1608.800546,518.144159
1299.512248,-6883.915261,-1685.410096,222.061783
1299.512560,-8142.265362,-1072.533697,-444.123565
1299.512871,-9178.553681,306.438199,-74.020594
1299.513183,-8956.491898,1838.629195,370.102971
1299.513495,-9844.739029,1762.019645,148.041188
1299.513806,-10584.944971,1532.190996,592.164754
1299.514118,-10140.821405,689.485948,592.164754
1299.514429,-8364.327145,0.000000,962.267725
1299.514741,-6957.935855,0.000000,148.041188
1299.515052,-7402.059420,-536.266849,-0.000000
1299.515364,-7994.224174,0.000000,-222.061783
1299.515675,-8364.327145,-1149.143247,-0.000000
1299.515987,-9918.759623,1149.143247,592.164754
1299.516298,-10436.903782,1378.971896,1628.453072
1299.516610,-10584.944971,1378.971896,1924.535449
1299.516921,-9548.656652,-612.876398,1924.535449
1299.517233,-6957.935855,-1455.581446,1702.473667
1299.517544,-5847.626942,-1608.800546,1036.288319
1299.517856,-6217.729913,-919.314598,-0.000000
1299.518168,-7402.059420,-383.047749,-740.205942
1299.518479,-8438.347739,0.000000,-1036.288319
1299.518791,-9770.718434,1072.533697,-0.000000
1299.519102,-11251.130318,689.485948,370.102971
1299.519414,-11325.150913,612.876398,888.247130
1299.519725,-9770.718434,-383.047749,1554.432478
1299.520037,-7698.141797,-766.095498,1628.453072
1299.520348,-6587.832884,-1072.533697,518.144159
1299.520660,-7105.977043,-612.876398,-148.041188
1299.520971,-8586.388927,-995.924147,-148.041188
1299.521283,-9030.512492,1455.581446,-0.000000
1299.521594,-10066.800811,1532.190996,370.102971
1299.521906,-11547.212695,1225.752797,962.267725
1299.522218,-11103.089130,-229.828649,1406.391290
1299.522529,-9696.697840,-842.705048,1406.391290
1299.522841,-7846.182985,-153.219100,1332.370696
1299.523152,-7550.100608,-459.657299,222.061783
1299.523464,-8142.265362,-766.095498,-296.082377
1299.523775,-8290.306550,306.438199,-444.123565
1299.524087,-8956.491898,1225.752797,-148.041188
1299.524398,-9918.759623,1838.629195,-148.041188
1299.524710,-10732.986159,1302.362347,-0.000000
1299.525021,-10362.883188,229.828649,370.102971
1299.525333,-9326.594869,-153.219100,-0.000000
1299.525644,-7550.100608,0.000000,592.164754
1299.525956,-7624.121203,-612.876398,-148.041188
1299.526268,-8290.306550,229.828649,296.082377
1299.526579,-8808.450710,919.314598,666.185348
1299.526891,-9178.553681,1532.190996,1332.370696
1299.527202,-9252.574275,1762.019645,2146.597232
1299.527514,-8586.388927,995.924147,2072.576638
1299.527825,-7624.121203,306.438199,1850.514855
1299.528137,-6587.832884,-536.266849,-74.020594
1299.528448,-6069.688724,-1302.362347,-74.020594
1299.528760,-7476.080014,-1149.143247,-740.205942
1299.529071,-9474.636058,-766.095498,-592.164754
1299.529383,-9992.780217,383.047749,-74.020594
1299.529694,-10584.944971,689.485948,444.123565
1299.530006,-10807.006753,0.000000,1258.350101
1299.530318,-9474.636058,0.000000,1628.453072
1299.530629,-8290.306550,0.000000,962.267725
1299.530941,-6217.729913,-306.438199,962.267725
1299.531252,-5699.585753,-612.876398,296.082377
1299.531564,-7624.121203,-1072.533697,-0.000000
1299.531875,-8882.471304,-536.266849,-296.082377
1299.532187,-10362.883188,229.828649,-0.000000
1299.532498,-11399.171507,306.438199,296.082377
1299.532810,-11769.274478,153.219100,1480.411884
1299.533121,-10881.027347,-766.095498,1924.535449
1299.533433,-10140.821405,-2374.896044,2220.617826
1299.533744,-8586.388927,-2374.896044,1924.535449
1299.534056,-7105.977043,-612.876398,962.267725
1299.534368,-7402.059420,842.705048,148.041188
1299.534679,-7328.038826,1532.190996,-370.102971
1299.534991,-7920.203579,995.924147,-444.123565
1299.535302,-8882.471304,1378.971896,-222.061783
1299.535614,-9696.697840,536.266849,148.041188
1299.535925,-10362.883188,-536.266849,370.102971
1299.536237,-9474.636058,-1608.800546,444.123565
1299.536548,-9252.574275,-1991.848295,666.185348
1299.536860,-8808.450710,-1762.019645,814.226536
1299.537171,-8808.450710,-1072.533697,1258.350101
1299.537483,-9548.656652,153.219100,1406.391290
1299.537794,-9474.636058,689.485948,1554.432478
1299.538106,-9474.636058,1149.143247,1554.432478
1299.538418,-9400.615463,766.095498,1332.370696
1299.538729,-7328.038826,536.266849,1480.411884
1299.539041,-5699.585753,-842.705048,296.082377
1299.539352,-6069.688724,-1532.190996,-814.226536
1299.539664,-7328.038826,-919.314598,-1702.473667
1299.539975,-9030.512492,383.047749,-962.267725
1299.540287,-10066.800811,842.705048,-444.123565
1299.540598,-11177.109724,842.705048,1184.329507
1299.540910,-11843.295072,76.609550,2146.597232
1299.541221,-10510.924376,-229.828649,2220.617826
1299.541533,-7920.203579,-306.438199,1776.494261
1299.541844,-6143.709319,-153.219100,592.164754
1299.542156,-5625.565159,0.000000,-666.185348
1299.542467,-6809.894666,0.000000,-1702.473667
1299.542779,-7624.121203,766.095498,-1406.391290
1299.543091,-9474.636058,1532.190996,-814.226536
1299.543402,-11103.089130,1378.971896,370.102971
1299.543714,-11769.274478,0.000000,1332.370696
1299.544025,-11177.109724,-2145.067394,2146.597232
1299.544337,-9474.636058,-2757.943793,2368.659014
1299.544648,-8216.285956,-1532.190996,1850.514855
1299.544960,-7846.182985,-842.705048,1036.288319
1299.545271,-7920.203579,-383.047749,-888.247130
1299.545583,-8364.327145,1149.143247,-1406.391290
1299.545894,-8734.430116,1915.238745,-1554.432478
1299.546206,-9326.594869,1915.238745,-740.205942
1299.546517,-9770.718434,842.705048,-222.061783
1299.546829,-9178.553681,-689.485948,-0.000000
1299.547141,-8734.430116,-1455.581446,518.144159
1299.547452,-8142.265362,-1838.629195,814.226536
1299.547764,-8808.450710,-1072.533697,740.205942
1299.548075,-9548.656652,-459.657299,666.185348
1299.548387,-9696.697840,459.657299,962.267725
1299.548698,-9622.677246,1072.533697,1332.370696
1299.549010,-9770.718434,842.705048,1406.391290
1299.549321,-8882.471304,0.000000,1406.391290
1299.549633,-6883.915261,-306.438199,592.164754
1299.549944,-5625.565159,-1072.533697,-370.102971
1299.550256,-6957.935855,-1838.629195,-1258.350101
1299.550567,-8882.471304,-1149.143247,-962.267725
1299.550879,-10066.800811,76.609550,-592.164754
1299.551190,-10584.944971,612.876398,592.164754
1299.551502,-11177.109724,0.000000,1554.432478
1299.551813,-11399.171507,-229.828649,1702.473667
1299.552125,-9770.718434,-76.609550,1776.494261
1299.552436,-7846.182985,306.438199,1110.308913
1299.552748,-5625.565159,229.828649,148.041188
1299.553059,-6661.853478,229.828649,-666.185348
1299.553371,-8068.244768,383.047749,-1258.350101
1299.553682,-8882.471304,1532.190996,-1406.391290
1299.553994,-10658.965565,2451.505594,-0.000000
1299.554305,-11695.253884,2068.457845,296.082377
1299.554617,-11473.192101,536.266849,1406.391290
1299.554928,-9844.739029,-1532.190996,2516.700203
1299.555240,-8290.306550,-2298.286494,1998.556043
1299.555551,-6735.874072,-995.924147,1554.432478
1299.555863,-6513.812290,-153.219100,592.164754
1299.556174,-6957.935855,459.657299,444.123565
1299.556486,-8068.244768,766.095498,-222.061783
1299.556797,-9104.533087,1991.848295,-592.164754
1299.557109,-10140.821405,2298.286494,-0.000000
1299.557420,-10140.821405,919.314598,222.061783
1299.557732,-8882.471304,-459.657299,444.123565
1299.558043,-8142.265362,-1302.362347,592.164754
1299.558355,-7772.162391,-1532.190996,740.205942
1299.558666,-9178.553681,-1072.533697,1110.308913
1299.558978,-10066.800811,-306.438199,1776.494261
1299.559289,-9474.636058,689.485948,1998.556043
1299.559601,-9770.718434,1302.362347,2072.576638
1299.559912,-9770.718434,229.828649,1850.514855
1299.560224,-7846.182985,0.000000,1332.370696
1299.560535,-6069.688724,0.000000,814.226536
1299.560847,-5551.544565,-919.314598,-222.061783
1299.561158,-7179.997637,-1378.971896,-1036.288319
1299.561470,-9326.594869,-536.266849,-740.205942
1299.561781,-10436.903782,1302.362347,-148.041188
1299.562093,-11177.109724,919.314598,518.144159
1299.562404,-10807.006753,842.705048,1184.329507
1299.562716,-10807.006753,-995.924147,1332.370696
1299.563027,-9474.636058,-1225.752797,962.267725
1299.563339,-6587.832884,-995.924147,1184.329507
1299.563650,-6809.894666,-1225.752797,-222.061783
1299.563962,-7846.182985,-1838.629195,-74.020594
1299.564273,-8956.491898,-1149.143247,-0.000000
1299.564585,-10658.965565,-459.657299,148.041188
1299.564896,-10881.027347,229.828649,666.185348
1299.565208,-11695.253884,-153.219100,1036.288319
1299.565519,-10955.047942,-1302.362347,1258.350101
1299.565831,-9104.533087,-1608.800546,1776.494261
1299.566142,-7105.977043,-1532.190996,1332.370696
1299.566454,-6735.874072,-1072.533697,370.102971
1299.566765,-7698.141797,76.609550,-888.247130
1299.567077,-7772.162391,1378.971896,-814.226536
1299.567388,-8290.306550,1991.848295,-1480.411884
1299.567700,-9178.553681,2528.115143,-666.185348
1299.568011,-10584.944971,2374.896044,-222.061783
1299.568323,-10807.006753,842.705048,-0.000000
1299.568634,-8734.430116,0.000000,740.205942
1299.568946,-8290.306550,-766.095498,-0.000000
1299.569257,-8438.347739,-612.876398,-0.000000
1299.569569,-9474.636058,-689.485948,-0.000000
1299.569880,-9252.574275,76.609550,444.123565
1299.570192,-9178.553681,1072.533697,1110.308913
1299.570503,-9844.739029,919.314598,1554.432478
1299.570815,-9992.780217,0.000000,1406.391290
1299.571126,-8216.285956,-1149.143247,1924.535449
1299.571438,-6439.791695,-1455.581446,1332.370696
1299.571749,-6365.771101,-1378.971896,222.061783
1299.572061,-7402.059420,-229.828649,-888.247130
1299.572372,-8956.491898,306.438199,-814.226536
1299.572684,-9178.553681,689.485948,-0.000000
1299.572995,-9622.677246,1302.362347,370.102971
1299.573307,-10140.821405,536.266849,1332.370696
1299.573618,-9918.759623,-229.828649,1332.370696
1299.573930,-8364.327145,-1225.752797,1332.370696
1299.574241,-6365.771101,-842.705048,592.164754
1299.574553,-7031.956449,-1225.752797,-0.000000
1299.574864,-8956.491898,-1225.752797,-370.102971
1299.575176,-9844.739029,-383.047749,-0.000000
1299.575487,-10214.842000,766.095498,222.061783
1299.575799,-10881.027347,1455.581446,666.185348
1299.576110,-11325.150913,-153.219100,1850.514855
1299.576421,-10510.924376,-1838.629195,2072.576638
1299.576733,-8364.327145,-1532.190996,2368.659014
1299.577044,-6957.935855,-1608.800546,1850.514855
1299.577356,-7105.977043,-1149.143247,370.102971
1299.577667,-8438.347739,0.000000,-74.020594
1299.577979,-8956.491898,383.047749,-814.226536
1299.578290,-8956.491898,2221.676944,-518.144159
1299.578602,-10140.821405,1838.629195,-296.082377
1299.578913,-10584.944971,1302.362347,-0.000000
1299.579225,-10955.047942,459.657299,296.082377
1299.579536,-8586.388927,229.828649,518.144159
1299.579848,-7476.080014,0.000000,666.185348
1299.580159,-7920.203579,229.828649,-0.000000
1299.580471,-8956.491898,1149.143247,-0.000000
1299.580782,-8956.491898,1762.019645,370.102971
1299.581094,-9104.533087,1455.581446,962.267725
1299.581405,-9474.636058,1072.533697,1184.329507
1299.581717,-9548.656652,766.095498,1036.288319
1299.582028,-8882.471304,-306.438199,592.164754
1299.582340,-7105.977043,-612.876398,666.185348
1299.582651,-6957.935855,-612.876398,-74.020594
1299.582963,-8364.327145,0.000000,-370.102971
1299.583274,-9992.780217,612.876398,-666.185348
1299.583586,-9918.759623,1608.800546,-0.000000
1299.583897,-9474.636058,2221.676944,518.144159
1299.584209,-9326.594869,919.314598,1110.308913
1299.584520,-8438.347739,0.000000,1110.308913
1299.584832,-6957.935855,-536.266849,592.164754
1299.585143,-5773.606348,-536.266849,-0.000000
1299.585455,-6587.832884,-229.828649,-296.082377
1299.585766,-8882.471304,-383.047749,-518.144159
1299.586078,-10288.862594,306.438199,148.041188
1299.586389,-10955.047942,842.705048,518.144159
1299.586701,-10955.047942,612.876398,1702.473667
1299.587012,-10807.006753,-612.876398,2072.576638
1299.587324,-9474.636058,-1762.019645,2072.576638
1299.587635,-7772.162391,-2528.115143,1850.514855
1299.587947,-6365.771101,-1838.629195,1036.288319
1299.588258,-6957.935855,-536.266849,-444.123565
1299.588570,-7772.162391,-1225.752797,-296.082377
1299.588881,-8586.388927,0.000000,-370.102971
1299.589193,-9992.780217,919.314598,-296.082377
1299.589504,-10955.047942,766.095498,296.082377
1299.589816,-11399.171507,0.000000,740.205942
1299.590127,-10955.047942,-919.314598,1184.329507
1299.590439,-9326.594869,-1302.362347,666.185348
1299.590750,-8142.265362,-1378.971896,444.123565
1299.591062,-7994.224174,-1149.143247,740.205942
1299.591373,-9770.718434,-536.266849,-0.000000
1299.591685,-9770.718434,383.047749,814.226536
1299.591996,-9696.697840,842.705048,1184.329507
1299.592308,-9622.677246,536.266849,1776.494261
1299.592619,-8882.471304,-306.438199,1406.391290
1299.592931,-8364.327145,-842.705048,666.185348
1299.593242,-7179.997637,-612.876398,296.082377
1299.593554,-7254.018232,0.000000,-592.164754
1299.593865,-8882.471304,612.876398,-444.123565
1299.594177,-9548.656652,1302.362347,-148.041188
1299.594488,-9770.718434,1608.800546,518.144159
1299.594800,-9474.636058,842.705048,1110.308913
1299.595111,-9178.553681,153.219100,1258.350101
1299.595423,-7920.203579,-229.828649,740.205942
1299.595734,-6217.729913,-536.266849,444.123565
1299.596046,-5995.668130,-1455.581446,-444.123565
1299.596357,-6587.832884,-995.924147,-74.020594
1299.596669,-8956.491898,-536.266849,-370.102971
1299.596980,-10214.842000,766.095498,222.061783
1299.597292,-11621.233289,1455.581446,1110.308913
1299.597603,-11695.253884,306.438199,1850.514855
1299.597915,-10658.965565,-229.828649,2368.659014
1299.598226,-8068.244768,-842.705048,2294.638420
1299.598538,-6069.688724,-1225.752797,1258.350101
1299.598849,-5033.400406,-1225.752797,-74.020594
1299.599161,-6143.709319,-689.485948,-1332.370696
1299.599472,-8068.244768,0.000000,-1480.411884
1299.599784,-9252.574275,919.314598,-962.267725
1299.600095,-10881.027347,1302.362347,-518.144159
1299.600407,-12139.377449,1225.752797,296.082377
1299.600718,-11843.295072,229.828649,962.267725
1299.601030,-10066.800811,-1608.800546,1702.473667
1299.601341,-8438.347739,-1685.410096,888.247130
1299.601653,-7846.182985,-995.924147,296.082377
1299.601964,-8734.430116,-153.219100,-0.000000
1299.602276,-8882.471304,1225.752797,-222.061783
1299.602587,-9548.656652,1762.019645,148.041188
1299.602899,-9696.697840,2298.286494,518.144159
1299.603210,-9844.739029,612.876398,592.164754
1299.603522,-9252.574275,-536.266849,962.267725
1299.603833,-8290.306550,-1149.143247,1110.308913
1299.604145,-7772.162391,-1225.752797,222.061783
1299.604456,-8438.347739,-1302.362347,-0.000000
1299.604768,-10066.800811,-766.095498,-0.000000
1299.605079,-9770.718434,0.000000,-0.000000
1299.605391,-9918.759623,2298.286494,148.041188
1299.605702,-9770.718434,1378.971896,666.185348
1299.606014,-8956.491898,-229.828649,962.267725
1299.606325,-8142.265362,-1072.533697,1258.350101
1299.606637,-6143.709319,-1072.533697,666.185348
1299.606948,-6365.771101,-306.438199,-0.000000
1299.607260,-7994.224174,-306.438199,-370.102971
1299.607571,-9548.656652,1072.533697,-0.000000
1299.607883,-10955.047942,1302.362347,370.102971
1299.608194,-10807.006753,1608.800546,1702.473667
1299.608506,-11177.109724,1302.362347,2294.638420
1299.608817,-9696.697840,76.609550,2072.576638
1299.609129,-7698.141797,-995.924147,2368.659014
1299.609440,-5551.544565,-1455.581446,1036.288319
1299.609752,-5107.421000,-1072.533697,-444.123565
1299.610063,-6957.935855,0.000000,-1258.350101
1299.610375,-7698.141797,919.314598,-1628.453072
1299.610686,-9548.656652,2145.067394,-962.267725
1299.610998,-11473.192101,2068.457845,-592.164754
1299.611309,-11621.233289,2221.676944,296.082377
1299.611621,-11177.109724,766.095498,592.164754
1299.611932,-8956.491898,-229.828649,962.267725
1299.612244,-7402.059420,-995.924147,814.226536
1299.612555,-7031.956449,-919.314598,-0.000000
1299.612867,-7624.121203,0.000000,370.102971
1299.613178,-8956.491898,536.266849,-0.000000
1299.613490,-9400.615463,1225.752797,666.185348
1299.613801,-10066.800811,919.314598,888.247130
1299.614113,-10140.821405,-306.438199,1480.411884
1299.614424,-9252.574275,-1608.800546,1776.494261
1299.614736,-8142.265362,-2451.505594,1184.329507
1299.615047,-7254.018232,-2145.067394,592.164754
1299.615359,-8438.347739,-766.095498,-296.082377
1299.615670,-9474.636058,0.000000,296.082377
1299.615982,-9696.697840,612.876398,296.082377
1299.616293,-9696.697840,766.095498,666.185348
1299.616605,-9918.759623,-153.219100,1184.329507
1299.616916,-9178.553681,-995.924147,1258.350101
1299.617228,-7328.038826,-1378.971896,962.267725
1299.617539,-7105.977043,-1838.629195,296.082377
1299.617851,-7031.956449,-1762.019645,518.144159
1299.618162,-9326.594869,-1685.410096,222.061783
1299.618473,-10362.883188,0.000000,592.164754
1299.618785,-11621.233289,689.485948,962.267725
1299.619096,-11621.233289,383.047749,1998.556043
1299.619408,-10955.047942,-536.266849,2294.638420
1299.619719,-9252.574275,-842.705048,2294.638420
1299.620031,-6735.874072,-919.314598,1850.514855
1299.620342,-5699.585753,-766.095498,518.144159
1299.620654,-5477.523971,0.000000,-370.102971
1299.620965,-7328.038826,536.266849,-1406.391290
1299.621277,-8882.471304,1608.800546,-1998.556043
1299.621588,-10066.800811,2604.724693,-888.247130
1299.621900,-10881.027347,2451.505594,-74.020594
1299.622211,-11621.233289,1302.362347,666.185348
1299.622523,-10658.965565,536.266849,1702.473667
1299.622834,-8364.327145,-995.924147,1776.494261
1299.623146,-6883.915261,-1302.362347,1554.432478
1299.623457,-7105.977043,-1685.410096,740.205942
1299.623769,-8142.265362,-306.438199,148.041188
1299.624080,-8734.430116,1225.752797,-296.082377
1299.624392,-9178.553681,2298.286494,-148.041188
1299.624703,-9326.594869,1685.410096,592.164754
1299.625015,-8956.491898,229.828649,370.102971
1299.625326,-7920.203579,-689.485948,740.205942
1299.625638,-7772.162391,-1455.581446,296.082377
1299.625949,-7624.121203,-1378.971896,-74.020594
1299.626261,-8808.450710,-153.219100,-740.205942
1299.626572,-9104.533087,689.485948,-666.185348
1299.626884,-8734.430116,689.485948,-518.144159
1299.627195,-9622.677246,612.876398,-444.123565
1299.627507,-9326.594869,0.000000,888.247130
1299.627818,-9104.533087,-1608.800546,666.185348
1299.628130,-7920.203579,-1532.190996,1036.288319
1299.628441,-7846.182985,-2221.676944,370.102971
1299.628753,-9178.553681,-1915.238745,-0.000000
1299.629064,-10881.027347,-919.314598,-444.123565
1299.629376,-10732.986159,1072.533697,-0.000000
1299.629687,-11103.089130,1532.190996,740.205942
1299.629999,-11843.295072,1302.362347,1110.308913
1299.630310,-10807.006753,-536.266849,1480.411884
1299.630622,-8808.450710,-1455.581446,1702.473667
1299.630933,-6957.935855,-1608.800546,1480.411884
1299.631245,-5773.606348,-995.924147,740.205942
1299.631556,-7179.997637,-995.924147,-962.267725
1299.631868,-8068.244768,76.609550,-888.247130
1299.632179,-9326.594869,842.705048,-1036.288319
1299.632491,-10584.944971,2145.067394,-518.144159
1299.632802,-11547.212695,2451.505594,444.123565
1299.633114,-11991.336260,1149.143247,740.205942
1299.633425,-10140.821405,-306.438199,1406.391290
1299.633737,-7772.162391,-842.705048,1184.329507
1299.634048,-6735.874072,-689.485948,1258.350101
1299.634360,-7179.997637,-459.657299,296.082377
1299.634671,-7846.182985,153.219100,444.123565
1299.634983,-8808.450710,919.314598,666.185348
1299.635294,-10214.842000,1378.971896,1036.288319
1299.635606,-10436.903782,1072.533697,1480.411884
1299.635917,-10066.800811,0.000000,1332.370696
1299.636229,-7772.162391,-153.219100,1184.329507
1299.636540,-6365.771101,-842.705048,740.205942
1299.636852,-6661.853478,-459.657299,370.102971
1299.637163,-7920.203579,-383.047749,222.061783
1299.637475,-7994.224174,842.705048,592.164754
1299.637786,-8290.306550,2374.896044,370.102971
1299.638098,-8438.347739,1915.238745,592.164754
1299.638409,-8660.409521,919.314598,296.082377
1299.638721,-7994.224174,-229.828649,296.082377
1299.639032,-5847.626942,-459.657299,370.102971
1299.639344,-6439.791695,0.000000,222.061783
1299.639655,-9104.533087,-1685.410096,222.061783
1299.639967,-11029.068536,-1149.143247,-0.000000
1299.640278,-11399.171507,689.485948,962.267725
1299.640590,-11695.253884,1225.752797,1628.453072
1299.640901,-11399.171507,536.266849,1776.494261
1299.641213,-9252.574275,-689.485948,1702.473667
1299.641524,-7846.182985,-2298.286494,1406.391290
1299.641836,-5403.503377,-2068.457845,888.247130
1299.642147,-5847.626942,-2068.457845,296.082377
1299.642459,-8438.347739,-1532.190996,-1110.308913
1299.642770,-9696.697840,229.828649,-740.205942
1299.643082,-10436.903782,689.485948,-740.205942
1299.643393,-11547.212695,1378.971896,-74.020594
1299.643705,-12139.377449,1838.629195,370.102971
1299.644016,-11547.212695,0.000000,222.061783
1299.644328,-9474.636058,-1225.752797,962.267725
1299.644639,-8364.327145,-689.485948,296.082377
1299.644951,-7624.121203,-536.266849,148.041188
1299.645262,-8216.285956,-612.876398,-74.020594
1299.645574,-8660.409521,0.000000,-0.000000
1299.645885,-8734.430116,766.095498,592.164754
1299.646197,-9622.677246,306.438199,592.164754
1299.646508,-10140.821405,995.924147,1406.391290
1299.646820,-10066.800811,-612.876398,1184.329507
1299.647131,-8364.327145,-1149.143247,1480.411884
1299.647443,-6957.935855,-766.095498,666.185348
1299.647754,-7624.121203,-459.657299,-444.123565
1299.648066,-8808.450710,0.000000,-74.020594
1299.648377,-8882.471304,1072.533697,-0.000000
1299.648689,-8290.306550,1378.971896,-0.000000
1299.649000,-8142.265362,383.047749,518.144159
1299.649312,-9178.553681,-306.438199,518.144159
1299.649623,-8290.306550,-842.705048,888.247130
1299.649934,-6809.894666,-995.924147,222.061783
1299.650246,-7105.977043,-842.705048,370.102971
1299.650557,-9030.512492,-842.705048,444.123565
1299.650869,-10732.986159,76.609550,518.144159
1299.651180,-10658.965565,766.095498,1406.391290
1299.651492,-10214.842000,1225.752797,1924.535449
1299.651803,-9326.594869,536.266849,2294.638420
1299.652115,-8734.430116,-306.438199,2146.597232
1299.652426,-6661.853478,-1455.581446,1406.391290
1299.652737,-5033.400406,-1455.581446,296.082377
1299.653049,-6069.688724,-1455.581446,-444.123565
1299.653360,-7772.162391,-153.219100,-1258.350101
1299.653672,-9252.574275,1149.143247,-1184.329507
1299.653983,-10584.944971,1455.581446,-444.123565
1299.654295,-11473.192101,1455.581446,-0.000000
1299.654606,-11769.274478,383.047749,1554.432478
1299.654918,-10732.986159,-995.924147,1480.411884
1299.655229,-8956.491898,-1455.581446,1480.411884
1299.655540,-7402.059420,-1225.752797,666.185348
1299.655852,-7105.977043,-766.095498,-74.020594
1299.656163,-7846.182985,-459.657299,-518.144159
1299.656475,-8808.450710,0.000000,-592.164754
1299.656786,-9696.697840,1608.800546,222.061783
1299.657098,-10732.986159,1762.019645,962.267725
1299.657409,-10881.027347,229.828649,1554.432478
1299.657721,-10436.903782,-919.314598,1184.329507
1299.658032,-9030.512492,-919.314598,740.205942
1299.658343,-7624.121203,-306.438199,-0.000000
1299.658655,-8438.347739,383.047749,-296.082377
1299.658966,-9548.656652,306.438199,-962.267725
1299.659278,-9326.594869,1302.362347,-370.102971
1299.659589,-9474.636058,842.705048,222.061783
1299.659901,-9178.553681,229.828649,962.267725
1299.660212,-8808.450710,-766.095498,666.185348
1299.660523,-7550.100608,-1302.362347,592.164754
1299.660835,-6957.935855,-1149.143247,-74.020594
1299.661146,-7920.203579,-995.924147,-0.000000
1299.661458,-9770.718434,153.219100,-148.041188
1299.661769,-10807.006753,1225.752797,592.164754
1299.662081,-10732.986159,1838.629195,1776.494261
1299.662392,-10362.883188,1225.752797,2220.617826
1299.662704,-8956.491898,153.219100,2072.576638
1299.663015,-7179.997637,-766.095498,1332.370696
1299.663326,-4663.297435,-919.314598,1332.370696
1299.663638,-4589.276840,-1378.971896,-148.041188
1299.663949,-5847.626942,-919.314598,-962.267725
1299.664261,-8438.347739,153.219100,-1258.350101
1299.664572,-10288.862594,1072.533697,-666.185348
1299.664884,-11547.212695,1685.410096,296.082377
1299.665195,-12139.377449,1685.410096,1184.329507
1299.665507,-11547.212695,689.485948,1998.556043
1299.665818,-9474.636058,-612.876398,1480.411884
1299.666129,-7105.977043,-536.266849,888.247130
1299.666441,-5181.441594,0.000000,-0.000000
1299.666752,-5773.606348,-536.266849,-444.123565
1299.667064,-7624.121203,-229.828649,-666.185348
1299.667375,-8882.471304,842.705048,-74.020594
1299.667687,-10584.944971,1225.752797,518.144159
1299.667998,-11547.212695,0.000000,1184.329507
1299.668310,-11917.315666,-229.828649,1924.535449
1299.668621,-11695.253884,-1072.533697,1554.432478
1299.668932,-8808.450710,-766.095498,666.185348
1299.669244,-8068.244768,229.828649,-518.144159
1299.669555,-8216.285956,383.047749,-888.247130
1299.669867,-8734.430116,766.095498,-888.247130
1299.670178,-9252.574275,536.266849,-74.020594
1299.670490,-8882.471304,766.095498,444.123565
1299.670801,-9030.512492,-459.657299,888.247130
1299.671113,-8216.285956,-1532.190996,1480.411884
1299.671424,-7846.182985,-2834.553343,888.247130
1299.671735,-7254.018232,-3294.210641,370.102971
1299.672047,-8364.327145,-2298.286494,666.185348
1299.672358,-10288.862594,-689.485948,814.226536
1299.672670,-11769.274478,153.219100,888.247130
1299.672981,-11843.295072,919.314598,1480.411884
1299.673293,-10658.965565,229.828649,2220.617826
1299.673604,-9474.636058,-306.438199,1702.473667
1299.673916,-7105.977043,-995.924147,2146.597232
1299.674227,-5181.441594,-1915.238745,1184.329507
1299.674538,-4959.379811,-2298.286494,370.102971
1299.674850,-6439.791695,-1149.143247,-444.123565
1299.675161,-8068.244768,1149.143247,-962.267725
1299.675473,-9696.697840,2451.505594,-740.205942
1299.675784,-11103.089130,2451.505594,-222.061783
1299.676096,-11621.233289,1685.410096,814.226536
1299.676407,-10584.944971,689.485948,1332.370696
1299.676718,-8808.450710,-153.219100,1628.453072
1299.677030,-7179.997637,-612.876398,1184.329507
1299.677341,-6439.791695,-766.095498,814.226536
1299.677653,-6809.894666,-919.314598,-148.041188
1299.677964,-8068.244768,76.609550,-296.082377
1299.678276,-8734.430116,1455.581446,370.102971
1299.678587,-9770.718434,1915.238745,518.144159
1299.678899,-11029.068536,689.485948,888.247130
1299.679210,-11251.130318,-229.828649,1332.370696
1299.679521,-9400.615463,-919.314598,1554.432478
1299.679833,-8438.347739,-919.314598,814.226536
1299.680144,-7994.224174,-1685.410096,296.082377
1299.680456,-7402.059420,-766.095498,-74.020594
1299.680767,-8364.327145,536.266849,-888.247130
1299.681079,-8142.265362,842.705048,-370.102971
1299.681390,-8512.368333,153.219100,-0.000000
1299.681702,-8956.491898,-612.876398,148.041188
1299.682013,-8364.327145,-919.314598,740.205942
1299.682324,-7402.059420,-1149.143247,222.061783
1299.682636,-8586.388927,-1072.533697,148.041188
1299.682947,-9474.636058,-766.095498,-0.000000
1299.683259,-10510.924376,919.314598,-518.144159
1299.683570,-10732.986159,1302.362347,-0.000000
1299.683882,-10658.965565,1608.800546,518.144159
1299.684193,-10807.006753,612.876398,740.205942
1299.684505,-9474.636058,-842.705048,962.267725
1299.684816,-7105.977043,-1685.410096,1406.391290
1299.685127,-6957.935855,-2757.943793,222.061783
1299.685439,-7105.977043,-1455.581446,-296.082377
1299.685750,-8586.388927,-229.828649,-962.267725
1299.686062,-9474.636058,383.047749,-814.226536
1299.686373,-10362.883188,1685.410096,-296.082377
1299.686685,-11399.171507,2374.896044,-74.020594
1299.686996,-11843.295072,1685.410096,666.185348
1299.687308,-10288.862594,0.000000,666.185348
1299.687619,-7698.141797,-842.705048,888.247130
1299.687930,-6439.791695,-689.485948,-0.000000
1299.688242,-6217.729913,-459.657299,-74.020594
1299.688553,-7994.224174,-536.266849,-0.000000
1299.688865,-8882.471304,383.047749,222.061783
1299.689176,-10140.821405,1225.752797,740.205942
1299.689488,-11325.150913,766.095498,1480.411884
1299.689799,-11547.212695,306.438199,1702.473667
1299.690111,-9696.697840,-995.924147,2220.617826
1299.690422,-7624.121203,-689.485948,1332.370696
1299.690733,-6513.812290,-766.095498,222.061783
1299.691045,-7031.956449,-766.095498,-0.000000
1299.691356,-7624.121203,153.219100,222.061783
1299.691668,-8438.347739,1302.362347,222.061783
1299.691979,-8216.285956,1838.629195,518.144159
1299.692291,-9178.553681,1838.629195,518.144159
1299.692602,-9252.574275,459.657299,518.144159
1299.692913,-7031.956449,0.000000,666.185348
1299.693225,-6957.935855,-536.266849,296.082377
1299.693536,-7624.121203,-612.876398,222.061783
1299.693848,-9474.636058,-536.266849,370.102971
1299.694159,-10140.821405,383.047749,1036.288319
1299.694471,-9918.759623,919.314598,1036.288319
1299.694782,-10066.800811,459.657299,1554.432478
1299.695094,-9400.615463,-612.876398,2146.597232
1299.695405,-7698.141797,-1991.848295,1480.411884
1299.695716,-6883.915261,-1991.848295,1184.329507
1299.696028,-6587.832884,-1608.800546,666.185348
1299.696339,-7698.141797,-1149.143247,-222.061783
1299.696651,-8956.491898,0.000000,-222.061783
1299.696962,-9474.636058,1455.581446,-518.144159
1299.697274,-10955.047942,2068.457845,-148.041188
1299.697585,-11769.274478,1455.581446,666.185348
1299.697897,-11251.130318,153.219100,1110.308913
1299.698208,-9622.677246,-612.876398,1554.432478
1299.698519,-7402.059420,-1149.143247,1110.308913
1299.698831,-6661.853478,-1455.581446,222.061783
1299.699142,-6735.874072,-1455.581446,-296.082377
1299.699454,-7994.224174,-459.657299,-370.102971
1299.699765,-9400.615463,919.314598,-74.020594
1299.700077,-10658.965565,1608.800546,518.144159
1299.700388,-11917.315666,919.314598,1036.288319
1299.700700,-11695.253884,0.000000,2146.597232
1299.701011,-9400.615463,-1378.971896,1998.556043
1299.701322,-7698.141797,-1762.019645,1184.329507
1299.701634,-7105.977043,-1378.971896,370.102971
1299.701945,-7328.038826,-612.876398,-592.164754
1299.702257,-8290.306550,-153.219100,-592.164754
1299.702568,-8364.327145,919.314598,-444.123565
1299.702880,-9548.656652,612.876398,-0.000000
1299.703191,-10066.800811,0.000000,296.082377
1299.703503,-9696.697840,-689.485948,666.185348
1299.703814,-8734.430116,-842.705048,370.102971
1299.704125,-7994.224174,-842.705048,-0.000000
1299.704437,-8660.409521,-536.266849,148.041188
1299.704748,-9178.553681,459.657299,148.041188
1299.705060,-9622.677246,766.095498,592.164754
1299.705371,-9474.636058,1455.581446,1036.288319
1299.705683,-9548.656652,536.266849,1702.473667
1299.705994,-8956.491898,-459.657299,1554.432478
1299.706305,-7179.997637,-1072.533697,1406.391290
1299.706617,-5995.668130,-1762.019645,814.226536
1299.706928,-5995.668130,-1685.410096,148.041188
1299.707240,-7920.203579,-919.314598,-1184.329507
1299.707551,-9104.533087,383.047749,-962.267725
1299.707863,-10140.821405,1378.971896,-296.082377
1299.708174,-11547.212695,1378.971896,370.102971
1299.708486,-11843.295072,842.705048,1406.391290
1299.708797,-11029.068536,0.000000,1628.453072
1299.709108,-8808.450710,-766.095498,1628.453072
1299.709420,-6587.832884,-383.047749,814.226536
1299.709731,-6143.709319,-229.828649,-74.020594
1299.710043,-7105.977043,-383.047749,-1184.329507
1299.710354,-8660.409521,76.609550,-518.144159
1299.710666,-9474.636058,1378.971896,-74.020594
1299.710977,-10584.944971,1915.238745,444.123565
1299.711289,-11769.274478,1532.190996,962.267725
1299.711600,-10881.027347,-229.828649,2072.576638
1299.711911,-9030.512492,-766.095498,1776.494261
1299.712223,-7105.977043,-995.924147,1110.308913
1299.712534,-7105.977043,-536.266849,222.061783
1299.712846,-8512.368333,-383.047749,-370.102971
1299.713157,-9104.533087,612.876398,-592.164754
1299.713469,-9104.533087,1455.581446,-666.185348
1299.713780,-8734.430116,995.924147,-148.041188
1299.714092,-9696.697840,229.828649,-74.020594
1299.714403,-9696.697840,-1149.143247,296.082377
1299.714714,-8512.368333,-842.705048,814.226536
1299.715026,-8512.368333,-1072.533697,740.205942
1299.715337,-9622.677246,-612.876398,814.226536
1299.715649,-10362.883188,459.657299,962.267725
1299.715960,-9696.697840,1072.533697,1110.308913
1299.716272,-9622.677246,1378.971896,888.247130
1299.716583,-9252.574275,153.219100,1776.494261
1299.716895,-7624.121203,383.047749,1110.308913
1299.717206,-6735.874072,-612.876398,1406.391290
1299.717517,-5477.523971,-1455.581446,518.144159
1299.717829,-6587.832884,-995.924147,-666.185348
1299.718140,-8216.285956,612.876398,-962.267725
1299.718452,-9400.615463,2068.457845,-814.226536
1299.718763,-10214.842000,2681.334243,-148.041188
1299.719075,-11325.150913,1532.190996,666.185348
1299.719386,-10658.965565,1532.190996,1184.329507
1299.719698,-9696.697840,383.047749,1036.288319
1299.720009,-7698.141797,-766.095498,962.267725
1299.720320,-6365.771101,-1072.533697,296.082377
1299.720632,-5921.647536,-1225.752797,-0.000000
1299.720943,-7550.100608,-1225.752797,-0.000000
1299.721255,-9030.512492,-919.314598,370.102971
1299.721566,-10214.842000,536.266849,962.267725
1299.721878,-11621.233289,1378.971896,1258.350101
1299.722189,-11473.192101,-306.438199,2072.576638
1299.722500,-10066.800811,-1149.143247,1998.556043
1299.722812,-8142.265362,-1378.971896,1480.411884
1299.723123,-6513.812290,-842.705048,370.102971
1299.723435,-6587.832884,-842.705048,-518.144159
1299.723746,-8438.347739,306.438199,-888.247130
1299.724058,-8290.306550,612.876398,-962.267725
1299.724369,-9474.636058,842.705048,-666.185348
1299.724681,-10436.903782,153.219100,444.123565
1299.724992,-10214.842000,-689.485948,740.205942
1299.725303,-9622.677246,-1608.800546,444.123565
1299.725615,-8586.388927,-1608.800546,444.123565
1299.725926,-9104.533087,-612.876398,296.082377
1299.726238,-10436.903782,-229.828649,-0.000000
1299.726549,-9918.759623,612.876398,740.205942
1299.726861,-10584.944971,1149.143247,740.205942
1299.727172,-10214.842000,1149.143247,1480.411884
1299.727484,-9992.780217,229.828649,1554.432478
1299.727795,-8364.327145,-842.705048,1332.370696
1299.728106,-6217.729913,-1302.362347,1184.329507
1299.728418,-5255.462188,-1455.581446,592.164754
1299.728729,-7105.977043,-2298.286494,-222.061783
1299.729041,-8586.388927,-995.924147,-74.020594
1299.729352,-9252.574275,689.485948,444.123565
1299.729664,-10658.965565,1225.752797,592.164754
1299.729975,-11251.130318,995.924147,1480.411884
1299.730287,-10881.027347,0.000000,1258.350101
1299.730598,-8734.430116,-612.876398,1406.391290
1299.730909,-6291.750507,-1149.143247,1110.308913
1299.731221,-5773.606348,-1455.581446,-0.000000
1299.731532,-5995.668130,-995.924147,-74.020594
1299.731844,-7772.162391,-229.828649,-222.061783
1299.732155,-9326.594869,76.609550,888.247130
1299.732467,-11103.089130,689.485948,1628.453072
1299.732778,-12139.377449,919.314598,1998.556043
1299.733090,-10955.047942,612.876398,1998.556043
1299.733401,-8956.491898,0.000000,1480.411884
1299.733712,-6439.791695,-766.095498,1258.350101
1299.734024,-6143.709319,-536.266849,-0.000000
1299.734335,-6883.915261,-383.047749,-814.226536
1299.734647,-7846.182985,459.657299,-962.267725
1299.734958,-8438.347739,1608.800546,-518.144159
1299.735270,-9770.718434,1532.190996,-296.082377
1299.735581,-10510.924376,306.438199,222.061783
1299.735893,-9844.739029,-1302.362347,888.247130
1299.736204,-9400.615463,-766.095498,814.226536
1299.736515,-8660.409521,-459.657299,-0.000000
1299.736827,-9474.636058,-842.705048,-0.000000
1299.737138,-10658.965565,-842.705048,-0.000000
1299.737450,-10658.965565,229.828649,518.144159
1299.737761,-10584.944971,842.705048,1110.308913
1299.738073,-10066.800811,229.828649,1480.411884
1299.738384,-10140.821405,-766.095498,1554.432478
1299.738695,-7550.100608,-1302.362347,1702.473667
1299.739007,-5329.482782,-1378.971896,888.247130
1299.739318,-5995.668130,-1378.971896,-444.123565
1299.739630,-7772.162391,-153.219100,-888.247130
1299.739941,-9622.677246,1225.752797,-1110.308913
1299.740253,-10658.965565,1991.848295,-296.082377
1299.740564,-11547.212695,2298.286494,-0.000000
1299.740876,-11325.150913,1455.581446,740.205942
1299.741187,-10066.800811,842.705048,814.226536
1299.741498,-8068.244768,-306.438199,666.185348
1299.741810,-5773.606348,-229.828649,148.041188
1299.742121,-5625.565159,-306.438199,-444.123565
1299.742433,-6883.915261,-229.828649,-444.123565
1299.742744,-8364.327145,-459.657299,-0.000000
1299.743056,-10140.821405,919.314598,666.185348
1299.743367,-11177.109724,1149.143247,1628.453072
1299.743679,-12139.377449,919.314598,1850.514855
1299.743990,-11029.068536,0.000000,1998.556043
1299.744301,-8734.430116,-766.095498,1480.411884
1299.744613,-6439.791695,-612.876398,592.164754
1299.744924,-5847.626942,-689.485948,-370.102971
1299.745236,-6957.935855,306.438199,-740.205942
