#time,accel_x,accel_y,accel_z
1198.963344,-9252.574275,-306.438199,222.061783
1198.963656,-8734.430116,229.828649,1036.288319
1198.963967,-8734.430116,383.047749,518.144159
1198.964278,-8956.491898,383.047749,370.102971
1198.964590,-9104.533087,0.000000,444.123565
1198.964901,-9178.553681,-229.828649,370.102971
1198.965213,-8956.491898,0.000000,518.144159
1198.965524,-8734.430116,-153.219100,592.164754
1198.965836,-8882.471304,689.485948,222.061783
1198.966147,-8956.491898,-153.219100,296.082377
1198.966458,-9030.512492,0.000000,444.123565
1198.966770,-9104.533087,0.000000,592.164754
1198.967081,-9104.533087,153.219100,370.102971
1198.967393,-8956.491898,0.000000,518.144159
1198.967704,-8882.471304,0.000000,518.144159
1198.968015,-8956.491898,-229.828649,814.226536
1198.968327,-8364.327145,-229.828649,444.123565
1198.968638,-8956.491898,0.000000,222.061783
1198.968950,-8734.430116,153.219100,592.164754
1198.969261,-9252.574275,-153.219100,518.144159
1198.969573,-8956.491898,76.609550,518.144159
1198.969884,-8956.491898,0.000000,370.102971
1198.970195,-8956.491898,0.000000,592.164754
1198.970507,-8734.430116,459.657299,370.102971
1198.970818,-8956.491898,0.000000,666.185348
1198.971130,-8438.347739,0.000000,666.185348
1198.971441,-8808.450710,-536.266849,370.102971
1198.971753,-8956.491898,0.000000,592.164754
1198.972064,-8808.450710,153.219100,666.185348
1198.972375,-8882.471304,0.000000,444.123565
1198.972687,-8882.471304,0.000000,518.144159
1198.972998,-8734.430116,-306.438199,296.082377
1198.973310,-8660.409521,-153.219100,148.041188
1198.973621,-8586.388927,229.828649,592.164754
1198.973932,-9178.553681,229.828649,-0.000000
1198.974244,-9104.533087,0.000000,592.164754
1198.974555,-8956.491898,-229.828649,296.082377
1198.974867,-9104.533087,0.000000,592.164754
1198.975178,-8808.450710,0.000000,666.185348
1198.975490,-8734.430116,459.657299,444.123565
1198.975801,-8734.430116,-153.219100,296.082377
1198.976112,-8734.430116,-306.438199,518.144159
1198.976424,-8882.471304,-229.828649,666.185348
1198.976735,-8808.450710,-229.828649,666.185348
1198.977047,-8882.471304,0.000000,592.164754
1198.977358,-8956.491898,-153.219100,666.185348
1198.977670,-8808.450710,0.000000,592.164754
1198.977981,-8586.388927,0.000000,296.082377
1198.978292,-8660.409521,-689.485948,592.164754
1198.978604,-8734.430116,0.000000,296.082377
1198.978915,-9104.533087,0.000000,222.061783
1198.979227,-8956.491898,-153.219100,296.082377
1198.979538,-8882.471304,0.000000,518.144159
1198.979850,-8808.450710,0.000000,444.123565
1198.980161,-9252.574275,0.000000,444.123565
1198.980472,-8586.388927,383.047749,444.123565
1198.980784,-9178.553681,229.828649,666.185348
1198.981095,-9030.512492,-153.219100,666.185348
1198.981407,-8956.491898,0.000000,444.123565
1198.981718,-8808.450710,0.000000,666.185348
1198.982029,-8882.471304,-306.438199,592.164754
1198.982341,-9178.553681,-229.828649,296.082377
1198.982652,-8956.491898,76.609550,296.082377
1198.982964,-8956.491898,-459.657299,518.144159
1198.983275,-9104.533087,0.000000,518.144159
1198.983587,-8660.409521,0.000000,444.123565
1198.983898,-8660.409521,-229.828649,814.226536
1198.984209,-8956.491898,0.000000,592.164754
1198.984521,-8808.450710,0.000000,518.144159
1198.984832,-8882.471304,0.000000,444.123565
1198.985144,-8882.471304,-536.266849,370.102971
1198.985455,-8512.368333,0.000000,518.144159
1198.985767,-8660.409521,0.000000,148.041188
1198.986078,-8808.450710,229.828649,-0.000000
1198.986389,-8734.430116,0.000000,592.164754
1198.986701,-8808.450710,-306.438199,518.144159
1198.987012,-8956.491898,-153.219100,518.144159
1198.987324,-9104.533087,-153.219100,370.102971
1198.987635,-8734.430116,0.000000,666.185348
1198.987947,-9030.512492,229.828649,222.061783
1198.988258,-9104.533087,0.000000,370.102971
1198.988569,-9252.574275,0.000000,370.102971
1198.988881,-8956.491898,0.000000,666.185348
1198.989192,-8956.491898,0.000000,444.123565
1198.989504,-8956.491898,0.000000,518.144159
1198.989815,-8956.491898,0.000000,444.123565
1198.990126,-8808.450710,-229.828649,518.144159
1198.990438,-8586.388927,0.000000,370.102971
1198.990749,-8956.491898,-306.438199,740.205942
1198.991061,-8586.388927,0.000000,592.164754
1198.991372,-8808.450710,-383.047749,666.185348
1198.991684,-8808.450710,-229.828649,666.185348
1198.991995,-8808.450710,0.000000,592.164754
1198.992306,-8882.471304,0.000000,1036.288319
1198.992618,-8956.491898,306.438199,370.102971
1198.992929,-8734.430116,0.000000,592.164754
1198.993241,-8956.491898,-612.876398,370.102971
1198.993552,-10436.903782,229.828649,370.102971
1198.993864,-11621.233289,2298.286494,370.102971
1198.994175,-9252.574275,4903.011187,888.247130
1198.994486,-7846.182985,4213.525239,888.247130
1198.994798,-6883.915261,1302.362347,1036.288319
1198.995109,-6217.729913,-383.047749,-0.000000
1198.995421,-7624.121203,-1072.533697,-296.082377
1198.995732,-7402.059420,153.219100,-222.061783
1198.996044,-10807.006753,-1378.971896,-1258.350101
1198.996355,-13027.624579,-612.876398,-592.164754
1198.996666,-10584.944971,689.485948,666.185348
1198.996978,-9252.574275,76.609550,1258.350101
1198.997289,-8882.471304,-842.705048,2738.761985
1198.997601,-11325.150913,0.000000,1258.350101
1198.997912,-9252.574275,3677.258390,2146.597232
1198.998223,-4811.338623,5286.058936,2368.659014
1198.998535,-7254.018232,3677.258390,1480.411884
1198.998846,-8512.368333,2068.457845,-0.000000
1198.999158,-7328.038826,2757.943793,-1554.432478
1198.999469,-8586.388927,3447.429741,-1776.494261
1198.999781,-8512.368333,4136.915689,-518.144159
1199.000092,-10955.047942,2298.286494,-1850.514855
1199.000403,-14063.912898,-612.876398,148.041188
1199.000715,-9400.615463,-1378.971896,2886.803174
1199.001026,-10288.862594,153.219100,1184.329507
1199.001338,-8734.430116,4366.744339,2516.700203
1199.001649,-7476.080014,6281.983084,1850.514855
1199.001961,-7920.203579,2987.772442,2072.576638
1199.002272,-5773.606348,4673.182538,2368.659014
1199.002583,-7179.997637,7201.297681,518.144159
1199.002895,-8660.409521,6894.859482,-888.247130
1199.003206,-10214.842000,5669.106685,-1332.370696
1199.003518,-10288.862594,4366.744339,-666.185348
1199.003829,-9104.533087,4903.011187,-1776.494261
1199.004140,-10584.944971,5056.230287,-74.020594
1199.004452,-10881.027347,4136.915689,666.185348
1199.004763,-10658.965565,3294.210641,1258.350101
1199.005075,-9104.533087,4826.401637,2516.700203
1199.005386,-7476.080014,4213.525239,1776.494261
1199.005698,-5995.668130,4136.915689,1332.370696
1199.006009,-5847.626942,3600.648841,370.102971
1199.006320,-4885.359217,4366.744339,-0.000000
1199.006632,-5551.544565,3907.087040,-1184.329507
1199.006943,-8068.244768,2911.162892,-148.041188
1199.007255,-9992.780217,1455.581446,296.082377
1199.007566,-9696.697840,-153.219100,-0.000000
1199.007878,-9474.636058,-1532.190996,1184.329507
1199.008189,-9918.759623,-1838.629195,1554.432478
1199.008500,-10955.047942,-1915.238745,1184.329507
1199.008812,-10288.862594,-306.438199,2146.597232
1199.009123,-8808.450710,842.705048,1850.514855
1199.009435,-7031.956449,1991.848295,1036.288319
1199.009746,-7920.203579,1378.971896,-0.000000
1199.010058,-7920.203579,1302.362347,-222.061783
1199.010369,-6439.791695,1608.800546,-296.082377
1199.010680,-6439.791695,76.609550,-1110.308913
1199.010992,-8216.285956,-2298.286494,-370.102971
1199.011303,-9400.615463,-3907.087040,-0.000000
1199.011615,-10584.944971,-4136.915689,444.123565
1199.011926,-10881.027347,-4673.182538,962.267725
1199.012237,-11991.336260,-4903.011187,444.123565
1199.012549,-12583.501014,-2451.505594,592.164754
1199.012860,-11843.295072,-1532.190996,-74.020594
1199.013172,-10214.842000,-1378.971896,-148.041188
1199.013483,-8660.409521,-766.095498,-0.000000
1199.013795,-8438.347739,306.438199,518.144159
1199.014106,-9178.553681,689.485948,-148.041188
1199.014417,-9252.574275,995.924147,-74.020594
1199.014729,-9400.615463,536.266849,-296.082377
1199.015040,-9770.718434,459.657299,592.164754
1199.015352,-10732.986159,0.000000,740.205942
1199.015663,-11769.274478,-1149.143247,962.267725
1199.015975,-11843.295072,-1225.752797,740.205942
1199.016286,-11547.212695,-306.438199,740.205942
1199.016597,-10288.862594,1149.143247,666.185348
1199.016909,-8956.491898,1608.800546,-444.123565
1199.017220,-7328.038826,2145.067394,-666.185348
1199.017532,-6217.729913,2068.457845,-962.267725
1199.017843,-5107.421000,1685.410096,-666.185348
1199.018155,-4811.338623,1225.752797,-0.000000
1199.018466,-6883.915261,76.609550,1628.453072
1199.018777,-7920.203579,-1532.190996,2516.700203
1199.019089,-8512.368333,-919.314598,2516.700203
1199.019400,-9918.759623,459.657299,1998.556043
1199.019712,-10288.862594,383.047749,2368.659014
1199.020023,-9918.759623,1302.362347,1332.370696
1199.020334,-8364.327145,1608.800546,222.061783
1199.020646,-7105.977043,2145.067394,-148.041188
1199.020957,-5921.647536,2604.724693,-518.144159
1199.021269,-5625.565159,3064.381992,-666.185348
1199.021580,-6069.688724,2757.943793,-592.164754
1199.021892,-6217.729913,1302.362347,-222.061783
1199.022203,-6957.935855,-306.438199,518.144159
1199.022514,-7772.162391,-459.657299,1110.308913
1199.022826,-9104.533087,-1225.752797,1258.350101
1199.023137,-10214.842000,-2145.067394,2072.576638
1199.023449,-10881.027347,-2757.943793,2294.638420
1199.023760,-10807.006753,-2757.943793,2072.576638
1199.024072,-10140.821405,-1532.190996,1628.453072
1199.024383,-10362.883188,-459.657299,296.082377
1199.024694,-9474.636058,459.657299,370.102971
1199.025006,-9400.615463,995.924147,-666.185348
1199.025317,-9030.512492,1302.362347,-666.185348
1199.025629,-8734.430116,1072.533697,-592.164754
1199.025940,-8956.491898,536.266849,-0.000000
1199.026252,-9252.574275,-306.438199,518.144159
1199.026563,-10436.903782,-919.314598,444.123565
1199.026874,-11103.089130,-842.705048,1184.329507
1199.027186,-11103.089130,-1915.238745,1184.329507
1199.027497,-10510.924376,-2528.115143,1332.370696
1199.027809,-10066.800811,-2145.067394,1036.288319
1199.028120,-9474.636058,-1915.238745,-0.000000
1199.028431,-9326.594869,-1072.533697,-518.144159
1199.028743,-8956.491898,-153.219100,-740.205942
1199.029054,-8438.347739,536.266849,-666.185348
1199.029366,-8216.285956,842.705048,-1036.288319
1199.029677,-7624.121203,842.705048,-222.061783
1199.029989,-8512.368333,1302.362347,370.102971
1199.030300,-8808.450710,1149.143247,962.267725
1199.030611,-8956.491898,459.657299,1258.350101
1199.030923,-8734.430116,0.000000,1184.329507
1199.031234,-8290.306550,-536.266849,962.267725
1199.031546,-8142.265362,459.657299,666.185348
1199.031857,-8882.471304,383.047749,-296.082377
1199.032169,-8660.409521,536.266849,-592.164754
1199.032480,-8734.430116,612.876398,-592.164754
1199.032791,-8438.347739,842.705048,-666.185348
1199.033103,-8068.244768,459.657299,-666.185348
1199.033414,-8142.265362,383.047749,-74.020594
1199.033726,-8216.285956,0.000000,666.185348
1199.034037,-8956.491898,0.000000,1480.411884
1199.034348,-9030.512492,0.000000,1702.473667
1199.034660,-9104.533087,-459.657299,2146.597232
1199.034971,-9178.553681,0.000000,1702.473667
1199.035283,-9548.656652,689.485948,1036.288319
1199.035594,-9548.656652,1378.971896,518.144159
1199.035906,-9622.677246,2298.286494,-592.164754
1199.036217,-8956.491898,2298.286494,-592.164754
1199.036528,-8586.388927,1378.971896,-222.061783
1199.036840,-8142.265362,842.705048,370.102971
1199.037151,-8586.388927,612.876398,444.123565
1199.037463,-8216.285956,-383.047749,814.226536
1199.037774,-7254.018232,-1225.752797,1110.308913
1199.038086,-7328.038826,-1762.019645,1332.370696
1199.038397,-7550.100608,-2145.067394,1998.556043
1199.038708,-8808.450710,-3140.991542,2146.597232
1199.039020,-9992.780217,-2528.115143,2072.576638
1199.039331,-10214.842000,-1838.629195,1776.494261
1199.039643,-9992.780217,-842.705048,1184.329507
1199.039954,-9548.656652,-612.876398,592.164754
1199.040265,-9400.615463,306.438199,518.144159
1199.040577,-8882.471304,536.266849,222.061783
1199.040888,-7994.224174,1302.362347,518.144159
1199.041200,-8216.285956,459.657299,518.144159
1199.041511,-8290.306550,0.000000,444.123565
1199.041822,-9104.533087,0.000000,518.144159
1199.042134,-8882.471304,-153.219100,518.144159
1199.042445,-9030.512492,153.219100,962.267725
1199.042757,-9696.697840,-229.828649,148.041188
1199.043068,-9844.739029,-383.047749,-148.041188
1199.043380,-9474.636058,-306.438199,-518.144159
1199.043691,-9400.615463,536.266849,-444.123565
1199.044002,-9474.636058,536.266849,-518.144159
1199.044314,-9400.615463,-229.828649,-0.000000
1199.044625,-9104.533087,-536.266849,148.041188
1199.044937,-8808.450710,-153.219100,444.123565
1199.045248,-8660.409521,-229.828649,666.185348
1199.045559,-8956.491898,-383.047749,1406.391290
1199.045871,-9474.636058,-306.438199,962.267725
1199.046182,-9622.677246,306.438199,1184.329507
1199.046494,-9474.636058,536.266849,518.144159
1199.046805,-9696.697840,1302.362347,296.082377
1199.047116,-9474.636058,1378.971896,-0.000000
1199.047428,-9030.512492,1378.971896,-444.123565
1199.047739,-8364.327145,1991.848295,-592.164754
1199.048051,-7328.038826,1915.238745,-518.144159
1199.048362,-6883.915261,1455.581446,-296.082377
1199.048674,-6217.729913,-153.219100,-74.020594
1199.048985,-6883.915261,-842.705048,444.123565
1199.049296,-7550.100608,-1455.581446,1184.329507
1199.049608,-7550.100608,-1455.581446,518.144159
1199.049919,-7994.224174,-842.705048,1110.308913
1199.050231,-8956.491898,-1225.752797,1110.308913
1199.050542,-9474.636058,-842.705048,1332.370696
1199.050853,-9844.739029,0.000000,1184.329507
1199.051165,-10066.800811,842.705048,814.226536
1199.051476,-9474.636058,919.314598,1258.350101
1199.051788,-8956.491898,76.609550,370.102971
1199.052099,-8660.409521,0.000000,148.041188
1199.052410,-7994.224174,-459.657299,-74.020594
1199.052722,-7624.121203,-689.485948,-666.185348
1199.053033,-8438.347739,-919.314598,-74.020594
1199.053345,-9252.574275,-919.314598,296.082377
1199.053656,-10881.027347,-1915.238745,518.144159
1199.053968,-10362.883188,-1685.410096,1998.556043
1199.054279,-10658.965565,-1608.800546,1924.535449
1199.054590,-10732.986159,-1608.800546,1406.391290
1199.054902,-10066.800811,-995.924147,592.164754
1199.055213,-8956.491898,76.609550,-0.000000
1199.055525,-8512.368333,0.000000,-148.041188
1199.055836,-8364.327145,0.000000,148.041188
1199.056147,-8956.491898,459.657299,296.082377
1199.056459,-9178.553681,459.657299,518.144159
1199.056770,-9326.594869,536.266849,962.267725
1199.057082,-9622.677246,536.266849,962.267725
1199.057393,-10362.883188,459.657299,1036.288319
1199.057704,-9844.739029,0.000000,1184.329507
1199.058016,-9252.574275,-536.266849,518.144159
1199.058327,-8956.491898,0.000000,888.247130
1199.058639,-8660.409521,689.485948,740.205942
1199.058950,-8068.244768,-536.266849,370.102971
1199.059262,-7328.038826,-1532.190996,-74.020594
1199.059573,-7476.080014,-1455.581446,592.164754
1199.059884,-7772.162391,-1532.190996,1110.308913
1199.060196,-7476.080014,-1838.629195,666.185348
1199.060507,-7254.018232,-1149.143247,962.267725
1199.060819,-7328.038826,-1225.752797,962.267725
1199.061130,-7994.224174,-229.828649,1332.370696
1199.061441,-8956.491898,995.924147,1702.473667
1199.061753,-9326.594869,1608.800546,1258.350101
1199.062064,-9400.615463,1762.019645,1036.288319
1199.062376,-8734.430116,1762.019645,-0.000000
1199.062687,-8364.327145,1991.848295,-1258.350101
1199.062998,-7994.224174,2298.286494,-1850.514855
1199.063310,-7624.121203,1608.800546,-1850.514855
1199.063621,-8438.347739,536.266849,-888.247130
1199.063933,-8882.471304,76.609550,-666.185348
1199.064244,-9104.533087,-383.047749,-0.000000
1199.064556,-9400.615463,-1225.752797,1036.288319
1199.064867,-10066.800811,-1225.752797,1332.370696
1199.065178,-9696.697840,-995.924147,1406.391290
1199.065490,-9548.656652,-229.828649,1184.329507
1199.065801,-9622.677246,76.609550,1332.370696
1199.066113,-9030.512492,-612.876398,888.247130
1199.066424,-9474.636058,-612.876398,222.061783
1199.066735,-9696.697840,306.438199,148.041188
1199.067047,-9844.739029,1072.533697,-222.061783
1199.067358,-9992.780217,1378.971896,-370.102971
1199.067670,-10214.842000,1302.362347,444.123565
1199.067981,-9844.739029,0.000000,592.164754
1199.068292,-9400.615463,0.000000,1036.288319
1199.068604,-9696.697840,689.485948,888.247130
1199.068915,-9622.677246,1072.533697,962.267725
1199.069227,-8882.471304,0.000000,1036.288319
1199.069538,-7846.182985,-1225.752797,1036.288319
1199.069850,-7328.038826,-1072.533697,518.144159
1199.070161,-7476.080014,-1685.410096,592.164754
1199.070472,-7328.038826,-1378.971896,370.102971
1199.070784,-6883.915261,-1378.971896,370.102971
1199.071095,-7476.080014,-1838.629195,814.226536
1199.071407,-8068.244768,-2221.676944,1628.453072
1199.071718,-9252.574275,-1532.190996,1776.494261
1199.072029,-9474.636058,-229.828649,1998.556043
1199.072341,-8808.450710,536.266849,1924.535449
1199.072652,-9252.574275,1991.848295,888.247130
1199.072964,-8512.368333,842.705048,1110.308913
1199.073275,-7846.182985,459.657299,296.082377
1199.073586,-7698.141797,383.047749,-0.000000
1199.073898,-8142.265362,459.657299,-740.205942
1199.074209,-8882.471304,229.828649,-592.164754
1199.074521,-9030.512492,-459.657299,-592.164754
1199.074832,-9178.553681,-919.314598,-222.061783
1199.075144,-8586.388927,-1302.362347,296.082377
1199.075455,-8882.471304,-1072.533697,518.144159
1199.075766,-9622.677246,-536.266849,1110.308913
1199.076078,-9400.615463,-383.047749,1258.350101
1199.076389,-9104.533087,0.000000,1036.288319
1199.076701,-8956.491898,0.000000,1110.308913
1199.077012,-9178.553681,0.000000,592.164754
1199.077323,-9474.636058,1072.533697,-0.000000
1199.077635,-10214.842000,1378.971896,-296.082377
1199.077946,-9844.739029,1608.800546,-74.020594
1199.078258,-10140.821405,1072.533697,-0.000000
1199.078569,-10066.800811,383.047749,-0.000000
1199.078880,-9844.739029,0.000000,296.082377
1199.079192,-9474.636058,229.828649,296.082377
1199.079503,-9104.533087,842.705048,222.061783
1199.079815,-8882.471304,612.876398,814.226536
1199.080126,-8364.327145,-459.657299,740.205942
1199.080438,-7254.018232,-612.876398,518.144159
1199.080749,-7846.182985,-1225.752797,814.226536
1199.081060,-8438.347739,-1455.581446,666.185348
1199.081372,-7624.121203,-919.314598,222.061783
1199.081683,-7772.162391,-995.924147,370.102971
1199.081995,-7920.203579,-1378.971896,296.082377
1199.082306,-8956.491898,-766.095498,888.247130
1199.082617,-9548.656652,383.047749,814.226536
1199.082929,-9844.739029,1149.143247,962.267725
1199.083240,-9030.512492,1149.143247,962.267725
1199.083552,-8734.430116,842.705048,444.123565
1199.083863,-8512.368333,842.705048,-0.000000
1199.084174,-7624.121203,766.095498,-370.102971
1199.084486,-8438.347739,229.828649,-444.123565
1199.084797,-9326.594869,459.657299,-0.000000
1199.085109,-9770.718434,-306.438199,-444.123565
1199.085420,-9474.636058,-766.095498,296.082377
1199.085732,-9178.553681,-842.705048,518.144159
1199.086043,-8808.450710,-995.924147,1110.308913
1199.086354,-9326.594869,-842.705048,1258.350101
1199.086666,-9252.574275,-536.266849,1110.308913
1199.086977,-8364.327145,0.000000,962.267725
1199.087289,-9030.512492,536.266849,518.144159
1199.087600,-8956.491898,1225.752797,740.205942
1199.087911,-9474.636058,1302.362347,222.061783
1199.088223,-9696.697840,1455.581446,-0.000000
1199.088534,-9918.759623,1225.752797,296.082377
1199.088846,-9770.718434,1225.752797,444.123565
1199.089157,-9844.739029,689.485948,962.267725
1199.089468,-9474.636058,0.000000,666.185348
1199.089780,-9326.594869,689.485948,518.144159
1199.090091,-7994.224174,1149.143247,666.185348
1199.090403,-7328.038826,383.047749,518.144159
1199.090714,-7698.141797,-536.266849,962.267725
1199.091026,-7476.080014,-995.924147,962.267725
1199.091337,-7105.977043,-1149.143247,814.226536
1199.091648,-7550.100608,-1072.533697,592.164754
1199.091960,-8586.388927,-1302.362347,888.247130
1199.092271,-9030.512492,-1532.190996,444.123565
1199.092583,-8808.450710,-1225.752797,740.205942
1199.092894,-8808.450710,-383.047749,814.226536
1199.093205,-9178.553681,229.828649,962.267725
1199.093517,-9474.636058,612.876398,814.226536
1199.093828,-9030.512492,1072.533697,740.205942
1199.094140,-7920.203579,689.485948,592.164754
1199.094451,-7772.162391,383.047749,296.082377
1199.094762,-7698.141797,153.219100,-0.000000
1199.095074,-8438.347739,-306.438199,-666.185348
1199.095385,-8808.450710,-612.876398,-370.102971
1199.095697,-9400.615463,-612.876398,-148.041188
1199.096008,-10140.821405,-995.924147,-0.000000
1199.096320,-10362.883188,-1532.190996,444.123565
1199.096631,-9918.759623,-1455.581446,1258.350101
1199.096942,-9696.697840,-1072.533697,1110.308913
1199.097254,-9770.718434,-766.095498,1332.370696
1199.097565,-9474.636058,-536.266849,888.247130
1199.097877,-9030.512492,0.000000,888.247130
1199.098188,-9178.553681,536.266849,444.123565
1199.098499,-9252.574275,919.314598,222.061783
1199.098811,-9474.636058,1915.238745,-148.041188
1199.099122,-9400.615463,1378.971896,-148.041188
1199.099434,-9400.615463,1072.533697,-0.000000
1199.099745,-9622.677246,0.000000,-296.082377
1199.100056,-9400.615463,0.000000,296.082377
1199.100368,-9252.574275,76.609550,592.164754
1199.100679,-8734.430116,-229.828649,518.144159
1199.100991,-8068.244768,-612.876398,740.205942
1199.101302,-7624.121203,-766.095498,-0.000000
1199.101614,-7772.162391,-842.705048,962.267725
1199.101925,-7994.224174,-1532.190996,1184.329507
1199.102236,-7698.141797,-1455.581446,296.082377
1199.102548,-7698.141797,-383.047749,962.267725
1199.102859,-8142.265362,-383.047749,814.226536
1199.103171,-8956.491898,0.000000,1110.308913
1199.103482,-9474.636058,766.095498,1184.329507
1199.103793,-8808.450710,2145.067394,1258.350101
1199.104105,-8956.491898,1991.848295,666.185348
1199.104416,-8660.409521,1685.410096,148.041188
1199.104728,-8364.327145,1915.238745,-222.061783
1199.105039,-7920.203579,1532.190996,-222.061783
1199.105350,-7698.141797,842.705048,-444.123565
1199.105662,-8586.388927,612.876398,-444.123565
1199.105973,-8586.388927,153.219100,-222.061783
1199.106285,-9104.533087,-229.828649,-0.000000
1199.106596,-9252.574275,-842.705048,148.041188
1199.106908,-9326.594869,-1072.533697,1036.288319
1199.107219,-9474.636058,-766.095498,1110.308913
1199.107530,-9474.636058,-689.485948,1184.329507
1199.107842,-9252.574275,-383.047749,1406.391290
1199.108153,-8808.450710,-536.266849,1554.432478
1199.108465,-8734.430116,0.000000,1036.288319
1199.108776,-9104.533087,612.876398,740.205942
1199.109087,-8956.491898,766.095498,740.205942
1199.109399,-9548.656652,766.095498,-74.020594
1199.109710,-9844.739029,1149.143247,-0.000000
1199.110022,-9622.677246,766.095498,-0.000000
1199.110333,-9326.594869,459.657299,592.164754
1199.110644,-9030.512492,229.828649,444.123565
1199.110956,-8734.430116,229.828649,296.082377
1199.111267,-7550.100608,0.000000,1110.308913
1199.111579,-6661.853478,-1225.752797,888.247130
1199.111890,-7402.059420,-1608.800546,518.144159
1199.112202,-7328.038826,-2145.067394,814.226536
1199.112513,-7624.121203,-2145.067394,740.205942
1199.112824,-8068.244768,-2221.676944,888.247130
1199.113136,-9104.533087,-2221.676944,592.164754
1199.113447,-9622.677246,-1302.362347,740.205942
1199.113759,-10436.903782,-766.095498,814.226536
1199.114070,-10214.842000,153.219100,814.226536
1199.114381,-10288.862594,383.047749,888.247130
1199.114693,-9696.697840,612.876398,592.164754
1199.115004,-8734.430116,766.095498,592.164754
1199.115316,-7920.203579,306.438199,-0.000000
1199.115627,-7624.121203,689.485948,-148.041188
1199.115938,-7624.121203,306.438199,-518.144159
1199.116250,-8586.388927,229.828649,-888.247130
1199.116561,-8882.471304,0.000000,-592.164754
1199.116873,-9918.759623,-383.047749,-370.102971
1199.117184,-9844.739029,-995.924147,-0.000000
1199.117495,-10140.821405,-1302.362347,666.185348
1199.117807,-10214.842000,-1378.971896,518.144159
1199.118118,-9548.656652,-459.657299,666.185348
1199.118430,-8808.450710,0.000000,1036.288319
1199.118741,-9252.574275,-459.657299,370.102971
1199.119053,-8512.368333,-383.047749,1332.370696
1199.119364,-8956.491898,229.828649,518.144159
1199.119675,-9104.533087,842.705048,666.185348
1199.119987,-9474.636058,1455.581446,296.082377
1199.120298,-9622.677246,1532.190996,370.102971
1199.120610,-9696.697840,1149.143247,296.082377
1199.120921,-9474.636058,76.609550,370.102971
1199.121232,-9104.533087,842.705048,518.144159
1199.121544,-8660.409521,383.047749,1184.329507
1199.121855,-8438.347739,0.000000,444.123565
1199.122167,-7698.141797,-306.438199,592.164754
1199.122478,-7698.141797,-1225.752797,666.185348
1199.122789,-7031.956449,-1378.971896,1184.329507
1199.123101,-6735.874072,-919.314598,444.123565
1199.123412,-7031.956449,-1378.971896,296.082377
1199.123724,-7994.224174,-689.485948,518.144159
1199.124035,-8808.450710,-919.314598,962.267725
1199.124347,-9844.739029,-383.047749,1480.411884
1199.124658,-10288.862594,383.047749,1776.494261
1199.124969,-9844.739029,995.924147,1258.350101
1199.125281,-9622.677246,1685.410096,888.247130
1199.125592,-8956.491898,1838.629195,-0.000000
1199.125904,-7994.224174,1302.362347,-370.102971
1199.126215,-7846.182985,919.314598,-0.000000
1199.126526,-7846.182985,229.828649,-296.082377
1199.126838,-8734.430116,0.000000,-370.102971
1199.127149,-9104.533087,-229.828649,-370.102971
1199.127461,-9474.636058,-459.657299,-0.000000
1199.127772,-8734.430116,-919.314598,444.123565
1199.128083,-9474.636058,-766.095498,444.123565
1199.128395,-9474.636058,-536.266849,666.185348
1199.128706,-9548.656652,-612.876398,814.226536
1199.129018,-9326.594869,-383.047749,740.205942
1199.129329,-8956.491898,-383.047749,962.267725
1199.129641,-9104.533087,229.828649,592.164754
1199.129952,-9030.512492,383.047749,666.185348
1199.130263,-9474.636058,612.876398,-0.000000
1199.130575,-9474.636058,612.876398,444.123565
1199.130886,-9474.636058,1225.752797,-222.061783
1199.131198,-9104.533087,306.438199,148.041188
1199.131509,-9178.553681,76.609550,370.102971
1199.131820,-9326.594869,0.000000,592.164754
1199.132132,-8734.430116,153.219100,814.226536
1199.132443,-8364.327145,-383.047749,888.247130
1199.132755,-8142.265362,-1149.143247,740.205942
1199.133066,-7550.100608,-1685.410096,666.185348
1199.133377,-7031.956449,-2681.334243,814.226536
1199.133689,-7624.121203,-2528.115143,296.082377
1199.134000,-7698.141797,-2068.457845,370.102971
1199.134312,-8808.450710,-1608.800546,222.061783
1199.134623,-9622.677246,-1378.971896,518.144159
1199.134935,-10288.862594,-919.314598,888.247130
1199.135246,-10066.800811,383.047749,1036.288319
1199.135557,-9918.759623,766.095498,1184.329507
1199.135869,-8956.491898,1532.190996,740.205942
1199.136180,-8438.347739,842.705048,370.102971
1199.136492,-8142.265362,153.219100,-148.041188
1199.136803,-7550.100608,153.219100,-222.061783
1199.137114,-8438.347739,76.609550,-666.185348
1199.137426,-9400.615463,0.000000,-666.185348
1199.137737,-9548.656652,-689.485948,-444.123565
1199.138049,-9548.656652,-995.924147,-222.061783
1199.138360,-9474.636058,-842.705048,296.082377
1199.138672,-10066.800811,-842.705048,444.123565
1199.138983,-9844.739029,-536.266849,666.185348
1199.139295,-9474.636058,0.000000,1184.329507
1199.139606,-9474.636058,306.438199,962.267725
1199.139918,-9326.594869,919.314598,888.247130
1199.140229,-9252.574275,1072.533697,370.102971
1199.140540,-9178.553681,1685.410096,222.061783
1199.140852,-8808.450710,2068.457845,444.123565
1199.141163,-9030.512492,1455.581446,296.082377
1199.141475,-9770.718434,1149.143247,444.123565
1199.141786,-9548.656652,612.876398,666.185348
1199.142098,-9326.594869,76.609550,740.205942
1199.142409,-8660.409521,612.876398,740.205942
1199.142721,-8364.327145,842.705048,370.102971
1199.143032,-7920.203579,383.047749,592.164754
1199.143344,-7402.059420,-536.266849,666.185348
1199.143655,-7031.956449,-919.314598,740.205942
1199.143967,-7031.956449,-1302.362347,962.267725
1199.144278,-7772.162391,-1302.362347,962.267725
1199.144589,-8216.285956,-689.485948,1184.329507
1199.144901,-8068.244768,-536.266849,1036.288319
1199.145212,-9104.533087,229.828649,666.185348
1199.145524,-9844.739029,842.705048,296.082377
1199.145835,-8956.491898,1608.800546,888.247130
1199.146147,-9400.615463,1455.581446,888.247130
1199.146458,-9252.574275,1378.971896,962.267725
1199.146770,-9030.512492,919.314598,518.144159
1199.147081,-8586.388927,1378.971896,-222.061783
1199.147393,-7402.059420,842.705048,-222.061783
1199.147704,-8068.244768,-306.438199,-518.144159
1199.148015,-8808.450710,-612.876398,-0.000000
1199.148327,-9326.594869,-766.095498,-74.020594
1199.148638,-9548.656652,-1225.752797,444.123565
1199.148950,-10214.842000,-1149.143247,740.205942
1199.149261,-10288.862594,-919.314598,888.247130
1199.149573,-9474.636058,-459.657299,1110.308913
1199.149884,-9696.697840,-536.266849,888.247130
1199.150196,-8882.471304,-536.266849,1258.350101
1199.150507,-8734.430116,842.705048,444.123565
1199.150819,-9326.594869,536.266849,370.102971
1199.151130,-9252.574275,536.266849,518.144159
1199.151442,-9548.656652,459.657299,-0.000000
1199.151753,-9622.677246,995.924147,-0.000000
1199.152064,-9622.677246,76.609550,-0.000000
1199.152376,-9696.697840,-306.438199,370.102971
1199.152687,-9400.615463,306.438199,370.102971
1199.152999,-9622.677246,229.828649,444.123565
1199.153310,-8586.388927,0.000000,592.164754
1199.153622,-8142.265362,-536.266849,814.226536
1199.153933,-7624.121203,-995.924147,740.205942
1199.154245,-7550.100608,-1072.533697,518.144159
1199.154556,-7994.224174,-1532.190996,296.082377
1199.154868,-7254.018232,459.657299,-0.000000
1199.155179,-7772.162391,-383.047749,444.123565
1199.155490,-8882.471304,-995.924147,296.082377
1199.155802,-9474.636058,-536.266849,814.226536
1199.156113,-10214.842000,229.828649,592.164754
1199.156425,-9770.718434,1072.533697,962.267725
1199.156736,-9252.574275,1302.362347,740.205942
1199.157048,-8882.471304,1455.581446,-0.000000
1199.157359,-7772.162391,1225.752797,148.041188
1199.157671,-7105.977043,229.828649,-0.000000
1199.157982,-7402.059420,229.828649,-74.020594
1199.158294,-7772.162391,0.000000,-148.041188
1199.158605,-8216.285956,-766.095498,-0.000000
1199.158916,-8808.450710,-1762.019645,444.123565
1199.159228,-9918.759623,-2145.067394,666.185348
1199.159539,-9474.636058,-1608.800546,1036.288319
1199.159851,-9918.759623,-1915.238745,962.267725
1199.160162,-9918.759623,-1608.800546,1036.288319
1199.160474,-9992.780217,-536.266849,1258.350101
1199.160785,-9918.759623,-383.047749,1480.411884
1199.161097,-9474.636058,0.000000,1184.329507
1199.161408,-9252.574275,459.657299,1184.329507
1199.161720,-8956.491898,1608.800546,444.123565
1199.162031,-8882.471304,1608.800546,-370.102971
1199.162343,-8956.491898,2068.457845,-222.061783
1199.162654,-9030.512492,1608.800546,-0.000000
1199.162965,-9474.636058,919.314598,222.061783
1199.163277,-9622.677246,766.095498,296.082377
1199.163588,-9474.636058,536.266849,518.144159
1199.163900,-8882.471304,383.047749,666.185348
1199.164211,-7994.224174,-383.047749,666.185348
1199.164523,-8512.368333,-1762.019645,592.164754
1199.164834,-8290.306550,-995.924147,962.267725
1199.165146,-7994.224174,-1302.362347,814.226536
1199.165457,-8142.265362,-383.047749,444.123565
1199.165769,-8512.368333,-153.219100,740.205942
1199.166080,-8734.430116,-306.438199,888.247130
1199.166391,-9104.533087,229.828649,1184.329507
1199.166703,-9474.636058,995.924147,1184.329507
1199.167014,-9178.553681,1455.581446,1258.350101
1199.167326,-9474.636058,1378.971896,592.164754
1199.167637,-9104.533087,689.485948,666.185348
1199.167949,-8364.327145,1149.143247,-222.061783
1199.168260,-7772.162391,1378.971896,-444.123565
1199.168572,-7328.038826,995.924147,-444.123565
1199.168883,-7476.080014,76.609550,-592.164754
1199.169195,-8068.244768,-766.095498,-444.123565
1199.169506,-9030.512492,-689.485948,-518.144159
1199.169818,-9400.615463,-612.876398,-0.000000
1199.170129,-9474.636058,-842.705048,666.185348
1199.170440,-9622.677246,-995.924147,1110.308913
1199.170752,-9474.636058,-1072.533697,1258.350101
1199.171063,-9326.594869,-1378.971896,1184.329507
1199.171375,-9104.533087,-612.876398,1332.370696
1199.171686,-9030.512492,0.000000,1110.308913
1199.171998,-9326.594869,229.828649,666.185348
1199.172309,-9474.636058,459.657299,518.144159
1199.172621,-9992.780217,612.876398,-0.000000
1199.172932,-9770.718434,919.314598,-0.000000
1199.173244,-9770.718434,766.095498,296.082377
1199.173555,-9400.615463,229.828649,148.041188
1199.173866,-9326.594869,-383.047749,-0.000000
1199.174178,-8216.285956,0.000000,444.123565
1199.174489,-8068.244768,-306.438199,296.082377
1199.174801,-7772.162391,-1149.143247,1184.329507
1199.175112,-7624.121203,-1762.019645,1036.288319
1199.175424,-8142.265362,-2298.286494,814.226536
1199.175735,-7994.224174,-2374.896044,518.144159
1199.176047,-7846.182985,-1532.190996,444.123565
1199.176358,-8734.430116,-1455.581446,148.041188
1199.176670,-9252.574275,-1685.410096,592.164754
1199.176981,-10436.903782,-1072.533697,740.205942
1199.177293,-10214.842000,-153.219100,1332.370696
1199.177604,-10140.821405,689.485948,1406.391290
1199.177915,-9400.615463,459.657299,962.267725
1199.178227,-8142.265362,306.438199,222.061783
1199.178538,-7772.162391,459.657299,-296.082377
1199.178850,-7254.018232,689.485948,-888.247130
1199.179161,-7920.203579,306.438199,-888.247130
1199.179473,-9326.594869,612.876398,-370.102971
1199.179784,-9992.780217,-689.485948,-296.082377
1199.180096,-10584.944971,-536.266849,-0.000000
1199.180407,-10066.800811,-306.438199,370.102971
1199.180719,-9696.697840,-383.047749,740.205942
1199.181030,-9400.615463,-536.266849,666.185348
1199.181341,-8586.388927,-306.438199,814.226536
1199.181653,-8438.347739,306.438199,888.247130
1199.181964,-8364.327145,536.266849,962.267725
1199.182276,-8586.388927,689.485948,592.164754
1199.182587,-9030.512492,1149.143247,814.226536
1199.182899,-9400.615463,1455.581446,740.205942
1199.183210,-9474.636058,1762.019645,370.102971
1199.183522,-9696.697840,1762.019645,666.185348
1199.183833,-9474.636058,1149.143247,518.144159
1199.184145,-9178.553681,0.000000,888.247130
1199.184456,-9326.594869,-153.219100,444.123565
1199.184768,-8956.491898,306.438199,814.226536
1199.185079,-8586.388927,0.000000,888.247130
1199.185390,-7846.182985,-612.876398,888.247130
1199.185702,-7328.038826,-1762.019645,1110.308913
1199.186013,-6957.935855,-1762.019645,814.226536
1199.186325,-6957.935855,-1608.800546,740.205942
1199.186636,-7550.100608,-766.095498,444.123565
1199.186948,-8142.265362,-766.095498,592.164754
1199.187259,-9178.553681,-919.314598,814.226536
1199.187571,-9844.739029,0.000000,1406.391290
1199.187882,-9844.739029,689.485948,1406.391290
1199.188194,-9548.656652,1149.143247,1184.329507
1199.188505,-9252.574275,842.705048,518.144159
1199.188816,-8216.285956,689.485948,444.123565
1199.189128,-7624.121203,306.438199,-0.000000
1199.189439,-7179.997637,229.828649,-222.061783
1199.189751,-8364.327145,-153.219100,-296.082377
1199.190062,-9400.615463,-612.876398,-592.164754
1199.190374,-9844.739029,-995.924147,-518.144159
1199.190685,-9770.718434,-995.924147,-296.082377
1199.190997,-9474.636058,-766.095498,370.102971
1199.191308,-9474.636058,-1532.190996,592.164754
1199.191620,-9844.739029,-1149.143247,666.185348
1199.191931,-9548.656652,-383.047749,962.267725
1199.192243,-9474.636058,-383.047749,592.164754
1199.192554,-9252.574275,0.000000,814.226536
1199.192865,-9474.636058,306.438199,222.061783
1199.193177,-9400.615463,536.266849,-0.000000
1199.193488,-8882.471304,995.924147,-0.000000
1199.193800,-9400.615463,919.314598,-148.041188
1199.194111,-9992.780217,-536.266849,-0.000000
1199.194423,-10214.842000,0.000000,-0.000000
1199.194734,-10214.842000,153.219100,370.102971
1199.195046,-9918.759623,383.047749,444.123565
1199.195357,-9178.553681,0.000000,666.185348
1199.195669,-7624.121203,-919.314598,592.164754
1199.195980,-7105.977043,-1455.581446,740.205942
1199.196291,-7920.203579,-1455.581446,740.205942
1199.196603,-7105.977043,-1685.410096,962.267725
1199.196914,-7550.100608,-1149.143247,592.164754
1199.197226,-8068.244768,-1225.752797,666.185348
1199.197537,-8660.409521,-842.705048,592.164754
1199.197849,-9178.553681,-459.657299,740.205942
1199.198160,-9474.636058,536.266849,740.205942
1199.198472,-9474.636058,1685.410096,1110.308913
1199.198783,-8660.409521,1838.629195,1110.308913
1199.199095,-8438.347739,1838.629195,962.267725
1199.199406,-8142.265362,1072.533697,518.144159
1199.199718,-7402.059420,536.266849,-0.000000
1199.200029,-7254.018232,306.438199,-222.061783
1199.200340,-7476.080014,0.000000,-370.102971
1199.200652,-8734.430116,-153.219100,-0.000000
1199.200963,-9474.636058,-536.266849,222.061783
1199.201275,-9844.739029,-536.266849,518.144159
1199.201586,-9696.697840,-1608.800546,814.226536
1199.201898,-9844.739029,-1762.019645,1110.308913
1199.202209,-9474.636058,-536.266849,1036.288319
1199.202521,-9326.594869,0.000000,962.267725
1199.202832,-9474.636058,0.000000,666.185348
1199.203144,-9104.533087,459.657299,814.226536
1199.203455,-8956.491898,536.266849,1110.308913
1199.203766,-8956.491898,1072.533697,518.144159
1199.204078,-9326.594869,1149.143247,444.123565
1199.204389,-9400.615463,1072.533697,-0.000000
1199.204701,-9474.636058,536.266849,74.020594
1199.205012,-9474.636058,0.000000,222.061783
1199.205324,-9326.594869,306.438199,148.041188
1199.205635,-8882.471304,0.000000,296.082377
1199.205947,-8956.491898,-306.438199,296.082377
1199.206258,-7920.203579,-1302.362347,962.267725
1199.206570,-7920.203579,-1378.971896,1110.308913
1199.206881,-8216.285956,-1455.581446,1184.329507
1199.207193,-7772.162391,-1302.362347,592.164754
1199.207504,-7624.121203,-842.705048,296.082377
1199.207815,-7772.162391,-612.876398,-0.000000
1199.208127,-8660.409521,76.609550,-0.000000
1199.208438,-9474.636058,306.438199,518.144159
1199.208750,-9918.759623,995.924147,740.205942
1199.209061,-10066.800811,1455.581446,1332.370696
1199.209373,-9770.718434,1608.800546,1110.308913
1199.209684,-9400.615463,1532.190996,370.102971
1199.209996,-8068.244768,842.705048,-296.082377
1199.210307,-7698.141797,459.657299,-444.123565
1199.210619,-7550.100608,842.705048,-592.164754
1199.210930,-8512.368333,536.266849,-888.247130
1199.211241,-9400.615463,-383.047749,-444.123565
1199.211553,-9474.636058,-689.485948,-0.000000
1199.211864,-9548.656652,-1302.362347,666.185348
1199.212176,-9252.574275,-1225.752797,962.267725
1199.212487,-9178.553681,-1302.362347,740.205942
1199.212799,-8956.491898,-919.314598,1184.329507
1199.213110,-9400.615463,-766.095498,1184.329507
1199.213422,-8808.450710,306.438199,888.247130
1199.213733,-9326.594869,766.095498,518.144159
1199.214045,-9400.615463,919.314598,296.082377
1199.214356,-9400.615463,1302.362347,-0.000000
1199.214667,-9696.697840,1608.800546,-148.041188
1199.214979,-9178.553681,1455.581446,-74.020594
1199.215290,-9326.594869,1225.752797,-0.000000
1199.215602,-9326.594869,229.828649,518.144159
1199.215913,-8956.491898,229.828649,222.061783
1199.216225,-8142.265362,306.438199,888.247130
1199.216536,-7550.100608,0.000000,1184.329507
1199.216848,-7402.059420,-842.705048,1110.308913
1199.217159,-7624.121203,-1762.019645,1036.288319
1199.217471,-7476.080014,-1991.848295,888.247130
1199.217782,-7179.997637,-2604.724693,888.247130
1199.218094,-7624.121203,-1608.800546,1258.350101
1199.218405,-9178.553681,-2374.896044,1258.350101
1199.218716,-9400.615463,-1838.629195,1110.308913
1199.219028,-9622.677246,-689.485948,1258.350101
1199.219339,-10288.862594,0.000000,1258.350101
1199.219651,-10436.903782,459.657299,1184.329507
1199.219962,-9844.739029,1378.971896,1036.288319
1199.220274,-8808.450710,842.705048,444.123565
1199.220585,-7846.182985,383.047749,-222.061783
1199.220897,-7254.018232,459.657299,-0.000000
1199.221208,-7920.203579,229.828649,-518.144159
1199.221520,-8882.471304,-229.828649,-444.123565
1199.221831,-9548.656652,-612.876398,-518.144159
1199.222142,-9474.636058,-229.828649,-0.000000
1199.222454,-9548.656652,-919.314598,-0.000000
1199.222765,-9030.512492,-842.705048,444.123565
1199.223077,-9474.636058,-842.705048,1036.288319
1199.223388,-9474.636058,-1225.752797,1258.350101
1199.223700,-9400.615463,-766.095498,1480.411884
1199.224011,-9252.574275,-153.219100,1110.308913
1199.224323,-9030.512492,76.609550,592.164754
1199.224634,-8734.430116,919.314598,-0.000000
1199.224946,-9178.553681,1455.581446,-296.082377
1199.225257,-9548.656652,2221.676944,-296.082377
1199.225569,-9622.677246,1532.190996,148.041188
1199.225880,-9696.697840,919.314598,-0.000000
1199.226191,-9326.594869,689.485948,666.185348
1199.226503,-8512.368333,459.657299,592.164754
1199.226814,-8216.285956,536.266849,592.164754
1199.227126,-7698.141797,459.657299,592.164754
1199.227437,-7772.162391,-153.219100,666.185348
1199.227749,-7624.121203,-766.095498,518.144159
1199.228060,-7179.997637,-383.047749,1332.370696
1199.228372,-7476.080014,-536.266849,518.144159
1199.228683,-7772.162391,-612.876398,666.185348
1199.228995,-8068.244768,-766.095498,888.247130
1199.229306,-8808.450710,-459.657299,962.267725
1199.229617,-9474.636058,0.000000,1184.329507
1199.229929,-10066.800811,536.266849,1332.370696
1199.230240,-10362.883188,1915.238745,740.205942
1199.230552,-9474.636058,1225.752797,1036.288319
1199.230863,-8512.368333,842.705048,666.185348
1199.231175,-7476.080014,689.485948,-0.000000
1199.231486,-6957.935855,536.266849,-370.102971
1199.231798,-7328.038826,153.219100,-592.164754
1199.232109,-8586.388927,0.000000,-370.102971
1199.232421,-9622.677246,-536.266849,-370.102971
1199.232732,-9918.759623,-919.314598,222.061783
1199.233044,-9918.759623,-1225.752797,370.102971
1199.233355,-9992.780217,-995.924147,666.185348
1199.233666,-9696.697840,-689.485948,666.185348
1199.233978,-9770.718434,-612.876398,962.267725
1199.234289,-9400.615463,-689.485948,1110.308913
1199.234601,-9030.512492,-536.266849,518.144159
1199.234912,-8956.491898,536.266849,518.144159
1199.235224,-8808.450710,689.485948,370.102971
1199.235535,-9474.636058,459.657299,-0.000000
1199.235847,-9770.718434,383.047749,296.082377
1199.236158,-9474.636058,229.828649,296.082377
1199.236470,-9548.656652,-536.266849,592.164754
1199.236781,-9178.553681,-229.828649,1036.288319
1199.237092,-9252.574275,-383.047749,518.144159
1199.237404,-8882.471304,-459.657299,666.185348
1199.237715,-8290.306550,-995.924147,1110.308913
1199.238026,-8586.388927,-1532.190996,1036.288319
1199.238338,-7846.182985,-1378.971896,1110.308913
1199.238649,-7550.100608,-1608.800546,962.267725
1199.238960,-7698.141797,-1685.410096,444.123565
1199.239272,-7624.121203,-766.095498,370.102971
1199.239583,-7994.224174,-1149.143247,222.061783
1199.239894,-8808.450710,-383.047749,296.082377
1199.240205,-9622.677246,-536.266849,1332.370696
1199.240517,-9844.739029,689.485948,1332.370696
1199.240828,-9770.718434,1378.971896,962.267725
1199.241139,-9178.553681,1378.971896,814.226536
1199.241451,-7772.162391,1225.752797,370.102971
1199.241762,-7698.141797,842.705048,-518.144159
1199.242073,-6587.832884,1225.752797,444.123565
1199.242385,-7920.203579,995.924147,-740.205942
1199.242696,-9104.533087,0.000000,-518.144159
1199.243007,-9696.697840,-536.266849,-296.082377
1199.243319,-9918.759623,-689.485948,222.061783
1199.243630,-9400.615463,-842.705048,444.123565
1199.243941,-9474.636058,-689.485948,296.082377
1199.244252,-9474.636058,-689.485948,740.205942
1199.244564,-9696.697840,-612.876398,962.267725
1199.244875,-9252.574275,0.000000,740.205942
1199.245186,-9252.574275,229.828649,1036.288319
1199.245498,-9326.594869,459.657299,814.226536
1199.245809,-9252.574275,842.705048,740.205942
1199.246120,-9178.553681,995.924147,444.123565
1199.246432,-8808.450710,2068.457845,518.144159
1199.246743,-9178.553681,1455.581446,-0.000000
1199.247054,-8882.471304,1225.752797,592.164754
1199.247366,-8660.409521,76.609550,518.144159
1199.247677,-8882.471304,536.266849,370.102971
1199.247988,-8512.368333,459.657299,740.205942
1199.248299,-8142.265362,-383.047749,740.205942
1199.248611,-7772.162391,-766.095498,888.247130
1199.248922,-7624.121203,-1149.143247,740.205942
1199.249233,-7920.203579,-766.095498,592.164754
1199.249545,-8660.409521,-1685.410096,740.205942
1199.249856,-8512.368333,-612.876398,1110.308913
1199.250167,-8956.491898,-842.705048,1184.329507
1199.250479,-9400.615463,-995.924147,1332.370696
1199.250790,-9770.718434,-153.219100,1406.391290
1199.251101,-9400.615463,459.657299,1332.370696
1199.251413,-9104.533087,995.924147,1332.370696
1199.251724,-8586.388927,1455.581446,1036.288319
1199.252035,-8142.265362,612.876398,370.102971
1199.252347,-7994.224174,612.876398,-0.000000
1199.252658,-7698.141797,766.095498,-296.082377
1199.252969,-8216.285956,459.657299,-518.144159
1199.253280,-8808.450710,0.000000,-370.102971
1199.253592,-9548.656652,-459.657299,-222.061783
1199.253903,-9474.636058,-1302.362347,-0.000000
1199.254214,-9696.697840,-1762.019645,148.041188
1199.254526,-9474.636058,-995.924147,592.164754
1199.254837,-9474.636058,-612.876398,962.267725
1199.255148,-9548.656652,-842.705048,1184.329507
1199.255460,-9178.553681,-459.657299,1110.308913
1199.255771,-9030.512492,229.828649,888.247130
1199.256082,-9104.533087,536.266849,888.247130
1199.256394,-9104.533087,612.876398,296.082377
1199.256705,-9696.697840,536.266849,296.082377
1199.257016,-9474.636058,1378.971896,-0.000000
1199.257327,-9622.677246,536.266849,-74.020594
1199.257639,-9548.656652,76.609550,518.144159
1199.257950,-9474.636058,-229.828649,666.185348
1199.258261,-8956.491898,0.000000,592.164754
1199.258573,-7920.203579,383.047749,740.205942
1199.258884,-7179.997637,-306.438199,888.247130
1199.259195,-7402.059420,-1378.971896,518.144159
1199.259507,-7105.977043,-1302.362347,222.061783
1199.259818,-7402.059420,-1685.410096,222.061783
1199.260129,-7994.224174,-995.924147,370.102971
1199.260441,-8882.471304,-766.095498,222.061783
1199.260752,-9474.636058,-536.266849,592.164754
1199.261063,-9918.759623,-689.485948,1110.308913
1199.261375,-10362.883188,-153.219100,814.226536
1199.261686,-10510.924376,383.047749,1258.350101
1199.261997,-9474.636058,1225.752797,1332.370696
1199.262308,-8512.368333,995.924147,740.205942
1199.262620,-7994.224174,0.000000,148.041188
1199.262931,-7624.121203,0.000000,-0.000000
1199.263242,-7846.182985,0.000000,-296.082377
1199.263554,-8438.347739,229.828649,-1110.308913
1199.263865,-9252.574275,-612.876398,-296.082377
1199.264176,-9474.636058,-766.095498,-0.000000
1199.264488,-9844.739029,-1455.581446,-0.000000
1199.264799,-10066.800811,-1378.971896,814.226536
1199.265110,-9918.759623,-1225.752797,888.247130
1199.265422,-9252.574275,-459.657299,1036.288319
1199.265733,-8660.409521,0.000000,962.267725
1199.266044,-9030.512492,689.485948,592.164754
1199.266355,-8660.409521,383.047749,888.247130
1199.266667,-9178.553681,689.485948,222.061783
1199.266978,-9030.512492,1072.533697,444.123565
1199.267289,-9252.574275,1225.752797,222.061783
1199.267601,-9252.574275,995.924147,444.123565
1199.267912,-9622.677246,612.876398,296.082377
1199.268223,-9992.780217,306.438199,592.164754
1199.268535,-9326.594869,0.000000,518.144159
1199.268846,-9400.615463,383.047749,444.123565
1199.269157,-8808.450710,459.657299,888.247130
1199.269469,-7846.182985,-383.047749,1184.329507
1199.269780,-7105.977043,-1072.533697,518.144159
1199.270091,-6439.791695,-995.924147,740.205942
1199.270403,-6809.894666,-919.314598,666.185348
1199.270714,-7920.203579,-306.438199,666.185348
1199.271025,-8364.327145,-153.219100,1184.329507
1199.271336,-8512.368333,-153.219100,1258.350101
1199.271648,-9400.615463,-153.219100,1036.288319
1199.271959,-9474.636058,689.485948,1406.391290
1199.272270,-9548.656652,1302.362347,1258.350101
1199.272582,-9400.615463,1149.143247,962.267725
1199.272893,-8808.450710,766.095498,962.267725
1199.273204,-9178.553681,383.047749,-74.020594
1199.273516,-8142.265362,766.095498,370.102971
1199.273827,-7550.100608,536.266849,-148.041188
1199.274138,-8586.388927,-229.828649,-222.061783
1199.274450,-9326.594869,-766.095498,-222.061783
1199.274761,-9252.574275,-766.095498,-370.102971
1199.275072,-9252.574275,-1225.752797,296.082377
1199.275383,-9622.677246,-1149.143247,666.185348
1199.275695,-9622.677246,-689.485948,888.247130
1199.276006,-9622.677246,-1149.143247,1406.391290
1199.276317,-9400.615463,-306.438199,1110.308913
1199.276629,-9252.574275,76.609550,740.205942
1199.276940,-9104.533087,383.047749,518.144159
1199.277251,-8882.471304,459.657299,-0.000000
1199.277563,-9326.594869,459.657299,-74.020594
1199.277874,-9326.594869,919.314598,-296.082377
1199.278185,-9178.553681,919.314598,-148.041188
1199.278497,-9548.656652,536.266849,-666.185348
1199.278808,-9918.759623,229.828649,-74.020594
1199.279119,-9770.718434,0.000000,296.082377
1199.279430,-9326.594869,0.000000,888.247130
1199.279742,-9252.574275,-766.095498,962.267725
1199.280053,-8660.409521,-1072.533697,962.267725
1199.280364,-7994.224174,-1762.019645,962.267725
1199.280676,-7476.080014,-1838.629195,814.226536
1199.280987,-7179.997637,-2298.286494,296.082377
1199.281298,-7254.018232,-1455.581446,74.020594
1199.281610,-8068.244768,-995.924147,296.082377
1199.281921,-8660.409521,-766.095498,592.164754
1199.282232,-9548.656652,-306.438199,888.247130
1199.282544,-10288.862594,536.266849,1332.370696
1199.282855,-10140.821405,1455.581446,1480.411884
1199.283166,-8734.430116,1072.533697,1110.308913
1199.283478,-7920.203579,1685.410096,148.041188
1199.283789,-7550.100608,689.485948,-0.000000
1199.284100,-7254.018232,306.438199,-148.041188
1199.284411,-7994.224174,76.609550,-296.082377
1199.284723,-9104.533087,-229.828649,-0.000000
1199.285034,-10288.862594,-153.219100,-148.041188
1199.285345,-10140.821405,-306.438199,370.102971
1199.285657,-9696.697840,-689.485948,296.082377
1199.285968,-9400.615463,-1378.971896,148.041188
1199.286279,-9030.512492,-1378.971896,962.267725
1199.286591,-9178.553681,-306.438199,888.247130
1199.286902,-8882.471304,0.000000,1258.350101
1199.287213,-8956.491898,229.828649,1184.329507
1199.287525,-8734.430116,459.657299,1036.288319
1199.287836,-8438.347739,153.219100,888.247130
1199.288147,-9178.553681,766.095498,444.123565
1199.288458,-8956.491898,1455.581446,222.061783
1199.288770,-9474.636058,1302.362347,-0.000000
1199.289081,-9474.636058,536.266849,296.082377
1199.289392,-9474.636058,0.000000,370.102971
1199.289704,-9326.594869,0.000000,666.185348
1199.290015,-9252.574275,153.219100,814.226536
1199.290326,-8808.450710,-383.047749,962.267725
1199.290638,-8364.327145,-229.828649,592.164754
1199.290949,-8142.265362,-842.705048,888.247130
1199.291260,-7105.977043,-919.314598,888.247130
1199.291572,-7105.977043,-1149.143247,740.205942
1199.291883,-7550.100608,-1225.752797,666.185348
1199.292194,-8364.327145,-766.095498,888.247130
1199.292506,-9030.512492,-383.047749,740.205942
1199.292817,-9696.697840,0.000000,962.267725
1199.293128,-9622.677246,919.314598,1554.432478
1199.293439,-9918.759623,919.314598,1480.411884
1199.293751,-9104.533087,919.314598,1184.329507
1199.294062,-7994.224174,1149.143247,296.082377
1199.294373,-7698.141797,919.314598,-296.082377
1199.294685,-7476.080014,919.314598,-148.041188
1199.294996,-7920.203579,0.000000,-518.144159
1199.295307,-9030.512492,0.000000,-222.061783
1199.295619,-9622.677246,-459.657299,-0.000000
1199.295930,-10362.883188,-995.924147,-0.000000
1199.296241,-10066.800811,-1378.971896,592.164754
1199.296553,-9474.636058,-1455.581446,962.267725
1199.296864,-9178.553681,-995.924147,814.226536
1199.297175,-8808.450710,-995.924147,888.247130
1199.297486,-8882.471304,-689.485948,370.102971
1199.297798,-8882.471304,229.828649,222.061783
1199.298109,-8512.368333,612.876398,370.102971
1199.298420,-9178.553681,766.095498,296.082377
1199.298732,-9400.615463,689.485948,-0.000000
1199.299043,-9474.636058,995.924147,148.041188
1199.299354,-9622.677246,459.657299,222.061783
1199.299666,-9770.718434,76.609550,-0.000000
1199.299977,-9844.739029,0.000000,296.082377
1199.300288,-9844.739029,0.000000,296.082377
1199.300600,-8586.388927,0.000000,592.164754
1199.300911,-7698.141797,-689.485948,740.205942
1199.301222,-7698.141797,-995.924147,592.164754
1199.301534,-7254.018232,-1225.752797,740.205942
1199.301845,-7105.977043,-1608.800546,666.185348
1199.302156,-7624.121203,-1455.581446,814.226536
1199.302467,-8586.388927,-995.924147,740.205942
1199.302779,-9030.512492,-689.485948,814.226536
1199.303090,-9844.739029,0.000000,666.185348
1199.303401,-9992.780217,153.219100,1110.308913
1199.303713,-9696.697840,919.314598,1184.329507
1199.304024,-9252.574275,1378.971896,888.247130
1199.304335,-8660.409521,1532.190996,888.247130
1199.304647,-8142.265362,1225.752797,222.061783
1199.304958,-7772.162391,1072.533697,-0.000000
1199.305269,-7179.997637,995.924147,-518.144159
1199.305581,-7772.162391,612.876398,-962.267725
1199.305892,-8586.388927,76.609550,-518.144159
1199.306203,-9326.594869,-459.657299,-296.082377
1199.306514,-10066.800811,-1149.143247,444.123565
1199.306826,-10436.903782,-1838.629195,1332.370696
1199.307137,-10807.006753,-2068.457845,1702.473667
1199.307448,-10288.862594,-1149.143247,1406.391290
1199.307760,-9178.553681,-1072.533697,1184.329507
1199.308071,-8956.491898,-229.828649,592.164754
1199.308382,-8438.347739,0.000000,740.205942
1199.308694,-9104.533087,766.095498,296.082377
1199.309005,-9252.574275,1532.190996,296.082377
1199.309316,-9104.533087,1455.581446,-74.020594
1199.309628,-8956.491898,2145.067394,-0.000000
1199.309939,-9178.553681,1608.800546,-74.020594
1199.310250,-9030.512492,229.828649,370.102971
1199.310561,-8882.471304,536.266849,518.144159
1199.310873,-9178.553681,229.828649,814.226536
1199.311184,-9104.533087,0.000000,1110.308913
1199.311495,-8586.388927,-536.266849,1258.350101
1199.311807,-7994.224174,-1302.362347,666.185348
1199.312118,-7254.018232,-1225.752797,444.123565
1199.312429,-6883.915261,-689.485948,740.205942
1199.312741,-7254.018232,-383.047749,-0.000000
1199.313052,-8142.265362,-612.876398,592.164754
1199.313363,-8290.306550,-229.828649,740.205942
1199.313675,-9030.512492,0.000000,1110.308913
1199.313986,-9844.739029,383.047749,962.267725
1199.314297,-9474.636058,612.876398,1184.329507
1199.314609,-9918.759623,1072.533697,592.164754
1199.314920,-8882.471304,766.095498,962.267725
1199.315231,-8808.450710,153.219100,-0.000000
1199.315542,-8512.368333,153.219100,-148.041188
1199.315854,-7994.224174,-306.438199,-444.123565
1199.316165,-8364.327145,-306.438199,-518.144159
1199.316476,-8660.409521,-536.266849,-592.164754
1199.316788,-9030.512492,-689.485948,-296.082377
1199.317099,-9178.553681,-229.828649,-74.020594
1199.317410,-9178.553681,-1685.410096,296.082377
1199.317722,-9178.553681,-1225.752797,518.144159
1199.318033,-9474.636058,-995.924147,592.164754
1199.318344,-9918.759623,-1225.752797,740.205942
1199.318656,-9918.759623,-766.095498,962.267725
1199.318967,-9992.780217,0.000000,962.267725
1199.319278,-9548.656652,306.438199,592.164754
1199.319589,-10510.924376,383.047749,-148.041188
1199.319901,-10362.883188,459.657299,-0.000000
1199.320212,-9622.677246,919.314598,-74.020594
1199.320523,-9178.553681,612.876398,-0.000000
1199.320835,-9178.553681,229.828649,148.041188
1199.321146,-9252.574275,0.000000,518.144159
1199.321457,-8808.450710,0.000000,592.164754
1199.321769,-8068.244768,0.000000,666.185348
1199.322080,-7846.182985,-766.095498,814.226536
1199.322391,-7624.121203,-1455.581446,666.185348
1199.322703,-7254.018232,-1455.581446,592.164754
1199.323014,-7402.059420,-1302.362347,518.144159
1199.323325,-7846.182985,-1072.533697,740.205942
1199.323637,-8882.471304,-995.924147,666.185348
1199.323948,-9400.615463,-766.095498,1258.350101
1199.324259,-9474.636058,-536.266849,1258.350101
1199.324570,-9474.636058,153.219100,1480.411884
1199.324882,-9400.615463,689.485948,1406.391290
1199.325193,-9252.574275,766.095498,962.267725
1199.325504,-8216.285956,919.314598,814.226536
1199.325816,-8216.285956,459.657299,296.082377
1199.326127,-8216.285956,842.705048,-0.000000
1199.326438,-8142.265362,0.000000,-444.123565
1199.326750,-8364.327145,229.828649,-222.061783
1199.327061,-8882.471304,76.609550,-148.041188
1199.327372,-9326.594869,0.000000,148.041188
1199.327684,-9400.615463,-229.828649,518.144159
1199.327995,-9326.594869,-612.876398,1184.329507
1199.328306,-9474.636058,-689.485948,814.226536
1199.328617,-8734.430116,-383.047749,962.267725
1199.328929,-8438.347739,306.438199,888.247130
1199.329240,-8808.450710,-383.047749,1036.288319
1199.329551,-8882.471304,0.000000,814.226536
1199.329863,-9622.677246,459.657299,370.102971
1199.330174,-9474.636058,689.485948,296.082377
1199.330485,-9770.718434,919.314598,148.041188
1199.330797,-9696.697840,842.705048,296.082377
1199.331108,-9622.677246,842.705048,-148.041188
1199.331419,-9474.636058,306.438199,370.102971
1199.331731,-9104.533087,153.219100,296.082377
1199.332042,-8956.491898,689.485948,814.226536
1199.332353,-9104.533087,0.000000,666.185348
1199.332665,-8438.347739,-766.095498,740.205942
1199.332976,-8068.244768,-1378.971896,666.185348
1199.333287,-7476.080014,-1302.362347,814.226536
1199.333598,-7179.997637,-1455.581446,370.102971
1199.333910,-7254.018232,-1532.190996,370.102971
1199.334221,-8068.244768,-1225.752797,592.164754
1199.334532,-9474.636058,-1225.752797,444.123565
1199.334844,-9770.718434,-306.438199,1258.350101
1199.335155,-10288.862594,229.828649,1184.329507
1199.335466,-9622.677246,766.095498,1480.411884
1199.335778,-8956.491898,689.485948,666.185348
1199.336089,-8438.347739,229.828649,-0.000000
1199.336400,-7994.224174,459.657299,-592.164754
1199.336712,-7550.100608,229.828649,-444.123565
1199.337023,-8586.388927,766.095498,-444.123565
1199.337334,-9326.594869,0.000000,-148.041188
1199.337646,-9548.656652,-459.657299,-74.020594
1199.337957,-10066.800811,-1149.143247,222.061783
1199.338269,-9548.656652,-1072.533697,740.205942
1199.338580,-9104.533087,-1072.533697,296.082377
1199.338891,-9178.553681,-995.924147,-0.000000
1199.339203,-9178.553681,-229.828649,740.205942
1199.339514,-9400.615463,-459.657299,518.144159
1199.339826,-9178.553681,0.000000,592.164754
1199.340137,-9474.636058,306.438199,666.185348
1199.340448,-9622.677246,612.876398,444.123565
1199.340760,-9918.759623,766.095498,444.123565
1199.341071,-9696.697840,1072.533697,222.061783
1199.341382,-9622.677246,383.047749,222.061783
1199.341694,-9474.636058,306.438199,444.123565
1199.342005,-8882.471304,76.609550,888.247130
1199.342317,-9104.533087,383.047749,222.061783
1199.342628,-8734.430116,383.047749,666.185348
1199.342939,-8364.327145,76.609550,814.226536
1199.343251,-7846.182985,-536.266849,518.144159
1199.343562,-7179.997637,-1302.362347,296.082377
1199.343874,-7031.956449,-1838.629195,222.061783
1199.344185,-7105.977043,-1685.410096,-0.000000
1199.344496,-7846.182985,-1225.752797,296.082377
1199.344808,-8808.450710,-1072.533697,888.247130
1199.345119,-9326.594869,-766.095498,1480.411884
1199.345431,-9918.759623,-459.657299,1628.453072
1199.345742,-9548.656652,0.000000,1924.535449
1199.346053,-9548.656652,689.485948,1258.350101
1199.346365,-9104.533087,383.047749,370.102971
1199.346676,-7624.121203,612.876398,296.082377
1199.346988,-7846.182985,306.438199,-592.164754
1199.347299,-8068.244768,306.438199,-370.102971
1199.347610,-9030.512492,153.219100,-518.144159
1199.347922,-10140.821405,-306.438199,-74.020594
1199.348233,-10362.883188,0.000000,222.061783
1199.348544,-10436.903782,-383.047749,444.123565
1199.348856,-10214.842000,-842.705048,962.267725
1199.349167,-9770.718434,-1225.752797,1110.308913
1199.349479,-9474.636058,-1072.533697,1036.288319
1199.349790,-8808.450710,-459.657299,888.247130
1199.350101,-8586.388927,0.000000,740.205942
1199.350413,-8660.409521,0.000000,592.164754
1199.350724,-9030.512492,306.438199,222.061783
1199.351036,-9104.533087,1532.190996,222.061783
1199.351347,-8808.450710,1149.143247,-0.000000
1199.351658,-9400.615463,1302.362347,-0.000000
1199.351970,-9474.636058,1149.143247,370.102971
1199.352281,-9622.677246,459.657299,518.144159
1199.352593,-9252.574275,459.657299,962.267725
1199.352904,-9030.512492,689.485948,1110.308913
1199.353215,-9178.553681,459.657299,1036.288319
1199.353527,-8216.285956,0.000000,1258.350101
1199.353838,-7624.121203,-612.876398,666.185348
1199.354150,-7105.977043,-919.314598,592.164754
1199.354461,-6735.874072,-842.705048,74.020594
1199.354772,-7328.038826,-766.095498,-0.000000
1199.355084,-8142.265362,-689.485948,518.144159
1199.355395,-8734.430116,-1225.752797,666.185348
1199.355706,-9030.512492,-306.438199,1110.308913
1199.356018,-9548.656652,76.609550,1406.391290
1199.356329,-9918.759623,689.485948,1628.453072
1199.356641,-9326.594869,766.095498,1332.370696
1199.356952,-8290.306550,1149.143247,592.164754
1199.357263,-7846.182985,689.485948,-0.000000
1199.357575,-7550.100608,689.485948,-518.144159
1199.357886,-7772.162391,689.485948,-888.247130
1199.358198,-8142.265362,842.705048,-1110.308913
1199.358509,-9104.533087,0.000000,-370.102971
1199.358820,-9770.718434,-689.485948,-0.000000
1199.359132,-10066.800811,-995.924147,444.123565
1199.359443,-9992.780217,-1225.752797,1036.288319
1199.359755,-9252.574275,-1378.971896,1258.350101
1199.360066,-9474.636058,-1225.752797,1036.288319
1199.360377,-9474.636058,-766.095498,962.267725
1199.360689,-9400.615463,-459.657299,1258.350101
1199.361000,-9696.697840,919.314598,296.082377
1199.361312,-9252.574275,612.876398,666.185348
1199.361623,-9474.636058,919.314598,148.041188
1199.361934,-9770.718434,536.266849,-0.000000
1199.362246,-9252.574275,842.705048,-0.000000
1199.362557,-9178.553681,383.047749,-0.000000
1199.362868,-9548.656652,0.000000,444.123565
1199.363180,-9622.677246,0.000000,296.082377
1199.363491,-9030.512492,612.876398,444.123565
1199.363803,-8290.306550,76.609550,666.185348
1199.364114,-7920.203579,-536.266849,888.247130
1199.364425,-7846.182985,-1532.190996,666.185348
1199.364737,-7402.059420,-1532.190996,888.247130
1199.365048,-7105.977043,-1455.581446,592.164754
1199.365360,-7846.182985,-1455.581446,222.061783
1199.365671,-8660.409521,-1302.362347,740.205942
1199.365982,-8808.450710,-842.705048,666.185348
1199.366294,-9104.533087,-153.219100,1258.350101
1199.366605,-9474.636058,229.828649,1258.350101
1199.366917,-9622.677246,1225.752797,1480.411884
1199.367228,-9474.636058,1302.362347,1258.350101
1199.367539,-8512.368333,536.266849,1184.329507
1199.367851,-7994.224174,383.047749,296.082377
1199.368162,-7994.224174,306.438199,-0.000000
1199.368474,-8216.285956,459.657299,-444.123565
1199.368785,-8586.388927,0.000000,-592.164754
1199.369096,-9030.512492,0.000000,-370.102971
1199.369408,-9474.636058,-459.657299,-222.061783
1199.369719,-9918.759623,-689.485948,222.061783
1199.370030,-9622.677246,-1302.362347,962.267725
1199.370342,-9474.636058,0.000000,666.185348
1199.370653,-8290.306550,-536.266849,1110.308913
1199.370965,-8142.265362,-306.438199,814.226536
1199.371276,-8808.450710,-383.047749,962.267725
1199.371587,-9178.553681,0.000000,666.185348
1199.371899,-9770.718434,766.095498,592.164754
1199.372210,-10510.924376,1378.971896,222.061783
1199.372522,-10214.842000,1149.143247,296.082377
1199.372833,-9918.759623,1302.362347,222.061783
1199.373144,-9400.615463,1072.533697,296.082377
1199.373456,-9178.553681,459.657299,592.164754
1199.373767,-8586.388927,536.266849,518.144159
1199.374079,-8364.327145,153.219100,814.226536
1199.374390,-8438.347739,459.657299,814.226536
1199.374701,-7920.203579,0.000000,814.226536
1199.375013,-8068.244768,-766.095498,518.144159
1199.375324,-7698.141797,-1302.362347,666.185348
1199.375636,-7772.162391,-1378.971896,296.082377
1199.375947,-8068.244768,-1608.800546,592.164754
1199.376258,-8808.450710,-1378.971896,814.226536
1199.376570,-9252.574275,-1378.971896,962.267725
1199.376881,-9252.574275,-536.266849,1406.391290
1199.377192,-9992.780217,0.000000,962.267725
1199.377504,-9252.574275,1225.752797,1702.473667
1199.377815,-8808.450710,1072.533697,962.267725
1199.378127,-8068.244768,383.047749,888.247130
1199.378438,-8068.244768,612.876398,-0.000000
1199.378749,-8068.244768,842.705048,-370.102971
1199.379061,-8364.327145,612.876398,-592.164754
1199.379372,-8956.491898,0.000000,-370.102971
1199.379684,-9474.636058,-76.609550,-370.102971
1199.379995,-10140.821405,-536.266849,-296.082377
1199.380306,-9622.677246,-1302.362347,148.041188
1199.380618,-8956.491898,-1225.752797,962.267725
1199.380929,-9252.574275,-689.485948,814.226536
1199.381241,-9178.553681,-536.266849,1036.288319
1199.381552,-8956.491898,-229.828649,518.144159
1199.381863,-8586.388927,0.000000,222.061783
1199.382175,-8734.430116,383.047749,222.061783
1199.382486,-9030.512492,842.705048,592.164754
1199.382798,-9548.656652,919.314598,-0.000000
1199.383109,-9992.780217,842.705048,148.041188
1199.383420,-9918.759623,612.876398,370.102971
1199.383732,-10140.821405,76.609550,-0.000000
1199.384043,-9770.718434,0.000000,518.144159
1199.384354,-9622.677246,536.266849,296.082377
1199.384666,-9104.533087,0.000000,666.185348
1199.384977,-7994.224174,689.485948,370.102971
1199.385289,-7846.182985,-995.924147,444.123565
1199.385600,-7624.121203,-1378.971896,518.144159
1199.385911,-7328.038826,-1455.581446,592.164754
1199.386223,-7254.018232,-1149.143247,370.102971
1199.386534,-7772.162391,-1072.533697,370.102971
1199.386846,-8882.471304,-1532.190996,962.267725
1199.387157,-9252.574275,-995.924147,1258.350101
1199.387468,-9770.718434,-306.438199,1850.514855
1199.387780,-9992.780217,76.609550,1628.453072
1199.388091,-9548.656652,536.266849,1554.432478
1199.388403,-8808.450710,766.095498,962.267725
1199.388714,-7402.059420,919.314598,222.061783
1199.389025,-8364.327145,536.266849,-518.144159
1199.389337,-7402.059420,766.095498,-592.164754
1199.389648,-8290.306550,995.924147,-814.226536
1199.389960,-9104.533087,-536.266849,-444.123565
1199.390271,-9844.739029,-459.657299,-74.020594
1199.390582,-10288.862594,-995.924147,592.164754
1199.390894,-9918.759623,-1762.019645,1184.329507
1199.391205,-9474.636058,-2068.457845,1554.432478
1199.391516,-9104.533087,-1378.971896,1036.288319
1199.391828,-9030.512492,-766.095498,962.267725
1199.392139,-8438.347739,-383.047749,740.205942
1199.392451,-8512.368333,-689.485948,296.082377
1199.392762,-9178.553681,459.657299,370.102971
1199.393073,-9474.636058,689.485948,-0.000000
1199.393385,-9992.780217,995.924147,-148.041188
1199.393696,-10066.800811,1378.971896,-74.020594
1199.394008,-9622.677246,1762.019645,-148.041188
1199.394319,-8882.471304,459.657299,222.061783
1199.394630,-8956.491898,0.000000,222.061783
1199.394942,-9030.512492,0.000000,592.164754
1199.395253,-9178.553681,153.219100,1258.350101
1199.395565,-8956.491898,-383.047749,1110.308913
1199.395876,-8068.244768,-995.924147,962.267725
1199.396187,-7476.080014,-1072.533697,518.144159
1199.396499,-6883.915261,-1608.800546,666.185348
1199.396810,-7031.956449,-766.095498,592.164754
1199.397122,-7994.224174,-995.924147,-0.000000
1199.397433,-8512.368333,-612.876398,296.082377
1199.397744,-9252.574275,-612.876398,740.205942
1199.398056,-9696.697840,0.000000,1184.329507
1199.398367,-9992.780217,689.485948,1332.370696
1199.398678,-9622.677246,1149.143247,1332.370696
1199.398990,-8808.450710,919.314598,518.144159
1199.399301,-7994.224174,919.314598,-0.000000
1199.399613,-8290.306550,919.314598,-888.247130
1199.399924,-8438.347739,842.705048,-666.185348
1199.400235,-8808.450710,612.876398,-592.164754
1199.400547,-9548.656652,153.219100,-518.144159
1199.400858,-9400.615463,-153.219100,-148.041188
1199.401170,-9326.594869,-536.266849,-74.020594
1199.401481,-9104.533087,-995.924147,518.144159
1199.401792,-9030.512492,-842.705048,592.164754
1199.402104,-9030.512492,-383.047749,888.247130
1199.402415,-9030.512492,-689.485948,1258.350101
1199.402727,-9178.553681,-689.485948,1036.288319
1199.403038,-9400.615463,-76.609550,666.185348
1199.403349,-9252.574275,306.438199,740.205942
1199.403661,-9770.718434,842.705048,-0.000000
1199.403972,-9548.656652,383.047749,370.102971
1199.404284,-9548.656652,1838.629195,222.061783
1199.404595,-9918.759623,1072.533697,-0.000000
1199.404906,-9474.636058,612.876398,518.144159
1199.405218,-8956.491898,306.438199,592.164754
1199.405529,-8512.368333,153.219100,814.226536
1199.405840,-7550.100608,459.657299,1110.308913
1199.406152,-7328.038826,0.000000,888.247130
1199.406463,-7698.141797,-1532.190996,592.164754
1199.406775,-7402.059420,-1225.752797,666.185348
1199.407086,-7328.038826,-1608.800546,740.205942
1199.407397,-8068.244768,-1149.143247,370.102971
1199.407709,-8512.368333,-995.924147,444.123565
1199.408020,-9326.594869,-995.924147,518.144159
1199.408332,-9474.636058,-842.705048,1110.308913
1199.408643,-9400.615463,-229.828649,1332.370696
1199.408954,-10214.842000,0.000000,814.226536
1199.409266,-9548.656652,995.924147,1258.350101
1199.409577,-9178.553681,1072.533697,814.226536
1199.409889,-8068.244768,306.438199,-0.000000
1199.410200,-7698.141797,536.266849,-296.082377
1199.410511,-7698.141797,229.828649,-740.205942
1199.410823,-8364.327145,612.876398,-1258.350101
1199.411134,-8734.430116,0.000000,-740.205942
1199.411446,-8956.491898,-536.266849,-0.000000
1199.411757,-10658.965565,-842.705048,-222.061783
1199.412068,-9992.780217,-995.924147,1036.288319
1199.412380,-9844.739029,-1072.533697,1184.329507
1199.412691,-9474.636058,-842.705048,888.247130
1199.413002,-8734.430116,0.000000,666.185348
1199.413314,-8660.409521,0.000000,370.102971
1199.413625,-9326.594869,306.438199,296.082377
1199.413937,-9622.677246,459.657299,222.061783
1199.414248,-10066.800811,1149.143247,-0.000000
1199.414559,-10140.821405,1378.971896,222.061783
1199.414871,-9696.697840,1302.362347,222.061783
1199.415182,-9326.594869,689.485948,148.041188
1199.415494,-8956.491898,306.438199,296.082377
1199.415805,-8882.471304,229.828649,740.205942
1199.416116,-8068.244768,459.657299,518.144159
1199.416428,-8216.285956,383.047749,1184.329507
1199.416739,-8216.285956,-383.047749,1258.350101
1199.417051,-8068.244768,-1225.752797,814.226536
1199.417362,-7476.080014,-1072.533697,740.205942
1199.417673,-7179.997637,-842.705048,592.164754
1199.417985,-7920.203579,-1378.971896,148.041188
1199.418296,-7846.182985,-459.657299,518.144159
1199.418608,-8216.285956,-842.705048,518.144159
1199.418919,-9474.636058,-995.924147,888.247130
1199.419230,-9622.677246,-153.219100,1480.411884
1199.419542,-9622.677246,536.266849,1184.329507
1199.419853,-9474.636058,689.485948,1406.391290
1199.420164,-8808.450710,766.095498,740.205942
1199.420476,-8660.409521,919.314598,222.061783
1199.420787,-7994.224174,612.876398,-222.061783
1199.421099,-8068.244768,842.705048,-518.144159
1199.421410,-8438.347739,229.828649,-296.082377
1199.421721,-9104.533087,0.000000,-0.000000
1199.422033,-9474.636058,-383.047749,518.144159
1199.422344,-9622.677246,-919.314598,1036.288319
1199.422656,-9474.636058,-766.095498,1480.411884
1199.422967,-9474.636058,-1378.971896,814.226536
1199.423278,-8808.450710,76.609550,518.144159
1199.423590,-9030.512492,0.000000,740.205942
1199.423901,-8734.430116,-153.219100,740.205942
1199.424213,-9474.636058,153.219100,370.102971
1199.424524,-9548.656652,459.657299,592.164754
1199.424835,-10066.800811,612.876398,518.144159
1199.425147,-10288.862594,229.828649,888.247130
1199.425458,-9770.718434,919.314598,592.164754
1199.425770,-9548.656652,-153.219100,444.123565
1199.426081,-8660.409521,-383.047749,888.247130
1199.426392,-8438.347739,383.047749,592.164754
1199.426704,-8364.327145,306.438199,666.185348
1199.427015,-7994.224174,76.609550,740.205942
1199.427326,-8142.265362,-766.095498,814.226536
1199.427638,-7698.141797,-1455.581446,666.185348
1199.427949,-7328.038826,-766.095498,740.205942
1199.428261,-7846.182985,-842.705048,222.061783
1199.428572,-7772.162391,-689.485948,444.123565
1199.428883,-8438.347739,-612.876398,222.061783
1199.429195,-9104.533087,-536.266849,666.185348
1199.429506,-9326.594869,0.000000,1110.308913
1199.429818,-9844.739029,459.657299,1332.370696
1199.430129,-9622.677246,1302.362347,1332.370696
1199.430440,-8956.491898,1225.752797,518.144159
1199.430752,-7994.224174,536.266849,370.102971
1199.431063,-7994.224174,536.266849,-518.144159
1199.431375,-7772.162391,536.266849,-370.102971
1199.431686,-8290.306550,459.657299,-962.267725
1199.431997,-8882.471304,0.000000,-814.226536
1199.432309,-9770.718434,-306.438199,-296.082377
1199.432620,-9844.739029,-612.876398,592.164754
1199.432932,-9992.780217,-919.314598,740.205942
1199.433243,-9992.780217,-1455.581446,1480.411884
1199.433554,-10362.883188,-1302.362347,962.267725
1199.433866,-9326.594869,-612.876398,962.267725
1199.434177,-8734.430116,0.000000,666.185348
1199.434489,-8882.471304,-306.438199,518.144159
1199.434800,-9178.553681,-229.828649,222.061783
1199.435111,-9548.656652,306.438199,-296.082377
1199.435423,-9770.718434,1225.752797,-0.000000
1199.435734,-9918.759623,1302.362347,-0.000000
1199.436045,-9548.656652,1149.143247,-0.000000
1199.436357,-9474.636058,76.609550,370.102971
1199.436668,-8956.491898,0.000000,888.247130
1199.436980,-8660.409521,76.609550,962.267725
1199.437291,-8586.388927,689.485948,1184.329507
1199.437602,-8216.285956,153.219100,1110.308913
1199.437914,-7846.182985,-459.657299,1332.370696
1199.438225,-7105.977043,-1302.362347,1554.432478
1199.438537,-6957.935855,-1149.143247,888.247130
1199.438848,-7328.038826,-1225.752797,518.144159
1199.439159,-8216.285956,-1072.533697,444.123565
1199.439471,-8734.430116,-689.485948,666.185348
1199.439782,-9252.574275,-612.876398,814.226536
1199.440094,-9770.718434,0.000000,1258.350101
1199.440405,-9622.677246,383.047749,1258.350101
1199.440717,-9474.636058,919.314598,1554.432478
1199.441028,-8586.388927,995.924147,962.267725
1199.441340,-7920.203579,536.266849,518.144159
1199.441651,-7772.162391,766.095498,-296.082377
1199.441963,-7994.224174,459.657299,-370.102971
1199.442274,-8438.347739,76.609550,-666.185348
1199.442586,-8956.491898,689.485948,-444.123565
1199.442897,-9400.615463,229.828649,-222.061783
1199.443208,-10066.800811,-919.314598,-222.061783
1199.443520,-9918.759623,-919.314598,444.123565
1199.443831,-9474.636058,-995.924147,962.267725
1199.444143,-9400.615463,-459.657299,666.185348
1199.444454,-9030.512492,-306.438199,740.205942
1199.444766,-8586.388927,459.657299,592.164754
1199.445077,-8882.471304,-153.219100,444.123565
1199.445389,-8586.388927,76.609550,296.082377
1199.445700,-8808.450710,229.828649,-0.000000
1199.446012,-9622.677246,306.438199,-0.000000
1199.446323,-9548.656652,459.657299,444.123565
1199.446635,-10140.821405,0.000000,222.061783
1199.446946,-9992.780217,-536.266849,444.123565
1199.447258,-9400.615463,-383.047749,592.164754
1199.447569,-9178.553681,306.438199,1184.329507
1199.447880,-8438.347739,0.000000,814.226536
1199.448192,-8290.306550,-536.266849,666.185348
1199.448503,-7846.182985,-1302.362347,592.164754
1199.448815,-7920.203579,-1455.581446,518.144159
1199.449126,-7698.141797,-1225.752797,444.123565
1199.449438,-8068.244768,-1072.533697,-0.000000
1199.449749,-8364.327145,-995.924147,444.123565
1199.450061,-9252.574275,-1072.533697,444.123565
1199.450372,-9252.574275,-766.095498,592.164754
1199.450684,-9696.697840,-459.657299,1332.370696
1199.450995,-9622.677246,-153.219100,1628.453072
1199.451307,-9178.553681,0.000000,1406.391290
1199.451618,-8512.368333,153.219100,1332.370696
1199.451930,-7772.162391,536.266849,1110.308913
1199.452241,-8216.285956,153.219100,-148.041188
1199.452553,-7476.080014,612.876398,148.041188
1199.452864,-8068.244768,536.266849,-518.144159
1199.453175,-9030.512492,229.828649,-222.061783
1199.453487,-9030.512492,0.000000,-0.000000
1199.453798,-9622.677246,-842.705048,370.102971
1199.454110,-9622.677246,-612.876398,1184.329507
1199.454421,-9548.656652,-689.485948,1702.473667
1199.454733,-9770.718434,-919.314598,740.205942
1199.455044,-9474.636058,459.657299,888.247130
1199.455356,-8438.347739,1072.533697,1036.288319
1199.455667,-8512.368333,536.266849,592.164754
1199.455979,-8882.471304,612.876398,296.082377
1199.456290,-9326.594869,1149.143247,370.102971
1199.456602,-9474.636058,1608.800546,592.164754
1199.456913,-9474.636058,1608.800546,592.164754
1199.457225,-9548.656652,919.314598,518.144159
1199.457536,-9474.636058,383.047749,370.102971
1199.457847,-8586.388927,76.609550,962.267725
1199.458159,-8290.306550,383.047749,592.164754
1199.458470,-8734.430116,536.266849,666.185348
1199.458782,-8660.409521,0.000000,1036.288319
1199.459093,-8734.430116,-612.876398,666.185348
1199.459405,-7476.080014,-766.095498,888.247130
1199.459716,-7994.224174,-612.876398,296.082377
1199.460028,-8290.306550,-536.266849,-0.000000
1199.460339,-8142.265362,-612.876398,444.123565
1199.460651,-8512.368333,-459.657299,444.123565
1199.460962,-8956.491898,0.000000,444.123565
1199.461274,-9178.553681,229.828649,1110.308913
1199.461585,-9548.656652,306.438199,1258.350101
1199.461897,-9030.512492,536.266849,814.226536
1199.462208,-8068.244768,1072.533697,814.226536
1199.462520,-8068.244768,536.266849,-148.041188
1199.462831,-7846.182985,306.438199,-74.020594
1199.463142,-8216.285956,306.438199,-666.185348
1199.463454,-8882.471304,0.000000,-370.102971
1199.463765,-9474.636058,-76.609550,-222.061783
1199.464077,-10288.862594,-612.876398,-148.041188
1199.464388,-10362.883188,-153.219100,-74.020594
1199.464700,-9918.759623,-842.705048,740.205942
1199.465011,-9548.656652,-1302.362347,814.226536
1199.465323,-9770.718434,-1225.752797,814.226536
1199.465634,-9474.636058,-919.314598,888.247130
1199.465946,-9104.533087,-612.876398,888.247130
1199.466257,-9400.615463,-306.438199,666.185348
1199.466569,-9474.636058,-306.438199,370.102971
1199.466880,-8956.491898,306.438199,-0.000000
1199.467192,-9252.574275,1149.143247,-296.082377
1199.467503,-9178.553681,842.705048,-0.000000
1199.467814,-9474.636058,306.438199,-0.000000
1199.468126,-9474.636058,0.000000,518.144159
1199.468437,-9252.574275,0.000000,962.267725
1199.468749,-9474.636058,0.000000,666.185348
1199.469060,-8734.430116,76.609550,962.267725
1199.469372,-8438.347739,-383.047749,296.082377
1199.469683,-8068.244768,-1378.971896,-0.000000
1199.469995,-7476.080014,-1072.533697,296.082377
1199.470306,-7328.038826,-1149.143247,740.205942
1199.470618,-7846.182985,-995.924147,370.102971
1199.470929,-8586.388927,-995.924147,888.247130
1199.471241,-8882.471304,-612.876398,666.185348
1199.471552,-9030.512492,536.266849,1332.370696
1199.471864,-9326.594869,919.314598,592.164754
1199.472175,-9326.594869,1072.533697,814.226536
1199.472487,-8956.491898,995.924147,1036.288319
1199.472798,-8512.368333,919.314598,962.267725
1199.473109,-8142.265362,306.438199,370.102971
1199.473421,-7772.162391,306.438199,-0.000000
1199.473732,-7179.997637,229.828649,-296.082377
1199.474044,-8882.471304,76.609550,-888.247130
1199.474355,-8586.388927,-306.438199,-518.144159
1199.474667,-9696.697840,-536.266849,-74.020594
1199.474978,-10066.800811,-919.314598,518.144159
1199.475290,-10362.883188,-1072.533697,1184.329507
1199.475601,-10140.821405,-1532.190996,1258.350101
1199.475913,-9474.636058,-1302.362347,740.205942
1199.476224,-8660.409521,-383.047749,740.205942
1199.476536,-8438.347739,0.000000,666.185348
1199.476847,-8734.430116,-383.047749,666.185348
1199.477159,-9326.594869,306.438199,666.185348
1199.477470,-9770.718434,1225.752797,666.185348
1199.477781,-9474.636058,1991.848295,518.144159
1199.478093,-9178.553681,1608.800546,370.102971
1199.478404,-9104.533087,1072.533697,-0.000000
1199.478716,-9474.636058,229.828649,-222.061783
1199.479027,-9104.533087,1149.143247,-296.082377
1199.479339,-8438.347739,995.924147,-0.000000
1199.479650,-9104.533087,229.828649,370.102971
1199.479962,-9104.533087,-689.485948,814.226536
1199.480273,-9030.512492,-1149.143247,962.267725
1199.480585,-7920.203579,-1302.362347,1332.370696
1199.480896,-7476.080014,-1149.143247,888.247130
1199.481208,-7772.162391,-689.485948,1258.350101
1199.481519,-7920.203579,-1455.581446,962.267725
1199.481831,-8142.265362,-919.314598,592.164754
1199.482142,-8068.244768,0.000000,1406.391290
1199.482454,-9178.553681,766.095498,1110.308913
1199.482765,-9548.656652,1072.533697,888.247130
1199.483076,-9252.574275,1302.362347,666.185348
1199.483388,-9030.512492,1302.362347,740.205942
1199.483699,-8512.368333,842.705048,-0.000000
1199.484011,-8364.327145,919.314598,-370.102971
1199.484322,-8512.368333,229.828649,-518.144159
1199.484634,-8882.471304,0.000000,-444.123565
1199.484945,-8956.491898,76.609550,-0.000000
1199.485257,-9622.677246,-306.438199,-0.000000
1199.485568,-9696.697840,-919.314598,888.247130
1199.485880,-9252.574275,-1072.533697,962.267725
1199.486191,-8808.450710,-1072.533697,1332.370696
1199.486503,-8734.430116,-1302.362347,592.164754
1199.486814,-8512.368333,-919.314598,962.267725
1199.487126,-9252.574275,-689.485948,740.205942
1199.487437,-9622.677246,-306.438199,518.144159
1199.487748,-9770.718434,76.609550,148.041188
1199.488060,-10436.903782,689.485948,148.041188
1199.488371,-10214.842000,995.924147,370.102971
1199.488683,-10066.800811,919.314598,-0.000000
1199.488994,-9696.697840,383.047749,148.041188
1199.489306,-9104.533087,459.657299,296.082377
1199.489617,-8808.450710,689.485948,370.102971
1199.489929,-8142.265362,459.657299,740.205942
1199.490240,-7698.141797,0.000000,444.123565
1199.490552,-7698.141797,-1149.143247,370.102971
1199.490863,-7624.121203,-1302.362347,666.185348
1199.491175,-7105.977043,-1149.143247,666.185348
1199.491486,-7550.100608,-2145.067394,444.123565
1199.491798,-8068.244768,-2374.896044,740.205942
1199.492109,-8734.430116,-1915.238745,888.247130
1199.492421,-9474.636058,-1378.971896,1110.308913
1199.492732,-9622.677246,-612.876398,1480.411884
1199.493043,-9474.636058,76.609550,1332.370696
1199.493355,-9252.574275,689.485948,1258.350101
1199.493666,-8660.409521,995.924147,740.205942
1199.493978,-7846.182985,919.314598,-0.000000
1199.494289,-7698.141797,612.876398,-0.000000
1199.494601,-7846.182985,612.876398,-296.082377
1199.494912,-8512.368333,536.266849,-518.144159
1199.495224,-9400.615463,0.000000,-370.102971
1199.495535,-9992.780217,0.000000,-0.000000
1199.495847,-9992.780217,-842.705048,370.102971
1199.496158,-9844.739029,-995.924147,592.164754
1199.496470,-9548.656652,-1532.190996,814.226536
1199.496781,-9400.615463,-1072.533697,814.226536
1199.497093,-8956.491898,-383.047749,962.267725
1199.497404,-8512.368333,0.000000,814.226536
1199.497715,-8290.306550,229.828649,740.205942
1199.498027,-8734.430116,995.924147,-0.000000
1199.498338,-9104.533087,0.000000,518.144159
1199.498650,-8882.471304,1072.533697,592.164754
1199.498961,-9918.759623,1072.533697,444.123565
1199.499273,-9770.718434,689.485948,666.185348
1199.499584,-10066.800811,76.609550,222.061783
1199.499896,-9474.636058,536.266849,740.205942
1199.500207,-8512.368333,612.876398,740.205942
1199.500519,-8586.388927,689.485948,444.123565
1199.500830,-8068.244768,0.000000,1036.288319
1199.501142,-7920.203579,-919.314598,666.185348
1199.501453,-7476.080014,-995.924147,814.226536
1199.501765,-7105.977043,-1072.533697,814.226536
1199.502076,-7476.080014,-1302.362347,592.164754
1199.502388,-7772.162391,-1072.533697,518.144159
1199.502699,-7772.162391,-689.485948,962.267725
1199.503010,-8734.430116,-612.876398,962.267725
1199.503322,-9252.574275,0.000000,1110.308913
1199.503633,-10140.821405,459.657299,1110.308913
1199.503945,-9844.739029,1072.533697,1184.329507
1199.504256,-8882.471304,1378.971896,814.226536
1199.504568,-8586.388927,1455.581446,222.061783
1199.504879,-8290.306550,1072.533697,-370.102971
1199.505191,-7698.141797,1608.800546,-666.185348
1199.505502,-8142.265362,689.485948,-740.205942
1199.505814,-8808.450710,0.000000,-592.164754
1199.506125,-9326.594869,-536.266849,-0.000000
1199.506437,-10140.821405,-1149.143247,296.082377
1199.506748,-10140.821405,-1302.362347,888.247130
1199.507060,-9696.697840,-1302.362347,1332.370696
1199.507371,-9622.677246,-995.924147,888.247130
1199.507682,-9326.594869,-612.876398,962.267725
1199.507994,-8882.471304,0.000000,592.164754
1199.508305,-8660.409521,-306.438199,592.164754
1199.508617,-9030.512492,459.657299,-0.000000
1199.508928,-9252.574275,766.095498,-0.000000
1199.509240,-9548.656652,766.095498,148.041188
1199.509551,-9474.636058,689.485948,444.123565
1199.509863,-9844.739029,76.609550,222.061783
1199.510174,-10140.821405,0.000000,518.144159
1199.510486,-9326.594869,0.000000,1332.370696
1199.510797,-8734.430116,0.000000,592.164754
1199.511109,-8216.285956,0.000000,740.205942
1199.511420,-8068.244768,-689.485948,592.164754
1199.511732,-7698.141797,-1225.752797,740.205942
1199.512043,-7772.162391,-1149.143247,666.185348
1199.512355,-7476.080014,-919.314598,740.205942
1199.512666,-7254.018232,-1302.362347,370.102971
1199.512977,-8438.347739,-689.485948,-296.082377
1199.513289,-8364.327145,0.000000,518.144159
1199.513600,-9030.512492,0.000000,740.205942
1199.513912,-9178.553681,229.828649,1332.370696
1199.514223,-9622.677246,689.485948,1332.370696
1199.514535,-9474.636058,842.705048,1184.329507
1199.514846,-8734.430116,689.485948,1184.329507
1199.515158,-7994.224174,306.438199,444.123565
1199.515469,-7920.203579,0.000000,-370.102971
1199.515781,-7550.100608,459.657299,-444.123565
1199.516092,-8364.327145,0.000000,-666.185348
1199.516404,-9104.533087,0.000000,-444.123565
1199.516715,-9474.636058,-536.266849,74.020594
1199.517027,-9918.759623,-1302.362347,814.226536
1199.517338,-10288.862594,-1685.410096,1184.329507
1199.517649,-9844.739029,-2374.896044,1332.370696
1199.517961,-8734.430116,-1225.752797,1184.329507
1199.518272,-8660.409521,-766.095498,888.247130
1199.518584,-8808.450710,-306.438199,740.205942
1199.518895,-9252.574275,153.219100,592.164754
1199.519207,-9474.636058,689.485948,444.123565
1199.519518,-9770.718434,1378.971896,666.185348
1199.519830,-9844.739029,1378.971896,148.041188
1199.520141,-9548.656652,1685.410096,222.061783
1199.520453,-9326.594869,689.485948,-74.020594
1199.520764,-8882.471304,689.485948,-0.000000
1199.521076,-8364.327145,689.485948,222.061783
1199.521387,-8364.327145,612.876398,518.144159
1199.521699,-8364.327145,0.000000,962.267725
1199.522010,-8216.285956,-536.266849,1480.411884
1199.522322,-8216.285956,-1149.143247,1184.329507
1199.522633,-7698.141797,-383.047749,1628.453072
1199.522944,-7772.162391,-1302.362347,1110.308913
1199.523256,-7994.224174,-1532.190996,518.144159
1199.523567,-8290.306550,-1072.533697,666.185348
1199.523879,-8586.388927,-383.047749,518.144159
1199.524190,-9030.512492,-229.828649,888.247130
1199.524502,-9474.636058,0.000000,1036.288319
1199.524813,-9622.677246,459.657299,962.267725
1199.525125,-9178.553681,1072.533697,962.267725
1199.525436,-7846.182985,1378.971896,666.185348
1199.525748,-7846.182985,842.705048,222.061783
1199.526059,-7920.203579,842.705048,-370.102971
1199.526371,-7476.080014,766.095498,-518.144159
1199.526682,-7920.203579,383.047749,-666.185348
1199.526994,-8882.471304,-306.438199,-296.082377
1199.527305,-9844.739029,0.000000,-370.102971
1199.527616,-10881.027347,-1302.362347,-0.000000
1199.527928,-9844.739029,-1532.190996,1332.370696
1199.528239,-9696.697840,-1378.971896,1036.288319
1199.528551,-9326.594869,-842.705048,740.205942
1199.528862,-8882.471304,-842.705048,592.164754
1199.529174,-8586.388927,-842.705048,518.144159
1199.529485,-8808.450710,0.000000,296.082377
1199.529797,-9326.594869,995.924147,666.185348
1199.530108,-10288.862594,1149.143247,-74.020594
1199.530420,-9622.677246,689.485948,222.061783
1199.530731,-9474.636058,536.266849,444.123565
1199.531043,-9696.697840,229.828649,-0.000000
1199.531354,-9474.636058,153.219100,148.041188
1199.531666,-9474.636058,229.828649,148.041188
1199.531977,-8956.491898,-306.438199,518.144159
1199.532289,-8586.388927,-153.219100,740.205942
1199.532600,-8142.265362,-995.924147,888.247130
1199.532911,-8068.244768,-1532.190996,740.205942
1199.533223,-7550.100608,-1378.971896,962.267725
1199.533534,-7179.997637,-1302.362347,370.102971
1199.533846,-7624.121203,-1225.752797,370.102971
1199.534157,-8290.306550,-1149.143247,814.226536
1199.534469,-9178.553681,-1225.752797,740.205942
1199.534780,-9252.574275,-153.219100,962.267725
1199.535092,-9548.656652,229.828649,1184.329507
1199.535403,-9918.759623,459.657299,1258.350101
1199.535715,-9252.574275,306.438199,1036.288319
1199.536026,-8438.347739,306.438199,1036.288319
1199.536338,-7920.203579,459.657299,-0.000000
1199.536649,-7476.080014,919.314598,-518.144159
1199.536961,-7920.203579,689.485948,-888.247130
1199.537272,-8364.327145,459.657299,-592.164754
1199.537583,-8956.491898,229.828649,-296.082377
1199.537895,-9474.636058,-306.438199,-0.000000
1199.538206,-9770.718434,-766.095498,740.205942
1199.538518,-9844.739029,-1455.581446,1184.329507
1199.538829,-9844.739029,-1455.581446,1110.308913
1199.539141,-9622.677246,-919.314598,740.205942
1199.539452,-8882.471304,0.000000,1480.411884
1199.539764,-8882.471304,-229.828649,444.123565
1199.540075,-8956.491898,0.000000,814.226536
1199.540387,-9474.636058,459.657299,518.144159
1199.540698,-9252.574275,536.266849,888.247130
1199.541010,-9104.533087,1149.143247,518.144159
1199.541321,-9474.636058,1378.971896,296.082377
1199.541633,-8660.409521,766.095498,-0.000000
1199.541944,-9326.594869,919.314598,-518.144159
1199.542256,-8364.327145,153.219100,222.061783
1199.542567,-8956.491898,306.438199,518.144159
1199.542879,-8808.450710,0.000000,814.226536
1199.543190,-8734.430116,-842.705048,1184.329507
1199.543502,-8290.306550,-1225.752797,1184.329507
1199.543813,-7698.141797,-1225.752797,592.164754
1199.544125,-6957.935855,-1455.581446,370.102971
1199.544436,-7402.059420,-612.876398,444.123565
1199.544748,-7550.100608,-612.876398,296.082377
1199.545059,-8734.430116,0.000000,666.185348
1199.545371,-9474.636058,383.047749,962.267725
1199.545682,-9622.677246,995.924147,1184.329507
1199.545994,-9548.656652,919.314598,1406.391290
1199.546305,-8734.430116,766.095498,888.247130
1199.546617,-8438.347739,536.266849,666.185348
1199.546928,-8216.285956,229.828649,-370.102971
1199.547240,-8216.285956,612.876398,-296.082377
1199.547551,-8660.409521,76.609550,-592.164754
1199.547863,-9474.636058,153.219100,-370.102971
1199.548174,-9622.677246,0.000000,-0.000000
1199.548486,-9844.739029,-536.266849,296.082377
1199.548797,-9696.697840,-536.266849,740.205942
1199.549109,-9104.533087,-995.924147,740.205942
1199.549420,-8956.491898,-1072.533697,592.164754
1199.549732,-9326.594869,-689.485948,814.226536
1199.550043,-8882.471304,-842.705048,666.185348
1199.550355,-9326.594869,-612.876398,592.164754
1199.550666,-9400.615463,0.000000,592.164754
1199.550978,-9548.656652,76.609550,222.061783
1199.551289,-10066.800811,76.609550,296.082377
1199.551601,-9474.636058,1225.752797,962.267725
1199.551912,-9844.739029,383.047749,-0.000000
1199.552224,-9548.656652,153.219100,444.123565
1199.552535,-8660.409521,383.047749,518.144159
1199.552847,-8438.347739,612.876398,296.082377
1199.553158,-7772.162391,689.485948,518.144159
1199.553470,-7476.080014,0.000000,740.205942
1199.553781,-7328.038826,-1225.752797,814.226536
1199.554093,-7698.141797,-1072.533697,-74.020594
1199.554404,-7402.059420,-1608.800546,444.123565
1199.554716,-8216.285956,-1991.848295,296.082377
1199.555027,-9104.533087,-1455.581446,666.185348
1199.555339,-9178.553681,-1378.971896,814.226536
1199.555650,-9474.636058,-766.095498,666.185348
1199.555962,-9474.636058,229.828649,814.226536
1199.556273,-9622.677246,536.266849,740.205942
1199.556585,-9030.512492,995.924147,962.267725
1199.556896,-8586.388927,76.609550,370.102971
1199.557208,-7550.100608,459.657299,370.102971
1199.557519,-7698.141797,536.266849,-0.000000
1199.557831,-7772.162391,383.047749,-370.102971
1199.558142,-8882.471304,153.219100,-592.164754
1199.558454,-9474.636058,-306.438199,-444.123565
1199.558765,-9918.759623,0.000000,-222.061783
1199.559077,-10362.883188,-612.876398,148.041188
1199.559388,-10288.862594,-1149.143247,592.164754
1199.559700,-9918.759623,-1608.800546,1110.308913
1199.560011,-9326.594869,-1149.143247,962.267725
1199.560323,-8660.409521,-229.828649,962.267725
1199.560634,-8438.347739,0.000000,518.144159
1199.560946,-8734.430116,766.095498,518.144159
1199.561257,-8956.491898,459.657299,370.102971
1199.561569,-9400.615463,612.876398,148.041188
1199.561880,-9918.759623,1072.533697,296.082377
1199.562192,-9992.780217,1532.190996,222.061783
1199.562503,-9770.718434,1225.752797,148.041188
1199.562815,-9400.615463,306.438199,444.123565
1199.563126,-8956.491898,76.609550,444.123565
1199.563438,-8882.471304,536.266849,518.144159
1199.563749,-8808.450710,1072.533697,444.123565
1199.564061,-8290.306550,229.828649,888.247130
1199.564372,-7698.141797,0.000000,444.123565
1199.564684,-7105.977043,-229.828649,592.164754
1199.564995,-6587.832884,-766.095498,740.205942
1199.565307,-7476.080014,-1378.971896,444.123565
1199.565618,-7698.141797,-689.485948,592.164754
1199.565930,-7772.162391,-383.047749,1036.288319
1199.566241,-8882.471304,-1072.533697,1480.411884
1199.566553,-9252.574275,-306.438199,1332.370696
1199.566864,-9548.656652,76.609550,1628.453072
1199.567176,-9400.615463,689.485948,1554.432478
1199.567487,-8660.409521,995.924147,1406.391290
1199.567799,-8512.368333,995.924147,148.041188
1199.568110,-7772.162391,842.705048,-222.061783
1199.568422,-7920.203579,612.876398,-518.144159
1199.568733,-8216.285956,1302.362347,-740.205942
1199.569045,-8808.450710,919.314598,-222.061783
1199.569356,-9474.636058,383.047749,-0.000000
1199.569668,-10066.800811,-612.876398,444.123565
1199.569979,-9992.780217,-1072.533697,1184.329507
1199.570291,-9696.697840,-1225.752797,1332.370696
1199.570602,-9622.677246,-995.924147,1110.308913
1199.570914,-8586.388927,0.000000,1332.370696
1199.571225,-9030.512492,76.609550,296.082377
1199.571537,-9104.533087,-383.047749,370.102971
1199.571848,-9474.636058,306.438199,222.061783
1199.572160,-10140.821405,612.876398,222.061783
1199.572471,-10288.862594,766.095498,296.082377
1199.572783,-9622.677246,766.095498,148.041188
1199.573094,-9474.636058,919.314598,-0.000000
1199.573406,-9474.636058,459.657299,-0.000000
1199.573717,-8956.491898,306.438199,740.205942
1199.574029,-8734.430116,0.000000,814.226536
1199.574340,-8512.368333,0.000000,962.267725
1199.574652,-8512.368333,-306.438199,888.247130
1199.574963,-8512.368333,-919.314598,814.226536
1199.575275,-7846.182985,0.000000,592.164754
1199.575586,-7105.977043,-689.485948,-74.020594
1199.575898,-7328.038826,-842.705048,296.082377
1199.576209,-7624.121203,-919.314598,370.102971
1199.576521,-8216.285956,-842.705048,444.123565
1199.576832,-8808.450710,-766.095498,888.247130
1199.577144,-9326.594869,-459.657299,1258.350101
1199.577455,-9400.615463,0.000000,1258.350101
1199.577767,-9104.533087,536.266849,1110.308913
1199.578078,-9178.553681,0.000000,814.226536
1199.578390,-8438.347739,766.095498,370.102971
1199.578701,-8290.306550,612.876398,-296.082377
1199.579013,-8364.327145,153.219100,-518.144159
1199.579324,-8882.471304,0.000000,-592.164754
1199.579636,-9252.574275,-153.219100,-370.102971
1199.579947,-9474.636058,-306.438199,-0.000000
1199.580259,-9844.739029,-1072.533697,814.226536
1199.580570,-10584.944971,-1608.800546,888.247130
1199.580881,-9770.718434,-1225.752797,740.205942
1199.581193,-9400.615463,-766.095498,962.267725
1199.581504,-9030.512492,-153.219100,592.164754
1199.581816,-8808.450710,0.000000,592.164754
1199.582127,-9178.553681,536.266849,370.102971
1199.582439,-9622.677246,842.705048,518.144159
1199.582750,-9696.697840,1302.362347,592.164754
1199.583062,-10140.821405,995.924147,518.144159
1199.583373,-9400.615463,1608.800546,444.123565
1199.583685,-9474.636058,766.095498,222.061783
1199.583996,-9178.553681,229.828649,222.061783
1199.584308,-8586.388927,306.438199,444.123565
1199.584619,-8364.327145,612.876398,592.164754
1199.584931,-7920.203579,0.000000,888.247130
1199.585242,-8586.388927,-842.705048,666.185348
1199.585554,-8956.491898,-536.266849,1036.288319
1199.585865,-7846.182985,-1378.971896,1480.411884
1199.586177,-7624.121203,-1072.533697,962.267725
1199.586488,-7772.162391,-919.314598,814.226536
1199.586800,-7772.162391,-459.657299,740.205942
1199.587111,-8216.285956,-306.438199,592.164754
1199.587423,-8512.368333,459.657299,962.267725
1199.587734,-8734.430116,1378.971896,1036.288319
1199.588046,-9252.574275,1225.752797,1184.329507
1199.588357,-9030.512492,1225.752797,814.226536
1199.588669,-8586.388927,766.095498,962.267725
1199.588980,-8216.285956,612.876398,222.061783
1199.589292,-8068.244768,919.314598,-74.020594
1199.589603,-8216.285956,612.876398,-296.082377
1199.589915,-8364.327145,459.657299,-370.102971
1199.590226,-8734.430116,-919.314598,-74.020594
1199.590538,-9474.636058,-842.705048,-0.000000
1199.590849,-10066.800811,-766.095498,444.123565
1199.591161,-9918.759623,-995.924147,1036.288319
1199.591472,-9474.636058,-1225.752797,1110.308913
1199.591784,-9030.512492,-1072.533697,962.267725
1199.592095,-8808.450710,-229.828649,962.267725
1199.592407,-8734.430116,-383.047749,814.226536
1199.592718,-9400.615463,76.609550,148.041188
1199.593030,-9770.718434,459.657299,-0.000000
1199.593341,-10362.883188,1072.533697,-148.041188
1199.593653,-10362.883188,1225.752797,-0.000000
1199.593964,-10362.883188,842.705048,-0.000000
1199.594276,-10066.800811,306.438199,148.041188
1199.594587,-9178.553681,383.047749,370.102971
1199.594899,-9030.512492,536.266849,-148.041188
1199.595210,-8364.327145,0.000000,222.061783
1199.595522,-7179.997637,0.000000,444.123565
1199.595833,-7698.141797,-1455.581446,444.123565
1199.596145,-7624.121203,-1608.800546,962.267725
1199.596456,-7254.018232,-1685.410096,518.144159
1199.596768,-7254.018232,-1302.362347,592.164754
1199.597079,-8216.285956,-1532.190996,518.144159
1199.597391,-8882.471304,-1685.410096,740.205942
1199.597702,-9178.553681,-1685.410096,666.185348
1199.598014,-9474.636058,-842.705048,962.267725
1199.598325,-9622.677246,76.609550,1332.370696
1199.598637,-9992.780217,459.657299,962.267725
1199.598948,-9252.574275,459.657299,1036.288319
1199.599260,-8512.368333,459.657299,518.144159
1199.599571,-7920.203579,153.219100,-0.000000
1199.599883,-7105.977043,229.828649,-74.020594
1199.600194,-7698.141797,459.657299,-444.123565
1199.600506,-8808.450710,76.609550,-814.226536
1199.600817,-9178.553681,153.219100,-370.102971
1199.601129,-9696.697840,0.000000,-148.041188
1199.601440,-9992.780217,-536.266849,296.082377
1199.601752,-9844.739029,-1225.752797,888.247130
1199.602063,-9548.656652,-995.924147,518.144159
1199.602375,-9104.533087,0.000000,444.123565
1199.602686,-8586.388927,76.609550,814.226536
1199.602998,-8808.450710,0.000000,740.205942
1199.603309,-9474.636058,153.219100,814.226536
1199.603621,-9474.636058,612.876398,592.164754
1199.603932,-9696.697840,1149.143247,518.144159
1199.604244,-9844.739029,1302.362347,370.102971
1199.604555,-9548.656652,995.924147,592.164754
1199.604867,-9696.697840,842.705048,148.041188
1199.605178,-9252.574275,383.047749,518.144159
1199.605490,-9326.594869,459.657299,666.185348
1199.605801,-8734.430116,229.828649,666.185348
1199.606113,-7920.203579,0.000000,888.247130
1199.606424,-7624.121203,-689.485948,740.205942
1199.606736,-7402.059420,-1455.581446,666.185348
1199.607047,-6661.853478,-995.924147,1184.329507
1199.607359,-7402.059420,-842.705048,666.185348
1199.607670,-7624.121203,-1455.581446,814.226536
1199.607982,-8142.265362,-1072.533697,740.205942
1199.608293,-8734.430116,-689.485948,1110.308913
1199.608605,-9030.512492,-153.219100,1258.350101
1199.608916,-9474.636058,459.657299,1480.411884
1199.609228,-9252.574275,842.705048,962.267725
1199.609539,-9030.512492,689.485948,592.164754
1199.609851,-8586.388927,612.876398,222.061783
1199.610162,-7846.182985,229.828649,-0.000000
1199.610474,-7772.162391,153.219100,-222.061783
1199.610785,-8290.306550,229.828649,-444.123565
1199.611097,-9326.594869,-153.219100,-148.041188
1199.611408,-9844.739029,-536.266849,148.041188
1199.611720,-10584.944971,-1149.143247,518.144159
1199.612031,-9992.780217,-995.924147,962.267725
1199.612343,-9770.718434,-1149.143247,666.185348
1199.612654,-9326.594869,-766.095498,296.082377
1199.612966,-8882.471304,-459.657299,370.102971
1199.613277,-8734.430116,-229.828649,222.061783
1199.613589,-9178.553681,0.000000,148.041188
1199.613900,-9474.636058,383.047749,-0.000000
1199.614212,-9696.697840,995.924147,148.041188
1199.614523,-10436.903782,1378.971896,-148.041188
1199.614835,-10140.821405,1149.143247,-0.000000
1199.615146,-9770.718434,766.095498,-148.041188
1199.615458,-9844.739029,459.657299,-0.000000
1199.615769,-9400.615463,0.000000,444.123565
1199.616081,-8882.471304,0.000000,814.226536
1199.616392,-8660.409521,229.828649,962.267725
1199.616704,-7994.224174,-306.438199,814.226536
1199.617015,-7105.977043,-919.314598,962.267725
1199.617327,-7179.997637,-919.314598,444.123565
1199.617638,-7254.018232,-1072.533697,740.205942
1199.617950,-7772.162391,-1149.143247,444.123565
1199.618261,-8216.285956,-536.266849,518.144159
1199.618573,-8808.450710,-842.705048,592.164754
1199.618884,-9178.553681,-612.876398,888.247130
1199.619196,-8882.471304,0.000000,1110.308913
1199.619507,-9400.615463,1302.362347,370.102971
1199.619819,-9178.553681,1302.362347,1332.370696
1199.620130,-8068.244768,766.095498,1258.350101
1199.620442,-7846.182985,0.000000,222.061783
1199.620753,-7550.100608,459.657299,296.082377
1199.621065,-7624.121203,459.657299,-370.102971
1199.621376,-8068.244768,-306.438199,-592.164754
1199.621688,-8660.409521,153.219100,-222.061783
1199.621999,-9104.533087,-459.657299,-0.000000
1199.622311,-10214.842000,-995.924147,-0.000000
1199.622622,-10436.903782,-1302.362347,888.247130
1199.622934,-10214.842000,-1608.800546,1184.329507
1199.623245,-10066.800811,-1532.190996,962.267725
1199.623557,-9696.697840,-1072.533697,888.247130
1199.623868,-9326.594869,0.000000,592.164754
1199.624180,-8956.491898,612.876398,370.102971
1199.624491,-8882.471304,995.924147,592.164754
1199.624803,-9696.697840,842.705048,814.226536
1199.625114,-10066.800811,1302.362347,444.123565
1199.625426,-9844.739029,1608.800546,518.144159
1199.625737,-9622.677246,1072.533697,-0.000000
1199.626049,-9104.533087,995.924147,296.082377
1199.626360,-8734.430116,0.000000,222.061783
1199.626672,-8364.327145,229.828649,888.247130
1199.626983,-8586.388927,0.000000,888.247130
1199.627295,-8956.491898,-229.828649,1036.288319
1199.627606,-8882.471304,-689.485948,888.247130
1199.627918,-7846.182985,-1149.143247,1184.329507
1199.628229,-7328.038826,-1378.971896,888.247130
1199.628541,-7328.038826,-689.485948,370.102971
1199.628852,-7476.080014,-383.047749,518.144159
1199.629164,-8290.306550,383.047749,296.082377
1199.629475,-9104.533087,0.000000,1258.350101
1199.629787,-9548.656652,766.095498,1184.329507
1199.630098,-9474.636058,995.924147,1110.308913
1199.630410,-9252.574275,995.924147,1184.329507
1199.630721,-8512.368333,995.924147,666.185348
1199.631033,-8216.285956,383.047749,-148.041188
1199.631344,-7920.203579,842.705048,-592.164754
1199.631656,-7920.203579,612.876398,-444.123565
1199.631967,-8512.368333,459.657299,-888.247130
1199.632279,-8586.388927,229.828649,-0.000000
1199.632590,-9104.533087,-306.438199,222.061783
1199.632902,-9844.739029,-536.266849,592.164754
1199.633213,-9548.656652,0.000000,1184.329507
1199.633525,-9326.594869,-995.924147,1184.329507
1199.633836,-8956.491898,-842.705048,1036.288319
1199.634148,-8808.450710,-612.876398,666.185348
1199.634459,-9326.594869,-689.485948,592.164754
1199.634771,-9548.656652,0.000000,222.061783
1199.635082,-9770.718434,536.266849,222.061783
1199.635394,-9992.780217,689.485948,222.061783
1199.635705,-10214.842000,766.095498,518.144159
1199.636017,-9696.697840,842.705048,740.205942
1199.636328,-9474.636058,536.266849,222.061783
1199.636640,-9030.512492,383.047749,592.164754
1199.636951,-8364.327145,153.219100,296.082377
1199.637263,-8438.347739,229.828649,370.102971
1199.637574,-7624.121203,-306.438199,740.205942
1199.637885,-8068.244768,-995.924147,666.185348
1199.638197,-7624.121203,-1608.800546,1036.288319
1199.638508,-7550.100608,-2451.505594,814.226536
1199.638820,-7550.100608,-1838.629195,518.144159
1199.639131,-8216.285956,-2068.457845,-0.000000
1199.639443,-8956.491898,-1072.533697,296.082377
1199.639754,-9474.636058,-689.485948,592.164754
1199.640066,-9696.697840,0.000000,962.267725
1199.640377,-10066.800811,306.438199,1110.308913
1199.640689,-9844.739029,1072.533697,1110.308913
1199.641000,-9474.636058,1225.752797,1110.308913
1199.641311,-8216.285956,306.438199,740.205942
1199.641623,-7846.182985,229.828649,222.061783
1199.641934,-7624.121203,76.609550,-74.020594
1199.642246,-7698.141797,229.828649,-592.164754
1199.642557,-8882.471304,76.609550,-666.185348
1199.642869,-9548.656652,0.000000,-148.041188
1199.643180,-9918.759623,383.047749,-222.061783
1199.643492,-10214.842000,-842.705048,814.226536
1199.643803,-10362.883188,-383.047749,962.267725
1199.644114,-9844.739029,-842.705048,962.267725
1199.644426,-9178.553681,-383.047749,740.205942
1199.644737,-8660.409521,383.047749,666.185348
1199.645049,-8808.450710,229.828649,444.123565
1199.645360,-8808.450710,536.266849,814.226536
1199.645672,-9178.553681,1072.533697,444.123565
1199.645983,-9770.718434,459.657299,296.082377
1199.646295,-9474.636058,995.924147,296.082377
1199.646606,-9474.636058,1225.752797,296.082377
1199.646917,-9548.656652,536.266849,-0.000000
1199.647229,-8956.491898,0.000000,444.123565
1199.647540,-8512.368333,229.828649,592.164754
1199.647852,-8142.265362,689.485948,962.267725
1199.648163,-8142.265362,0.000000,962.267725
1199.648475,-7698.141797,-459.657299,1628.453072
1199.648786,-7550.100608,-1225.752797,1184.329507
1199.649097,-6513.812290,-919.314598,1036.288319
1199.649409,-6957.935855,-995.924147,518.144159
1199.649720,-7846.182985,-995.924147,370.102971
1199.650032,-8142.265362,-689.485948,740.205942
1199.650343,-8882.471304,-689.485948,814.226536
1199.650655,-9030.512492,76.609550,1110.308913
1199.650966,-10288.862594,842.705048,962.267725
1199.651278,-9770.718434,1225.752797,1406.391290
1199.651589,-9030.512492,1149.143247,740.205942
1199.651900,-8290.306550,919.314598,592.164754
1199.652212,-8290.306550,459.657299,-0.000000
1199.652523,-8142.265362,612.876398,-296.082377
1199.652835,-8216.285956,459.657299,-296.082377
1199.653146,-8660.409521,-536.266849,-74.020594
1199.653458,-9400.615463,-459.657299,-0.000000
1199.653769,-10214.842000,-306.438199,-0.000000
1199.654081,-10140.821405,-842.705048,444.123565
1199.654392,-9992.780217,-766.095498,592.164754
1199.654703,-9622.677246,-766.095498,592.164754
1199.655015,-9548.656652,-689.485948,592.164754
1199.655326,-9400.615463,-459.657299,1036.288319
1199.655638,-9326.594869,0.000000,518.144159
1199.655949,-9178.553681,459.657299,666.185348
1199.656261,-8882.471304,919.314598,592.164754
1199.656572,-9474.636058,536.266849,148.041188
1199.656883,-9622.677246,689.485948,518.144159
1199.657195,-9326.594869,459.657299,222.061783
1199.657506,-9178.553681,153.219100,296.082377
1199.657818,-8882.471304,536.266849,296.082377
1199.658129,-8882.471304,612.876398,444.123565
1199.658441,-8290.306550,459.657299,296.082377
1199.658752,-7772.162391,0.000000,666.185348
1199.659064,-7920.203579,-919.314598,814.226536
1199.659375,-7476.080014,-1378.971896,888.247130
1199.659686,-7105.977043,-1532.190996,444.123565
1199.659998,-7254.018232,-1762.019645,370.102971
1199.660309,-7846.182985,-1991.848295,666.185348
1199.660621,-8364.327145,-2145.067394,592.164754
1199.660932,-9252.574275,-1072.533697,962.267725
1199.661244,-9548.656652,-842.705048,1184.329507
1199.661555,-9770.718434,-459.657299,1554.432478
1199.661867,-9622.677246,-229.828649,1406.391290
1199.662178,-8956.491898,459.657299,1110.308913
1199.662489,-8216.285956,306.438199,370.102971
1199.662801,-7698.141797,153.219100,-296.082377
1199.663112,-7402.059420,229.828649,-740.205942
1199.663424,-7994.224174,0.000000,-962.267725
1199.663735,-8734.430116,153.219100,-592.164754
1199.664047,-9622.677246,-153.219100,-74.020594
1199.664358,-10362.883188,-766.095498,370.102971
1199.664670,-10510.924376,-995.924147,962.267725
1199.664981,-10584.944971,-1072.533697,1110.308913
1199.665292,-9918.759623,-306.438199,1110.308913
1199.665604,-9474.636058,153.219100,-0.000000
1199.665915,-9104.533087,459.657299,-0.000000
1199.666227,-8808.450710,459.657299,444.123565
1199.666538,-9030.512492,612.876398,444.123565
1199.666850,-9474.636058,842.705048,592.164754
1199.667161,-10066.800811,995.924147,296.082377
1199.667472,-10066.800811,1608.800546,296.082377
1199.667784,-9622.677246,1378.971896,444.123565
1199.668095,-9696.697840,1072.533697,296.082377
1199.668407,-9104.533087,1149.143247,518.144159
1199.668718,-8660.409521,689.485948,592.164754
1199.669030,-8734.430116,612.876398,962.267725
1199.669341,-8216.285956,0.000000,1110.308913
1199.669653,-8068.244768,-536.266849,1036.288319
1199.669964,-7698.141797,-1149.143247,888.247130
1199.670275,-6809.894666,766.095498,962.267725
1199.670587,-7179.997637,-1225.752797,370.102971
1199.670898,-7254.018232,-612.876398,592.164754
1199.671210,-7624.121203,-689.485948,888.247130
1199.671521,-8586.388927,-536.266849,888.247130
1199.671833,-9104.533087,229.828649,1406.391290
1199.672144,-9696.697840,995.924147,1184.329507
1199.672456,-9548.656652,1149.143247,1480.411884
1199.672767,-8364.327145,383.047749,1036.288319
1199.673078,-7846.182985,689.485948,148.041188
1199.673390,-7772.162391,612.876398,-0.000000
1199.673701,-7476.080014,536.266849,-222.061783
1199.674013,-7698.141797,306.438199,-370.102971
1199.674324,-8882.471304,0.000000,-296.082377
1199.674636,-9474.636058,0.000000,-222.061783
1199.674947,-10140.821405,-612.876398,-0.000000
1199.675258,-10362.883188,-306.438199,444.123565
1199.675570,-9844.739029,-306.438199,888.247130
1199.675881,-9696.697840,-842.705048,518.144159
1199.676193,-9474.636058,-1225.752797,666.185348
1199.676504,-9326.594869,-766.095498,740.205942
1199.676816,-9622.677246,-612.876398,518.144159
1199.677127,-10140.821405,689.485948,-74.020594
1199.677439,-9548.656652,1302.362347,-0.000000
1199.677750,-10066.800811,1072.533697,-740.205942
1199.678061,-9252.574275,1149.143247,-296.082377
1199.678373,-9178.553681,459.657299,-0.000000
1199.678684,-9252.574275,153.219100,148.041188
1199.678996,-8956.491898,0.000000,592.164754
1199.679307,-9178.553681,0.000000,740.205942
1199.679619,-8956.491898,-459.657299,962.267725
1199.679930,-8808.450710,-689.485948,888.247130
1199.680242,-8512.368333,-1608.800546,888.247130
1199.680553,-7476.080014,-1378.971896,888.247130
1199.680864,-7402.059420,-1455.581446,592.164754
1199.681176,-7920.203579,-1149.143247,370.102971
1199.681487,-8142.265362,-1149.143247,592.164754
1199.681799,-8438.347739,-1225.752797,814.226536
1199.682110,-8290.306550,-306.438199,1184.329507
1199.682422,-9104.533087,0.000000,1332.370696
1199.682733,-8956.491898,689.485948,1110.308913
1199.683045,-9474.636058,536.266849,814.226536
1199.683356,-8364.327145,919.314598,1110.308913
1199.683667,-8142.265362,766.095498,666.185348
1199.683979,-8290.306550,76.609550,148.041188
1199.684290,-7772.162391,0.000000,-222.061783
1199.684602,-8512.368333,0.000000,-592.164754
1199.684913,-8438.347739,0.000000,-444.123565
1199.685225,-9252.574275,306.438199,-444.123565
1199.685536,-9992.780217,-536.266849,962.267725
1199.685847,-9992.780217,-1072.533697,1406.391290
1199.686159,-9918.759623,-1225.752797,1110.308913
1199.686470,-9622.677246,-842.705048,1110.308913
1199.686782,-8808.450710,0.000000,888.247130
1199.687093,-8586.388927,0.000000,444.123565
1199.687405,-8586.388927,-153.219100,518.144159
1199.687716,-8956.491898,766.095498,814.226536
1199.688028,-9400.615463,689.485948,666.185348
1199.688339,-9770.718434,1378.971896,666.185348
1199.688650,-9622.677246,1838.629195,518.144159
1199.688962,-9400.615463,995.924147,444.123565
1199.689273,-9178.553681,0.000000,518.144159
1199.689585,-8364.327145,612.876398,444.123565
1199.689896,-7846.182985,306.438199,-74.020594
1199.690208,-8438.347739,383.047749,592.164754
1199.690519,-8512.368333,-536.266849,888.247130
1199.690831,-8512.368333,-1302.362347,962.267725
1199.691142,-7772.162391,-995.924147,1184.329507
1199.691453,-7698.141797,-1149.143247,1036.288319
1199.691765,-7772.162391,-1378.971896,1036.288319
1199.692076,-7772.162391,-1225.752797,518.144159
1199.692388,-8068.244768,-612.876398,666.185348
1199.692699,-8956.491898,0.000000,222.061783
1199.693011,-9770.718434,842.705048,888.247130
1199.693322,-9622.677246,995.924147,962.267725
1199.693634,-9696.697840,1072.533697,740.205942
1199.693945,-8808.450710,612.876398,518.144159
1199.694256,-8734.430116,383.047749,-148.041188
1199.694568,-8216.285956,1302.362347,-740.205942
1199.694879,-7920.203579,306.438199,-962.267725
1199.695191,-8216.285956,0.000000,-148.041188
1199.695502,-9104.533087,-612.876398,-148.041188
1199.695814,-9474.636058,-459.657299,296.082377
1199.696125,-10140.821405,-1072.533697,740.205942
1199.696436,-9474.636058,-1072.533697,1184.329507
1199.696748,-9252.574275,-919.314598,740.205942
1199.697059,-9474.636058,-919.314598,148.041188
1199.697371,-8660.409521,0.000000,592.164754
1199.697682,-9326.594869,-306.438199,370.102971
1199.697994,-9474.636058,536.266849,370.102971
1199.698305,-9548.656652,842.705048,592.164754
1199.698617,-10214.842000,459.657299,370.102971
1199.698928,-10066.800811,842.705048,814.226536
1199.699239,-9622.677246,383.047749,592.164754
1199.699551,-9622.677246,612.876398,518.144159
1199.699862,-8660.409521,919.314598,370.102971
1199.700174,-8364.327145,612.876398,-0.000000
1199.700485,-7846.182985,689.485948,370.102971
1199.700797,-7328.038826,76.609550,740.205942
1199.701108,-7254.018232,-842.705048,1036.288319
1199.701420,-7698.141797,-2068.457845,888.247130
1199.701731,-7254.018232,-2068.457845,1184.329507
1199.702042,-7772.162391,-1608.800546,370.102971
1199.702354,-7994.224174,-1532.190996,666.185348
1199.702665,-8660.409521,-1608.800546,962.267725
1199.702977,-9178.553681,-1378.971896,888.247130
1199.703288,-9474.636058,-536.266849,1332.370696
1199.703600,-9992.780217,689.485948,1480.411884
1199.703911,-9400.615463,1149.143247,1332.370696
1199.704222,-9252.574275,459.657299,962.267725
1199.704534,-8068.244768,919.314598,444.123565
1199.704845,-7328.038826,229.828649,-0.000000
1199.705157,-7031.956449,459.657299,-518.144159
1199.705468,-7994.224174,459.657299,-518.144159
1199.705780,-9104.533087,0.000000,-518.144159
1199.706091,-9844.739029,-383.047749,-0.000000
1199.706403,-10214.842000,-153.219100,518.144159
1199.706714,-10436.903782,-995.924147,1036.288319
1199.707025,-10066.800811,-1225.752797,1184.329507
1199.707337,-9844.739029,-995.924147,740.205942
1199.707648,-8956.491898,0.000000,666.185348
1199.707960,-8512.368333,229.828649,666.185348
1199.708271,-8882.471304,306.438199,370.102971
1199.708583,-8808.450710,459.657299,740.205942
1199.708894,-9622.677246,153.219100,222.061783
1199.709206,-9474.636058,766.095498,296.082377
1199.709517,-9326.594869,689.485948,518.144159
1199.709828,-9622.677246,536.266849,592.164754
1199.710140,-9252.574275,-153.219100,370.102971
1199.710451,-9178.553681,-383.047749,592.164754
1199.710763,-9104.533087,229.828649,666.185348
1199.711074,-8734.430116,153.219100,444.123565
1199.711386,-8734.430116,306.438199,814.226536
1199.711697,-8142.265362,-536.266849,1036.288319
1199.712009,-7402.059420,-1378.971896,592.164754
1199.712320,-6735.874072,-995.924147,740.205942
1199.712631,-7105.977043,-842.705048,-0.000000
1199.712943,-7476.080014,-383.047749,-0.000000
1199.713254,-8068.244768,0.000000,370.102971
1199.713566,-9030.512492,-612.876398,444.123565
1199.713877,-9548.656652,0.000000,1184.329507
1199.714189,-9992.780217,612.876398,1036.288319
1199.714500,-9992.780217,919.314598,1036.288319
1199.714811,-8956.491898,919.314598,888.247130
1199.715123,-8586.388927,612.876398,148.041188
1199.715434,-7994.224174,536.266849,-222.061783
1199.715746,-7179.997637,842.705048,-592.164754
1199.716057,-8216.285956,306.438199,-814.226536
1199.716369,-9030.512492,-459.657299,-814.226536
1199.716680,-9178.553681,153.219100,-148.041188
1199.716992,-10214.842000,-689.485948,148.041188
1199.717303,-10140.821405,-995.924147,592.164754
1199.717614,-9770.718434,-919.314598,1036.288319
1199.717926,-9622.677246,-766.095498,592.164754
1199.718237,-9178.553681,-536.266849,666.185348
1199.718549,-8956.491898,-229.828649,222.061783
1199.718860,-8882.471304,0.000000,148.041188
1199.719172,-8734.430116,536.266849,-74.020594
1199.719483,-9400.615463,459.657299,-0.000000
1199.719795,-10214.842000,842.705048,148.041188
1199.720106,-10214.842000,1302.362347,148.041188
1199.720417,-9770.718434,995.924147,148.041188
1199.720729,-9548.656652,536.266849,222.061783
1199.721040,-9326.594869,536.266849,148.041188
1199.721352,-9178.553681,459.657299,222.061783
1199.721663,-7994.224174,-306.438199,1036.288319
1199.721975,-7772.162391,-842.705048,888.247130
1199.722286,-8142.265362,-1608.800546,962.267725
1199.722597,-8068.244768,-1685.410096,888.247130
1199.722909,-7698.141797,-1685.410096,666.185348
1199.723220,-7772.162391,-919.314598,148.041188
1199.723532,-8364.327145,-229.828649,-0.000000
1199.723843,-8808.450710,-612.876398,518.144159
1199.724155,-9178.553681,-1225.752797,592.164754
1199.724466,-9252.574275,-229.828649,1332.370696
1199.724778,-9400.615463,459.657299,1406.391290
1199.725089,-9474.636058,766.095498,1332.370696
1199.725400,-8364.327145,919.314598,1480.411884
1199.725712,-7698.141797,306.438199,592.164754
1199.726023,-7328.038826,0.000000,-0.000000
1199.726335,-6957.935855,306.438199,-296.082377
1199.726646,-8512.368333,0.000000,-518.144159
1199.726958,-8956.491898,229.828649,-222.061783
1199.727269,-9474.636058,-306.438199,-0.000000
1199.727581,-9770.718434,-689.485948,518.144159
1199.727892,-9548.656652,-1225.752797,888.247130
1199.728203,-10066.800811,-1149.143247,962.267725
1199.728515,-9400.615463,-995.924147,1110.308913
1199.728826,-8956.491898,-229.828649,1110.308913
1199.729138,-9030.512492,153.219100,740.205942
1199.729449,-9400.615463,229.828649,888.247130
1199.729761,-9474.636058,536.266849,444.123565
1199.730072,-9474.636058,1225.752797,518.144159
1199.730384,-9918.759623,1378.971896,-0.000000
1199.730695,-9474.636058,1378.971896,148.041188
1199.731006,-9326.594869,1149.143247,296.082377
1199.731318,-8956.491898,383.047749,-0.000000
1199.731629,-8660.409521,383.047749,740.205942
1199.731941,-8660.409521,306.438199,518.144159
1199.732252,-8438.347739,229.828649,962.267725
1199.732564,-8068.244768,-153.219100,1480.411884
1199.732875,-7772.162391,-1149.143247,1332.370696
1199.733186,-7254.018232,-995.924147,1184.329507
1199.733498,-7846.182985,-1149.143247,740.205942
1199.733809,-8290.306550,-1149.143247,518.144159
1199.734121,-8808.450710,0.000000,296.082377
1199.734432,-8586.388927,153.219100,370.102971
1199.734744,-8882.471304,459.657299,222.061783
1199.735055,-9622.677246,536.266849,814.226536
1199.735367,-9474.636058,842.705048,1332.370696
1199.735678,-9326.594869,1302.362347,962.267725
1199.735989,-8512.368333,766.095498,740.205942
1199.736301,-8512.368333,306.438199,296.082377
1199.736612,-8364.327145,383.047749,-74.020594
1199.736924,-7550.100608,612.876398,-666.185348
1199.737235,-7920.203579,0.000000,-518.144159
1199.737547,-8512.368333,153.219100,-666.185348
1199.737858,-9400.615463,-689.485948,-74.020594
1199.738170,-10140.821405,-536.266849,-222.061783
1199.738481,-9400.615463,-1378.971896,962.267725
1199.738792,-9844.739029,-1072.533697,888.247130
1199.739104,-9770.718434,-1149.143247,518.144159
1199.739415,-9770.718434,-612.876398,666.185348
1199.739727,-9474.636058,-306.438199,444.123565
1199.740038,-9400.615463,76.609550,370.102971
1199.740350,-9474.636058,766.095498,222.061783
1199.740661,-9696.697840,1072.533697,592.164754
1199.740972,-9918.759623,612.876398,592.164754
1199.741284,-8956.491898,383.047749,518.144159
1199.741595,-9104.533087,383.047749,-0.000000
1199.741907,-8586.388927,306.438199,-0.000000
1199.742218,-8586.388927,306.438199,222.061783
1199.742529,-8660.409521,-229.828649,592.164754
1199.742841,-8216.285956,-383.047749,814.226536
1199.743152,-8956.491898,-919.314598,592.164754
1199.743464,-8512.368333,-1532.190996,740.205942
1199.743775,-7846.182985,-1532.190996,740.205942
1199.744086,-7476.080014,-2145.067394,814.226536
1199.744398,-7994.224174,-1915.238745,592.164754
1199.744709,-8438.347739,-1455.581446,592.164754
1199.745020,-9400.615463,-1149.143247,518.144159
